"rt","responses","trial_type","trial_index","time_elapsed","internal_node_id","subjID","study","MID","cond","drift","key_press","respCharCode","respKey","respChoiceNum","respChoice","gems","bombs","no_reward","GemPrChosen","BombPrChosen","practice","trial_counter","WinPr_0","LosePr_0","trial_label","WinPr_1","LosePr_1","WinPr_2","LosePr_2","WinPr_3","LosePr_3","Q0","Q1","Q2","gender","age","ethnicity"
"5048","{""Q0"":""A1K8QNLYYYX21W""}","survey-text","0","5062","0.0-0.0","48094241","wem/bandit_single","A1K8QNLYYYX21W","gain","3","","","","","","","","","","","","","","","","","","","","","","","","","","",""
"2157","","text","1","8231","0.0-1.0","48094241","wem/bandit_single","A1K8QNLYYYX21W","gain","3","32","","","","","","","","","","","","","","","","","","","","","","","","","",""
"6528","","text","2","14763","0.0-2.0","48094241","wem/bandit_single","A1K8QNLYYYX21W","gain","3","32","","","","","","","","","","","","","","","","","","","","","","","","","",""
"7666","","text","3","22432","0.0-3.0","48094241","wem/bandit_single","A1K8QNLYYYX21W","gain","3","32","","","","","","","","","","","","","","","","","","","","","","","","","",""
"8766","","text","4","31215","0.0-4.0","48094241","wem/bandit_single","A1K8QNLYYYX21W","gain","3","32","","","","","","","","","","","","","","","","","","","","","","","","","",""
"240","","text","5","31461","0.0-5.0","48094241","wem/bandit_single","A1K8QNLYYYX21W","gain","3","32","","","","","","","","","","","","","","","","","","","","","","","","","",""
"332","","text","6","31796","0.0-6.0","48094241","wem/bandit_single","A1K8QNLYYYX21W","gain","3","32","","","","","","","","","","","","","","","","","","","","","","","","","",""
"353","","text","7","32162","0.0-7.0","48094241","wem/bandit_single","A1K8QNLYYYX21W","gain","3","32","","","","","","","","","","","","","","","","","","","","","","","","","",""
"331","","text","8","32498","0.0-8.0","48094241","wem/bandit_single","A1K8QNLYYYX21W","gain","3","32","","","","","","","","","","","","","","","","","","","","","","","","","",""
"391","","text","9","32895","0.0-9.0","48094241","wem/bandit_single","A1K8QNLYYYX21W","gain","3","32","","","","","","","","","","","","","","","","","","","","","","","","","",""
"391","","text","10","33289","0.0-10.0","48094241","wem/bandit_single","A1K8QNLYYYX21W","gain","3","32","","","","","","","","","","","","","","","","","","","","","","","","","",""
"638","","text","11","33939","0.0-11.0","48094241","wem/bandit_single","A1K8QNLYYYX21W","gain","3","32","","","","","","","","","","","","","","","","","","","","","","","","","",""
"1720","","bandit","12","37174","0.0-12.0-0.0","48094241","wem/bandit_single","A1K8QNLYYYX21W","gain","3","","74","J","0","img/none_selected_demo.jpg","0","0","1","0","0","true","0","0","0","","","","","","","","","","","","",""
"8168","","bandit","13","47110","0.0-13.0-0.0","48094241","wem/bandit_single","A1K8QNLYYYX21W","gain","3","","75","K","0","img/none_selected_demo.jpg","0","0","1","0","0","true","0","0","0","","","","","","","","","","","","",""
"3850","","text","14","51222","0.0-14.0","48094241","wem/bandit_single","A1K8QNLYYYX21W","gain","3","32","","","","","","","","","","","","","","","","","","","","","","","","","",""
"1733","","text","15","52959","0.0-15.0","48094241","wem/bandit_single","A1K8QNLYYYX21W","gain","3","32","","","","","","","","","","","","","","","","","","","","","","","","","",""
"427","","text","16","53389","0.0-16.0","48094241","wem/bandit_single","A1K8QNLYYYX21W","gain","3","32","","","","","","","","","","","","","","","","","","","","","","","","","",""
"398","","text","17","53805","0.0-17.0","48094241","wem/bandit_single","A1K8QNLYYYX21W","gain","3","32","","","","","","","","","","","","","","","","","","","","","","","","","",""
"1919","","bandit","18","57238","0.0-18.0-0.0","48094241","wem/bandit_single","A1K8QNLYYYX21W","gain","3","","74","J","0","img/none_selected_demo.jpg","0","0","1","0.8","0","true","0","0.8","0","80_20_practice","0.2","0","","","","","","","","","",""
"2444","","bandit","19","61468","0.0-18.0-1.0","48094241","wem/bandit_single","A1K8QNLYYYX21W","gain","3","","75","K","1","","0","0","1","0.2","0","true","0","0.8","0","80_20_practice","0.2","0","","","","","","","","","",""
"775","","bandit","20","64005","0.0-18.0-2.0","48094241","wem/bandit_single","A1K8QNLYYYX21W","gain","3","","74","J","0","img/none_selected_demo.jpg","0","0","1","0.8","0","true","0","0.8","0","80_20_practice","0.2","0","","","","","","","","","",""
"2019","","bandit","21","67805","0.0-18.0-3.0","48094241","wem/bandit_single","A1K8QNLYYYX21W","gain","3","","75","K","1","","0","0","1","0.2","0","true","0","0.8","0","80_20_practice","0.2","0","","","","","","","","","",""
"318","","bandit","22","69895","0.0-18.0-4.0","48094241","wem/bandit_single","A1K8QNLYYYX21W","gain","3","","75","K","1","","0","0","1","0.2","0","true","0","0.8","0","80_20_practice","0.2","0","","","","","","","","","",""
"0","","bandit","23","71671","0.0-18.0-5.0","48094241","wem/bandit_single","A1K8QNLYYYX21W","gain","3","","75","K","1","","0","0","1","0.2","0","true","0","0.8","0","80_20_practice","0.2","0","","","","","","","","","",""
"23","","bandit","24","73470","0.0-18.0-6.0","48094241","wem/bandit_single","A1K8QNLYYYX21W","gain","3","","74","J","0","img/none_selected_demo.jpg","1","0","0","0.8","0","true","0","0.8","0","80_20_practice","0.2","0","","","","","","","","","",""
"5","","bandit","25","75254","0.0-18.0-7.0","48094241","wem/bandit_single","A1K8QNLYYYX21W","gain","3","","74","J","0","img/none_selected_demo.jpg","0","0","1","0.8","0","true","0","0.8","0","80_20_practice","0.2","0","","","","","","","","","",""
"49","","bandit","26","77072","0.0-18.0-8.0","48094241","wem/bandit_single","A1K8QNLYYYX21W","gain","3","","75","K","1","","0","0","1","0.2","0","true","0","0.8","0","80_20_practice","0.2","0","","","","","","","","","",""
"38","","bandit","27","78894","0.0-18.0-9.0","48094241","wem/bandit_single","A1K8QNLYYYX21W","gain","3","","75","K","1","","0","0","1","0.2","0","true","0","0.8","0","80_20_practice","0.2","0","","","","","","","","","",""
"57","","bandit","28","80742","0.0-18.0-10.0","48094241","wem/bandit_single","A1K8QNLYYYX21W","gain","3","","74","J","0","img/none_selected_demo.jpg","1","0","0","0.8","0","true","0","0.8","0","80_20_practice","0.2","0","","","","","","","","","",""
"36","","bandit","29","82552","0.0-18.0-11.0","48094241","wem/bandit_single","A1K8QNLYYYX21W","gain","3","","75","K","1","","0","0","1","0.2","0","true","0","0.8","0","80_20_practice","0.2","0","","","","","","","","","",""
"191","","bandit","30","84520","0.0-18.0-12.0","48094241","wem/bandit_single","A1K8QNLYYYX21W","gain","3","","75","K","1","","1","0","0","0.2","0","true","0","0.8","0","80_20_practice","0.2","0","","","","","","","","","",""
"136","","bandit","31","86433","0.0-18.0-13.0","48094241","wem/bandit_single","A1K8QNLYYYX21W","gain","3","","74","J","0","img/none_selected_demo.jpg","1","0","0","0.8","0","true","0","0.8","0","80_20_practice","0.2","0","","","","","","","","","",""
"61","","bandit","32","88276","0.0-18.0-14.0","48094241","wem/bandit_single","A1K8QNLYYYX21W","gain","3","","74","J","0","img/none_selected_demo.jpg","1","0","0","0.8","0","true","0","0.8","0","80_20_practice","0.2","0","","","","","","","","","",""
"22","","bandit","33","90069","0.0-18.0-15.0","48094241","wem/bandit_single","A1K8QNLYYYX21W","gain","3","","74","J","0","img/none_selected_demo.jpg","1","0","0","0.8","0","true","0","0.8","0","80_20_practice","0.2","0","","","","","","","","","",""
"60","","bandit","34","91914","0.0-18.0-16.0","48094241","wem/bandit_single","A1K8QNLYYYX21W","gain","3","","74","J","0","img/none_selected_demo.jpg","1","0","0","0.8","0","true","0","0.8","0","80_20_practice","0.2","0","","","","","","","","","",""
"70","","bandit","35","93752","0.0-18.0-17.0","48094241","wem/bandit_single","A1K8QNLYYYX21W","gain","3","","74","J","0","img/none_selected_demo.jpg","1","0","0","0.8","0","true","0","0.8","0","80_20_practice","0.2","0","","","","","","","","","",""
"18","","bandit","36","95539","0.0-18.0-18.0","48094241","wem/bandit_single","A1K8QNLYYYX21W","gain","3","","74","J","0","img/none_selected_demo.jpg","0","0","1","0.8","0","true","0","0.8","0","80_20_practice","0.2","0","","","","","","","","","",""
"123","","bandit","37","97438","0.0-18.0-19.0","48094241","wem/bandit_single","A1K8QNLYYYX21W","gain","3","","75","K","1","","0","0","1","0.2","0","true","0","0.8","0","80_20_practice","0.2","0","","","","","","","","","",""
"11303","","text","38","109012","0.0-19.0","48094241","wem/bandit_single","A1K8QNLYYYX21W","gain","3","32","","","","","","","","","","","","","","","","","","","","","","","","","",""
"1328","","bandit","39","111862","0.0-20.0-0.0","48094241","wem/bandit_single","A1K8QNLYYYX21W","gain","3","","74","J","0","img/none_selected_demo.jpg","0","0","1","0","0","true","0","0","0","","0","0","","","","","","","","","",""
"132","","text","40","112263","0.0-21.0","48094241","wem/bandit_single","A1K8QNLYYYX21W","gain","3","32","","","","","","","","","","","","","","","","","","","","","","","","","",""
"242","","text","41","112516","0.0-22.0","48094241","wem/bandit_single","A1K8QNLYYYX21W","gain","3","32","","","","","","","","","","","","","","","","","","","","","","","","","",""
"292","","text","42","112817","0.0-23.0","48094241","wem/bandit_single","A1K8QNLYYYX21W","gain","3","32","","","","","","","","","","","","","","","","","","","","","","","","","",""
"234","","text","43","113055","0.0-24.0","48094241","wem/bandit_single","A1K8QNLYYYX21W","gain","3","32","","","","","","","","","","","","","","","","","","","","","","","","","",""
"239","","text","44","113299","0.0-25.0","48094241","wem/bandit_single","A1K8QNLYYYX21W","gain","3","32","","","","","","","","","","","","","","","","","","","","","","","","","",""
"245","","text","45","113558","0.0-26.0","48094241","wem/bandit_single","A1K8QNLYYYX21W","gain","3","32","","","","","","","","","","","","","","","","","","","","","","","","","",""
"220","","text","46","113785","0.0-27.0","48094241","wem/bandit_single","A1K8QNLYYYX21W","gain","3","32","","","","","","","","","","","","","","","","","","","","","","","","","",""
"233","","text","47","114024","0.0-28.0","48094241","wem/bandit_single","A1K8QNLYYYX21W","gain","3","32","","","","","","","","","","","","","","","","","","","","","","","","","",""
"432","","text","48","114472","0.0-29.0","48094241","wem/bandit_single","A1K8QNLYYYX21W","gain","3","32","","","","","","","","","","","","","","","","","","","","","","","","","",""
"253","","text","49","114736","0.0-30.0","48094241","wem/bandit_single","A1K8QNLYYYX21W","gain","3","32","","","","","","","","","","","","","","","","","","","","","","","","","",""
"210","","text","50","114957","0.0-31.0","48094241","wem/bandit_single","A1K8QNLYYYX21W","gain","3","32","","","","","","","","","","","","","","","","","","","","","","","","","",""
"110","","bandit","51","116586","0.0-32.0-0.0","48094241","wem/bandit_single","A1K8QNLYYYX21W","gain","3","","75","K","2","","1","0","0","0.6","0","true","0","0.8","0","full_practice","0.2","0","0.6","0","0.2","0","","","","","",""
"41","","bandit","52","118407","0.0-32.0-1.0","48094241","wem/bandit_single","A1K8QNLYYYX21W","gain","3","","75","K","2","","0","0","1","0.6","0","true","0","0.8","0","full_practice","0.2","0","0.6","0","0.2","0","","","","","",""
"120","","bandit","53","120299","0.0-32.0-2.0","48094241","wem/bandit_single","A1K8QNLYYYX21W","gain","3","","75","K","2","","0","0","1","0.6","0","true","0","0.8","0","full_practice","0.2","0","0.6","0","0.2","0","","","","","",""
"93","","bandit","54","122159","0.0-32.0-3.0","48094241","wem/bandit_single","A1K8QNLYYYX21W","gain","3","","74","J","1","","0","0","1","0.2","0","true","0","0.8","0","full_practice","0.2","0","0.6","0","0.2","0","","","","","",""
"26","","bandit","55","123946","0.0-32.0-4.0","48094241","wem/bandit_single","A1K8QNLYYYX21W","gain","3","","75","K","2","","0","0","1","0.6","0","true","0","0.8","0","full_practice","0.2","0","0.6","0","0.2","0","","","","","",""
"18","","bandit","56","125743","0.0-32.0-5.0","48094241","wem/bandit_single","A1K8QNLYYYX21W","gain","3","","72","H","0","img/none_selected.jpg","0","0","1","0.8","0","true","0","0.8","0","full_practice","0.2","0","0.6","0","0.2","0","","","","","",""
"42","","bandit","57","127557","0.0-32.0-6.0","48094241","wem/bandit_single","A1K8QNLYYYX21W","gain","3","","76","L","3","","1","0","0","0.2","0","true","0","0.8","0","full_practice","0.2","0","0.6","0","0.2","0","","","","","",""
"36","","bandit","58","129384","0.0-32.0-7.0","48094241","wem/bandit_single","A1K8QNLYYYX21W","gain","3","","72","H","0","img/none_selected.jpg","1","0","0","0.8","0","true","0","0.8","0","full_practice","0.2","0","0.6","0","0.2","0","","","","","",""
"6","","bandit","59","131171","0.0-32.0-8.0","48094241","wem/bandit_single","A1K8QNLYYYX21W","gain","3","","76","L","3","","0","0","1","0.2","0","true","0","0.8","0","full_practice","0.2","0","0.6","0","0.2","0","","","","","",""
"6","","bandit","60","132966","0.0-32.0-9.0","48094241","wem/bandit_single","A1K8QNLYYYX21W","gain","3","","72","H","0","img/none_selected.jpg","1","0","0","0.8","0","true","0","0.8","0","full_practice","0.2","0","0.6","0","0.2","0","","","","","",""
"40","","bandit","61","134803","0.0-32.0-10.0","48094241","wem/bandit_single","A1K8QNLYYYX21W","gain","3","","76","L","3","","0","0","1","0.2","0","true","0","0.8","0","full_practice","0.2","0","0.6","0","0.2","0","","","","","",""
"25","","bandit","62","136608","0.0-32.0-11.0","48094241","wem/bandit_single","A1K8QNLYYYX21W","gain","3","","75","K","2","","0","0","1","0.6","0","true","0","0.8","0","full_practice","0.2","0","0.6","0","0.2","0","","","","","",""
"13","","bandit","63","138397","0.0-32.0-12.0","48094241","wem/bandit_single","A1K8QNLYYYX21W","gain","3","","76","L","3","","0","0","1","0.2","0","true","0","0.8","0","full_practice","0.2","0","0.6","0","0.2","0","","","","","",""
"8","","bandit","64","140178","0.0-32.0-13.0","48094241","wem/bandit_single","A1K8QNLYYYX21W","gain","3","","72","H","0","img/none_selected.jpg","0","0","1","0.8","0","true","0","0.8","0","full_practice","0.2","0","0.6","0","0.2","0","","","","","",""
"42","","bandit","65","141991","0.0-32.0-14.0","48094241","wem/bandit_single","A1K8QNLYYYX21W","gain","3","","72","H","0","img/none_selected.jpg","1","0","0","0.8","0","true","0","0.8","0","full_practice","0.2","0","0.6","0","0.2","0","","","","","",""
"50","","bandit","66","143822","0.0-32.0-15.0","48094241","wem/bandit_single","A1K8QNLYYYX21W","gain","3","","72","H","0","img/none_selected.jpg","0","0","1","0.8","0","true","0","0.8","0","full_practice","0.2","0","0.6","0","0.2","0","","","","","",""
"55","","bandit","67","145657","0.0-32.0-16.0","48094241","wem/bandit_single","A1K8QNLYYYX21W","gain","3","","72","H","0","img/none_selected.jpg","1","0","0","0.8","0","true","0","0.8","0","full_practice","0.2","0","0.6","0","0.2","0","","","","","",""
"45","","bandit","68","147474","0.0-32.0-17.0","48094241","wem/bandit_single","A1K8QNLYYYX21W","gain","3","","76","L","3","","1","0","0","0.2","0","true","0","0.8","0","full_practice","0.2","0","0.6","0","0.2","0","","","","","",""
"40","","bandit","69","149279","0.0-32.0-18.0","48094241","wem/bandit_single","A1K8QNLYYYX21W","gain","3","","72","H","0","img/none_selected.jpg","1","0","0","0.8","0","true","0","0.8","0","full_practice","0.2","0","0.6","0","0.2","0","","","","","",""
"35","","bandit","70","151087","0.0-32.0-19.0","48094241","wem/bandit_single","A1K8QNLYYYX21W","gain","3","","76","L","3","","0","0","1","0.2","0","true","0","0.8","0","full_practice","0.2","0","0.6","0","0.2","0","","","","","",""
"5299","","text","71","156655","0.0-33.0","48094241","wem/bandit_single","A1K8QNLYYYX21W","gain","3","32","","","","","","","","","","","","","","","","","","","","","","","","","",""
"1048","","text","72","158718","0.0-34.0","48094241","wem/bandit_single","A1K8QNLYYYX21W","gain","3","32","","","","","","","","","","","","","","","","","","","","","","","","","",""
"1032","","text","73","159765","0.0-35.0","48094241","wem/bandit_single","A1K8QNLYYYX21W","gain","3","32","","","","","","","","","","","","","","","","","","","","","","","","","",""
"531","","text","74","160303","0.0-36.0","48094241","wem/bandit_single","A1K8QNLYYYX21W","gain","3","32","","","","","","","","","","","","","","","","","","","","","","","","","",""
"1338","","text","75","161651","0.0-37.0","48094241","wem/bandit_single","A1K8QNLYYYX21W","gain","3","32","","","","","","","","","","","","","","","","","","","","","","","","","",""
"474","","bandit","76","163657","0.0-38.0-0.0","48094241","wem/bandit_single","A1K8QNLYYYX21W","gain","3","","72","H","0","img/none_selected.jpg","0","0","1","0.2015711498","","false","1","0.2015711498","","main_expt","0.3417032333","","0.2211287853","","0.06813583588","","","","","","",""
"36","","bandit","77","165490","0.0-39.0-0.0","48094241","wem/bandit_single","A1K8QNLYYYX21W","gain","3","","76","L","3","","0","0","1","0.08840771113","","false","2","0.1868286341","","main_expt","0.3935143322","","0.2921894834","","0.08840771113","","","","","","",""
"40","","bandit","78","167299","0.0-40.0-0.0","48094241","wem/bandit_single","A1K8QNLYYYX21W","gain","3","","72","H","0","img/none_selected.jpg","0","0","1","0.2285659085","","false","3","0.2285659085","","main_expt","0.3247841161","","0.2712314767","","0.14311428","","","","","","",""
"36","","bandit","79","169102","0.0-41.0-0.0","48094241","wem/bandit_single","A1K8QNLYYYX21W","gain","3","","76","L","3","","0","0","1","0.1389033164","","false","4","0.2587006496","","main_expt","0.3524809632","","0.3501044345","","0.1389033164","","","","","","",""
"40","","bandit","80","170919","0.0-42.0-0.0","48094241","wem/bandit_single","A1K8QNLYYYX21W","gain","3","","76","L","3","","0","0","1","0.1064755534","","false","5","0.2238216231","","main_expt","0.3243282494","","0.3826883046","","0.1064755534","","","","","","",""
"3","","bandit","81","172697","0.0-43.0-0.0","48094241","wem/bandit_single","A1K8QNLYYYX21W","gain","3","","75","K","2","","0","0","1","0.3538977559","","false","6","0.2114086621","","main_expt","0.3856520047","","0.3538977559","","0.07607549968","","","","","","",""
"50","","bandit","82","174515","0.0-44.0-0.0","48094241","wem/bandit_single","A1K8QNLYYYX21W","gain","3","","75","K","2","","1","0","0","0.3911179113","","false","7","0.225256176","","main_expt","0.3595299576","","0.3911179113","","0.0490522351","","","","","","",""
"1","","bandit","83","176308","0.0-45.0-0.0","48094241","wem/bandit_single","A1K8QNLYYYX21W","gain","3","","74","J","1","","0","0","1","0.2908809246","","false","8","0.1920600422","","main_expt","0.2908809246","","0.3378010318","","0.04564729275","","","","","","",""
"2","","bandit","84","178085","0.0-46.0-0.0","48094241","wem/bandit_single","A1K8QNLYYYX21W","gain","3","","75","K","2","","0","0","1","0.3584091786","","false","9","0.222474992","","main_expt","0.3401169694","","0.3584091786","","0.05361883364","","","","","","",""
"42","","bandit","85","179905","0.0-47.0-0.0","48094241","wem/bandit_single","A1K8QNLYYYX21W","gain","3","","72","H","0","img/none_selected.jpg","1","0","0","0.1720297318","","false","10","0.1720297318","","main_expt","0.370347707","","0.3822252457","","0.05689605437","","","","","","",""
"50","","bandit","86","181736","0.0-48.0-0.0","48094241","wem/bandit_single","A1K8QNLYYYX21W","gain","3","","76","L","3","","0","0","1","0.05596529361","","false","11","0.1672236423","","main_expt","0.3385652673","","0.4003480189","","0.05596529361","","","","","","",""
"4","","bandit","87","183508","0.0-49.0-0.0","48094241","wem/bandit_single","A1K8QNLYYYX21W","gain","3","","75","K","2","","1","0","0","0.4035898181","","false","12","0.1908353862","","main_expt","0.3433253296","","0.4035898181","","0.07455145674","","","","","","",""
"37","","bandit","88","185318","0.0-50.0-0.0","48094241","wem/bandit_single","A1K8QNLYYYX21W","gain","3","","76","L","3","","0","0","1","0.1061797552","","false","13","0.1373256951","","main_expt","0.3306460316","","0.3939267589","","0.1061797552","","","","","","",""
"106","","bandit","89","187198","0.0-51.0-0.0","48094241","wem/bandit_single","A1K8QNLYYYX21W","gain","3","","75","K","2","","1","0","0","0.4058751809","","false","14","0.1605467602","","main_expt","0.3423394156","","0.4058751809","","0.09003395111","","","","","","",""
"46","","bandit","90","189025","0.0-52.0-0.0","48094241","wem/bandit_single","A1K8QNLYYYX21W","gain","3","","76","L","3","","0","0","1","0.09190110762","","false","15","0.1270826231","","main_expt","0.3514631564","","0.3784768297","","0.09190110762","","","","","","",""
"91","","bandit","91","190900","0.0-53.0-0.0","48094241","wem/bandit_single","A1K8QNLYYYX21W","gain","3","","75","K","2","","1","0","0","0.3742197382","","false","16","0.1659789958","","main_expt","0.3763865137","","0.3742197382","","0.1119147711","","","","","","",""
"29","","bandit","92","192699","0.0-54.0-0.0","48094241","wem/bandit_single","A1K8QNLYYYX21W","gain","3","","76","L","3","","0","0","1","0.1268228496","","false","17","0.1810296119","","main_expt","0.3613216018","","0.3738750299","","0.1268228496","","","","","","",""
"59","","bandit","93","194540","0.0-55.0-0.0","48094241","wem/bandit_single","A1K8QNLYYYX21W","gain","3","","76","L","3","","0","0","1","0.160542793","","false","18","0.2209588372","","main_expt","0.3354311471","","0.30878177","","0.160542793","","","","","","",""
"44","","bandit","94","196353","0.0-56.0-0.0","48094241","wem/bandit_single","A1K8QNLYYYX21W","gain","3","","76","L","3","","0","0","1","0.1913020378","","false","19","0.1577150754","","main_expt","0.3151580681","","0.3257740717","","0.1913020378","","","","","","",""
"44","","bandit","95","198175","0.0-57.0-0.0","48094241","wem/bandit_single","A1K8QNLYYYX21W","gain","3","","76","L","3","","0","0","1","0.2201213849","","false","20","0.2368366468","","main_expt","0.2633525784","","0.2780557495","","0.2201213849","","","","","","",""
"143","","bandit","96","200090","0.0-58.0-0.0","48094241","wem/bandit_single","A1K8QNLYYYX21W","gain","3","","74","J","1","","1","0","0","0.2730255539","","false","21","0.1692925459","","main_expt","0.2730255539","","0.2552615423","","0.1747441944","","","","","","",""
"75","","bandit","97","201944","0.0-59.0-0.0","48094241","wem/bandit_single","A1K8QNLYYYX21W","gain","3","","76","L","3","","0","0","1","0.1407764438","","false","22","0.144462955","","main_expt","0.2366183143","","0.2862558775","","0.1407764438","","","","","","",""
"150","","bandit","98","203881","0.0-60.0-0.0","48094241","wem/bandit_single","A1K8QNLYYYX21W","gain","3","","75","K","2","","0","0","1","0.290674517","","false","23","0.1928882479","","main_expt","0.2193011186","","0.290674517","","0.1444197889","","","","","","",""
"32","","bandit","99","205689","0.0-61.0-0.0","48094241","wem/bandit_single","A1K8QNLYYYX21W","gain","3","","76","L","3","","0","0","1","0.1898422889","","false","24","0.2077361259","","main_expt","0.2058852999","","0.2669553567","","0.1898422889","","","","","","",""
"134","","bandit","100","207599","0.0-62.0-0.0","48094241","wem/bandit_single","A1K8QNLYYYX21W","gain","3","","75","K","2","","0","0","1","0.2134469473","","false","25","0.2580980749","","main_expt","0.2377147794","","0.2134469473","","0.2319991336","","","","","","",""
"138","","bandit","101","209515","0.0-63.0-0.0","48094241","wem/bandit_single","A1K8QNLYYYX21W","gain","3","","76","L","3","","0","0","1","0.2140617454","","false","26","0.2593960467","","main_expt","0.3017638279","","0.2027981442","","0.2140617454","","","","","","",""
"33","","bandit","102","211335","0.0-64.0-0.0","48094241","wem/bandit_single","A1K8QNLYYYX21W","gain","3","","72","H","0","img/none_selected.jpg","0","0","1","0.2913294918","","false","27","0.2913294918","","main_expt","0.2647551657","","0.1669761534","","0.2186733942","","","","","","",""
"128","","bandit","103","213229","0.0-65.0-0.0","48094241","wem/bandit_single","A1K8QNLYYYX21W","gain","3","","76","L","3","","1","0","0","0.2573772923","","false","28","0.2838721205","","main_expt","0.2864353885","","0.1301617017","","0.2573772923","","","","","","",""
"91","","bandit","104","215105","0.0-66.0-0.0","48094241","wem/bandit_single","A1K8QNLYYYX21W","gain","3","","76","L","3","","0","0","1","0.2563684882","","false","29","0.2225595658","","main_expt","0.2669447337","","0.1540227795","","0.2563684882","","","","","","",""
"16","","bandit","105","216897","0.0-67.0-0.0","48094241","wem/bandit_single","A1K8QNLYYYX21W","gain","3","","72","H","0","img/none_selected.jpg","1","0","0","0.2450998207","","false","30","0.2450998207","","main_expt","0.242519946","","0.1290956128","","0.3180657859","","","","","","",""
"53","","bandit","106","218732","0.0-68.0-0.0","48094241","wem/bandit_single","A1K8QNLYYYX21W","gain","3","","75","K","2","","0","0","1","0.157476084","","false","31","0.2358374841","","main_expt","0.1808952067","","0.157476084","","0.3391977199","","","","","","",""
"43","","bandit","107","220557","0.0-69.0-0.0","48094241","wem/bandit_single","A1K8QNLYYYX21W","gain","3","","76","L","3","","0","0","1","0.3655242212","","false","32","0.2465538883","","main_expt","0.1490402933","","0.1667461438","","0.3655242212","","","","","","",""
"73","","bandit","108","222416","0.0-70.0-0.0","48094241","wem/bandit_single","A1K8QNLYYYX21W","gain","3","","75","K","2","","0","0","1","0.1698659255","","false","33","0.2479029149","","main_expt","0.1607825008","","0.1698659255","","0.3476833293","","","","","","",""
"89","","bandit","109","224285","0.0-71.0-0.0","48094241","wem/bandit_single","A1K8QNLYYYX21W","gain","3","","72","H","0","img/none_selected.jpg","0","0","1","0.1813792252","","false","34","0.1813792252","","main_expt","0.2019438485","","0.1830702822","","0.3287357547","","","","","","",""
"60","","bandit","110","226115","0.0-72.0-0.0","48094241","wem/bandit_single","A1K8QNLYYYX21W","gain","3","","72","H","0","img/none_selected.jpg","0","0","1","0.1507873856","","false","35","0.1507873856","","main_expt","0.1187506792","","0.1648441896","","0.3568635533","","","","","","",""
"1","","bandit","111","227895","0.0-73.0-0.0","48094241","wem/bandit_single","A1K8QNLYYYX21W","gain","3","","72","H","0","img/none_selected.jpg","1","0","0","0.185146395","","false","36","0.185146395","","main_expt","0.107122158","","0.1702375356","","0.2559818432","","","","","","",""
"5","","bandit","112","229685","0.0-74.0-0.0","48094241","wem/bandit_single","A1K8QNLYYYX21W","gain","3","","76","L","3","","0","0","1","0.2095103509","","false","37","0.1995500277","","main_expt","0.1462043769","","0.1248493821","","0.2095103509","","","","","","",""
"95","","bandit","113","231567","0.0-75.0-0.0","48094241","wem/bandit_single","A1K8QNLYYYX21W","gain","3","","75","K","2","","0","0","1","0.1806095344","","false","38","0.2324476024","","main_expt","0.1562864446","","0.1806095344","","0.1824107212","","","","","","",""
"108","","bandit","114","233443","0.0-76.0-0.0","48094241","wem/bandit_single","A1K8QNLYYYX21W","gain","3","","76","L","3","","0","0","1","0.180532013","","false","39","0.2374336796","","main_expt","0.1425148763","","0.1636381498","","0.180532013","","","","","","",""
"157","","bandit","115","235378","0.0-77.0-0.0","48094241","wem/bandit_single","A1K8QNLYYYX21W","gain","3","","76","L","3","","0","0","1","0.209403608","","false","40","0.1871034738","","main_expt","0.1332413707","","0.128328165","","0.209403608","","","","","","",""
"26","","bandit","116","237177","0.0-78.0-0.0","48094241","wem/bandit_single","A1K8QNLYYYX21W","gain","3","","75","K","2","","0","0","1","0.1128848486","","false","41","0.1923798107","","main_expt","0.170838957","","0.1128848486","","0.1790729352","","","","","","",""
"10","","bandit","117","238963","0.0-79.0-0.0","48094241","wem/bandit_single","A1K8QNLYYYX21W","gain","3","","74","J","1","","0","0","1","0.221577246","","false","42","0.2175202152","","main_expt","0.221577246","","0.1024028154","","0.1586268334","","","","","","",""
"12","","bandit","118","240741","0.0-80.0-0.0","48094241","wem/bandit_single","A1K8QNLYYYX21W","gain","3","","75","K","2","","0","0","1","0.1842117743","","false","43","0.199004634","","main_expt","0.2937465132","","0.1842117743","","0.1953085145","","","","","","",""
"84","","bandit","119","242602","0.0-81.0-0.0","48094241","wem/bandit_single","A1K8QNLYYYX21W","gain","3","","75","K","2","","0","0","1","0.2398699605","","false","44","0.1979694218","","main_expt","0.2473378206","","0.2398699605","","0.229373846","","","","","","",""
"59","","bandit","120","244434","0.0-82.0-0.0","48094241","wem/bandit_single","A1K8QNLYYYX21W","gain","3","","76","L","3","","0","0","1","0.2387173179","","false","45","0.1992427108","","main_expt","0.2911711657","","0.2666943954","","0.2387173179","","","","","","",""
"124","","bandit","121","246350","0.0-83.0-0.0","48094241","wem/bandit_single","A1K8QNLYYYX21W","gain","3","","75","K","2","","0","0","1","0.3187479261","","false","46","0.2240306516","","main_expt","0.2520057509","","0.3187479261","","0.2142046797","","","","","","",""
"312","","bandit","122","248436","0.0-84.0-0.0","48094241","wem/bandit_single","A1K8QNLYYYX21W","gain","3","","76","L","3","","0","0","1","0.2454335886","","false","47","0.2065012218","","main_expt","0.2527148282","","0.3190608455","","0.2454335886","","","","","","",""
"2","","bandit","123","250233","0.0-85.0-0.0","48094241","wem/bandit_single","A1K8QNLYYYX21W","gain","3","","75","K","2","","0","0","1","0.3135096665","","false","48","0.1926440163","","main_expt","0.273334487","","0.3135096665","","0.2810950816","","","","","","",""
"24","","bandit","124","252018","0.0-86.0-0.0","48094241","wem/bandit_single","A1K8QNLYYYX21W","gain","3","","74","J","1","","0","0","1","0.3181736471","","false","49","0.1670810943","","main_expt","0.3181736471","","0.3341811191","","0.2547597437","","","","","","",""
"27","","bandit","125","253832","0.0-87.0-0.0","48094241","wem/bandit_single","A1K8QNLYYYX21W","gain","3","","76","L","3","","1","0","0","0.224323175","","false","50","0.1198069869","","main_expt","0.3806153608","","0.3459923598","","0.224323175","","","","","","",""
"30","","bandit","126","255652","0.0-88.0-0.0","48094241","wem/bandit_single","A1K8QNLYYYX21W","gain","3","","76","L","3","","1","0","0","0.2755477452","","false","51","0.103394302","","main_expt","0.3949296296","","0.3331953563","","0.2755477452","","","","","","",""
"35","","bandit","127","257455","0.0-89.0-0.0","48094241","wem/bandit_single","A1K8QNLYYYX21W","gain","3","","75","K","2","","1","0","0","0.3915962888","","false","52","0.1018912343","","main_expt","0.3544293331","","0.3915962888","","0.3022170302","","","","","","",""
"2","","bandit","128","259253","0.0-90.0-0.0","48094241","wem/bandit_single","A1K8QNLYYYX21W","gain","3","","75","K","2","","0","0","1","0.3984086051","","false","53","0.07233269407","","main_expt","0.3007967805","","0.3984086051","","0.2886203433","","","","","","",""
"77","","bandit","129","261115","0.0-91.0-0.0","48094241","wem/bandit_single","A1K8QNLYYYX21W","gain","3","","76","L","3","","0","0","1","0.3072524501","","false","54","0.09210147888","","main_expt","0.3376398899","","0.4181407331","","0.3072524501","","","","","","",""
"52","","bandit","130","262943","0.0-92.0-0.0","48094241","wem/bandit_single","A1K8QNLYYYX21W","gain","3","","72","H","0","img/none_selected.jpg","0","0","1","0.08866102842","","false","55","0.08866102842","","main_expt","0.3625264345","","0.3964386999","","0.3847595325","","","","","","",""
"17","","bandit","131","264740","0.0-93.0-0.0","48094241","wem/bandit_single","A1K8QNLYYYX21W","gain","3","","72","H","0","img/none_selected.jpg","0","0","1","0.1208391037","","false","56","0.1208391037","","main_expt","0.313137485","","0.4043277199","","0.4008313728","","","","","","",""
"67","","bandit","132","266587","0.0-94.0-0.0","48094241","wem/bandit_single","A1K8QNLYYYX21W","gain","3","","75","K","2","","0","0","1","0.3232173094","","false","57","0.1429525169","","main_expt","0.3287581384","","0.3232173094","","0.3763680666","","","","","","",""
"14","","bandit","133","268386","0.0-95.0-0.0","48094241","wem/bandit_single","A1K8QNLYYYX21W","gain","3","","74","J","1","","1","0","0","0.2891608333","","false","58","0.1800007821","","main_expt","0.2891608333","","0.3352595409","","0.3630839511","","","","","","",""
"46","","bandit","134","270224","0.0-96.0-0.0","48094241","wem/bandit_single","A1K8QNLYYYX21W","gain","3","","72","H","0","img/none_selected.jpg","0","0","1","0.1168587732","","false","59","0.1168587732","","main_expt","0.2228703537","","0.3423270404","","0.3166885591","","","","","","",""
"2","","bandit","135","271998","0.0-97.0-0.0","48094241","wem/bandit_single","A1K8QNLYYYX21W","gain","3","","76","L","3","","0","0","1","0.3339947878","","false","60","0.08966050757","","main_expt","0.2694349638","","0.3326485747","","0.3339947878","","","","","","",""
"25","","bandit","136","273807","0.0-98.0-0.0","48094241","wem/bandit_single","A1K8QNLYYYX21W","gain","3","","72","H","0","img/none_selected.jpg","0","0","1","0.06827284498","","false","61","0.06827284498","","main_expt","0.3291501217","","0.3239501662","","0.3559621948","","","","","","",""
"91","","bandit","137","275685","0.0-99.0-0.0","48094241","wem/bandit_single","A1K8QNLYYYX21W","gain","3","","75","K","2","","0","0","1","0.3140158541","","false","62","0.0870528816","","main_expt","0.3516688484","","0.3140158541","","0.3565904981","","","","","","",""
"12","","bandit","138","277474","0.0-100.0-0.0","48094241","wem/bandit_single","A1K8QNLYYYX21W","gain","3","","75","K","2","","1","0","0","0.2896297009","","false","63","0.07384780705","","main_expt","0.3662001291","","0.2896297009","","0.3766945074","","","","","","",""
"35","","bandit","139","279294","0.0-101.0-0.0","48094241","wem/bandit_single","A1K8QNLYYYX21W","gain","3","","72","H","0","img/none_selected.jpg","0","0","1","0.09386223648","","false","64","0.09386223648","","main_expt","0.3986377969","","0.2848001348","","0.4038560084","","","","","","",""
"32","","bandit","140","281105","0.0-102.0-0.0","48094241","wem/bandit_single","A1K8QNLYYYX21W","gain","3","","72","H","0","img/none_selected.jpg","0","0","1","0.08656227431","","false","65","0.08656227431","","main_expt","0.4284050928","","0.2621939157","","0.4081833366","","","","","","",""
"61","","bandit","141","282944","0.0-103.0-0.0","48094241","wem/bandit_single","A1K8QNLYYYX21W","gain","3","","75","K","2","","0","0","1","0.2218985249","","false","66","0.1254260964","","main_expt","0.4295130084","","0.2218985249","","0.4111507483","","","","","","",""
"15","","bandit","142","284729","0.0-104.0-0.0","48094241","wem/bandit_single","A1K8QNLYYYX21W","gain","3","","72","H","0","img/none_selected.jpg","0","0","1","0.0848557225","","false","67","0.0848557225","","main_expt","0.4192215244","","0.2203007364","","0.3731562577","","","","","","",""
"43","","bandit","143","286555","0.0-105.0-0.0","48094241","wem/bandit_single","A1K8QNLYYYX21W","gain","3","","72","H","0","img/none_selected.jpg","0","0","1","0.1277621339","","false","68","0.1277621339","","main_expt","0.4617344849","","0.2163243509","","0.3471707475","","","","","","",""
"46","","bandit","144","288376","0.0-106.0-0.0","48094241","wem/bandit_single","A1K8QNLYYYX21W","gain","3","","72","H","0","img/none_selected.jpg","1","0","0","0.1425885083","","false","69","0.1425885083","","main_expt","0.4496684627","","0.1552451017","","0.3163780081","","","","","","",""
"28","","bandit","145","290178","0.0-107.0-0.0","48094241","wem/bandit_single","A1K8QNLYYYX21W","gain","3","","72","H","0","img/none_selected.jpg","0","0","1","0.1765985622","","false","70","0.1765985622","","main_expt","0.4572021165","","0.144295094","","0.2872849644","","","","","","",""
"1","","bandit","146","291964","0.0-108.0-0.0","48094241","wem/bandit_single","A1K8QNLYYYX21W","gain","3","","74","J","1","","1","0","0","0.457930868","","false","71","0.1520060204","","main_expt","0.457930868","","0.1823242822","","0.300298776","","","","","","",""
"46","","bandit","147","293795","0.0-109.0-0.0","48094241","wem/bandit_single","A1K8QNLYYYX21W","gain","3","","72","H","0","img/none_selected.jpg","0","0","1","0.09933583891","","false","72","0.09933583891","","main_expt","0.4687468973","","0.144478384","","0.3280152389","","","","","","",""
"123","","bandit","148","295696","0.0-110.0-0.0","48094241","wem/bandit_single","A1K8QNLYYYX21W","gain","3","","75","K","2","","0","0","1","0.1420634247","","false","73","0.1087995109","","main_expt","0.4707862587","","0.1420634247","","0.2758062481","","","","","","",""
"17","","bandit","149","297506","0.0-111.0-0.0","48094241","wem/bandit_single","A1K8QNLYYYX21W","gain","3","","76","L","3","","1","0","0","0.3370537031","","false","74","0.150223613","","main_expt","0.4602293826","","0.1358649702","","0.3370537031","","","","","","",""
"43","","bandit","150","299328","0.0-112.0-0.0","48094241","wem/bandit_single","A1K8QNLYYYX21W","gain","3","","76","L","3","","0","0","1","0.3323795279","","false","75","0.1945690608","","main_expt","0.439891953","","0.09700523291","","0.3323795279","","","","","","",""
"107","","bandit","151","301207","0.0-113.0-0.0","48094241","wem/bandit_single","A1K8QNLYYYX21W","gain","3","","75","K","2","","0","0","1","0.07829726083","","false","76","0.2454913388","","main_expt","0.4424180744","","0.07829726083","","0.3822428931","","","","","","",""
"78","","bandit","152","303062","0.0-114.0-0.0","48094241","wem/bandit_single","A1K8QNLYYYX21W","gain","3","","75","K","2","","0","0","1","0.08460916486","","false","77","0.2181262922","","main_expt","0.4066280348","","0.08460916486","","0.4136836411","","","","","","",""
"18","","bandit","153","304859","0.0-115.0-0.0","48094241","wem/bandit_single","A1K8QNLYYYX21W","gain","3","","75","K","2","","0","0","1","0.0875988483","","false","78","0.2500794828","","main_expt","0.3969262671","","0.0875988483","","0.4505469687","","","","","","",""
"133","","bandit","154","306775","0.0-116.0-0.0","48094241","wem/bandit_single","A1K8QNLYYYX21W","gain","3","","76","L","3","","1","0","0","0.4251749511","","false","79","0.2021405589","","main_expt","0.4119020232","","0.06491107755","","0.4251749511","","","","","","",""
"39","","bandit","155","308607","0.0-117.0-0.0","48094241","wem/bandit_single","A1K8QNLYYYX21W","gain","3","","72","H","0","img/none_selected.jpg","1","0","0","0.1654874554","","false","80","0.1654874554","","main_expt","0.3797331509","","0.1021818806","","0.3976376265","","","","","","",""
"62","","bandit","156","310452","0.0-118.0-0.0","48094241","wem/bandit_single","A1K8QNLYYYX21W","gain","3","","75","K","2","","0","0","1","0.07175209231","","false","81","0.1281487551","","main_expt","0.4024270851","","0.07175209231","","0.409462467","","","","","","",""
"24","","bandit","157","312251","0.0-119.0-0.0","48094241","wem/bandit_single","A1K8QNLYYYX21W","gain","3","","72","H","0","img/none_selected.jpg","0","0","1","0.1167166884","","false","82","0.1167166884","","main_expt","0.3976574516","","0.04651379375","","0.4541942335","","","","","","",""
"4","","bandit","158","314045","0.0-120.0-0.0","48094241","wem/bandit_single","A1K8QNLYYYX21W","gain","3","","75","K","2","","0","0","1","0.03148502893","","false","83","0.1426109787","","main_expt","0.3749492802","","0.03148502893","","0.4452160763","","","","","","",""
"61","","bandit","159","315890","0.0-121.0-0.0","48094241","wem/bandit_single","A1K8QNLYYYX21W","gain","3","","72","H","0","img/none_selected.jpg","0","0","1","0.121887906","","false","84","0.121887906","","main_expt","0.4021863709","","0.05186863446","","0.438985114","","","","","","",""
"47","","bandit","160","317722","0.0-122.0-0.0","48094241","wem/bandit_single","A1K8QNLYYYX21W","gain","3","","72","H","0","img/none_selected.jpg","0","0","1","0.1361926199","","false","85","0.1361926199","","main_expt","0.3624574422","","0.04986731509","","0.4331173667","","","","","","",""
"7","","bandit","161","319511","0.0-123.0-0.0","48094241","wem/bandit_single","A1K8QNLYYYX21W","gain","3","","75","K","2","","0","0","1","0.05891938772","","false","86","0.1287871674","","main_expt","0.387939101","","0.05891938772","","0.447547065","","","","","","",""
"91","","bandit","162","321377","0.0-124.0-0.0","48094241","wem/bandit_single","A1K8QNLYYYX21W","gain","3","","75","K","2","","0","0","1","0.06619539979","","false","87","0.13112728","","main_expt","0.3949621072","","0.06619539979","","0.4451560311","","","","","","",""
"139","","bandit","163","323289","0.0-125.0-0.0","48094241","wem/bandit_single","A1K8QNLYYYX21W","gain","3","","75","K","2","","0","0","1","0.03553047297","","false","88","0.1385028762","","main_expt","0.3789082299","","0.03553047297","","0.4010299359","","","","","","",""
"59","","bandit","164","325145","0.0-126.0-0.0","48094241","wem/bandit_single","A1K8QNLYYYX21W","gain","3","","76","L","3","","0","0","1","0.430672582","","false","89","0.1377901848","","main_expt","0.3718344374","","0.03983007571","","0.430672582","","","","","","",""
"57","","bandit","165","326978","0.0-127.0-0.0","48094241","wem/bandit_single","A1K8QNLYYYX21W","gain","3","","76","L","3","","1","0","0","0.4063924327","","false","90","0.1642812903","","main_expt","0.4341719303","","0.02618566652","","0.4063924327","","","","","","",""
"92","","bandit","166","328844","0.0-128.0-0.0","48094241","wem/bandit_single","A1K8QNLYYYX21W","gain","3","","76","L","3","","0","0","1","0.4115689239","","false","91","0.2115922749","","main_expt","0.4538289377","","0.03325063158","","0.4115689239","","","","","","",""
"149","","bandit","167","330770","0.0-129.0-0.0","48094241","wem/bandit_single","A1K8QNLYYYX21W","gain","3","","76","L","3","","1","0","0","0.4195244723","","false","92","0.1819790886","","main_expt","0.4508501544","","0.02042352937","","0.4195244723","","","","","","",""
"48","","bandit","168","332603","0.0-130.0-0.0","48094241","wem/bandit_single","A1K8QNLYYYX21W","gain","3","","76","L","3","","0","0","1","0.3976010387","","false","93","0.2039146085","","main_expt","0.4548943395","","0.01887694535","","0.3976010387","","","","","","",""
"61","","bandit","169","334450","0.0-131.0-0.0","48094241","wem/bandit_single","A1K8QNLYYYX21W","gain","3","","75","K","2","","0","0","1","0.02367451168","","false","94","0.2307813202","","main_expt","0.4646086811","","0.02367451168","","0.3668479885","","","","","","",""
"76","","bandit","170","336312","0.0-132.0-0.0","48094241","wem/bandit_single","A1K8QNLYYYX21W","gain","3","","76","L","3","","0","0","1","0.3332342888","","false","95","0.2213313998","","main_expt","0.467541367","","0.02723032617","","0.3332342888","","","","","","",""
"48","","bandit","171","338127","0.0-133.0-0.0","48094241","wem/bandit_single","A1K8QNLYYYX21W","gain","3","","76","L","3","","0","0","1","0.2884910782","","false","96","0.2568515079","","main_expt","0.4642351642","","0.02648196594","","0.2884910782","","","","","","",""
"4","","bandit","172","339907","0.0-134.0-0.0","48094241","wem/bandit_single","A1K8QNLYYYX21W","gain","3","","75","K","2","","0","0","1","0.01585024216","","false","97","0.2699845376","","main_expt","0.4467755515","","0.01585024216","","0.2656891479","","","","","","",""
"60","","bandit","173","341756","0.0-135.0-0.0","48094241","wem/bandit_single","A1K8QNLYYYX21W","gain","3","","72","H","0","img/none_selected.jpg","0","0","1","0.2797451528","","false","98","0.2797451528","","main_expt","0.4056350907","","0.01169409205","","0.2595300749","","","","","","",""
"138","","bandit","174","343678","0.0-136.0-0.0","48094241","wem/bandit_single","A1K8QNLYYYX21W","gain","3","","76","L","3","","0","0","1","0.2519900202","","false","99","0.3187705275","","main_expt","0.339742379","","0.01197913588","","0.2519900202","","","","","","",""
"39","","bandit","175","345497","0.0-137.0-0.0","48094241","wem/bandit_single","A1K8QNLYYYX21W","gain","3","","72","H","0","img/none_selected.jpg","1","0","0","0.3570824245","","false","100","0.3570824245","","main_expt","0.3381167522","","0.01759776774","","0.2523409295","","","","","","",""
"147","","bandit","176","347413","0.0-138.0-0.0","48094241","wem/bandit_single","A1K8QNLYYYX21W","gain","3","","76","L","3","","0","0","1","0.2146893193","","false","101","0.3489468272","","main_expt","0.2803213009","","0.04295615511","","0.2146893193","","","","","","",""
"10","","bandit","177","349204","0.0-139.0-0.0","48094241","wem/bandit_single","A1K8QNLYYYX21W","gain","3","","75","K","2","","0","0","1","0.06572998715","","false","102","0.3015799625","","main_expt","0.317644571","","0.06572998715","","0.1843767259","","","","","","",""
"29","","bandit","178","351002","0.0-140.0-0.0","48094241","wem/bandit_single","A1K8QNLYYYX21W","gain","3","","72","H","0","img/none_selected.jpg","0","0","1","0.2656450655","","false","103","0.2656450655","","main_expt","0.3024927185","","0.1043212589","","0.2108432206","","","","","","",""
"77","","bandit","179","352859","0.0-141.0-0.0","48094241","wem/bandit_single","A1K8QNLYYYX21W","gain","3","","75","K","2","","0","0","1","0.07063930719","","false","104","0.261155182","","main_expt","0.3339077782","","0.07063930719","","0.26792014","","","","","","",""
"40","","bandit","180","354696","0.0-142.0-0.0","48094241","wem/bandit_single","A1K8QNLYYYX21W","gain","3","","76","L","3","","0","0","1","0.3302583292","","false","105","0.2794756432","","main_expt","0.2966783269","","0.09992353171","","0.3302583292","","","","","","",""
"60","","bandit","181","356540","0.0-143.0-0.0","48094241","wem/bandit_single","A1K8QNLYYYX21W","gain","3","","72","H","0","img/none_selected.jpg","1","0","0","0.2719827923","","false","106","0.2719827923","","main_expt","0.3722996478","","0.1074399807","","0.3099187861","","","","","","",""
"14","","bandit","182","358337","0.0-144.0-0.0","48094241","wem/bandit_single","A1K8QNLYYYX21W","gain","3","","74","J","1","","0","0","1","0.3764369168","","false","107","0.2614179637","","main_expt","0.3764369168","","0.1398361659","","0.3526315454","","","","","","",""
"11","","bandit","183","360133","0.0-145.0-0.0","48094241","wem/bandit_single","A1K8QNLYYYX21W","gain","3","","74","J","1","","0","0","1","0.3221289315","","false","108","0.3154283329","","main_expt","0.3221289315","","0.1503356919","","0.3741147492","","","","","","",""
"88","","bandit","184","362037","0.0-146.0-0.0","48094241","wem/bandit_single","A1K8QNLYYYX21W","gain","3","","76","L","3","","1","0","0","0.3775387023","","false","109","0.3965133924","","main_expt","0.3394272446","","0.1554773292","","0.3775387023","","","","","","",""
"10","","bandit","185","363818","0.0-147.0-0.0","48094241","wem/bandit_single","A1K8QNLYYYX21W","gain","3","","75","K","2","","1","0","0","0.1862379276","","false","110","0.4096679205","","main_expt","0.3108194313","","0.1862379276","","0.3603169275","","","","","","",""
"15","","bandit","186","365624","0.0-148.0-0.0","48094241","wem/bandit_single","A1K8QNLYYYX21W","gain","3","","75","K","2","","1","0","0","0.2096222548","","false","111","0.4107972434","","main_expt","0.2754643313","","0.2096222548","","0.3492898999","","","","","","",""
"60","","bandit","187","367467","0.0-149.0-0.0","48094241","wem/bandit_single","A1K8QNLYYYX21W","gain","3","","76","L","3","","1","0","0","0.3332089306","","false","112","0.4229867006","","main_expt","0.2906444469","","0.2432579143","","0.3332089306","","","","","","",""
"61","","bandit","188","369312","0.0-150.0-0.0","48094241","wem/bandit_single","A1K8QNLYYYX21W","gain","3","","72","H","0","img/none_selected.jpg","0","0","1","0.4045712819","","false","113","0.4045712819","","main_expt","0.3006146448","","0.1721880852","","0.3450976056","","","","","","",""
"32","","bandit","189","371125","0.0-151.0-0.0","48094241","wem/bandit_single","A1K8QNLYYYX21W","gain","3","","74","J","1","","0","0","1","0.2668468313","","false","114","0.3821667802","","main_expt","0.2668468313","","0.2081909003","","0.3725565121","","","","","","",""
"51","","bandit","190","372958","0.0-152.0-0.0","48094241","wem/bandit_single","A1K8QNLYYYX21W","gain","3","","75","K","2","","1","0","0","0.272711811","","false","115","0.3342096713","","main_expt","0.3032344037","","0.272711811","","0.3789561431","","","","","","",""
"167","","bandit","191","374907","0.0-153.0-0.0","48094241","wem/bandit_single","A1K8QNLYYYX21W","gain","3","","76","L","3","","1","0","0","0.3829881954","","false","116","0.3475890958","","main_expt","0.279678247","","0.2801201945","","0.3829881954","","","","","","",""
"56","","bandit","192","376740","0.0-154.0-0.0","48094241","wem/bandit_single","A1K8QNLYYYX21W","gain","3","","72","H","0","img/none_selected.jpg","0","0","1","0.3545652452","","false","117","0.3545652452","","main_expt","0.2762620489","","0.3615324036","","0.3872477479","","","","","","",""
"17","","bandit","193","378525","0.0-155.0-0.0","48094241","wem/bandit_single","A1K8QNLYYYX21W","gain","3","","72","H","0","img/none_selected.jpg","0","0","1","0.3542043025","","false","118","0.3542043025","","main_expt","0.2880572365","","0.3615177178","","0.3952603005","","","","","","",""
"77","","bandit","194","380374","0.0-156.0-0.0","48094241","wem/bandit_single","A1K8QNLYYYX21W","gain","3","","72","H","0","img/none_selected.jpg","0","0","1","0.3471352845","","false","119","0.3471352845","","main_expt","0.2807620685","","0.3875935955","","0.3838673248","","","","","","",""
"76","","bandit","195","382247","0.0-157.0-0.0","48094241","wem/bandit_single","A1K8QNLYYYX21W","gain","3","","72","H","0","img/none_selected.jpg","0","0","1","0.3343169965","","false","120","0.3343169965","","main_expt","0.2811576832","","0.4052723714","","0.4148997213","","","","","","",""
"116","","bandit","196","384144","0.0-158.0-0.0","48094241","wem/bandit_single","A1K8QNLYYYX21W","gain","3","","76","L","3","","1","0","0","0.4184259471","","false","121","0.3595120763","","main_expt","0.3016455194","","0.44462971","","0.4184259471","","","","","","",""
"166","","bandit","197","386093","0.0-159.0-0.0","48094241","wem/bandit_single","A1K8QNLYYYX21W","gain","3","","75","K","2","","0","0","1","0.4338931322","","false","122","0.3296914373","","main_expt","0.3161331551","","0.4338931322","","0.4271141924","","","","","","",""
"53","","bandit","198","387925","0.0-160.0-0.0","48094241","wem/bandit_single","A1K8QNLYYYX21W","gain","3","","75","K","2","","0","0","1","0.4248885798","","false","123","0.3369167856","","main_expt","0.2882518765","","0.4248885798","","0.3994299035","","","","","","",""
"71","","bandit","199","389773","0.0-161.0-0.0","48094241","wem/bandit_single","A1K8QNLYYYX21W","gain","3","","76","L","3","","0","0","1","0.4319292606","","false","124","0.3181772373","","main_expt","0.3426101702","","0.3773411534","","0.4319292606","","","","","","",""
"26","","bandit","200","391578","0.0-162.0-0.0","48094241","wem/bandit_single","A1K8QNLYYYX21W","gain","3","","76","L","3","","0","0","1","0.4228137624","","false","125","0.3285823626","","main_expt","0.3623178769","","0.3322500489","","0.4228137624","","","","","","",""
"62","","bandit","201","393435","0.0-163.0-0.0","48094241","wem/bandit_single","A1K8QNLYYYX21W","gain","3","","75","K","2","","0","0","1","0.3742157909","","false","126","0.3203566048","","main_expt","0.3487147863","","0.3742157909","","0.4445824992","","","","","","",""
"18","","bandit","202","395219","0.0-164.0-0.0","48094241","wem/bandit_single","A1K8QNLYYYX21W","gain","3","","75","K","2","","0","0","1","0.3851047317","","false","127","0.3852478983","","main_expt","0.4137567253","","0.3851047317","","0.4525048151","","","","","","",""
"48","","bandit","203","397058","0.0-165.0-0.0","48094241","wem/bandit_single","A1K8QNLYYYX21W","gain","3","","76","L","3","","1","0","0","0.4692783601","","false","128","0.3389365807","","main_expt","0.3814482247","","0.4043255462","","0.4692783601","","","","","","",""
"43","","bandit","204","398891","0.0-166.0-0.0","48094241","wem/bandit_single","A1K8QNLYYYX21W","gain","3","","75","K","2","","0","0","1","0.4123407707","","false","129","0.3137404055","","main_expt","0.4168244781","","0.4123407707","","0.4168961411","","","","","","",""
"4","","bandit","205","400674","0.0-167.0-0.0","48094241","wem/bandit_single","A1K8QNLYYYX21W","gain","3","","76","L","3","","0","0","1","0.3790243023","","false","130","0.3258581953","","main_expt","0.4365918222","","0.4046971735","","0.3790243023","","","","","","",""
"55","","bandit","206","402510","0.0-168.0-0.0","48094241","wem/bandit_single","A1K8QNLYYYX21W","gain","3","","75","K","2","","0","0","1","0.4461276952","","false","131","0.2883577813","","main_expt","0.4389841863","","0.4461276952","","0.4049885765","","","","","","",""
"107","","bandit","207","404388","0.0-169.0-0.0","48094241","wem/bandit_single","A1K8QNLYYYX21W","gain","3","","76","L","3","","0","0","1","0.4146365962","","false","132","0.3560589507","","main_expt","0.4152650591","","0.4611465992","","0.4146365962","","","","","","",""
"92","","bandit","208","406275","0.0-170.0-0.0","48094241","wem/bandit_single","A1K8QNLYYYX21W","gain","3","","74","J","1","","0","0","1","0.4542457407","","false","133","0.358394082","","main_expt","0.4542457407","","0.4798080461","","0.3895917514","","","","","","",""
"139","","bandit","209","408204","0.0-171.0-0.0","48094241","wem/bandit_single","A1K8QNLYYYX21W","gain","3","","75","K","2","","1","0","0","0.4536835414","","false","134","0.3605573227","","main_expt","0.4598844585","","0.4536835414","","0.4031985028","","","","","","",""
"108","","bandit","210","410097","0.0-172.0-0.0","48094241","wem/bandit_single","A1K8QNLYYYX21W","gain","3","","75","K","2","","0","0","1","0.4297718384","","false","135","0.3695471057","","main_expt","0.4690925783","","0.4297718384","","0.3950250086","","","","","","",""
"124","","bandit","211","411995","0.0-173.0-0.0","48094241","wem/bandit_single","A1K8QNLYYYX21W","gain","3","","76","L","3","","1","0","0","0.3958408827","","false","136","0.4060603524","","main_expt","0.4382452635","","0.4047290025","","0.3958408827","","","","","","",""
"171","","bandit","212","413954","0.0-174.0-0.0","48094241","wem/bandit_single","A1K8QNLYYYX21W","gain","3","","76","L","3","","1","0","0","0.4025558346","","false","137","0.3977168634","","main_expt","0.4469583278","","0.4062789173","","0.4025558346","","","","","","",""
"63","","bandit","213","415797","0.0-175.0-0.0","48094241","wem/bandit_single","A1K8QNLYYYX21W","gain","3","","76","L","3","","0","0","1","0.3901350715","","false","138","0.3884520433","","main_expt","0.44739429","","0.3893267926","","0.3901350715","","","","","","",""
"68","","bandit","214","417653","0.0-176.0-0.0","48094241","wem/bandit_single","A1K8QNLYYYX21W","gain","3","","76","L","3","","1","0","0","0.4069565875","","false","139","0.3517782966","","main_expt","0.4329330235","","0.3355070849","","0.4069565875","","","","","","",""
"76","","bandit","215","419512","0.0-177.0-0.0","48094241","wem/bandit_single","A1K8QNLYYYX21W","gain","3","","75","K","2","","1","0","0","0.3033729388","","false","140","0.3147433726","","main_expt","0.4427321083","","0.3033729388","","0.4384632306","","","","","","",""
"62","","bandit","216","421375","0.0-178.0-0.0","48094241","wem/bandit_single","A1K8QNLYYYX21W","gain","3","","76","L","3","","0","0","1","0.4513823692","","false","141","0.315874603","","main_expt","0.4630674526","","0.3495942718","","0.4513823692","","","","","","",""
"0","","bandit","217","423172","0.0-179.0-0.0","48094241","wem/bandit_single","A1K8QNLYYYX21W","gain","3","","72","H","0","img/none_selected.jpg","0","0","1","0.2660579121","","false","142","0.2660579121","","main_expt","0.4678156034","","0.373744609","","0.4477105457","","","","","","",""
"6","","bandit","218","424960","0.0-180.0-0.0","48094241","wem/bandit_single","A1K8QNLYYYX21W","gain","3","","76","L","3","","0","0","1","0.4399018081","","false","143","0.2791435274","","main_expt","0.4556942345","","0.3983109068","","0.4399018081","","","","","","",""
"119","","bandit","219","426863","0.0-181.0-0.0","48094241","wem/bandit_single","A1K8QNLYYYX21W","gain","3","","75","K","2","","1","0","0","0.4290647624","","false","144","0.3232226047","","main_expt","0.4606745253","","0.4290647624","","0.3929519584","","","","","","",""
"45","","bandit","220","428698","0.0-182.0-0.0","48094241","wem/bandit_single","A1K8QNLYYYX21W","gain","3","","75","K","2","","1","0","0","0.4360055891","","false","145","0.2863527335","","main_expt","0.4493721712","","0.4360055891","","0.3638959839","","","","","","",""
"251","","bandit","221","430742","0.0-183.0-0.0","48094241","wem/bandit_single","A1K8QNLYYYX21W","gain","3","","76","L","3","","0","0","1","0.3109408856","","false","146","0.2399582054","","main_expt","0.411205332","","0.4408793748","","0.3109408856","","","","","","",""
"189","","bandit","222","432716","0.0-184.0-0.0","48094241","wem/bandit_single","A1K8QNLYYYX21W","gain","3","","75","K","2","","0","0","1","0.4152856751","","false","147","0.2186627863","","main_expt","0.4091009254","","0.4152856751","","0.303790043","","","","","","",""
"29","","bandit","223","434523","0.0-185.0-0.0","48094241","wem/bandit_single","A1K8QNLYYYX21W","gain","3","","76","L","3","","0","0","1","0.2836070719","","false","148","0.233860686","","main_expt","0.3878952866","","0.400149315","","0.2836070719","","","","","","",""
"184","","bandit","224","436492","0.0-186.0-0.0","48094241","wem/bandit_single","A1K8QNLYYYX21W","gain","3","","74","J","1","","0","0","1","0.39239053","","false","149","0.2752018233","","main_expt","0.39239053","","0.4081055764","","0.2132997302","","","","","","",""
"107","","bandit","225","438391","0.0-187.0-0.0","48094241","wem/bandit_single","A1K8QNLYYYX21W","gain","3","","75","K","2","","0","0","1","0.3946041437","","false","150","0.2306982087","","main_expt","0.3869122725","","0.3946041437","","0.1906505553","","","","","","",""
"61","","bandit","226","440244","0.0-188.0-0.0","48094241","wem/bandit_single","A1K8QNLYYYX21W","gain","3","","75","K","2","","0","0","1","0.3517385329","","false","151","0.272940168","","main_expt","0.3562084687","","0.3517385329","","0.1887938372","","","","","","",""
"22","","bandit","227","442045","0.0-189.0-0.0","48094241","wem/bandit_single","A1K8QNLYYYX21W","gain","3","","72","H","0","img/none_selected.jpg","0","0","1","0.246833375","","false","152","0.246833375","","main_expt","0.3975166132","","0.33807167","","0.1452925277","","","","","","",""
"79","","bandit","228","443908","0.0-190.0-0.0","48094241","wem/bandit_single","A1K8QNLYYYX21W","gain","3","","74","J","1","","1","0","0","0.4221253747","","false","153","0.2555278221","","main_expt","0.4221253747","","0.3507556502","","0.1236287895","","","","","","",""
"38","","bandit","229","445730","0.0-191.0-0.0","48094241","wem/bandit_single","A1K8QNLYYYX21W","gain","3","","75","K","2","","1","0","0","0.3484399371","","false","154","0.1964980564","","main_expt","0.3887365422","","0.3484399371","","0.119712108","","","","","","",""
"118","","bandit","230","447623","0.0-192.0-0.0","48094241","wem/bandit_single","A1K8QNLYYYX21W","gain","3","","72","H","0","img/none_selected.jpg","1","0","0","0.2158986014","","false","155","0.2158986014","","main_expt","0.3935049101","","0.4023996329","","0.1638630184","","","","","","",""
"8","","bandit","231","449421","0.0-193.0-0.0","48094241","wem/bandit_single","A1K8QNLYYYX21W","gain","3","","72","H","0","img/none_selected.jpg","0","0","1","0.2269609611","","false","156","0.2269609611","","main_expt","0.4185769797","","0.3489947109","","0.138562935","","","","","","",""
"8","","bandit","232","451218","0.0-194.0-0.0","48094241","wem/bandit_single","A1K8QNLYYYX21W","gain","3","","74","J","1","","0","0","1","0.412821327","","false","157","0.2997599927","","main_expt","0.412821327","","0.3223479281","","0.1424057266","","","","","","",""
"125","","bandit","233","453120","0.0-195.0-0.0","48094241","wem/bandit_single","A1K8QNLYYYX21W","gain","3","","72","H","0","img/none_selected.jpg","0","0","1","0.2608946303","","false","158","0.2608946303","","main_expt","0.4433072999","","0.3334556671","","0.1068688432","","","","","","",""
"61","","bandit","234","454964","0.0-196.0-0.0","48094241","wem/bandit_single","A1K8QNLYYYX21W","gain","3","","75","K","2","","0","0","1","0.3686402331","","false","159","0.2927903113","","main_expt","0.4600675837","","0.3686402331","","0.08394897778","","","","","","",""
"138","","bandit","235","456890","0.0-197.0-0.0","48094241","wem/bandit_single","A1K8QNLYYYX21W","gain","3","","75","K","2","","0","0","1","0.3711838842","","false","160","0.3165869591","","main_expt","0.449399373","","0.3711838842","","0.09909711901","","","","","","",""
"22","","bandit","236","458698","0.0-198.0-0.0","48094241","wem/bandit_single","A1K8QNLYYYX21W","gain","3","","72","H","0","img/none_selected.jpg","0","0","1","0.3355773311","","false","161","0.3355773311","","main_expt","0.4303005813","","0.385982022","","0.09256485174","","","","","","",""
"41","","bandit","237","460534","0.0-199.0-0.0","48094241","wem/bandit_single","A1K8QNLYYYX21W","gain","3","","72","H","0","img/none_selected.jpg","0","0","1","0.3801839585","","false","162","0.3801839585","","main_expt","0.4319487415","","0.3435676447","","0.07550585721","","","","","","",""
"57","","bandit","238","462368","0.0-200.0-0.0","48094241","wem/bandit_single","A1K8QNLYYYX21W","gain","3","","72","H","0","img/none_selected.jpg","0","0","1","0.3796909961","","false","163","0.3796909961","","main_expt","0.4459750046","","0.3840292687","","0.08055395315","","","","","","",""
"0","","bandit","239","464149","0.0-201.0-0.0","48094241","wem/bandit_single","A1K8QNLYYYX21W","gain","3","","75","K","2","","1","0","0","0.3427058888","","false","164","0.3657353238","","main_expt","0.4529977304","","0.3427058888","","0.07824920034","","","","","","",""
"32","","bandit","240","465953","0.0-202.0-0.0","48094241","wem/bandit_single","A1K8QNLYYYX21W","gain","3","","75","K","2","","1","0","0","0.3258967388","","false","165","0.3937598932","","main_expt","0.4472909282","","0.3258967388","","0.08439791844","","","","","","",""
"22","","bandit","241","467756","0.0-203.0-0.0","48094241","wem/bandit_single","A1K8QNLYYYX21W","gain","3","","74","J","1","","1","0","0","0.4399772256","","false","166","0.3914196171","","main_expt","0.4399772256","","0.2704303424","","0.05039915739","","","","","","",""
"107","","bandit","242","469641","0.0-204.0-0.0","48094241","wem/bandit_single","A1K8QNLYYYX21W","gain","3","","76","L","3","","0","0","1","0.05759530337","","false","167","0.3919877423","","main_expt","0.4636729032","","0.3205555932","","0.05759530337","","","","","","",""
"5","","bandit","243","471443","0.0-205.0-0.0","48094241","wem/bandit_single","A1K8QNLYYYX21W","gain","3","","72","H","0","img/none_selected.jpg","0","0","1","0.3647459683","","false","168","0.3647459683","","main_expt","0.4437796743","","0.3639109947","","0.04992464654","","","","","","",""
"75","","bandit","244","473324","0.0-206.0-0.0","48094241","wem/bandit_single","A1K8QNLYYYX21W","gain","3","","76","L","3","","0","0","1","0.03416660819","","false","169","0.4058418149","","main_expt","0.456101387","","0.3733582142","","0.03416660819","","","","","","",""
"95","","bandit","245","475209","0.0-207.0-0.0","48094241","wem/bandit_single","A1K8QNLYYYX21W","gain","3","","72","H","0","img/none_selected.jpg","1","0","0","0.3998590153","","false","170","0.3998590153","","main_expt","0.4571218852","","0.3832331311","","0.01917125828","","","","","","",""
"95","","bandit","246","477097","0.0-208.0-0.0","48094241","wem/bandit_single","A1K8QNLYYYX21W","gain","3","","75","K","2","","1","0","0","0.3815339887","","false","171","0.3887500458","","main_expt","0.445510323","","0.3815339887","","0.02244253376","","","","","","",""
"75","","bandit","247","478965","0.0-209.0-0.0","48094241","wem/bandit_single","A1K8QNLYYYX21W","gain","3","","72","H","0","img/none_selected.jpg","0","0","1","0.4102182378","","false","172","0.4102182378","","main_expt","0.4280794999","","0.3471775219","","0.02619280326","","","","","","",""
"61","","bandit","248","480813","0.0-210.0-0.0","48094241","wem/bandit_single","A1K8QNLYYYX21W","gain","3","","75","K","2","","0","0","1","0.340289466","","false","173","0.3895773165","","main_expt","0.4379780546","","0.340289466","","0.0218428458","","","","","","",""
"114","","bandit","249","482727","0.0-211.0-0.0","48094241","wem/bandit_single","A1K8QNLYYYX21W","gain","3","","76","L","3","","0","0","1","0.02840617367","","false","174","0.3826402373","","main_expt","0.4160926905","","0.3280863639","","0.02840617367","","","","","","",""
"70","","bandit","250","484576","0.0-212.0-0.0","48094241","wem/bandit_single","A1K8QNLYYYX21W","gain","3","","75","K","2","","1","0","0","0.3782643392","","false","175","0.38572844","","main_expt","0.44195178","","0.3782643392","","0.0268928826","","","","","","",""
"17","","bandit","251","486369","0.0-213.0-0.0","48094241","wem/bandit_single","A1K8QNLYYYX21W","gain","3","","75","K","2","","0","0","1","0.3714875018","","false","176","0.3566605828","","main_expt","0.4469840309","","0.3714875018","","0.04471375276","","","","","","",""
"33","","bandit","252","488171","0.0-214.0-0.0","48094241","wem/bandit_single","A1K8QNLYYYX21W","gain","3","","74","J","1","","1","0","0","0.4732589693","","false","177","0.3736379944","","main_expt","0.4732589693","","0.3110573775","","0.04508647299","","","","","","",""
"140","","bandit","253","490108","0.0-215.0-0.0","48094241","wem/bandit_single","A1K8QNLYYYX21W","gain","3","","75","K","2","","1","0","0","0.3725785744","","false","178","0.3835263095","","main_expt","0.4716065645","","0.3725785744","","0.07342594821","","","","","","",""
"59","","bandit","254","491958","0.0-216.0-0.0","48094241","wem/bandit_single","A1K8QNLYYYX21W","gain","3","","72","H","0","img/none_selected.jpg","0","0","1","0.3531759074","","false","179","0.3531759074","","main_expt","0.4724187392","","0.4143512522","","0.08189943715","","","","","","",""
"53","","bandit","255","493808","0.0-217.0-0.0","48094241","wem/bandit_single","A1K8QNLYYYX21W","gain","3","","74","J","1","","0","0","1","0.4551908631","","false","180","0.3185705061","","main_expt","0.4551908631","","0.4240428135","","0.07894611151","","","","","","",""
"25","","bandit","256","495618","0.0-218.0-0.0","48094241","wem/bandit_single","A1K8QNLYYYX21W","gain","3","","72","H","0","img/none_selected.jpg","0","0","1","0.2823592255","","false","181","0.2823592255","","main_expt","0.456416976","","0.4394908049","","0.06982230443","","","","","","",""
"7","","bandit","257","497410","0.0-219.0-0.0","48094241","wem/bandit_single","A1K8QNLYYYX21W","gain","3","","72","H","0","img/none_selected.jpg","0","0","1","0.2741397005","","false","182","0.2741397005","","main_expt","0.4525945541","","0.4180692962","","0.06674639092","","","","","","",""
"93","","bandit","258","499293","0.0-220.0-0.0","48094241","wem/bandit_single","A1K8QNLYYYX21W","gain","3","","76","L","3","","0","0","1","0.04008595334","","false","183","0.2936799338","","main_expt","0.4439654651","","0.4468782907","","0.04008595334","","","","","","",""
"38","","bandit","259","501128","0.0-221.0-0.0","48094241","wem/bandit_single","A1K8QNLYYYX21W","gain","3","","72","H","0","img/none_selected.jpg","0","0","1","0.3027831177","","false","184","0.3027831177","","main_expt","0.4366406792","","0.4489540851","","0.04652727321","","","","","","",""
"10","","bandit","260","502924","0.0-222.0-0.0","48094241","wem/bandit_single","A1K8QNLYYYX21W","gain","3","","75","K","2","","1","0","0","0.4669005471","","false","185","0.3180510168","","main_expt","0.4282468188","","0.4669005471","","0.05033673313","","","","","","",""
"129","","bandit","261","504849","0.0-223.0-0.0","48094241","wem/bandit_single","A1K8QNLYYYX21W","gain","3","","76","L","3","","0","0","1","0.03009771755","","false","186","0.3285352945","","main_expt","0.4249990568","","0.419417397","","0.03009771755","","","","","","",""
"10","","bandit","262","506638","0.0-224.0-0.0","48094241","wem/bandit_single","A1K8QNLYYYX21W","gain","3","","72","H","0","img/none_selected.jpg","0","0","1","0.3278715557","","false","187","0.3278715557","","main_expt","0.4159118542","","0.3735271503","","0.02601150791","","","","","","",""
"49","","bandit","263","508474","0.0-225.0-0.0","48094241","wem/bandit_single","A1K8QNLYYYX21W","gain","3","","76","L","3","","0","0","1","0.02389042297","","false","188","0.3408065186","","main_expt","0.4294829221","","0.3339942922","","0.02389042297","","","","","","",""
"7","","bandit","264","510264","0.0-226.0-0.0","48094241","wem/bandit_single","A1K8QNLYYYX21W","gain","3","","72","H","0","img/none_selected.jpg","0","0","1","0.3335894225","","false","189","0.3335894225","","main_expt","0.4183094629","","0.3200911101","","0.02303770395","","","","","","",""
"11","","bandit","265","512049","0.0-227.0-0.0","48094241","wem/bandit_single","A1K8QNLYYYX21W","gain","3","","76","L","3","","0","0","1","0.0156858998","","false","190","0.2560009578","","main_expt","0.3769048436","","0.379511296","","0.0156858998","","","","","","",""
"120","","bandit","266","513964","0.0-228.0-0.0","48094241","wem/bandit_single","A1K8QNLYYYX21W","gain","3","","76","L","3","","0","0","1","0.02184200568","","false","191","0.2422543603","","main_expt","0.3654839124","","0.3475909393","","0.02184200568","","","","","","",""
"20","","bandit","267","515766","0.0-229.0-0.0","48094241","wem/bandit_single","A1K8QNLYYYX21W","gain","3","","75","K","2","","0","0","1","0.3248483226","","false","192","0.2479432207","","main_expt","0.4158526776","","0.3248483226","","0.04159540118","","","","","","",""
"28","","bandit","268","517574","0.0-230.0-0.0","48094241","wem/bandit_single","A1K8QNLYYYX21W","gain","3","","74","J","1","","1","0","0","0.4294001388","","false","193","0.2198669916","","main_expt","0.4294001388","","0.3530355579","","0.02418359434","","","","","","",""
"120","","bandit","269","519489","0.0-231.0-0.0","48094241","wem/bandit_single","A1K8QNLYYYX21W","gain","3","","74","J","1","","0","0","1","0.421006879","","false","194","0.1832858475","","main_expt","0.421006879","","0.3613612536","","0.03036789999","","","","","","",""
"23","","bandit","270","521304","0.0-232.0-0.0","48094241","wem/bandit_single","A1K8QNLYYYX21W","gain","3","","75","K","2","","0","0","1","0.3712676973","","false","195","0.1758973168","","main_expt","0.3993762185","","0.3712676973","","0.0328032794","","","","","","",""
"47","","bandit","271","523139","0.0-233.0-0.0","48094241","wem/bandit_single","A1K8QNLYYYX21W","gain","3","","74","J","1","","0","0","1","0.3953591144","","false","196","0.1472052011","","main_expt","0.3953591144","","0.3797177139","","0.03367124179","","","","","","",""
"140","","bandit","272","525055","0.0-234.0-0.0","48094241","wem/bandit_single","A1K8QNLYYYX21W","gain","3","","75","K","2","","1","0","0","0.3703437648","","false","197","0.09357285733","","main_expt","0.4186523265","","0.3703437648","","0.03515804352","","","","","","",""
"77","","bandit","273","526928","0.0-235.0-0.0","48094241","wem/bandit_single","A1K8QNLYYYX21W","gain","3","","75","K","2","","0","0","1","0.3269028648","","false","198","0.1466532231","","main_expt","0.4334783576","","0.3269028648","","0.0474911349","","","","","","",""
"91","","bandit","274","528800","0.0-236.0-0.0","48094241","wem/bandit_single","A1K8QNLYYYX21W","gain","3","","72","H","0","img/none_selected.jpg","0","0","1","0.1745555733","","false","199","0.1745555733","","main_expt","0.452916177","","0.2972028605","","0.04758635843","","","","","","",""
"11","","bandit","275","530579","0.0-237.0-0.0","48094241","wem/bandit_single","A1K8QNLYYYX21W","gain","3","","72","H","0","img/none_selected.jpg","0","0","1","0.1496088854","","false","200","0.1496088854","","main_expt","0.4652130485","","0.2548635421","","0.06637193447","","","","","","",""
"23","","bandit","276","532390","0.0-238.0-0.0","48094241","wem/bandit_single","A1K8QNLYYYX21W","gain","3","","72","H","0","img/none_selected.jpg","0","0","1","0.1144678821","","false","201","0.1144678821","","main_expt","0.4544628945","","0.2360204523","","0.03961336895","","","","","","",""
"19","","bandit","277","534198","0.0-239.0-0.0","48094241","wem/bandit_single","A1K8QNLYYYX21W","gain","3","","72","H","0","img/none_selected.jpg","0","0","1","0.08314182588","","false","202","0.08314182588","","main_expt","0.4346785174","","0.1847208139","","0.04217273593","","","","","","",""
"61","","bandit","278","536047","0.0-240.0-0.0","48094241","wem/bandit_single","A1K8QNLYYYX21W","gain","3","","72","H","0","img/none_selected.jpg","1","0","0","0.1008304514","","false","203","0.1008304514","","main_expt","0.4340895374","","0.1740418795","","0.03601881868","","","","","","",""
"55","","bandit","279","537888","0.0-241.0-0.0","48094241","wem/bandit_single","A1K8QNLYYYX21W","gain","3","","75","K","2","","0","0","1","0.1469060572","","false","204","0.1170364225","","main_expt","0.4398780919","","0.1469060572","","0.04663301139","","","","","","",""
"25","","bandit","280","539703","0.0-242.0-0.0","48094241","wem/bandit_single","A1K8QNLYYYX21W","gain","3","","75","K","2","","0","0","1","0.1162446513","","false","205","0.1228414706","","main_expt","0.4001316318","","0.1162446513","","0.04643109282","","","","","","",""
"1","","bandit","281","541503","0.0-243.0-0.0","48094241","wem/bandit_single","A1K8QNLYYYX21W","gain","3","","72","H","0","img/none_selected.jpg","0","0","1","0.1574749647","","false","206","0.1574749647","","main_expt","0.4347617828","","0.1289033918","","0.06886832812","","","","","","",""
"33","","bandit","282","543319","0.0-244.0-0.0","48094241","wem/bandit_single","A1K8QNLYYYX21W","gain","3","","76","L","3","","0","0","1","0.0600143171","","false","207","0.1922173773","","main_expt","0.4383015813","","0.1261822501","","0.0600143171","","","","","","",""
"26","","bandit","283","545125","0.0-245.0-0.0","48094241","wem/bandit_single","A1K8QNLYYYX21W","gain","3","","72","H","0","img/none_selected.jpg","0","0","1","0.1673160211","","false","208","0.1673160211","","main_expt","0.4038237536","","0.1024795668","","0.04637571639","","","","","","",""
"46","","bandit","284","546961","0.0-246.0-0.0","48094241","wem/bandit_single","A1K8QNLYYYX21W","gain","3","","74","J","1","","0","0","1","0.3890753365","","false","209","0.1269527993","","main_expt","0.3890753365","","0.1129838087","","0.04040360689","","","","","","",""
"58","","bandit","285","548815","0.0-247.0-0.0","48094241","wem/bandit_single","A1K8QNLYYYX21W","gain","3","","75","K","2","","0","0","1","0.1562804612","","false","210","0.1114377498","","main_expt","0.3792373644","","0.1562804612","","0.02069644656","","","","","","",""
"118","","bandit","286","550731","0.0-248.0-0.0","48094241","wem/bandit_single","A1K8QNLYYYX21W","gain","3","","76","L","3","","0","0","1","0.03173395488","","false","211","0.1155820846","","main_expt","0.3780611868","","0.1363837251","","0.03173395488","","","","","","",""
"37","","bandit","287","552553","0.0-249.0-0.0","48094241","wem/bandit_single","A1K8QNLYYYX21W","gain","3","","75","K","2","","0","0","1","0.09358237554","","false","212","0.1553323518","","main_expt","0.3483689532","","0.09358237554","","0.02469601981","","","","","","",""
"122","","bandit","288","554480","0.0-250.0-0.0","48094241","wem/bandit_single","A1K8QNLYYYX21W","gain","3","","74","J","1","","0","0","1","0.2874103991","","false","213","0.2062901667","","main_expt","0.2874103991","","0.05743859841","","0.04258417901","","","","","","",""
"24","","bandit","289","556284","0.0-251.0-0.0","48094241","wem/bandit_single","A1K8QNLYYYX21W","gain","3","","72","H","0","img/none_selected.jpg","0","0","1","0.2076956631","","false","214","0.2076956631","","main_expt","0.2620706088","","0.05800100084","","0.05493755721","","","","","","",""
"200","","bandit","290","558267","0.0-252.0-0.0","48094241","wem/bandit_single","A1K8QNLYYYX21W","gain","3","","75","K","2","","0","0","1","0.05413405856","","false","215","0.2609492508","","main_expt","0.2855520155","","0.05413405856","","0.08978059799","","","","","","",""
"135","","bandit","291","560193","0.0-253.0-0.0","48094241","wem/bandit_single","A1K8QNLYYYX21W","gain","3","","76","L","3","","0","0","1","0.09809121306","","false","216","0.2500101786","","main_expt","0.2916786734","","0.03942357166","","0.09809121306","","","","","","",""
"172","","bandit","292","562150","0.0-254.0-0.0","48094241","wem/bandit_single","A1K8QNLYYYX21W","gain","3","","74","J","1","","0","0","1","0.2823685681","","false","217","0.2748248586","","main_expt","0.2823685681","","0.03801572204","","0.1427848958","","","","","","",""
"37","","bandit","293","563984","0.0-255.0-0.0","48094241","wem/bandit_single","A1K8QNLYYYX21W","gain","3","","75","K","2","","0","0","1","0.03890441123","","false","218","0.311954441","","main_expt","0.2423520158","","0.03890441123","","0.1570322525","","","","","","",""
"57","","bandit","294","565822","0.0-256.0-0.0","48094241","wem/bandit_single","A1K8QNLYYYX21W","gain","3","","76","L","3","","1","0","0","0.1805036953","","false","219","0.3632760336","","main_expt","0.2949403562","","0.01887456362","","0.1805036953","","","","","","",""
"54","","bandit","295","567667","0.0-257.0-0.0","48094241","wem/bandit_single","A1K8QNLYYYX21W","gain","3","","72","H","0","img/none_selected.jpg","0","0","1","0.3369908474","","false","220","0.3369908474","","main_expt","0.3123592507","","0.02149820142","","0.1305519061","","","","","","",""
"95","","bandit","296","569562","0.0-258.0-0.0","48094241","wem/bandit_single","A1K8QNLYYYX21W","gain","3","","75","K","2","","0","0","1","0.03528878979","","false","221","0.3047504054","","main_expt","0.3184432139","","0.03528878979","","0.09039333473","","","","","","",""
"139","","bandit","297","571483","0.0-259.0-0.0","48094241","wem/bandit_single","A1K8QNLYYYX21W","gain","3","","75","K","2","","0","0","1","0.03906528797","","false","222","0.3107799438","","main_expt","0.3596246423","","0.03906528797","","0.0801847008","","","","","","",""
"186","","bandit","298","573454","0.0-260.0-0.0","48094241","wem/bandit_single","A1K8QNLYYYX21W","gain","3","","72","H","0","img/none_selected.jpg","1","0","0","0.3359374044","","false","223","0.3359374044","","main_expt","0.3048299186","","0.04285152396","","0.08930296305","","","","","","",""
"124","","bandit","299","575365","0.0-261.0-0.0","48094241","wem/bandit_single","A1K8QNLYYYX21W","gain","3","","74","J","1","","0","0","1","0.3097637171","","false","224","0.354776332","","main_expt","0.3097637171","","0.03308098724","","0.0783544472","","","","","","",""
"212","","bandit","300","577369","0.0-262.0-0.0","48094241","wem/bandit_single","A1K8QNLYYYX21W","gain","3","","76","L","3","","0","0","1","0.05733223117","","false","225","0.3747964846","","main_expt","0.3313621339","","0.03318257961","","0.05733223117","","","","","","",""
"139","","bandit","301","579303","0.0-263.0-0.0","48094241","wem/bandit_single","A1K8QNLYYYX21W","gain","3","","74","J","1","","0","0","1","0.2611013425","","false","226","0.3530330239","","main_expt","0.2611013425","","0.02568716964","","0.09472546141","","","","","","",""
"84","","bandit","302","581181","0.0-264.0-0.0","48094241","wem/bandit_single","A1K8QNLYYYX21W","gain","3","","76","L","3","","0","0","1","0.08353253247","","false","227","0.3299445106","","main_expt","0.2761398934","","0.03534330031","","0.08353253247","","","","","","",""
"111","","bandit","303","583102","0.0-265.0-0.0","48094241","wem/bandit_single","A1K8QNLYYYX21W","gain","3","","74","J","1","","1","0","0","0.2358148364","","false","228","0.3286020352","","main_expt","0.2358148364","","0.03702628412","","0.06220105415","","","","","","",""
"51","","bandit","304","584948","0.0-266.0-0.0","48094241","wem/bandit_single","A1K8QNLYYYX21W","gain","3","","76","L","3","","0","0","1","0.06639782905","","false","229","0.3178943429","","main_expt","0.2091128555","","0.03077125553","","0.06639782905","","","","","","",""
"42","","bandit","305","586784","0.0-267.0-0.0","48094241","wem/bandit_single","A1K8QNLYYYX21W","gain","3","","72","H","0","img/none_selected.jpg","1","0","0","0.3254915512","","false","230","0.3254915512","","main_expt","0.181986641","","0.03752036101","","0.07029464087","","","","","","",""
"30","","bandit","306","588601","0.0-268.0-0.0","48094241","wem/bandit_single","A1K8QNLYYYX21W","gain","3","","74","J","1","","1","0","0","0.1599443191","","false","231","0.3298497064","","main_expt","0.1599443191","","0.02736090244","","0.07612781315","","","","","","",""
"34","","bandit","307","590437","0.0-269.0-0.0","48094241","wem/bandit_single","A1K8QNLYYYX21W","gain","3","","76","L","3","","0","0","1","0.04325191911","","false","232","0.300331178","","main_expt","0.125214013","","0.02154887034","","0.04325191911","","","","","","",""
"122","","bandit","308","592342","0.0-270.0-0.0","48094241","wem/bandit_single","A1K8QNLYYYX21W","gain","3","","74","J","1","","0","0","1","0.134118517","","false","233","0.3357562734","","main_expt","0.134118517","","0.0228348974","","0.04039924652","","","","","","",""
"54","","bandit","309","594171","0.0-271.0-0.0","48094241","wem/bandit_single","A1K8QNLYYYX21W","gain","3","","76","L","3","","0","0","1","0.0435796211","","false","234","0.3257461803","","main_expt","0.1238594142","","0.01030782054","","0.0435796211","","","","","","",""
"54","","bandit","310","596001","0.0-272.0-0.0","48094241","wem/bandit_single","A1K8QNLYYYX21W","gain","3","","72","H","0","img/none_selected.jpg","1","0","0","0.3534766227","","false","235","0.3534766227","","main_expt","0.1141846942","","0.02615737471","","0.02315237623","","","","","","",""
"136","","bandit","311","597936","0.0-273.0-0.0","48094241","wem/bandit_single","A1K8QNLYYYX21W","gain","3","","75","K","2","","0","0","1","0.0224272094","","false","236","0.3733068719","","main_expt","0.1101280349","","0.0224272094","","0.02010779399","","","","","","",""
"12","","bandit","312","599739","0.0-274.0-0.0","48094241","wem/bandit_single","A1K8QNLYYYX21W","gain","3","","74","J","1","","0","0","1","0.09079266978","","false","237","0.4105295152","","main_expt","0.09079266978","","0.02679999918","","0.01796146932","","","","","","",""
"22","","bandit","313","601531","0.0-275.0-0.0","48094241","wem/bandit_single","A1K8QNLYYYX21W","gain","3","","76","L","3","","0","0","1","0.0167141813","","false","238","0.4225156592","","main_expt","0.1365862295","","0.07542988795","","0.0167141813","","","","","","",""
"17","","bandit","314","603333","0.0-276.0-0.0","48094241","wem/bandit_single","A1K8QNLYYYX21W","gain","3","","72","H","0","img/none_selected.jpg","1","0","0","0.4360895212","","false","239","0.4360895212","","main_expt","0.1846819155","","0.09772903","","0.03283355296","","","","","","",""
"22","","bandit","315","605146","0.0-277.0-0.0","48094241","wem/bandit_single","A1K8QNLYYYX21W","gain","3","","72","H","0","img/none_selected.jpg","0","0","1","0.423514393","","false","240","0.423514393","","main_expt","0.1795044078","","0.1044145256","","0.05325110434","","","","","","",""
"3","","bandit","316","606926","0.0-278.0-0.0","48094241","wem/bandit_single","A1K8QNLYYYX21W","gain","3","","72","H","0","img/none_selected.jpg","1","0","0","0.3824942702","","false","241","0.3824942702","","main_expt","0.1522343712","","0.109937241","","0.04551940083","","","","","","",""
"78","","bandit","317","608787","0.0-279.0-0.0","48094241","wem/bandit_single","A1K8QNLYYYX21W","gain","3","","74","J","1","","0","0","1","0.1433696576","","false","242","0.3758562762","","main_expt","0.1433696576","","0.09239004846","","0.05503183359","","","","","","",""
"16","","bandit","318","610606","0.0-280.0-0.0","48094241","wem/bandit_single","A1K8QNLYYYX21W","gain","3","","75","K","2","","0","0","1","0.1014218366","","false","243","0.2984655584","","main_expt","0.1427577162","","0.1014218366","","0.04467871076","","","","","","",""
"76","","bandit","319","612458","0.0-281.0-0.0","48094241","wem/bandit_single","A1K8QNLYYYX21W","gain","3","","75","K","2","","0","0","1","0.192841162","","false","244","0.2901672904","","main_expt","0.1340795621","","0.192841162","","0.06552455376","","","","","","",""
"152","","bandit","320","614397","0.0-282.0-0.0","48094241","wem/bandit_single","A1K8QNLYYYX21W","gain","3","","75","K","2","","0","0","1","0.1953250812","","false","245","0.2495050599","","main_expt","0.1469719784","","0.1953250812","","0.1005127954","","","","","","",""
"69","","bandit","321","616264","0.0-283.0-0.0","48094241","wem/bandit_single","A1K8QNLYYYX21W","gain","3","","74","J","1","","0","0","1","0.140914489","","false","246","0.2406773486","","main_expt","0.140914489","","0.1865380945","","0.11534406","","","","","","",""
"52","","bandit","322","618122","0.0-284.0-0.0","48094241","wem/bandit_single","A1K8QNLYYYX21W","gain","3","","76","L","3","","0","0","1","0.08579934652","","false","247","0.2265306157","","main_expt","0.1592666071","","0.221100819","","0.08579934652","","","","","","",""
"16","","bandit","323","619913","0.0-285.0-0.0","48094241","wem/bandit_single","A1K8QNLYYYX21W","gain","3","","75","K","2","","1","0","0","0.2106100544","","false","248","0.2000380921","","main_expt","0.2210893918","","0.2106100544","","0.08554071629","","","","","","",""
"63","","bandit","324","621769","0.0-286.0-0.0","48094241","wem/bandit_single","A1K8QNLYYYX21W","gain","3","","72","H","0","img/none_selected.jpg","0","0","1","0.1920984986","","false","249","0.1920984986","","main_expt","0.2306666851","","0.2172535859","","0.07137080198","","","","","","",""
"107","","bandit","325","623649","0.0-287.0-0.0","48094241","wem/bandit_single","A1K8QNLYYYX21W","gain","3","","72","H","0","img/none_selected.jpg","0","0","1","0.1624135027","","false","250","0.1624135027","","main_expt","0.2422322172","","0.1953648199","","0.06874505311","","","","","","",""
"0","","bandit","326","625435","0.0-288.0-0.0","48094241","wem/bandit_single","A1K8QNLYYYX21W","gain","3","","74","J","1","","0","0","1","0.2425189851","","false","251","0.2057369507","","main_expt","0.2425189851","","0.2129795833","","0.04927492375","","","","","","",""
"51","","bandit","327","627283","0.0-289.0-0.0","48094241","wem/bandit_single","A1K8QNLYYYX21W","gain","3","","72","H","0","img/none_selected.jpg","0","0","1","0.26034901","","false","252","0.26034901","","main_expt","0.1980379423","","0.2271134102","","0.0504542679","","","","","","",""
"12","","bandit","328","629093","0.0-290.0-0.0","48094241","wem/bandit_single","A1K8QNLYYYX21W","gain","3","","72","H","0","img/none_selected.jpg","0","0","1","0.1886300366","","false","253","0.1886300366","","main_expt","0.2040952335","","0.2152809257","","0.0313618618","","","","","","",""
"77","","bandit","329","630948","0.0-291.0-0.0","48094241","wem/bandit_single","A1K8QNLYYYX21W","gain","3","","72","H","0","img/none_selected.jpg","0","0","1","0.1978078828","","false","254","0.1978078828","","main_expt","0.1621407843","","0.2065685424","","0.0191685034","","","","","","",""
"15","","bandit","330","632751","0.0-292.0-0.0","48094241","wem/bandit_single","A1K8QNLYYYX21W","gain","3","","74","J","1","","1","0","0","0.1817956319","","false","255","0.1544468143","","main_expt","0.1817956319","","0.2000715388","","0.01882474885","","","","","","",""
"16","","bandit","331","634550","0.0-293.0-0.0","48094241","wem/bandit_single","A1K8QNLYYYX21W","gain","3","","74","J","1","","0","0","1","0.1796151025","","false","256","0.1552120094","","main_expt","0.1796151025","","0.1997851389","","0.01765542058","","","","","","",""
"76","","bandit","332","636445","0.0-294.0-0.0","48094241","wem/bandit_single","A1K8QNLYYYX21W","gain","3","","72","H","0","img/none_selected.jpg","0","0","1","0.1337291471","","false","257","0.1337291471","","main_expt","0.1874922979","","0.1965173465","","0.0162265086","","","","","","",""
"77","","bandit","333","638331","0.0-295.0-0.0","48094241","wem/bandit_single","A1K8QNLYYYX21W","gain","3","","72","H","0","img/none_selected.jpg","0","0","1","0.1279332347","","false","258","0.1279332347","","main_expt","0.2152410464","","0.1816932188","","0.01630278654","","","","","","",""
"36","","bandit","334","640163","0.0-296.0-0.0","48094241","wem/bandit_single","A1K8QNLYYYX21W","gain","3","","74","J","1","","0","0","1","0.2311433436","","false","259","0.152418206","","main_expt","0.2311433436","","0.2275026539","","0.0149919991","","","","","","",""
"138","","bandit","335","642098","0.0-297.0-0.0","48094241","wem/bandit_single","A1K8QNLYYYX21W","gain","3","","74","J","1","","0","0","1","0.1621257941","","false","260","0.1100328583","","main_expt","0.1621257941","","0.1798156178","","0.02225913397","","","","","","",""
"76","","bandit","336","643972","0.0-298.0-0.0","48094241","wem/bandit_single","A1K8QNLYYYX21W","gain","3","","75","K","2","","1","0","0","0.187122726","","false","261","0.1537012171","","main_expt","0.1219102136","","0.187122726","","0.02865634389","","","","","","",""
"4","","bandit","337","645755","0.0-299.0-0.0","48094241","wem/bandit_single","A1K8QNLYYYX21W","gain","3","","74","J","1","","0","0","1","0.1667536199","","false","262","0.1302597035","","main_expt","0.1667536199","","0.1507521212","","0.03173788073","","","","","","",""
"91","","bandit","338","647632","0.0-300.0-0.0","48094241","wem/bandit_single","A1K8QNLYYYX21W","gain","3","","72","H","0","img/none_selected.jpg","0","0","1","0.1297736826","","false","263","0.1297736826","","main_expt","0.1361259709","","0.1374951011","","0.04250990858","","","","","","",""
"34","","bandit","339","649447","0.0-301.0-0.0","48094241","wem/bandit_single","A1K8QNLYYYX21W","gain","3","","75","K","2","","0","0","1","0.1158818852","","false","264","0.1326654045","","main_expt","0.1217381733","","0.1158818852","","0.056503948","","","","","","",""
"93","","bandit","340","651346","0.0-302.0-0.0","48094241","wem/bandit_single","A1K8QNLYYYX21W","gain","3","","74","J","1","","1","0","0","0.1258265959","","false","265","0.1586413096","","main_expt","0.1258265959","","0.1147359408","","0.07592662832","","","","","","",""
"103","","bandit","341","653243","0.0-303.0-0.0","48094241","wem/bandit_single","A1K8QNLYYYX21W","gain","3","","75","K","2","","0","0","1","0.09491002089","","false","266","0.1496521415","","main_expt","0.1445769791","","0.09491002089","","0.1002340293","","","","","","",""
"123","","bandit","342","655167","0.0-304.0-0.0","48094241","wem/bandit_single","A1K8QNLYYYX21W","gain","3","","72","H","0","img/none_selected.jpg","0","0","1","0.1410052581","","false","267","0.1410052581","","main_expt","0.1014120844","","0.1181284109","","0.1526998269","","","","","","",""
"77","","bandit","343","657028","0.0-305.0-0.0","48094241","wem/bandit_single","A1K8QNLYYYX21W","gain","3","","74","J","1","","0","0","1","0.06386630904","","false","268","0.145208313","","main_expt","0.06386630904","","0.1054434992","","0.1340815566","","","","","","",""
"62","","bandit","344","658891","0.0-306.0-0.0","48094241","wem/bandit_single","A1K8QNLYYYX21W","gain","3","","76","L","3","","0","0","1","0.1350059692","","false","269","0.1387339362","","main_expt","0.03725778621","","0.1307900039","","0.1350059692","","","","","","",""
"47","","bandit","345","660727","0.0-307.0-0.0","48094241","wem/bandit_single","A1K8QNLYYYX21W","gain","3","","72","H","0","img/none_selected.jpg","0","0","1","0.1822325734","","false","270","0.1822325734","","main_expt","0.02825676517","","0.1444746669","","0.1008257698","","","","","","",""
"123","","bandit","346","662642","0.0-308.0-0.0","48094241","wem/bandit_single","A1K8QNLYYYX21W","gain","3","","74","J","1","","0","0","1","0.02967844624","","false","271","0.1752825828","","main_expt","0.02967844624","","0.1622504114","","0.1257425884","","","","","","",""
"144","","bandit","347","664563","0.0-309.0-0.0","48094241","wem/bandit_single","A1K8QNLYYYX21W","gain","3","","76","L","3","","1","0","0","0.1363444874","","false","272","0.1572277832","","main_expt","0.03051557875","","0.1814673171","","0.1363444874","","","","","","",""
"35","","bandit","348","666401","0.0-310.0-0.0","48094241","wem/bandit_single","A1K8QNLYYYX21W","gain","3","","72","H","0","img/none_selected.jpg","0","0","1","0.1609880977","","false","273","0.1609880977","","main_expt","0.0408401102","","0.1930303076","","0.1090842693","","","","","","",""
"77","","bandit","349","668264","0.0-311.0-0.0","48094241","wem/bandit_single","A1K8QNLYYYX21W","gain","3","","74","J","1","","0","0","1","0.03240614182","","false","274","0.2228580822","","main_expt","0.03240614182","","0.1704680895","","0.1397265487","","","","","","",""
"92","","bandit","350","670149","0.0-312.0-0.0","48094241","wem/bandit_single","A1K8QNLYYYX21W","gain","3","","75","K","2","","0","0","1","0.1785534293","","false","275","0.2126640298","","main_expt","0.04120982645","","0.1785534293","","0.210641606","","","","","","",""
"140","","bandit","351","672081","0.0-313.0-0.0","48094241","wem/bandit_single","A1K8QNLYYYX21W","gain","3","","72","H","0","img/none_selected.jpg","1","0","0","0.2006548762","","false","276","0.2006548762","","main_expt","0.04353307789","","0.1843971019","","0.1523626192","","","","","","",""
"7","","bandit","352","673871","0.0-314.0-0.0","48094241","wem/bandit_single","A1K8QNLYYYX21W","gain","3","","75","K","2","","1","0","0","0.2042268453","","false","277","0.1986275587","","main_expt","0.0172565486","","0.2042268453","","0.16102954","","","","","","",""
"179","","bandit","353","675833","0.0-315.0-0.0","48094241","wem/bandit_single","A1K8QNLYYYX21W","gain","3","","75","K","2","","0","0","1","0.1609113936","","false","278","0.1321506531","","main_expt","0.02582715814","","0.1609113936","","0.1166001048","","","","","","",""
"31","","bandit","354","677648","0.0-316.0-0.0","48094241","wem/bandit_single","A1K8QNLYYYX21W","gain","3","","74","J","1","","0","0","1","0.03609925784","","false","279","0.2112193978","","main_expt","0.03609925784","","0.1604878733","","0.1427402012","","","","","","",""
"57","","bandit","355","679508","0.0-317.0-0.0","48094241","wem/bandit_single","A1K8QNLYYYX21W","gain","3","","75","K","2","","0","0","1","0.1678567182","","false","280","0.1872216356","","main_expt","0.02629944548","","0.1678567182","","0.1524149458","","","","","","",""
"108","","bandit","356","681419","0.0-318.0-0.0","48094241","wem/bandit_single","A1K8QNLYYYX21W","gain","3","","76","L","3","","0","0","1","0.1638207856","","false","281","0.1635487084","","main_expt","0.01890368782","","0.1338700362","","0.1638207856","","","","","","",""
"34","","bandit","357","683247","0.0-319.0-0.0","48094241","wem/bandit_single","A1K8QNLYYYX21W","gain","3","","72","H","0","img/none_selected.jpg","0","0","1","0.1576359327","","false","282","0.1576359327","","main_expt","0.01508823693","","0.2010661714","","0.1055747009","","","","","","",""
"14","","bandit","358","685048","0.0-320.0-0.0","48094241","wem/bandit_single","A1K8QNLYYYX21W","gain","3","","76","L","3","","0","0","1","0.1121395768","","false","283","0.21861051","","main_expt","0.01359220223","","0.1763159594","","0.1121395768","","","","","","",""
"14","","bandit","359","686847","0.0-321.0-0.0","48094241","wem/bandit_single","A1K8QNLYYYX21W","gain","3","","76","L","3","","0","0","1","0.1110051372","","false","284","0.180487154","","main_expt","0.01691173417","","0.2379754842","","0.1110051372","","","","","","",""
"121","","bandit","360","688764","0.0-322.0-0.0","48094241","wem/bandit_single","A1K8QNLYYYX21W","gain","3","","76","L","3","","0","0","1","0.1746572204","","false","285","0.1641106304","","main_expt","0.01734240677","","0.2769670592","","0.1746572204","","","","","","",""
"76","","bandit","361","690625","0.0-323.0-0.0","48094241","wem/bandit_single","A1K8QNLYYYX21W","gain","3","","75","K","2","","1","0","0","0.3002963297","","false","286","0.1866508097","","main_expt","0.01574531315","","0.3002963297","","0.2038956484","","","","","","",""
"128","","bandit","362","692547","0.0-324.0-0.0","48094241","wem/bandit_single","A1K8QNLYYYX21W","gain","3","","74","J","1","","0","0","1","0.011703364","","false","287","0.1339791425","","main_expt","0.011703364","","0.2804215723","","0.2396876396","","","","","","",""
"48","","bandit","363","694380","0.0-325.0-0.0","48094241","wem/bandit_single","A1K8QNLYYYX21W","gain","3","","74","J","1","","0","0","1","0.01499165326","","false","288","0.1910191906","","main_expt","0.01499165326","","0.2873948651","","0.2300823482","","","","","","",""
"15","","bandit","364","696194","0.0-326.0-0.0","48094241","wem/bandit_single","A1K8QNLYYYX21W","gain","3","","75","K","2","","1","0","0","0.3383825142","","false","289","0.1987886011","","main_expt","0.01307353483","","0.3383825142","","0.2697946193","","","","","","",""
"116","","bandit","365","698089","0.0-327.0-0.0","48094241","wem/bandit_single","A1K8QNLYYYX21W","gain","3","","76","L","3","","0","0","1","0.3030113395","","false","290","0.2163493667","","main_expt","0.005839555229","","0.3597664772","","0.3030113395","","","","","","",""
"92","","bandit","366","699989","0.0-328.0-0.0","48094241","wem/bandit_single","A1K8QNLYYYX21W","gain","3","","75","K","2","","1","0","0","0.3684517111","","false","291","0.1987756658","","main_expt","0.00760433752","","0.3684517111","","0.2903670118","","","","","","",""
"40","","bandit","367","701836","0.0-329.0-0.0","48094241","wem/bandit_single","A1K8QNLYYYX21W","gain","3","","74","J","1","","0","0","1","0.01807310376","","false","292","0.1996771378","","main_expt","0.01807310376","","0.3471931258","","0.3219279298","","","","","","",""
"257","","bandit","368","703883","0.0-330.0-0.0","48094241","wem/bandit_single","A1K8QNLYYYX21W","gain","3","","75","K","2","","0","0","1","0.3742872252","","false","293","0.2067525645","","main_expt","0.02882206876","","0.3742872252","","0.2585416619","","","","","","",""
"190","","bandit","369","705859","0.0-331.0-0.0","48094241","wem/bandit_single","A1K8QNLYYYX21W","gain","3","","72","H","0","img/none_selected.jpg","0","0","1","0.230585761","","false","294","0.230585761","","main_expt","0.02728804169","","0.3937541296","","0.3093607287","","","","","","",""
"151","","bandit","370","707801","0.0-332.0-0.0","48094241","wem/bandit_single","A1K8QNLYYYX21W","gain","3","","74","J","1","","0","0","1","0.01545304162","","false","295","0.1936278336","","main_expt","0.01545304162","","0.3331550888","","0.315069057","","","","","","",""
"141","","bandit","371","709748","0.0-333.0-0.0","48094241","wem/bandit_single","A1K8QNLYYYX21W","gain","3","","75","K","2","","1","0","0","0.3564327955","","false","296","0.1733248866","","main_expt","0.01463146341","","0.3564327955","","0.3556215031","","","","","","",""
"43","","bandit","372","711586","0.0-334.0-0.0","48094241","wem/bandit_single","A1K8QNLYYYX21W","gain","3","","74","J","1","","0","0","1","0.03487584845","","false","297","0.1762096585","","main_expt","0.03487584845","","0.3344242189","","0.3380436511","","","","","","",""
"145","","bandit","373","713524","0.0-335.0-0.0","48094241","wem/bandit_single","A1K8QNLYYYX21W","gain","3","","72","H","0","img/none_selected.jpg","0","0","1","0.176801175","","false","298","0.176801175","","main_expt","0.04917346329","","0.3434582948","","0.347815101","","","","","","",""
