"rt","responses","trial_type","trial_index","time_elapsed","internal_node_id","subjID","study","MID","cond","drift","key_press","respCharCode","respKey","respChoiceNum","respChoice","gems","bombs","no_reward","GemPrChosen","BombPrChosen","practice","trial_counter","WinPr_0","LosePr_0","trial_label","WinPr_1","LosePr_1","WinPr_2","LosePr_2","WinPr_3","LosePr_3","Q0","Q1","Q2","gender","age","ethnicity"
"22275","{""Q0"":""A3R1O5UC9QJGKY""}","survey-text","0","22289","0.0-0.0","48840717","wem/bandit_single","A3R1O5UC9QJGKY","gain","5","","","","","","","","","","","","","","","","","","","","","","","","","","",""
"1811","","text","1","25108","0.0-1.0","48840717","wem/bandit_single","A3R1O5UC9QJGKY","gain","5","32","","","","","","","","","","","","","","","","","","","","","","","","","",""
"3864","","text","2","28977","0.0-2.0","48840717","wem/bandit_single","A3R1O5UC9QJGKY","gain","5","32","","","","","","","","","","","","","","","","","","","","","","","","","",""
"21662","","text","3","50645","0.0-3.0","48840717","wem/bandit_single","A3R1O5UC9QJGKY","gain","5","32","","","","","","","","","","","","","","","","","","","","","","","","","",""
"10376","","text","4","61027","0.0-4.0","48840717","wem/bandit_single","A3R1O5UC9QJGKY","gain","5","32","","","","","","","","","","","","","","","","","","","","","","","","","",""
"10329","","text","5","71361","0.0-5.0","48840717","wem/bandit_single","A3R1O5UC9QJGKY","gain","5","32","","","","","","","","","","","","","","","","","","","","","","","","","",""
"4510","","text","6","75874","0.0-6.0","48840717","wem/bandit_single","A3R1O5UC9QJGKY","gain","5","32","","","","","","","","","","","","","","","","","","","","","","","","","",""
"5305","","text","7","81182","0.0-7.0","48840717","wem/bandit_single","A3R1O5UC9QJGKY","gain","5","32","","","","","","","","","","","","","","","","","","","","","","","","","",""
"2240","","text","8","83426","0.0-8.0","48840717","wem/bandit_single","A3R1O5UC9QJGKY","gain","5","32","","","","","","","","","","","","","","","","","","","","","","","","","",""
"2593","","text","9","86023","0.0-9.0","48840717","wem/bandit_single","A3R1O5UC9QJGKY","gain","5","32","","","","","","","","","","","","","","","","","","","","","","","","","",""
"2877","","text","10","88902","0.0-10.0","48840717","wem/bandit_single","A3R1O5UC9QJGKY","gain","5","32","","","","","","","","","","","","","","","","","","","","","","","","","",""
"9126","","text","11","98030","0.0-11.0","48840717","wem/bandit_single","A3R1O5UC9QJGKY","gain","5","32","","","","","","","","","","","","","","","","","","","","","","","","","",""
"1286","","bandit","12","100833","0.0-12.0-0.0","48840717","wem/bandit_single","A3R1O5UC9QJGKY","gain","5","","74","J","0","img/none_selected_demo.jpg","0","0","1","0","0","true","0","0","0","","","","","","","","","","","","",""
"266","","bandit","13","102865","0.0-13.0-0.0","48840717","wem/bandit_single","A3R1O5UC9QJGKY","gain","5","","75","K","0","img/none_selected_demo.jpg","0","0","1","0","0","true","0","0","0","","","","","","","","","","","","",""
"2431","","text","14","105555","0.0-14.0","48840717","wem/bandit_single","A3R1O5UC9QJGKY","gain","5","32","","","","","","","","","","","","","","","","","","","","","","","","","",""
"1128","","text","15","106690","0.0-15.0","48840717","wem/bandit_single","A3R1O5UC9QJGKY","gain","5","32","","","","","","","","","","","","","","","","","","","","","","","","","",""
"2131","","text","16","108826","0.0-16.0","48840717","wem/bandit_single","A3R1O5UC9QJGKY","gain","5","32","","","","","","","","","","","","","","","","","","","","","","","","","",""
"1849","","text","17","110680","0.0-17.0","48840717","wem/bandit_single","A3R1O5UC9QJGKY","gain","5","32","","","","","","","","","","","","","","","","","","","","","","","","","",""
"823","","bandit","18","113023","0.0-18.0-0.0","48840717","wem/bandit_single","A3R1O5UC9QJGKY","gain","5","","74","J","0","img/none_selected_demo.jpg","1","0","0","0.8","0","true","0","0.8","0","80_20_practice","0.2","0","","","","","","","","","",""
"41","","bandit","19","114835","0.0-18.0-1.0","48840717","wem/bandit_single","A3R1O5UC9QJGKY","gain","5","","75","K","1","","0","0","1","0.2","0","true","0","0.8","0","80_20_practice","0.2","0","","","","","","","","","",""
"6","","bandit","20","116624","0.0-18.0-2.0","48840717","wem/bandit_single","A3R1O5UC9QJGKY","gain","5","","74","J","0","img/none_selected_demo.jpg","1","0","0","0.8","0","true","0","0.8","0","80_20_practice","0.2","0","","","","","","","","","",""
"108","","bandit","21","118497","0.0-18.0-3.0","48840717","wem/bandit_single","A3R1O5UC9QJGKY","gain","5","","74","J","0","img/none_selected_demo.jpg","0","0","1","0.8","0","true","0","0.8","0","80_20_practice","0.2","0","","","","","","","","","",""
"1295","","bandit","22","121566","0.0-18.0-4.0","48840717","wem/bandit_single","A3R1O5UC9QJGKY","gain","5","","74","J","0","img/none_selected_demo.jpg","0","0","1","0.8","0","true","0","0.8","0","80_20_practice","0.2","0","","","","","","","","","",""
"866","","bandit","23","124204","0.0-18.0-5.0","48840717","wem/bandit_single","A3R1O5UC9QJGKY","gain","5","","75","K","1","","0","0","1","0.2","0","true","0","0.8","0","80_20_practice","0.2","0","","","","","","","","","",""
"69","","bandit","24","126042","0.0-18.0-6.0","48840717","wem/bandit_single","A3R1O5UC9QJGKY","gain","5","","75","K","1","","0","0","1","0.2","0","true","0","0.8","0","80_20_practice","0.2","0","","","","","","","","","",""
"552","","bandit","25","128364","0.0-18.0-7.0","48840717","wem/bandit_single","A3R1O5UC9QJGKY","gain","5","","74","J","0","img/none_selected_demo.jpg","1","0","0","0.8","0","true","0","0.8","0","80_20_practice","0.2","0","","","","","","","","","",""
"54","","bandit","26","130187","0.0-18.0-8.0","48840717","wem/bandit_single","A3R1O5UC9QJGKY","gain","5","","74","J","0","img/none_selected_demo.jpg","1","0","0","0.8","0","true","0","0.8","0","80_20_practice","0.2","0","","","","","","","","","",""
"931","","bandit","27","132883","0.0-18.0-9.0","48840717","wem/bandit_single","A3R1O5UC9QJGKY","gain","5","","74","J","0","img/none_selected_demo.jpg","1","0","0","0.8","0","true","0","0.8","0","80_20_practice","0.2","0","","","","","","","","","",""
"714","","bandit","28","135361","0.0-18.0-10.0","48840717","wem/bandit_single","A3R1O5UC9QJGKY","gain","5","","74","J","0","img/none_selected_demo.jpg","1","0","0","0.8","0","true","0","0.8","0","80_20_practice","0.2","0","","","","","","","","","",""
"140","","bandit","29","137264","0.0-18.0-11.0","48840717","wem/bandit_single","A3R1O5UC9QJGKY","gain","5","","74","J","0","img/none_selected_demo.jpg","0","0","1","0.8","0","true","0","0.8","0","80_20_practice","0.2","0","","","","","","","","","",""
"883","","bandit","30","139914","0.0-18.0-12.0","48840717","wem/bandit_single","A3R1O5UC9QJGKY","gain","5","","74","J","0","img/none_selected_demo.jpg","1","0","0","0.8","0","true","0","0.8","0","80_20_practice","0.2","0","","","","","","","","","",""
"178","","bandit","31","141857","0.0-18.0-13.0","48840717","wem/bandit_single","A3R1O5UC9QJGKY","gain","5","","74","J","0","img/none_selected_demo.jpg","0","0","1","0.8","0","true","0","0.8","0","80_20_practice","0.2","0","","","","","","","","","",""
"1060","","bandit","32","144683","0.0-18.0-14.0","48840717","wem/bandit_single","A3R1O5UC9QJGKY","gain","5","","74","J","0","img/none_selected_demo.jpg","1","0","0","0.8","0","true","0","0.8","0","80_20_practice","0.2","0","","","","","","","","","",""
"94","","bandit","33","146544","0.0-18.0-15.0","48840717","wem/bandit_single","A3R1O5UC9QJGKY","gain","5","","74","J","0","img/none_selected_demo.jpg","1","0","0","0.8","0","true","0","0.8","0","80_20_practice","0.2","0","","","","","","","","","",""
"52","","bandit","34","148362","0.0-18.0-16.0","48840717","wem/bandit_single","A3R1O5UC9QJGKY","gain","5","","74","J","0","img/none_selected_demo.jpg","1","0","0","0.8","0","true","0","0.8","0","80_20_practice","0.2","0","","","","","","","","","",""
"426","","bandit","35","150562","0.0-18.0-17.0","48840717","wem/bandit_single","A3R1O5UC9QJGKY","gain","5","","74","J","0","img/none_selected_demo.jpg","1","0","0","0.8","0","true","0","0.8","0","80_20_practice","0.2","0","","","","","","","","","",""
"177","","bandit","36","152502","0.0-18.0-18.0","48840717","wem/bandit_single","A3R1O5UC9QJGKY","gain","5","","74","J","0","img/none_selected_demo.jpg","1","0","0","0.8","0","true","0","0.8","0","80_20_practice","0.2","0","","","","","","","","","",""
"2970","","bandit","37","157241","0.0-18.0-19.0","48840717","wem/bandit_single","A3R1O5UC9QJGKY","gain","5","","74","J","0","img/none_selected_demo.jpg","1","0","0","0.8","0","true","0","0.8","0","80_20_practice","0.2","0","","","","","","","","","",""
"2968","","text","38","160463","0.0-19.0","48840717","wem/bandit_single","A3R1O5UC9QJGKY","gain","5","32","","","","","","","","","","","","","","","","","","","","","","","","","",""
"1672","","bandit","39","163648","0.0-20.0-0.0","48840717","wem/bandit_single","A3R1O5UC9QJGKY","gain","5","","74","J","0","img/none_selected_demo.jpg","0","0","1","0","0","true","0","0","0","","0","0","","","","","","","","","",""
"7082","","text","40","170994","0.0-21.0","48840717","wem/bandit_single","A3R1O5UC9QJGKY","gain","5","32","","","","","","","","","","","","","","","","","","","","","","","","","",""
"3055","","text","41","174057","0.0-22.0","48840717","wem/bandit_single","A3R1O5UC9QJGKY","gain","5","32","","","","","","","","","","","","","","","","","","","","","","","","","",""
"2855","","text","42","176921","0.0-23.0","48840717","wem/bandit_single","A3R1O5UC9QJGKY","gain","5","32","","","","","","","","","","","","","","","","","","","","","","","","","",""
"2962","","text","43","179888","0.0-24.0","48840717","wem/bandit_single","A3R1O5UC9QJGKY","gain","5","32","","","","","","","","","","","","","","","","","","","","","","","","","",""
"6352","","text","44","186246","0.0-25.0","48840717","wem/bandit_single","A3R1O5UC9QJGKY","gain","5","32","","","","","","","","","","","","","","","","","","","","","","","","","",""
"2330","","text","45","188582","0.0-26.0","48840717","wem/bandit_single","A3R1O5UC9QJGKY","gain","5","32","","","","","","","","","","","","","","","","","","","","","","","","","",""
"3345","","text","46","191931","0.0-27.0","48840717","wem/bandit_single","A3R1O5UC9QJGKY","gain","5","32","","","","","","","","","","","","","","","","","","","","","","","","","",""
"2814","","text","47","194750","0.0-28.0","48840717","wem/bandit_single","A3R1O5UC9QJGKY","gain","5","32","","","","","","","","","","","","","","","","","","","","","","","","","",""
"3005","","text","48","197759","0.0-29.0","48840717","wem/bandit_single","A3R1O5UC9QJGKY","gain","5","32","","","","","","","","","","","","","","","","","","","","","","","","","",""
"1657","","text","49","199421","0.0-30.0","48840717","wem/bandit_single","A3R1O5UC9QJGKY","gain","5","32","","","","","","","","","","","","","","","","","","","","","","","","","",""
"4074","","text","50","203499","0.0-31.0","48840717","wem/bandit_single","A3R1O5UC9QJGKY","gain","5","32","","","","","","","","","","","","","","","","","","","","","","","","","",""
"822","","bandit","51","205847","0.0-32.0-0.0","48840717","wem/bandit_single","A3R1O5UC9QJGKY","gain","5","","74","J","1","","0","0","1","0.2","0","true","0","0.8","0","full_practice","0.2","0","0.6","0","0.2","0","","","","","",""
"5","","bandit","52","207628","0.0-32.0-1.0","48840717","wem/bandit_single","A3R1O5UC9QJGKY","gain","5","","75","K","2","","1","0","0","0.6","0","true","0","0.8","0","full_practice","0.2","0","0.6","0","0.2","0","","","","","",""
"34","","bandit","53","209429","0.0-32.0-2.0","48840717","wem/bandit_single","A3R1O5UC9QJGKY","gain","5","","75","K","2","","1","0","0","0.6","0","true","0","0.8","0","full_practice","0.2","0","0.6","0","0.2","0","","","","","",""
"58","","bandit","54","211254","0.0-32.0-3.0","48840717","wem/bandit_single","A3R1O5UC9QJGKY","gain","5","","75","K","2","","1","0","0","0.6","0","true","0","0.8","0","full_practice","0.2","0","0.6","0","0.2","0","","","","","",""
"22","","bandit","55","213043","0.0-32.0-4.0","48840717","wem/bandit_single","A3R1O5UC9QJGKY","gain","5","","75","K","2","","0","0","1","0.6","0","true","0","0.8","0","full_practice","0.2","0","0.6","0","0.2","0","","","","","",""
"1396","","bandit","56","216209","0.0-32.0-5.0","48840717","wem/bandit_single","A3R1O5UC9QJGKY","gain","5","","76","L","3","","0","0","1","0.2","0","true","0","0.8","0","full_practice","0.2","0","0.6","0","0.2","0","","","","","",""
"367","","bandit","57","218348","0.0-32.0-6.0","48840717","wem/bandit_single","A3R1O5UC9QJGKY","gain","5","","72","H","0","img/none_selected.jpg","1","0","0","0.8","0","true","0","0.8","0","full_practice","0.2","0","0.6","0","0.2","0","","","","","",""
"10","","bandit","58","220125","0.0-32.0-7.0","48840717","wem/bandit_single","A3R1O5UC9QJGKY","gain","5","","72","H","0","img/none_selected.jpg","1","0","0","0.8","0","true","0","0.8","0","full_practice","0.2","0","0.6","0","0.2","0","","","","","",""
"23","","bandit","59","221911","0.0-32.0-8.0","48840717","wem/bandit_single","A3R1O5UC9QJGKY","gain","5","","72","H","0","img/none_selected.jpg","0","0","1","0.8","0","true","0","0.8","0","full_practice","0.2","0","0.6","0","0.2","0","","","","","",""
"1194","","bandit","60","224869","0.0-32.0-9.0","48840717","wem/bandit_single","A3R1O5UC9QJGKY","gain","5","","74","J","1","","0","0","1","0.2","0","true","0","0.8","0","full_practice","0.2","0","0.6","0","0.2","0","","","","","",""
"80","","bandit","61","226719","0.0-32.0-10.0","48840717","wem/bandit_single","A3R1O5UC9QJGKY","gain","5","","75","K","2","","1","0","0","0.6","0","true","0","0.8","0","full_practice","0.2","0","0.6","0","0.2","0","","","","","",""
"450","","bandit","62","228941","0.0-32.0-11.0","48840717","wem/bandit_single","A3R1O5UC9QJGKY","gain","5","","75","K","2","","1","0","0","0.6","0","true","0","0.8","0","full_practice","0.2","0","0.6","0","0.2","0","","","","","",""
"53","","bandit","63","230764","0.0-32.0-12.0","48840717","wem/bandit_single","A3R1O5UC9QJGKY","gain","5","","75","K","2","","1","0","0","0.6","0","true","0","0.8","0","full_practice","0.2","0","0.6","0","0.2","0","","","","","",""
"315","","bandit","64","232846","0.0-32.0-13.0","48840717","wem/bandit_single","A3R1O5UC9QJGKY","gain","5","","75","K","2","","1","0","0","0.6","0","true","0","0.8","0","full_practice","0.2","0","0.6","0","0.2","0","","","","","",""
"68","","bandit","65","234717","0.0-32.0-14.0","48840717","wem/bandit_single","A3R1O5UC9QJGKY","gain","5","","75","K","2","","1","0","0","0.6","0","true","0","0.8","0","full_practice","0.2","0","0.6","0","0.2","0","","","","","",""
"1","","bandit","66","236517","0.0-32.0-15.0","48840717","wem/bandit_single","A3R1O5UC9QJGKY","gain","5","","75","K","2","","1","0","0","0.6","0","true","0","0.8","0","full_practice","0.2","0","0.6","0","0.2","0","","","","","",""
"19","","bandit","67","238309","0.0-32.0-16.0","48840717","wem/bandit_single","A3R1O5UC9QJGKY","gain","5","","75","K","2","","0","0","1","0.6","0","true","0","0.8","0","full_practice","0.2","0","0.6","0","0.2","0","","","","","",""
"405","","bandit","68","240485","0.0-32.0-17.0","48840717","wem/bandit_single","A3R1O5UC9QJGKY","gain","5","","76","L","3","","0","0","1","0.2","0","true","0","0.8","0","full_practice","0.2","0","0.6","0","0.2","0","","","","","",""
"369","","bandit","69","242623","0.0-32.0-18.0","48840717","wem/bandit_single","A3R1O5UC9QJGKY","gain","5","","76","L","3","","0","0","1","0.2","0","true","0","0.8","0","full_practice","0.2","0","0.6","0","0.2","0","","","","","",""
"298","","bandit","70","244710","0.0-32.0-19.0","48840717","wem/bandit_single","A3R1O5UC9QJGKY","gain","5","","74","J","1","","0","0","1","0.2","0","true","0","0.8","0","full_practice","0.2","0","0.6","0","0.2","0","","","","","",""
"2177","","text","71","247154","0.0-33.0","48840717","wem/bandit_single","A3R1O5UC9QJGKY","gain","5","32","","","","","","","","","","","","","","","","","","","","","","","","","",""
"7155","","text","72","255325","0.0-34.0","48840717","wem/bandit_single","A3R1O5UC9QJGKY","gain","5","32","","","","","","","","","","","","","","","","","","","","","","","","","",""
"3864","","text","73","259197","0.0-35.0","48840717","wem/bandit_single","A3R1O5UC9QJGKY","gain","5","32","","","","","","","","","","","","","","","","","","","","","","","","","",""
"5172","","text","74","264377","0.0-36.0","48840717","wem/bandit_single","A3R1O5UC9QJGKY","gain","5","32","","","","","","","","","","","","","","","","","","","","","","","","","",""
"2419","","text","75","266800","0.0-37.0","48840717","wem/bandit_single","A3R1O5UC9QJGKY","gain","5","32","","","","","","","","","","","","","","","","","","","","","","","","","",""
"1231","","bandit","76","269549","0.0-38.0-0.0","48840717","wem/bandit_single","A3R1O5UC9QJGKY","gain","5","","74","J","1","","0","0","1","0.4657241486","","false","1","0.1478184891","","main_expt","0.4657241486","","0.3811303016","","0.04962883862","","","","","","",""
"23","","bandit","77","271347","0.0-39.0-0.0","48840717","wem/bandit_single","A3R1O5UC9QJGKY","gain","5","","75","K","2","","1","0","0","0.350111504","","false","2","0.2081060842","","main_expt","0.4660849779","","0.350111504","","0.03569255153","","","","","","",""
"50","","bandit","78","273163","0.0-40.0-0.0","48840717","wem/bandit_single","A3R1O5UC9QJGKY","gain","5","","75","K","2","","1","0","0","0.3436486883","","false","3","0.1722167697","","main_expt","0.4687539887","","0.3436486883","","0.02901958263","","","","","","",""
"68","","bandit","79","274999","0.0-41.0-0.0","48840717","wem/bandit_single","A3R1O5UC9QJGKY","gain","5","","75","K","2","","1","0","0","0.3419997506","","false","4","0.1424145416","","main_expt","0.48401473","","0.3419997506","","0.04894390993","","","","","","",""
"25","","bandit","80","276794","0.0-42.0-0.0","48840717","wem/bandit_single","A3R1O5UC9QJGKY","gain","5","","75","K","2","","1","0","0","0.3692180445","","false","5","0.1446667298","","main_expt","0.4755123677","","0.3692180445","","0.04206610475","","","","","","",""
"41","","bandit","81","278602","0.0-43.0-0.0","48840717","wem/bandit_single","A3R1O5UC9QJGKY","gain","5","","75","K","2","","0","0","1","0.3602257359","","false","6","0.1447199692","","main_expt","0.4802482158","","0.3602257359","","0.04292771587","","","","","","",""
"561","","bandit","82","280937","0.0-44.0-0.0","48840717","wem/bandit_single","A3R1O5UC9QJGKY","gain","5","","76","L","3","","0","0","1","0.06035830385","","false","7","0.1001258446","","main_expt","0.4780438684","","0.3568498895","","0.06035830385","","","","","","",""
"419","","bandit","83","283128","0.0-45.0-0.0","48840717","wem/bandit_single","A3R1O5UC9QJGKY","gain","5","","72","H","0","img/none_selected.jpg","0","0","1","0.1244671667","","false","8","0.1244671667","","main_expt","0.4575173044","","0.294604339","","0.09727842944","","","","","","",""
"20","","bandit","84","284920","0.0-46.0-0.0","48840717","wem/bandit_single","A3R1O5UC9QJGKY","gain","5","","74","J","1","","0","0","1","0.4525933246","","false","9","0.1293804987","","main_expt","0.4525933246","","0.3802768622","","0.07952196982","","","","","","",""
"905","","bandit","85","287597","0.0-47.0-0.0","48840717","wem/bandit_single","A3R1O5UC9QJGKY","gain","5","","75","K","2","","0","0","1","0.3530595227","","false","10","0.1606810952","","main_expt","0.4476408152","","0.3530595227","","0.1049852556","","","","","","",""
"400","","bandit","86","289772","0.0-48.0-0.0","48840717","wem/bandit_single","A3R1O5UC9QJGKY","gain","5","","76","L","3","","0","0","1","0.1118692116","","false","11","0.1585385462","","main_expt","0.4484644352","","0.358648576","","0.1118692116","","","","","","",""
"121","","bandit","87","291666","0.0-49.0-0.0","48840717","wem/bandit_single","A3R1O5UC9QJGKY","gain","5","","74","J","1","","0","0","1","0.4466341879","","false","12","0.1492634201","","main_expt","0.4466341879","","0.3382469396","","0.1270372311","","","","","","",""
"477","","bandit","88","293912","0.0-50.0-0.0","48840717","wem/bandit_single","A3R1O5UC9QJGKY","gain","5","","72","H","0","img/none_selected.jpg","0","0","1","0.1106465011","","false","13","0.1106465011","","main_expt","0.4642511008","","0.3092021245","","0.1278892577","","","","","","",""
"604","","bandit","89","296285","0.0-51.0-0.0","48840717","wem/bandit_single","A3R1O5UC9QJGKY","gain","5","","75","K","2","","0","0","1","0.3532484784","","false","14","0.1232346967","","main_expt","0.4615970843","","0.3532484784","","0.1024725346","","","","","","",""
"133","","bandit","90","298223","0.0-52.0-0.0","48840717","wem/bandit_single","A3R1O5UC9QJGKY","gain","5","","76","L","3","","0","0","1","0.1234109619","","false","15","0.1323340596","","main_expt","0.4692442536","","0.3371384495","","0.1234109619","","","","","","",""
"26","","bandit","91","300023","0.0-53.0-0.0","48840717","wem/bandit_single","A3R1O5UC9QJGKY","gain","5","","74","J","1","","0","0","1","0.4755425263","","false","16","0.1410223318","","main_expt","0.4755425263","","0.3282622062","","0.1360550169","","","","","","",""
"65","","bandit","92","301859","0.0-54.0-0.0","48840717","wem/bandit_single","A3R1O5UC9QJGKY","gain","5","","72","H","0","img/none_selected.jpg","1","0","0","0.1498636582","","false","17","0.1498636582","","main_expt","0.4828633911","","0.3032164303","","0.1070219664","","","","","","",""
"134","","bandit","93","303766","0.0-55.0-0.0","48840717","wem/bandit_single","A3R1O5UC9QJGKY","gain","5","","72","H","0","img/none_selected.jpg","0","0","1","0.1132842199","","false","18","0.1132842199","","main_expt","0.4784959143","","0.2834034058","","0.09318331203","","","","","","",""
"155","","bandit","94","305700","0.0-56.0-0.0","48840717","wem/bandit_single","A3R1O5UC9QJGKY","gain","5","","72","H","0","img/none_selected.jpg","0","0","1","0.08554013857","","false","19","0.08554013857","","main_expt","0.4645747316","","0.376157017","","0.08644374764","","","","","","",""
"170","","bandit","95","307643","0.0-57.0-0.0","48840717","wem/bandit_single","A3R1O5UC9QJGKY","gain","5","","74","J","1","","1","0","0","0.4441513352","","false","20","0.1176407844","","main_expt","0.4441513352","","0.3718288413","","0.1066513301","","","","","","",""
"405","","bandit","96","309817","0.0-58.0-0.0","48840717","wem/bandit_single","A3R1O5UC9QJGKY","gain","5","","74","J","1","","0","0","1","0.4281495132","","false","21","0.09701455477","","main_expt","0.4281495132","","0.3755251961","","0.1143532382","","","","","","",""
"87","","bandit","97","311673","0.0-59.0-0.0","48840717","wem/bandit_single","A3R1O5UC9QJGKY","gain","5","","75","K","2","","1","0","0","0.3536603278","","false","22","0.08683592795","","main_expt","0.4374563715","","0.3536603278","","0.111858438","","","","","","",""
"40","","bandit","98","313481","0.0-60.0-0.0","48840717","wem/bandit_single","A3R1O5UC9QJGKY","gain","5","","75","K","2","","1","0","0","0.3908816919","","false","23","0.1062952262","","main_expt","0.4408316507","","0.3908816919","","0.09088087914","","","","","","",""
"41","","bandit","99","315291","0.0-61.0-0.0","48840717","wem/bandit_single","A3R1O5UC9QJGKY","gain","5","","75","K","2","","1","0","0","0.3639752867","","false","24","0.1320295984","","main_expt","0.4249736282","","0.3639752867","","0.1045917755","","","","","","",""
"19","","bandit","100","317078","0.0-62.0-0.0","48840717","wem/bandit_single","A3R1O5UC9QJGKY","gain","5","","75","K","2","","1","0","0","0.3569796848","","false","25","0.18562956","","main_expt","0.4542404639","","0.3569796848","","0.107118439","","","","","","",""
"28","","bandit","101","318873","0.0-63.0-0.0","48840717","wem/bandit_single","A3R1O5UC9QJGKY","gain","5","","75","K","2","","0","0","1","0.3466804264","","false","26","0.1589772959","","main_expt","0.4707756245","","0.3466804264","","0.08847958778","","","","","","",""
"478","","bandit","102","321122","0.0-64.0-0.0","48840717","wem/bandit_single","A3R1O5UC9QJGKY","gain","5","","76","L","3","","1","0","0","0.105958259","","false","27","0.1361305173","","main_expt","0.4492807888","","0.3487144915","","0.105958259","","","","","","",""
"31","","bandit","103","322921","0.0-65.0-0.0","48840717","wem/bandit_single","A3R1O5UC9QJGKY","gain","5","","76","L","3","","0","0","1","0.09976229861","","false","28","0.1517112547","","main_expt","0.4630254912","","0.31872733","","0.09976229861","","","","","","",""
"742","","bandit","104","325435","0.0-66.0-0.0","48840717","wem/bandit_single","A3R1O5UC9QJGKY","gain","5","","74","J","1","","1","0","0","0.4582460064","","false","29","0.1207272987","","main_expt","0.4582460064","","0.3351256986","","0.1117783291","","","","","","",""
"111","","bandit","105","327313","0.0-67.0-0.0","48840717","wem/bandit_single","A3R1O5UC9QJGKY","gain","5","","74","J","1","","1","0","0","0.44398484","","false","30","0.06619286558","","main_expt","0.44398484","","0.3165147827","","0.104708879","","","","","","",""
"367","","bandit","106","329453","0.0-68.0-0.0","48840717","wem/bandit_single","A3R1O5UC9QJGKY","gain","5","","74","J","1","","0","0","1","0.4662875842","","false","31","0.08172424971","","main_expt","0.4662875842","","0.3587164307","","0.1168740313","","","","","","",""
"235","","bandit","107","331458","0.0-69.0-0.0","48840717","wem/bandit_single","A3R1O5UC9QJGKY","gain","5","","72","H","0","img/none_selected.jpg","0","0","1","0.1118972321","","false","32","0.1118972321","","main_expt","0.4823207571","","0.384091524","","0.1193100679","","","","","","",""
"272","","bandit","108","333508","0.0-70.0-0.0","48840717","wem/bandit_single","A3R1O5UC9QJGKY","gain","5","","75","K","2","","0","0","1","0.3410562849","","false","33","0.07764728595","","main_expt","0.4887640326","","0.3410562849","","0.1160378653","","","","","","",""
"78","","bandit","109","335352","0.0-71.0-0.0","48840717","wem/bandit_single","A3R1O5UC9QJGKY","gain","5","","76","L","3","","0","0","1","0.1240203414","","false","34","0.1021677232","","main_expt","0.4871413525","","0.3772037995","","0.1240203414","","","","","","",""
"27","","bandit","110","337151","0.0-72.0-0.0","48840717","wem/bandit_single","A3R1O5UC9QJGKY","gain","5","","74","J","1","","0","0","1","0.472467875","","false","35","0.09263198197","","main_expt","0.472467875","","0.3601610849","","0.1568527985","","","","","","",""
"76","","bandit","111","338995","0.0-73.0-0.0","48840717","wem/bandit_single","A3R1O5UC9QJGKY","gain","5","","76","L","3","","1","0","0","0.1887398002","","false","36","0.1395706987","","main_expt","0.4801988656","","0.3199141994","","0.1887398002","","","","","","",""
"30","","bandit","112","340793","0.0-74.0-0.0","48840717","wem/bandit_single","A3R1O5UC9QJGKY","gain","5","","76","L","3","","0","0","1","0.1567271146","","false","37","0.1166343238","","main_expt","0.4658101737","","0.3022128767","","0.1567271146","","","","","","",""
"49","","bandit","113","342609","0.0-75.0-0.0","48840717","wem/bandit_single","A3R1O5UC9QJGKY","gain","5","","72","H","0","img/none_selected.jpg","0","0","1","0.1344783462","","false","38","0.1344783462","","main_expt","0.4725237643","","0.220841548","","0.1213003185","","","","","","",""
"407","","bandit","114","344785","0.0-76.0-0.0","48840717","wem/bandit_single","A3R1O5UC9QJGKY","gain","5","","74","J","1","","0","0","1","0.4863678522","","false","39","0.1132701409","","main_expt","0.4863678522","","0.2273815274","","0.1129188575","","","","","","",""
"233","","bandit","115","346784","0.0-77.0-0.0","48840717","wem/bandit_single","A3R1O5UC9QJGKY","gain","5","","75","K","2","","1","0","0","0.2216047912","","false","40","0.1269330716","","main_expt","0.4756100127","","0.2216047912","","0.1490040727","","","","","","",""
"120","","bandit","116","348671","0.0-78.0-0.0","48840717","wem/bandit_single","A3R1O5UC9QJGKY","gain","5","","75","K","2","","0","0","1","0.1790357129","","false","41","0.1043764639","","main_expt","0.4644843691","","0.1790357129","","0.20555416","","","","","","",""
"26","","bandit","117","350464","0.0-79.0-0.0","48840717","wem/bandit_single","A3R1O5UC9QJGKY","gain","5","","76","L","3","","1","0","0","0.2458082757","","false","42","0.123259557","","main_expt","0.4595487669","","0.1124402831","","0.2458082757","","","","","","",""
"162","","bandit","118","352396","0.0-80.0-0.0","48840717","wem/bandit_single","A3R1O5UC9QJGKY","gain","5","","76","L","3","","0","0","1","0.1980967925","","false","43","0.1523094635","","main_expt","0.4598563523","","0.1309909921","","0.1980967925","","","","","","",""
"28","","bandit","119","354222","0.0-81.0-0.0","48840717","wem/bandit_single","A3R1O5UC9QJGKY","gain","5","","75","K","2","","0","0","1","0.1620245532","","false","44","0.1438901127","","main_expt","0.4444935065","","0.1620245532","","0.2011817551","","","","","","",""
"73","","bandit","120","356062","0.0-82.0-0.0","48840717","wem/bandit_single","A3R1O5UC9QJGKY","gain","5","","72","H","0","img/none_selected.jpg","0","0","1","0.1381896233","","false","45","0.1381896233","","main_expt","0.4201454787","","0.1962154431","","0.1908172103","","","","","","",""
"323","","bandit","121","358152","0.0-83.0-0.0","48840717","wem/bandit_single","A3R1O5UC9QJGKY","gain","5","","74","J","1","","0","0","1","0.4420567968","","false","46","0.08118013389","","main_expt","0.4420567968","","0.1548021256","","0.1682898959","","","","","","",""
"80","","bandit","122","359999","0.0-84.0-0.0","48840717","wem/bandit_single","A3R1O5UC9QJGKY","gain","5","","75","K","2","","0","0","1","0.155425446","","false","47","0.08279503272","","main_expt","0.4454115659","","0.155425446","","0.114950809","","","","","","",""
"160","","bandit","123","361929","0.0-85.0-0.0","48840717","wem/bandit_single","A3R1O5UC9QJGKY","gain","5","","76","L","3","","0","0","1","0.1231508501","","false","48","0.09757227309","","main_expt","0.4409121906","","0.2368850053","","0.1231508501","","","","","","",""
"126","","bandit","124","363826","0.0-86.0-0.0","48840717","wem/bandit_single","A3R1O5UC9QJGKY","gain","5","","72","H","0","img/none_selected.jpg","0","0","1","0.1407466139","","false","49","0.1407466139","","main_expt","0.4640555105","","0.1712995484","","0.1264715503","","","","","","",""
"114","","bandit","125","365722","0.0-87.0-0.0","48840717","wem/bandit_single","A3R1O5UC9QJGKY","gain","5","","74","J","1","","1","0","0","0.4619625264","","false","50","0.1128896644","","main_expt","0.4619625264","","0.2371897999","","0.1119267987","","","","","","",""
"20","","bandit","126","367523","0.0-88.0-0.0","48840717","wem/bandit_single","A3R1O5UC9QJGKY","gain","5","","74","J","1","","1","0","0","0.4686499241","","false","51","0.1292206793","","main_expt","0.4686499241","","0.2520952739","","0.1192285775","","","","","","",""
"47","","bandit","127","369345","0.0-89.0-0.0","48840717","wem/bandit_single","A3R1O5UC9QJGKY","gain","5","","74","J","1","","0","0","1","0.4721244997","","false","52","0.117204758","","main_expt","0.4721244997","","0.2201249325","","0.1536714506","","","","","","",""
"404","","bandit","128","371522","0.0-90.0-0.0","48840717","wem/bandit_single","A3R1O5UC9QJGKY","gain","5","","75","K","2","","0","0","1","0.2019083534","","false","53","0.1180232867","","main_expt","0.4776765754","","0.2019083534","","0.1817289366","","","","","","",""
"164","","bandit","129","373468","0.0-91.0-0.0","48840717","wem/bandit_single","A3R1O5UC9QJGKY","gain","5","","76","L","3","","0","0","1","0.1664376657","","false","54","0.09503139185","","main_expt","0.4788042678","","0.2133100918","","0.1664376657","","","","","","",""
"141","","bandit","130","375386","0.0-92.0-0.0","48840717","wem/bandit_single","A3R1O5UC9QJGKY","gain","5","","72","H","0","img/none_selected.jpg","1","0","0","0.1238025275","","false","55","0.1238025275","","main_expt","0.4852168201","","0.2210295122","","0.1219288973","","","","","","",""
"11","","bandit","131","377170","0.0-93.0-0.0","48840717","wem/bandit_single","A3R1O5UC9QJGKY","gain","5","","72","H","0","img/none_selected.jpg","0","0","1","0.1544257673","","false","56","0.1544257673","","main_expt","0.4860946669","","0.1728424853","","0.1392062569","","","","","","",""
"130","","bandit","132","379072","0.0-94.0-0.0","48840717","wem/bandit_single","A3R1O5UC9QJGKY","gain","5","","74","J","1","","1","0","0","0.4859962979","","false","57","0.1492478473","","main_expt","0.4859962979","","0.2301797189","","0.2060247316","","","","","","",""
"119","","bandit","133","380959","0.0-95.0-0.0","48840717","wem/bandit_single","A3R1O5UC9QJGKY","gain","5","","74","J","1","","1","0","0","0.4751013025","","false","58","0.1392181034","","main_expt","0.4751013025","","0.2820892606","","0.1723567799","","","","","","",""
"39","","bandit","134","382768","0.0-96.0-0.0","48840717","wem/bandit_single","A3R1O5UC9QJGKY","gain","5","","74","J","1","","0","0","1","0.4816883425","","false","59","0.1854998728","","main_expt","0.4816883425","","0.308641684","","0.16345501","","","","","","",""
"4","","bandit","135","384543","0.0-97.0-0.0","48840717","wem/bandit_single","A3R1O5UC9QJGKY","gain","5","","75","K","2","","0","0","1","0.3012287428","","false","60","0.1306651225","","main_expt","0.4846541976","","0.3012287428","","0.1552759559","","","","","","",""
"356","","bandit","136","386671","0.0-98.0-0.0","48840717","wem/bandit_single","A3R1O5UC9QJGKY","gain","5","","76","L","3","","0","0","1","0.1652193455","","false","61","0.1567024934","","main_expt","0.4848840061","","0.263166603","","0.1652193455","","","","","","",""
"190","","bandit","137","388639","0.0-99.0-0.0","48840717","wem/bandit_single","A3R1O5UC9QJGKY","gain","5","","72","H","0","img/none_selected.jpg","0","0","1","0.1622246099","","false","62","0.1622246099","","main_expt","0.4856292504","","0.2428038775","","0.1813222976","","","","","","",""
"581","","bandit","138","390992","0.0-100.0-0.0","48840717","wem/bandit_single","A3R1O5UC9QJGKY","gain","5","","75","K","2","","0","0","1","0.2843805899","","false","63","0.2196770705","","main_expt","0.4865153319","","0.2843805899","","0.1727004114","","","","","","",""
"43","","bandit","139","392809","0.0-101.0-0.0","48840717","wem/bandit_single","A3R1O5UC9QJGKY","gain","5","","74","J","1","","1","0","0","0.4874146034","","false","64","0.218319606","","main_expt","0.4874146034","","0.2895992306","","0.2105999223","","","","","","",""
"34","","bandit","140","394616","0.0-102.0-0.0","48840717","wem/bandit_single","A3R1O5UC9QJGKY","gain","5","","74","J","1","","1","0","0","0.4781609215","","false","65","0.2278721313","","main_expt","0.4781609215","","0.3847688","","0.240225816","","","","","","",""
"37","","bandit","141","396425","0.0-103.0-0.0","48840717","wem/bandit_single","A3R1O5UC9QJGKY","gain","5","","74","J","1","","1","0","0","0.4848714892","","false","66","0.1599393353","","main_expt","0.4848714892","","0.4083751038","","0.2924754864","","","","","","",""
"53","","bandit","142","398247","0.0-104.0-0.0","48840717","wem/bandit_single","A3R1O5UC9QJGKY","gain","5","","74","J","1","","0","0","1","0.4872204599","","false","67","0.1647045883","","main_expt","0.4872204599","","0.4036944211","","0.2363072125","","","","","","",""
"1147","","bandit","143","401166","0.0-105.0-0.0","48840717","wem/bandit_single","A3R1O5UC9QJGKY","gain","5","","76","L","3","","1","0","0","0.264359064","","false","68","0.1442333851","","main_expt","0.4749956953","","0.3910329043","","0.264359064","","","","","","",""
"158","","bandit","144","403095","0.0-106.0-0.0","48840717","wem/bandit_single","A3R1O5UC9QJGKY","gain","5","","76","L","3","","0","0","1","0.2755227552","","false","69","0.1757685765","","main_expt","0.4776093432","","0.3438989047","","0.2755227552","","","","","","",""
"127","","bandit","145","404998","0.0-107.0-0.0","48840717","wem/bandit_single","A3R1O5UC9QJGKY","gain","5","","75","K","2","","0","0","1","0.3282106587","","false","70","0.1995177274","","main_expt","0.4550183311","","0.3282106587","","0.2978365432","","","","","","",""
"109","","bandit","146","406878","0.0-108.0-0.0","48840717","wem/bandit_single","A3R1O5UC9QJGKY","gain","5","","72","H","0","img/none_selected.jpg","0","0","1","0.2429348876","","false","71","0.2429348876","","main_expt","0.4466984445","","0.3085852942","","0.2788476436","","","","","","",""
"22","","bandit","147","408670","0.0-109.0-0.0","48840717","wem/bandit_single","A3R1O5UC9QJGKY","gain","5","","74","J","1","","1","0","0","0.453817204","","false","72","0.2134703404","","main_expt","0.453817204","","0.317066931","","0.2983184618","","","","","","",""
"96","","bandit","148","410533","0.0-110.0-0.0","48840717","wem/bandit_single","A3R1O5UC9QJGKY","gain","5","","74","J","1","","1","0","0","0.4421557619","","false","73","0.2779115064","","main_expt","0.4421557619","","0.3118309255","","0.3235064893","","","","","","",""
"22","","bandit","149","412325","0.0-111.0-0.0","48840717","wem/bandit_single","A3R1O5UC9QJGKY","gain","5","","74","J","1","","0","0","1","0.4340536998","","false","74","0.2696493969","","main_expt","0.4340536998","","0.3442292265","","0.2605282151","","","","","","",""
"48","","bandit","150","414142","0.0-112.0-0.0","48840717","wem/bandit_single","A3R1O5UC9QJGKY","gain","5","","76","L","3","","1","0","0","0.3081503464","","false","75","0.2929582525","","main_expt","0.4148912722","","0.3392290825","","0.3081503464","","","","","","",""
"582","","bandit","151","416496","0.0-113.0-0.0","48840717","wem/bandit_single","A3R1O5UC9QJGKY","gain","5","","76","L","3","","1","0","0","0.3793773342","","false","76","0.2925997362","","main_expt","0.4049452856","","0.3019050266","","0.3793773342","","","","","","",""
"315","","bandit","152","418584","0.0-114.0-0.0","48840717","wem/bandit_single","A3R1O5UC9QJGKY","gain","5","","76","L","3","","1","0","0","0.4108459626","","false","77","0.2402419665","","main_expt","0.3804311168","","0.3346778491","","0.4108459626","","","","","","",""
"106","","bandit","153","420462","0.0-115.0-0.0","48840717","wem/bandit_single","A3R1O5UC9QJGKY","gain","5","","76","L","3","","0","0","1","0.432197644","","false","78","0.2662288132","","main_expt","0.4076768351","","0.2858281516","","0.432197644","","","","","","",""
"77","","bandit","154","422310","0.0-116.0-0.0","48840717","wem/bandit_single","A3R1O5UC9QJGKY","gain","5","","75","K","2","","1","0","0","0.2601805687","","false","79","0.2946750364","","main_expt","0.4322729224","","0.2601805687","","0.4681634707","","","","","","",""
"68","","bandit","155","424150","0.0-117.0-0.0","48840717","wem/bandit_single","A3R1O5UC9QJGKY","gain","5","","75","K","2","","0","0","1","0.2494540003","","false","80","0.3142603933","","main_expt","0.4344903628","","0.2494540003","","0.4487514359","","","","","","",""
"9","","bandit","156","425927","0.0-118.0-0.0","48840717","wem/bandit_single","A3R1O5UC9QJGKY","gain","5","","72","H","0","img/none_selected.jpg","0","0","1","0.3045476359","","false","81","0.3045476359","","main_expt","0.4128510282","","0.2029748002","","0.4278748425","","","","","","",""
"174","","bandit","157","427868","0.0-119.0-0.0","48840717","wem/bandit_single","A3R1O5UC9QJGKY","gain","5","","76","L","3","","1","0","0","0.3873338363","","false","82","0.2481672469","","main_expt","0.3473788204","","0.1459008349","","0.3873338363","","","","","","",""
"25","","bandit","158","429662","0.0-120.0-0.0","48840717","wem/bandit_single","A3R1O5UC9QJGKY","gain","5","","76","L","3","","0","0","1","0.3676955993","","false","83","0.2366474468","","main_expt","0.3964685929","","0.1792892234","","0.3676955993","","","","","","",""
"483","","bandit","159","431913","0.0-121.0-0.0","48840717","wem/bandit_single","A3R1O5UC9QJGKY","gain","5","","74","J","1","","1","0","0","0.4058457219","","false","84","0.2327145127","","main_expt","0.4058457219","","0.1384159538","","0.3494013457","","","","","","",""
"83","","bandit","160","433776","0.0-122.0-0.0","48840717","wem/bandit_single","A3R1O5UC9QJGKY","gain","5","","74","J","1","","0","0","1","0.419702676","","false","85","0.2276425053","","main_expt","0.419702676","","0.1569521301","","0.3484693071","","","","","","",""
"426","","bandit","161","435987","0.0-123.0-0.0","48840717","wem/bandit_single","A3R1O5UC9QJGKY","gain","5","","75","K","2","","1","0","0","0.2111509195","","false","86","0.1932648708","","main_expt","0.3584641731","","0.2111509195","","0.3738623358","","","","","","",""
"28","","bandit","162","437791","0.0-124.0-0.0","48840717","wem/bandit_single","A3R1O5UC9QJGKY","gain","5","","75","K","2","","0","0","1","0.1855749087","","false","87","0.1554886006","","main_expt","0.3362954576","","0.1855749087","","0.3635865115","","","","","","",""
"475","","bandit","163","440056","0.0-125.0-0.0","48840717","wem/bandit_single","A3R1O5UC9QJGKY","gain","5","","72","H","0","img/none_selected.jpg","0","0","1","0.1288388744","","false","88","0.1288388744","","main_expt","0.3495778317","","0.1260067519","","0.28993028","","","","","","",""
"235","","bandit","164","442076","0.0-126.0-0.0","48840717","wem/bandit_single","A3R1O5UC9QJGKY","gain","5","","76","L","3","","0","0","1","0.2529053562","","false","89","0.1672252434","","main_expt","0.3337998134","","0.1930097593","","0.2529053562","","","","","","",""
"254","","bandit","165","444112","0.0-127.0-0.0","48840717","wem/bandit_single","A3R1O5UC9QJGKY","gain","5","","74","J","1","","0","0","1","0.3254710898","","false","90","0.1379373657","","main_expt","0.3254710898","","0.2016869017","","0.2239223254","","","","","","",""
"145","","bandit","166","446029","0.0-128.0-0.0","48840717","wem/bandit_single","A3R1O5UC9QJGKY","gain","5","","75","K","2","","0","0","1","0.2283296651","","false","91","0.1296834551","","main_expt","0.3248617863","","0.2283296651","","0.1874521573","","","","","","",""
"19","","bandit","167","447858","0.0-129.0-0.0","48840717","wem/bandit_single","A3R1O5UC9QJGKY","gain","5","","76","L","3","","0","0","1","0.1464907128","","false","92","0.1601432093","","main_expt","0.3290731597","","0.2253008126","","0.1464907128","","","","","","",""
"701","","bandit","168","450347","0.0-130.0-0.0","48840717","wem/bandit_single","A3R1O5UC9QJGKY","gain","5","","72","H","0","img/none_selected.jpg","0","0","1","0.1976873148","","false","93","0.1976873148","","main_expt","0.2947126164","","0.1826671142","","0.1817498408","","","","","","",""
"13","","bandit","169","452134","0.0-131.0-0.0","48840717","wem/bandit_single","A3R1O5UC9QJGKY","gain","5","","74","J","1","","0","0","1","0.2762739163","","false","94","0.2296862911","","main_expt","0.2762739163","","0.1650727581","","0.1967130988","","","","","","",""
"347","","bandit","170","454255","0.0-132.0-0.0","48840717","wem/bandit_single","A3R1O5UC9QJGKY","gain","5","","75","K","2","","0","0","1","0.1971582392","","false","95","0.1990842867","","main_expt","0.3184689772","","0.1971582392","","0.2294656294","","","","","","",""
"49","","bandit","171","456077","0.0-133.0-0.0","48840717","wem/bandit_single","A3R1O5UC9QJGKY","gain","5","","76","L","3","","0","0","1","0.2966343553","","false","96","0.258496532","","main_expt","0.281027734","","0.1791402521","","0.2966343553","","","","","","",""
"77","","bandit","172","457926","0.0-134.0-0.0","48840717","wem/bandit_single","A3R1O5UC9QJGKY","gain","5","","74","J","1","","0","0","1","0.2474299406","","false","97","0.2766566169","","main_expt","0.2474299406","","0.1516442175","","0.3346257274","","","","","","",""
"28","","bandit","173","459727","0.0-135.0-0.0","48840717","wem/bandit_single","A3R1O5UC9QJGKY","gain","5","","72","H","0","img/none_selected.jpg","0","0","1","0.2377114848","","false","98","0.2377114848","","main_expt","0.2217126022","","0.2200018313","","0.3139493976","","","","","","",""
"137","","bandit","174","461665","0.0-136.0-0.0","48840717","wem/bandit_single","A3R1O5UC9QJGKY","gain","5","","75","K","2","","0","0","1","0.2752547205","","false","99","0.3124158187","","main_expt","0.2677278576","","0.2752547205","","0.2478490566","","","","","","",""
"4","","bandit","175","463448","0.0-137.0-0.0","48840717","wem/bandit_single","A3R1O5UC9QJGKY","gain","5","","74","J","1","","0","0","1","0.3271916833","","false","100","0.2059987679","","main_expt","0.3271916833","","0.252850905","","0.2602221343","","","","","","",""
"28","","bandit","176","465253","0.0-138.0-0.0","48840717","wem/bandit_single","A3R1O5UC9QJGKY","gain","5","","76","L","3","","0","0","1","0.2584762291","","false","101","0.1758265216","","main_expt","0.3066156257","","0.1867047362","","0.2584762291","","","","","","",""
"644","","bandit","177","467668","0.0-139.0-0.0","48840717","wem/bandit_single","A3R1O5UC9QJGKY","gain","5","","75","K","2","","0","0","1","0.1175578895","","false","102","0.2262322791","","main_expt","0.3260250896","","0.1175578895","","0.282093771","","","","","","",""
"164","","bandit","178","469610","0.0-140.0-0.0","48840717","wem/bandit_single","A3R1O5UC9QJGKY","gain","5","","74","J","1","","0","0","1","0.3731136732","","false","103","0.2018281434","","main_expt","0.3731136732","","0.09132094505","","0.2725256196","","","","","","",""
"258","","bandit","179","471639","0.0-141.0-0.0","48840717","wem/bandit_single","A3R1O5UC9QJGKY","gain","5","","72","H","0","img/none_selected.jpg","0","0","1","0.1447482012","","false","104","0.1447482012","","main_expt","0.3941656488","","0.1422553795","","0.2243623384","","","","","","",""
"83","","bandit","180","473495","0.0-142.0-0.0","48840717","wem/bandit_single","A3R1O5UC9QJGKY","gain","5","","76","L","3","","0","0","1","0.2403200944","","false","105","0.2104813725","","main_expt","0.4030151573","","0.1390697773","","0.2403200944","","","","","","",""
"39","","bandit","181","475362","0.0-143.0-0.0","48840717","wem/bandit_single","A3R1O5UC9QJGKY","gain","5","","75","K","2","","0","0","1","0.1155807694","","false","106","0.2492378957","","main_expt","0.3715193073","","0.1155807694","","0.2332798071","","","","","","",""
"215","","bandit","182","477348","0.0-144.0-0.0","48840717","wem/bandit_single","A3R1O5UC9QJGKY","gain","5","","74","J","1","","1","0","0","0.3837270358","","false","107","0.217404121","","main_expt","0.3837270358","","0.105728532","","0.181620067","","","","","","",""
"148","","bandit","183","479269","0.0-145.0-0.0","48840717","wem/bandit_single","A3R1O5UC9QJGKY","gain","5","","74","J","1","","1","0","0","0.3908875135","","false","108","0.2142202377","","main_expt","0.3908875135","","0.08831090648","","0.2173069915","","","","","","",""
"43","","bandit","184","481085","0.0-146.0-0.0","48840717","wem/bandit_single","A3R1O5UC9QJGKY","gain","5","","74","J","1","","0","0","1","0.3774052568","","false","109","0.2683226389","","main_expt","0.3774052568","","0.1043724426","","0.226697077","","","","","","",""
"34","","bandit","185","482894","0.0-147.0-0.0","48840717","wem/bandit_single","A3R1O5UC9QJGKY","gain","5","","75","K","2","","0","0","1","0.07530108238","","false","110","0.2619142817","","main_expt","0.3601275089","","0.07530108238","","0.2695419639","","","","","","",""
"36","","bandit","186","484700","0.0-148.0-0.0","48840717","wem/bandit_single","A3R1O5UC9QJGKY","gain","5","","76","L","3","","0","0","1","0.2635727161","","false","111","0.2754039507","","main_expt","0.3880855357","","0.05159845725","","0.2635727161","","","","","","",""
"43","","bandit","187","486518","0.0-149.0-0.0","48840717","wem/bandit_single","A3R1O5UC9QJGKY","gain","5","","72","H","0","img/none_selected.jpg","0","0","1","0.2721436228","","false","112","0.2721436228","","main_expt","0.3864248384","","0.08116028731","","0.3202716687","","","","","","",""
"412","","bandit","188","488700","0.0-150.0-0.0","48840717","wem/bandit_single","A3R1O5UC9QJGKY","gain","5","","75","K","2","","0","0","1","0.08538759299","","false","113","0.2598768298","","main_expt","0.339569604","","0.08538759299","","0.3546461764","","","","","","",""
"2","","bandit","189","490477","0.0-151.0-0.0","48840717","wem/bandit_single","A3R1O5UC9QJGKY","gain","5","","76","L","3","","0","0","1","0.3339806629","","false","114","0.2271708717","","main_expt","0.3612744832","","0.106551095","","0.3339806629","","","","","","",""
"59","","bandit","190","492307","0.0-152.0-0.0","48840717","wem/bandit_single","A3R1O5UC9QJGKY","gain","5","","74","J","1","","1","0","0","0.3616298021","","false","115","0.2382373761","","main_expt","0.3616298021","","0.1120532439","","0.3175163572","","","","","","",""
"1","","bandit","191","494086","0.0-153.0-0.0","48840717","wem/bandit_single","A3R1O5UC9QJGKY","gain","5","","74","J","1","","0","0","1","0.3886586702","","false","116","0.2092397162","","main_expt","0.3886586702","","0.07206247825","","0.3626291523","","","","","","",""
"89","","bandit","192","495948","0.0-154.0-0.0","48840717","wem/bandit_single","A3R1O5UC9QJGKY","gain","5","","72","H","0","img/none_selected.jpg","0","0","1","0.1790603663","","false","117","0.1790603663","","main_expt","0.3837198657","","0.05990892348","","0.4005972513","","","","","","",""
"3","","bandit","193","497723","0.0-155.0-0.0","48840717","wem/bandit_single","A3R1O5UC9QJGKY","gain","5","","75","K","2","","0","0","1","0.07349038746","","false","118","0.2515048449","","main_expt","0.3831944796","","0.07349038746","","0.3994725347","","","","","","",""
"3","","bandit","194","499497","0.0-156.0-0.0","48840717","wem/bandit_single","A3R1O5UC9QJGKY","gain","5","","76","L","3","","0","0","1","0.3690387214","","false","119","0.2591845625","","main_expt","0.3200080389","","0.0880416307","","0.3690387214","","","","","","",""
"424","","bandit","195","501734","0.0-157.0-0.0","48840717","wem/bandit_single","A3R1O5UC9QJGKY","gain","5","","74","J","1","","1","0","0","0.3498825307","","false","120","0.2719994365","","main_expt","0.3498825307","","0.08832912692","","0.3553033444","","","","","","",""
"105","","bandit","196","503627","0.0-158.0-0.0","48840717","wem/bandit_single","A3R1O5UC9QJGKY","gain","5","","74","J","1","","1","0","0","0.3150568547","","false","121","0.2511552987","","main_expt","0.3150568547","","0.08322673311","","0.3558993888","","","","","","",""
"172","","bandit","197","505589","0.0-159.0-0.0","48840717","wem/bandit_single","A3R1O5UC9QJGKY","gain","5","","74","J","1","","0","0","1","0.332296042","","false","122","0.246059836","","main_expt","0.332296042","","0.1027924146","","0.3539125929","","","","","","",""
"257","","bandit","198","507620","0.0-160.0-0.0","48840717","wem/bandit_single","A3R1O5UC9QJGKY","gain","5","","75","K","2","","0","0","1","0.1112730508","","false","123","0.201637063","","main_expt","0.3023892254","","0.1112730508","","0.2756210624","","","","","","",""
"160","","bandit","199","509557","0.0-161.0-0.0","48840717","wem/bandit_single","A3R1O5UC9QJGKY","gain","5","","76","L","3","","0","0","1","0.2924451827","","false","124","0.2424225803","","main_expt","0.2971441903","","0.1401536705","","0.2924451827","","","","","","",""
"84","","bandit","200","511426","0.0-162.0-0.0","48840717","wem/bandit_single","A3R1O5UC9QJGKY","gain","5","","74","J","1","","1","0","0","0.2989687221","","false","125","0.2663511033","","main_expt","0.2989687221","","0.170676821","","0.3283550958","","","","","","",""
"115","","bandit","201","513317","0.0-163.0-0.0","48840717","wem/bandit_single","A3R1O5UC9QJGKY","gain","5","","74","J","1","","1","0","0","0.3470717071","","false","126","0.2214557307","","main_expt","0.3470717071","","0.2239131839","","0.3561713316","","","","","","",""
"57","","bandit","202","515148","0.0-164.0-0.0","48840717","wem/bandit_single","A3R1O5UC9QJGKY","gain","5","","74","J","1","","1","0","0","0.3399927284","","false","127","0.2274120533","","main_expt","0.3399927284","","0.1828765327","","0.3093512765","","","","","","",""
"34","","bandit","203","516956","0.0-165.0-0.0","48840717","wem/bandit_single","A3R1O5UC9QJGKY","gain","5","","74","J","1","","0","0","1","0.3039142281","","false","128","0.2035603578","","main_expt","0.3039142281","","0.2182936746","","0.3682433617","","","","","","",""
"194","","bandit","204","518930","0.0-166.0-0.0","48840717","wem/bandit_single","A3R1O5UC9QJGKY","gain","5","","72","H","0","img/none_selected.jpg","0","0","1","0.1571118888","","false","129","0.1571118888","","main_expt","0.331948561","","0.2206976306","","0.3485983391","","","","","","",""
"278","","bandit","205","520981","0.0-167.0-0.0","48840717","wem/bandit_single","A3R1O5UC9QJGKY","gain","5","","74","J","1","","0","0","1","0.3512730473","","false","130","0.08617346002","","main_expt","0.3512730473","","0.1657145536","","0.3907345736","","","","","","",""
"154","","bandit","206","522908","0.0-168.0-0.0","48840717","wem/bandit_single","A3R1O5UC9QJGKY","gain","5","","75","K","2","","1","0","0","0.2555784817","","false","131","0.1196539686","","main_expt","0.3617370935","","0.2555784817","","0.3697977754","","","","","","",""
"57","","bandit","207","524740","0.0-169.0-0.0","48840717","wem/bandit_single","A3R1O5UC9QJGKY","gain","5","","75","K","2","","1","0","0","0.287060772","","false","132","0.1111227042","","main_expt","0.3520165756","","0.287060772","","0.3916621277","","","","","","",""
"89","","bandit","208","526604","0.0-170.0-0.0","48840717","wem/bandit_single","A3R1O5UC9QJGKY","gain","5","","75","K","2","","0","0","1","0.238965149","","false","133","0.1223368092","","main_expt","0.3863989014","","0.238965149","","0.3437671512","","","","","","",""
"435","","bandit","209","528812","0.0-171.0-0.0","48840717","wem/bandit_single","A3R1O5UC9QJGKY","gain","5","","76","L","3","","1","0","0","0.3636108046","","false","134","0.1001486166","","main_expt","0.3391859262","","0.2457001749","","0.3636108046","","","","","","",""
"257","","bandit","210","530848","0.0-172.0-0.0","48840717","wem/bandit_single","A3R1O5UC9QJGKY","gain","5","","76","L","3","","0","0","1","0.3251377881","","false","135","0.1179747861","","main_expt","0.3700101905","","0.2499382958","","0.3251377881","","","","","","",""
"64","","bandit","211","532690","0.0-173.0-0.0","48840717","wem/bandit_single","A3R1O5UC9QJGKY","gain","5","","75","K","2","","0","0","1","0.2553087313","","false","136","0.1167775935","","main_expt","0.3002558999","","0.2553087313","","0.3838305716","","","","","","",""
"3","","bandit","212","534470","0.0-174.0-0.0","48840717","wem/bandit_single","A3R1O5UC9QJGKY","gain","5","","74","J","1","","0","0","1","0.3242357935","","false","137","0.1459170178","","main_expt","0.3242357935","","0.2517181947","","0.374624825","","","","","","",""
"128","","bandit","213","536379","0.0-175.0-0.0","48840717","wem/bandit_single","A3R1O5UC9QJGKY","gain","5","","72","H","0","img/none_selected.jpg","0","0","1","0.1403776257","","false","138","0.1403776257","","main_expt","0.3413485239","","0.2531469116","","0.36903936","","","","","","",""
"132","","bandit","214","538294","0.0-176.0-0.0","48840717","wem/bandit_single","A3R1O5UC9QJGKY","gain","5","","75","K","2","","0","0","1","0.2810662396","","false","139","0.1647502834","","main_expt","0.3172825342","","0.2810662396","","0.3757762965","","","","","","",""
"13","","bandit","215","540082","0.0-177.0-0.0","48840717","wem/bandit_single","A3R1O5UC9QJGKY","gain","5","","76","L","3","","1","0","0","0.3240643918","","false","140","0.2135508935","","main_expt","0.3683668128","","0.2226737135","","0.3240643918","","","","","","",""
"81","","bandit","216","541940","0.0-178.0-0.0","48840717","wem/bandit_single","A3R1O5UC9QJGKY","gain","5","","76","L","3","","1","0","0","0.342151626","","false","141","0.2286669107","","main_expt","0.2976824498","","0.2330331678","","0.342151626","","","","","","",""
"119","","bandit","217","543834","0.0-179.0-0.0","48840717","wem/bandit_single","A3R1O5UC9QJGKY","gain","5","","76","L","3","","0","0","1","0.3576151309","","false","142","0.1870561284","","main_expt","0.3424177608","","0.1833347363","","0.3576151309","","","","","","",""
"128","","bandit","218","545738","0.0-180.0-0.0","48840717","wem/bandit_single","A3R1O5UC9QJGKY","gain","5","","74","J","1","","0","0","1","0.3367953268","","false","143","0.220851353","","main_expt","0.3367953268","","0.2063127673","","0.3075624404","","","","","","",""
"25","","bandit","219","547541","0.0-181.0-0.0","48840717","wem/bandit_single","A3R1O5UC9QJGKY","gain","5","","75","K","2","","1","0","0","0.24054226","","false","144","0.1581776843","","main_expt","0.3446852995","","0.24054226","","0.3666812205","","","","","","",""
"63","","bandit","220","549379","0.0-182.0-0.0","48840717","wem/bandit_single","A3R1O5UC9QJGKY","gain","5","","75","K","2","","0","0","1","0.3397881996","","false","145","0.1562309797","","main_expt","0.3569090532","","0.3397881996","","0.373264243","","","","","","",""
"98","","bandit","221","551250","0.0-183.0-0.0","48840717","wem/bandit_single","A3R1O5UC9QJGKY","gain","5","","72","H","0","img/none_selected.jpg","0","0","1","0.201277092","","false","146","0.201277092","","main_expt","0.3546691234","","0.334771558","","0.3588440804","","","","","","",""
"68","","bandit","222","553090","0.0-184.0-0.0","48840717","wem/bandit_single","A3R1O5UC9QJGKY","gain","5","","75","K","2","","0","0","1","0.3135854179","","false","147","0.2014254916","","main_expt","0.3346193534","","0.3135854179","","0.3848898601","","","","","","",""
"41","","bandit","223","554911","0.0-185.0-0.0","48840717","wem/bandit_single","A3R1O5UC9QJGKY","gain","5","","74","J","1","","0","0","1","0.3481099765","","false","148","0.1783642851","","main_expt","0.3481099765","","0.2601716543","","0.4049875018","","","","","","",""
"71","","bandit","224","556755","0.0-186.0-0.0","48840717","wem/bandit_single","A3R1O5UC9QJGKY","gain","5","","76","L","3","","0","0","1","0.3644303146","","false","149","0.2394621943","","main_expt","0.3473239498","","0.2449203511","","0.3644303146","","","","","","",""
"18","","bandit","225","558550","0.0-187.0-0.0","48840717","wem/bandit_single","A3R1O5UC9QJGKY","gain","5","","75","K","2","","0","0","1","0.2679682766","","false","150","0.2009439561","","main_expt","0.3457177179","","0.2679682766","","0.3820895465","","","","","","",""
"199","","bandit","226","560524","0.0-188.0-0.0","48840717","wem/bandit_single","A3R1O5UC9QJGKY","gain","5","","74","J","1","","0","0","1","0.3131990842","","false","151","0.1783838281","","main_expt","0.3131990842","","0.2811524043","","0.3715335383","","","","","","",""
"109","","bandit","227","562406","0.0-189.0-0.0","48840717","wem/bandit_single","A3R1O5UC9QJGKY","gain","5","","72","H","0","img/none_selected.jpg","0","0","1","0.2357029213","","false","152","0.2357029213","","main_expt","0.2632978047","","0.2320671432","","0.3270427106","","","","","","",""
"98","","bandit","228","564273","0.0-190.0-0.0","48840717","wem/bandit_single","A3R1O5UC9QJGKY","gain","5","","75","K","2","","1","0","0","0.2655606304","","false","153","0.1701289497","","main_expt","0.2782579121","","0.2655606304","","0.3117301263","","","","","","",""
"44","","bandit","229","566090","0.0-191.0-0.0","48840717","wem/bandit_single","A3R1O5UC9QJGKY","gain","5","","75","K","2","","1","0","0","0.3485425359","","false","154","0.1613436629","","main_expt","0.2212449789","","0.3485425359","","0.2860829053","","","","","","",""
"58","","bandit","230","567997","0.0-192.0-0.0","48840717","wem/bandit_single","A3R1O5UC9QJGKY","gain","5","","75","K","2","","0","0","1","0.3302543019","","false","155","0.1419994917","","main_expt","0.1944586175","","0.3302543019","","0.2412247214","","","","","","",""
"55","","bandit","231","569827","0.0-193.0-0.0","48840717","wem/bandit_single","A3R1O5UC9QJGKY","gain","5","","74","J","1","","0","0","1","0.2035424954","","false","156","0.2076402971","","main_expt","0.2035424954","","0.2696600886","","0.2505935016","","","","","","",""
"441","","bandit","232","572101","0.0-194.0-0.0","48840717","wem/bandit_single","A3R1O5UC9QJGKY","gain","5","","76","L","3","","0","0","1","0.2677381881","","false","157","0.2253974945","","main_expt","0.2039725598","","0.3095791192","","0.2677381881","","","","","","",""
"103","","bandit","233","573988","0.0-195.0-0.0","48840717","wem/bandit_single","A3R1O5UC9QJGKY","gain","5","","74","J","1","","0","0","1","0.1610126092","","false","158","0.3173726248","","main_expt","0.1610126092","","0.3427908005","","0.228073272","","","","","","",""
"108","","bandit","234","575874","0.0-196.0-0.0","48840717","wem/bandit_single","A3R1O5UC9QJGKY","gain","5","","72","H","0","img/none_selected.jpg","0","0","1","0.2929560982","","false","159","0.2929560982","","main_expt","0.2244023171","","0.3459652535","","0.2181731157","","","","","","",""
"66","","bandit","235","577717","0.0-197.0-0.0","48840717","wem/bandit_single","A3R1O5UC9QJGKY","gain","5","","75","K","2","","0","0","1","0.3277363444","","false","160","0.2599130114","","main_expt","0.2550463449","","0.3277363444","","0.2483475363","","","","","","",""
"606","","bandit","236","580108","0.0-198.0-0.0","48840717","wem/bandit_single","A3R1O5UC9QJGKY","gain","5","","76","L","3","","0","0","1","0.2287268475","","false","161","0.3006759107","","main_expt","0.1988840894","","0.3043896987","","0.2287268475","","","","","","",""
"2","","bandit","237","581887","0.0-199.0-0.0","48840717","wem/bandit_single","A3R1O5UC9QJGKY","gain","5","","74","J","1","","1","0","0","0.3208820199","","false","162","0.3359074288","","main_expt","0.3208820199","","0.3013302692","","0.2118340618","","","","","","",""
"43","","bandit","238","583706","0.0-200.0-0.0","48840717","wem/bandit_single","A3R1O5UC9QJGKY","gain","5","","74","J","1","","0","0","1","0.3416291965","","false","163","0.3248254093","","main_expt","0.3416291965","","0.3359404133","","0.2467500447","","","","","","",""
"81","","bandit","239","585562","0.0-201.0-0.0","48840717","wem/bandit_single","A3R1O5UC9QJGKY","gain","5","","72","H","0","img/none_selected.jpg","0","0","1","0.2480447101","","false","164","0.2480447101","","main_expt","0.3531125991","","0.3449747326","","0.2745506496","","","","","","",""
"162","","bandit","240","587503","0.0-202.0-0.0","48840717","wem/bandit_single","A3R1O5UC9QJGKY","gain","5","","74","J","1","","0","0","1","0.3329293945","","false","165","0.2291527929","","main_expt","0.3329293945","","0.3388680014","","0.2893970703","","","","","","",""
"6","","bandit","241","589282","0.0-203.0-0.0","48840717","wem/bandit_single","A3R1O5UC9QJGKY","gain","5","","75","K","2","","1","0","0","0.3565097084","","false","166","0.2408823094","","main_expt","0.368824295","","0.3565097084","","0.326956194","","","","","","",""
"38","","bandit","242","591105","0.0-204.0-0.0","48840717","wem/bandit_single","A3R1O5UC9QJGKY","gain","5","","75","K","2","","1","0","0","0.3807311224","","false","167","0.1852653973","","main_expt","0.3528049135","","0.3807311224","","0.2562538154","","","","","","",""
"72","","bandit","243","592954","0.0-205.0-0.0","48840717","wem/bandit_single","A3R1O5UC9QJGKY","gain","5","","75","K","2","","1","0","0","0.4157533759","","false","168","0.1123614246","","main_expt","0.3530437727","","0.4157533759","","0.259707785","","","","","","",""
"51","","bandit","244","594781","0.0-206.0-0.0","48840717","wem/bandit_single","A3R1O5UC9QJGKY","gain","5","","75","K","2","","0","0","1","0.3990846218","","false","169","0.1289140747","","main_expt","0.3619584092","","0.3990846218","","0.305903145","","","","","","",""
"438","","bandit","245","596995","0.0-207.0-0.0","48840717","wem/bandit_single","A3R1O5UC9QJGKY","gain","5","","76","L","3","","0","0","1","0.2780458482","","false","170","0.1082073398","","main_expt","0.3851568221","","0.3840903594","","0.2780458482","","","","","","",""
"68","","bandit","246","598844","0.0-208.0-0.0","48840717","wem/bandit_single","A3R1O5UC9QJGKY","gain","5","","74","J","1","","0","0","1","0.369821393","","false","171","0.09560917383","","main_expt","0.369821393","","0.4279034191","","0.2754425626","","","","","","",""
"329","","bandit","247","600946","0.0-209.0-0.0","48840717","wem/bandit_single","A3R1O5UC9QJGKY","gain","5","","72","H","0","img/none_selected.jpg","0","0","1","0.09002122866","","false","172","0.09002122866","","main_expt","0.3238500873","","0.4277210969","","0.2801866594","","","","","","",""
"171","","bandit","248","602894","0.0-210.0-0.0","48840717","wem/bandit_single","A3R1O5UC9QJGKY","gain","5","","75","K","2","","0","0","1","0.4177409887","","false","173","0.06359212806","","main_expt","0.371178543","","0.4177409887","","0.2903169923","","","","","","",""
"30","","bandit","249","604697","0.0-211.0-0.0","48840717","wem/bandit_single","A3R1O5UC9QJGKY","gain","5","","74","J","1","","1","0","0","0.364968973","","false","174","0.07897407323","","main_expt","0.364968973","","0.4149019111","","0.3135769273","","","","","","",""
"31","","bandit","250","606512","0.0-212.0-0.0","48840717","wem/bandit_single","A3R1O5UC9QJGKY","gain","5","","74","J","1","","0","0","1","0.4172857806","","false","175","0.05374651045","","main_expt","0.4172857806","","0.3890834012","","0.3205535054","","","","","","",""
"50","","bandit","251","608337","0.0-213.0-0.0","48840717","wem/bandit_single","A3R1O5UC9QJGKY","gain","5","","75","K","2","","1","0","0","0.3775492635","","false","176","0.05298342689","","main_expt","0.3931137538","","0.3775492635","","0.3548310205","","","","","","",""
"46","","bandit","252","610164","0.0-214.0-0.0","48840717","wem/bandit_single","A3R1O5UC9QJGKY","gain","5","","75","K","2","","0","0","1","0.2763311933","","false","177","0.04117570961","","main_expt","0.4118750583","","0.2763311933","","0.3374760958","","","","","","",""
"39","","bandit","253","611978","0.0-215.0-0.0","48840717","wem/bandit_single","A3R1O5UC9QJGKY","gain","5","","76","L","3","","1","0","0","0.3045899674","","false","178","0.0682688674","","main_expt","0.4019835374","","0.2117274321","","0.3045899674","","","","","","",""
"72","","bandit","254","613825","0.0-216.0-0.0","48840717","wem/bandit_single","A3R1O5UC9QJGKY","gain","5","","76","L","3","","1","0","0","0.2701203387","","false","179","0.0699035784","","main_expt","0.3943962464","","0.2071796451","","0.2701203387","","","","","","",""
"81","","bandit","255","615681","0.0-217.0-0.0","48840717","wem/bandit_single","A3R1O5UC9QJGKY","gain","5","","76","L","3","","0","0","1","0.3010541938","","false","180","0.08066818268","","main_expt","0.3879360396","","0.2237333922","","0.3010541938","","","","","","",""
"382","","bandit","256","617841","0.0-218.0-0.0","48840717","wem/bandit_single","A3R1O5UC9QJGKY","gain","5","","72","H","0","img/none_selected.jpg","0","0","1","0.06418194011","","false","181","0.06418194011","","main_expt","0.3516035239","","0.1462221579","","0.2685782119","","","","","","",""
"8","","bandit","257","619624","0.0-219.0-0.0","48840717","wem/bandit_single","A3R1O5UC9QJGKY","gain","5","","74","J","1","","1","0","0","0.3544849886","","false","182","0.05948248489","","main_expt","0.3544849886","","0.1745001591","","0.2333395507","","","","","","",""
"9","","bandit","258","621409","0.0-220.0-0.0","48840717","wem/bandit_single","A3R1O5UC9QJGKY","gain","5","","74","J","1","","1","0","0","0.3239224462","","false","183","0.04249263759","","main_expt","0.3239224462","","0.1840457003","","0.1817222791","","","","","","",""
"41","","bandit","259","623228","0.0-221.0-0.0","48840717","wem/bandit_single","A3R1O5UC9QJGKY","gain","5","","74","J","1","","0","0","1","0.3437575642","","false","184","0.05174265856","","main_expt","0.3437575642","","0.1684271963","","0.1946528514","","","","","","",""
"52","","bandit","260","625060","0.0-222.0-0.0","48840717","wem/bandit_single","A3R1O5UC9QJGKY","gain","5","","75","K","2","","0","0","1","0.1820742113","","false","185","0.04700335152","","main_expt","0.3584643827","","0.1820742113","","0.1998780622","","","","","","",""
"141","","bandit","261","626975","0.0-223.0-0.0","48840717","wem/bandit_single","A3R1O5UC9QJGKY","gain","5","","76","L","3","","0","0","1","0.2674223733","","false","186","0.0651928762","","main_expt","0.3968797112","","0.2156320388","","0.2674223733","","","","","","",""
"394","","bandit","262","629143","0.0-224.0-0.0","48840717","wem/bandit_single","A3R1O5UC9QJGKY","gain","5","","72","H","0","img/none_selected.jpg","0","0","1","0.1006801651","","false","187","0.1006801651","","main_expt","0.3851297664","","0.2805416817","","0.2625155344","","","","","","",""
"4","","bandit","263","630924","0.0-225.0-0.0","48840717","wem/bandit_single","A3R1O5UC9QJGKY","gain","5","","74","J","1","","1","0","0","0.3861445831","","false","188","0.1650650448","","main_expt","0.3861445831","","0.255869765","","0.2428845682","","","","","","",""
"37","","bandit","264","632738","0.0-226.0-0.0","48840717","wem/bandit_single","A3R1O5UC9QJGKY","gain","5","","74","J","1","","1","0","0","0.3904601473","","false","189","0.1545550266","","main_expt","0.3904601473","","0.1757761595","","0.2017656849","","","","","","",""
"71","","bandit","265","634584","0.0-227.0-0.0","48840717","wem/bandit_single","A3R1O5UC9QJGKY","gain","5","","74","J","1","","1","0","0","0.430863334","","false","190","0.187471884","","main_expt","0.430863334","","0.1346649685","","0.2163316772","","","","","","",""
"63","","bandit","266","636424","0.0-228.0-0.0","48840717","wem/bandit_single","A3R1O5UC9QJGKY","gain","5","","74","J","1","","0","0","1","0.4113524325","","false","191","0.1611513775","","main_expt","0.4113524325","","0.1132332922","","0.2055350187","","","","","","",""
"426","","bandit","267","638677","0.0-229.0-0.0","48840717","wem/bandit_single","A3R1O5UC9QJGKY","gain","5","","75","K","2","","1","0","0","0.1208943264","","false","192","0.1777959463","","main_expt","0.4039805352","","0.1208943264","","0.1895719249","","","","","","",""
"127","","bandit","268","640594","0.0-230.0-0.0","48840717","wem/bandit_single","A3R1O5UC9QJGKY","gain","5","","75","K","2","","1","0","0","0.1939792015","","false","193","0.1871499601","","main_expt","0.4245567291","","0.1939792015","","0.1748526562","","","","","","",""
"34","","bandit","269","642410","0.0-231.0-0.0","48840717","wem/bandit_single","A3R1O5UC9QJGKY","gain","5","","75","K","2","","1","0","0","0.16637132","","false","194","0.1876497678","","main_expt","0.3947968319","","0.16637132","","0.1474168317","","","","","","",""
"34","","bandit","270","644226","0.0-232.0-0.0","48840717","wem/bandit_single","A3R1O5UC9QJGKY","gain","5","","75","K","2","","0","0","1","0.1730885183","","false","195","0.1091892437","","main_expt","0.4142863389","","0.1730885183","","0.192031623","","","","","","",""
"6","","bandit","271","646010","0.0-233.0-0.0","48840717","wem/bandit_single","A3R1O5UC9QJGKY","gain","5","","76","L","3","","1","0","0","0.2058404012","","false","196","0.1617114059","","main_expt","0.4233691667","","0.215114198","","0.2058404012","","","","","","",""
"89","","bandit","272","647897","0.0-234.0-0.0","48840717","wem/bandit_single","A3R1O5UC9QJGKY","gain","5","","76","L","3","","0","0","1","0.2424759238","","false","197","0.1704243662","","main_expt","0.3910113043","","0.2080771369","","0.2424759238","","","","","","",""
"549","","bandit","273","650225","0.0-235.0-0.0","48840717","wem/bandit_single","A3R1O5UC9QJGKY","gain","5","","76","L","3","","0","0","1","0.2209877853","","false","198","0.1547158464","","main_expt","0.4036427912","","0.2349601263","","0.2209877853","","","","","","",""
"285","","bandit","274","652289","0.0-236.0-0.0","48840717","wem/bandit_single","A3R1O5UC9QJGKY","gain","5","","72","H","0","img/none_selected.jpg","0","0","1","0.1871633293","","false","199","0.1871633293","","main_expt","0.4211573591","","0.2603506135","","0.2167038869","","","","","","",""
"123","","bandit","275","654192","0.0-237.0-0.0","48840717","wem/bandit_single","A3R1O5UC9QJGKY","gain","5","","74","J","1","","1","0","0","0.4279321675","","false","200","0.2044595191","","main_expt","0.4279321675","","0.3238520586","","0.1923465651","","","","","","",""
"72","","bandit","276","656041","0.0-238.0-0.0","48840717","wem/bandit_single","A3R1O5UC9QJGKY","gain","5","","74","J","1","","0","0","1","0.4164542871","","false","201","0.2260370877","","main_expt","0.4164542871","","0.3006478669","","0.2292217674","","","","","","",""
"55","","bandit","277","657873","0.0-239.0-0.0","48840717","wem/bandit_single","A3R1O5UC9QJGKY","gain","5","","75","K","2","","0","0","1","0.2728804465","","false","202","0.2543806879","","main_expt","0.4304584766","","0.2728804465","","0.2458551357","","","","","","",""
"445","","bandit","278","660097","0.0-240.0-0.0","48840717","wem/bandit_single","A3R1O5UC9QJGKY","gain","5","","76","L","3","","1","0","0","0.2388066436","","false","203","0.248330882","","main_expt","0.4301844238","","0.3070028205","","0.2388066436","","","","","","",""
"112","","bandit","279","661984","0.0-241.0-0.0","48840717","wem/bandit_single","A3R1O5UC9QJGKY","gain","5","","76","L","3","","1","0","0","0.2087278664","","false","204","0.272777159","","main_expt","0.3900297032","","0.2937269753","","0.2087278664","","","","","","",""
"9","","bandit","280","663771","0.0-242.0-0.0","48840717","wem/bandit_single","A3R1O5UC9QJGKY","gain","5","","76","L","3","","1","0","0","0.1498191458","","false","205","0.3434557908","","main_expt","0.3928583167","","0.2378968556","","0.1498191458","","","","","","",""
"60","","bandit","281","665608","0.0-243.0-0.0","48840717","wem/bandit_single","A3R1O5UC9QJGKY","gain","5","","76","L","3","","1","0","0","0.1173401749","","false","206","0.3670462125","","main_expt","0.4066069638","","0.2621799838","","0.1173401749","","","","","","",""
"223","","bandit","282","667621","0.0-244.0-0.0","48840717","wem/bandit_single","A3R1O5UC9QJGKY","gain","5","","76","L","3","","0","0","1","0.131911627","","false","207","0.3762900352","","main_expt","0.3973448409","","0.2751860601","","0.131911627","","","","","","",""
"424","","bandit","283","669824","0.0-245.0-0.0","48840717","wem/bandit_single","A3R1O5UC9QJGKY","gain","5","","72","H","0","img/none_selected.jpg","1","0","0","0.3619644859","","false","208","0.3619644859","","main_expt","0.4149937731","","0.2449975294","","0.121614138","","","","","","",""
"133","","bandit","284","671735","0.0-246.0-0.0","48840717","wem/bandit_single","A3R1O5UC9QJGKY","gain","5","","72","H","0","img/none_selected.jpg","0","0","1","0.3487947413","","false","209","0.3487947413","","main_expt","0.4174336027","","0.2260792918","","0.1301565943","","","","","","",""
"17","","bandit","285","673528","0.0-247.0-0.0","48840717","wem/bandit_single","A3R1O5UC9QJGKY","gain","5","","74","J","1","","1","0","0","0.3969791934","","false","210","0.3019817091","","main_expt","0.3969791934","","0.2506868781","","0.09603783024","","","","","","",""
"82","","bandit","286","675390","0.0-248.0-0.0","48840717","wem/bandit_single","A3R1O5UC9QJGKY","gain","5","","74","J","1","","1","0","0","0.4109689779","","false","211","0.3322841588","","main_expt","0.4109689779","","0.2364470615","","0.09853312819","","","","","","",""
"32","","bandit","287","677200","0.0-249.0-0.0","48840717","wem/bandit_single","A3R1O5UC9QJGKY","gain","5","","74","J","1","","0","0","1","0.3870841375","","false","212","0.3257981887","","main_expt","0.3870841375","","0.2097336517","","0.08497623984","","","","","","",""
"51","","bandit","288","679035","0.0-250.0-0.0","48840717","wem/bandit_single","A3R1O5UC9QJGKY","gain","5","","75","K","2","","0","0","1","0.223293056","","false","213","0.299150427","","main_expt","0.3702451026","","0.223293056","","0.0690536233","","","","","","",""
"235","","bandit","289","681047","0.0-251.0-0.0","48840717","wem/bandit_single","A3R1O5UC9QJGKY","gain","5","","76","L","3","","0","0","1","0.05607702273","","false","214","0.2841516905","","main_expt","0.4052473305","","0.2797804449","","0.05607702273","","","","","","",""
"238","","bandit","290","683064","0.0-252.0-0.0","48840717","wem/bandit_single","A3R1O5UC9QJGKY","gain","5","","72","H","0","img/none_selected.jpg","0","0","1","0.2421432752","","false","215","0.2421432752","","main_expt","0.4003088938","","0.3307304153","","0.0612243178","","","","","","",""
"220","","bandit","291","685062","0.0-253.0-0.0","48840717","wem/bandit_single","A3R1O5UC9QJGKY","gain","5","","74","J","1","","1","0","0","0.4087675299","","false","216","0.1705338946","","main_expt","0.4087675299","","0.3341057131","","0.03010565971","","","","","","",""
"63","","bandit","292","686903","0.0-254.0-0.0","48840717","wem/bandit_single","A3R1O5UC9QJGKY","gain","5","","74","J","1","","0","0","1","0.3947963157","","false","217","0.219014384","","main_expt","0.3947963157","","0.3086359365","","0.05034411961","","","","","","",""
"49","","bandit","293","688728","0.0-255.0-0.0","48840717","wem/bandit_single","A3R1O5UC9QJGKY","gain","5","","75","K","2","","0","0","1","0.370061562","","false","218","0.2135739311","","main_expt","0.4200256015","","0.370061562","","0.03278593655","","","","","","",""
"310","","bandit","294","690815","0.0-256.0-0.0","48840717","wem/bandit_single","A3R1O5UC9QJGKY","gain","5","","76","L","3","","0","0","1","0.02968551415","","false","219","0.1719688778","","main_expt","0.3845181055","","0.3425962001","","0.02968551415","","","","","","",""
"8","","bandit","295","692599","0.0-257.0-0.0","48840717","wem/bandit_single","A3R1O5UC9QJGKY","gain","5","","72","H","0","img/none_selected.jpg","0","0","1","0.1017501311","","false","220","0.1017501311","","main_expt","0.3200105211","","0.3200162658","","0.03392365282","","","","","","",""
"156","","bandit","296","694534","0.0-258.0-0.0","48840717","wem/bandit_single","A3R1O5UC9QJGKY","gain","5","","74","J","1","","1","0","0","0.297673658","","false","221","0.1121412156","","main_expt","0.297673658","","0.3209906652","","0.03139192041","","","","","","",""
"4","","bandit","297","696317","0.0-259.0-0.0","48840717","wem/bandit_single","A3R1O5UC9QJGKY","gain","5","","74","J","1","","0","0","1","0.2963768597","","false","222","0.1091313961","","main_expt","0.2963768597","","0.3013890172","","0.02842311261","","","","","","",""
"56","","bandit","298","698150","0.0-260.0-0.0","48840717","wem/bandit_single","A3R1O5UC9QJGKY","gain","5","","76","L","3","","0","0","1","0.0287580325","","false","223","0.09983876589","","main_expt","0.2927297303","","0.2614115174","","0.0287580325","","","","","","",""
"265","","bandit","299","700189","0.0-261.0-0.0","48840717","wem/bandit_single","A3R1O5UC9QJGKY","gain","5","","75","K","2","","0","0","1","0.2490141009","","false","224","0.1018501693","","main_expt","0.2751498343","","0.2490141009","","0.02300930076","","","","","","",""
"41","","bandit","300","702006","0.0-262.0-0.0","48840717","wem/bandit_single","A3R1O5UC9QJGKY","gain","5","","72","H","0","img/none_selected.jpg","0","0","1","0.1222407881","","false","225","0.1222407881","","main_expt","0.2377617529","","0.263459589","","0.02989568437","","","","","","",""
"25","","bandit","301","703806","0.0-263.0-0.0","48840717","wem/bandit_single","A3R1O5UC9QJGKY","gain","5","","74","J","1","","0","0","1","0.2137681397","","false","226","0.1332846515","","main_expt","0.2137681397","","0.2828917593","","0.04233903912","","","","","","",""
"2","","bandit","302","705583","0.0-264.0-0.0","48840717","wem/bandit_single","A3R1O5UC9QJGKY","gain","5","","76","L","3","","0","0","1","0.0317259717","","false","227","0.1606351014","","main_expt","0.1830623781","","0.2635957152","","0.0317259717","","","","","","",""
"246","","bandit","303","707613","0.0-265.0-0.0","48840717","wem/bandit_single","A3R1O5UC9QJGKY","gain","5","","75","K","2","","0","0","1","0.259674247","","false","228","0.1292420082","","main_expt","0.1665925442","","0.259674247","","0.04253553249","","","","","","",""
"42","","bandit","304","709460","0.0-266.0-0.0","48840717","wem/bandit_single","A3R1O5UC9QJGKY","gain","5","","76","L","3","","0","0","1","0.06761640147","","false","229","0.1281284096","","main_expt","0.2136718414","","0.2737318667","","0.06761640147","","","","","","",""
"211","","bandit","305","711455","0.0-267.0-0.0","48840717","wem/bandit_single","A3R1O5UC9QJGKY","gain","5","","74","J","1","","0","0","1","0.2435987791","","false","230","0.0791291566","","main_expt","0.2435987791","","0.3195589589","","0.08572380951","","","","","","",""
"139","","bandit","306","713376","0.0-268.0-0.0","48840717","wem/bandit_single","A3R1O5UC9QJGKY","gain","5","","72","H","0","img/none_selected.jpg","1","0","0","0.10920453","","false","231","0.10920453","","main_expt","0.2566168121","","0.3304270948","","0.07272236896","","","","","","",""
"91","","bandit","307","715262","0.0-269.0-0.0","48840717","wem/bandit_single","A3R1O5UC9QJGKY","gain","5","","72","H","0","img/none_selected.jpg","0","0","1","0.167261158","","false","232","0.167261158","","main_expt","0.2152843379","","0.2806951239","","0.0735724775","","","","","","",""
"84","","bandit","308","717136","0.0-270.0-0.0","48840717","wem/bandit_single","A3R1O5UC9QJGKY","gain","5","","74","J","1","","1","0","0","0.2361400262","","false","233","0.1078973024","","main_expt","0.2361400262","","0.3115261247","","0.06465645962","","","","","","",""
"128","","bandit","309","719048","0.0-271.0-0.0","48840717","wem/bandit_single","A3R1O5UC9QJGKY","gain","5","","74","J","1","","0","0","1","0.2575526348","","false","234","0.2366146445","","main_expt","0.2575526348","","0.3001083946","","0.04279198238","","","","","","",""
"226","","bandit","310","721057","0.0-272.0-0.0","48840717","wem/bandit_single","A3R1O5UC9QJGKY","gain","5","","75","K","2","","0","0","1","0.2768541542","","false","235","0.2393051992","","main_expt","0.2828430508","","0.2768541542","","0.06672803397","","","","","","",""
"104","","bandit","311","722953","0.0-273.0-0.0","48840717","wem/bandit_single","A3R1O5UC9QJGKY","gain","5","","76","L","3","","0","0","1","0.07100342573","","false","236","0.2976693115","","main_expt","0.2860482958","","0.332362789","","0.07100342573","","","","","","",""
"166","","bandit","312","724902","0.0-274.0-0.0","48840717","wem/bandit_single","A3R1O5UC9QJGKY","gain","5","","72","H","0","img/none_selected.jpg","0","0","1","0.2674299269","","false","237","0.2674299269","","main_expt","0.2783023894","","0.3408832027","","0.03680589181","","","","","","",""
"420","","bandit","313","727104","0.0-275.0-0.0","48840717","wem/bandit_single","A3R1O5UC9QJGKY","gain","5","","74","J","1","","0","0","1","0.2644861187","","false","238","0.2647207175","","main_expt","0.2644861187","","0.362117859","","0.02733344458","","","","","","",""
"175","","bandit","314","729063","0.0-276.0-0.0","48840717","wem/bandit_single","A3R1O5UC9QJGKY","gain","5","","76","L","3","","0","0","1","0.01831396817","","false","239","0.1936342125","","main_expt","0.3186717024","","0.3574250999","","0.01831396817","","","","","","",""
"29","","bandit","315","730872","0.0-277.0-0.0","48840717","wem/bandit_single","A3R1O5UC9QJGKY","gain","5","","75","K","2","","0","0","1","0.290436356","","false","240","0.2382432393","","main_expt","0.3360375491","","0.290436356","","0.01383764992","","","","","","",""
"681","","bandit","316","733338","0.0-278.0-0.0","48840717","wem/bandit_single","A3R1O5UC9QJGKY","gain","5","","74","J","1","","1","0","0","0.3386213473","","false","241","0.2984572788","","main_expt","0.3386213473","","0.3414967811","","0.0277662638","","","","","","",""
"119","","bandit","317","735261","0.0-279.0-0.0","48840717","wem/bandit_single","A3R1O5UC9QJGKY","gain","5","","74","J","1","","0","0","1","0.3523037021","","false","242","0.2927867707","","main_expt","0.3523037021","","0.3778608287","","0.04064120638","","","","","","",""
"308","","bandit","318","737353","0.0-280.0-0.0","48840717","wem/bandit_single","A3R1O5UC9QJGKY","gain","5","","75","K","2","","0","0","1","0.3552630766","","false","243","0.2870713985","","main_expt","0.360543067","","0.3552630766","","0.04640587852","","","","","","",""
"445","","bandit","319","739582","0.0-281.0-0.0","48840717","wem/bandit_single","A3R1O5UC9QJGKY","gain","5","","72","H","0","img/none_selected.jpg","0","0","1","0.2882437102","","false","244","0.2882437102","","main_expt","0.3728786331","","0.3538674815","","0.06567084485","","","","","","",""
"419","","bandit","320","741783","0.0-282.0-0.0","48840717","wem/bandit_single","A3R1O5UC9QJGKY","gain","5","","76","L","3","","0","0","1","0.1069305933","","false","245","0.3125457984","","main_expt","0.3736501537","","0.3592745223","","0.1069305933","","","","","","",""
"65","","bandit","321","743632","0.0-283.0-0.0","48840717","wem/bandit_single","A3R1O5UC9QJGKY","gain","5","","75","K","2","","1","0","0","0.3784559109","","false","246","0.2949331023","","main_expt","0.3880614915","","0.3784559109","","0.07318543846","","","","","","",""
"6","","bandit","322","745419","0.0-284.0-0.0","48840717","wem/bandit_single","A3R1O5UC9QJGKY","gain","5","","75","K","2","","0","0","1","0.3871101473","","false","247","0.3557375168","","main_expt","0.3906355486","","0.3871101473","","0.06866628372","","","","","","",""
"101","","bandit","323","747301","0.0-285.0-0.0","48840717","wem/bandit_single","A3R1O5UC9QJGKY","gain","5","","74","J","1","","0","0","1","0.3713177951","","false","248","0.3190142928","","main_expt","0.3713177951","","0.366594806","","0.06101724449","","","","","","",""
"46","","bandit","324","749125","0.0-286.0-0.0","48840717","wem/bandit_single","A3R1O5UC9QJGKY","gain","5","","76","L","3","","1","0","0","0.07132197128","","false","249","0.2946857214","","main_expt","0.2887643678","","0.35265903","","0.07132197128","","","","","","",""
"89","","bandit","325","750997","0.0-287.0-0.0","48840717","wem/bandit_single","A3R1O5UC9QJGKY","gain","5","","76","L","3","","0","0","1","0.04991986053","","false","250","0.285145352","","main_expt","0.3503459773","","0.3725690128","","0.04991986053","","","","","","",""
"46","","bandit","326","752830","0.0-288.0-0.0","48840717","wem/bandit_single","A3R1O5UC9QJGKY","gain","5","","72","H","0","img/none_selected.jpg","0","0","1","0.2572530626","","false","251","0.2572530626","","main_expt","0.3900307368","","0.3516217444","","0.087584861","","","","","","",""
"380","","bandit","327","754992","0.0-289.0-0.0","48840717","wem/bandit_single","A3R1O5UC9QJGKY","gain","5","","74","J","1","","0","0","1","0.3998204568","","false","252","0.206609756","","main_expt","0.3998204568","","0.3478664427","","0.1089760904","","","","","","",""
"82","","bandit","328","756852","0.0-290.0-0.0","48840717","wem/bandit_single","A3R1O5UC9QJGKY","gain","5","","75","K","2","","0","0","1","0.2845216812","","false","253","0.2526850855","","main_expt","0.4062214202","","0.2845216812","","0.1389783028","","","","","","",""
"362","","bandit","329","758995","0.0-291.0-0.0","48840717","wem/bandit_single","A3R1O5UC9QJGKY","gain","5","","76","L","3","","1","0","0","0.1438582992","","false","254","0.2143143283","","main_expt","0.434330363","","0.3395138109","","0.1438582992","","","","","","",""
"143","","bandit","330","760917","0.0-292.0-0.0","48840717","wem/bandit_single","A3R1O5UC9QJGKY","gain","5","","76","L","3","","1","0","0","0.1341592381","","false","255","0.2330346229","","main_expt","0.463361135","","0.284072963","","0.1341592381","","","","","","",""
"77","","bandit","331","762772","0.0-293.0-0.0","48840717","wem/bandit_single","A3R1O5UC9QJGKY","gain","5","","76","L","3","","0","0","1","0.1539827047","","false","256","0.1707848091","","main_expt","0.4513325925","","0.2791977035","","0.1539827047","","","","","","",""
"38","","bandit","332","764590","0.0-294.0-0.0","48840717","wem/bandit_single","A3R1O5UC9QJGKY","gain","5","","74","J","1","","0","0","1","0.4493477618","","false","257","0.204762461","","main_expt","0.4493477618","","0.2827618753","","0.1067893116","","","","","","",""
"318","","bandit","333","766685","0.0-295.0-0.0","48840717","wem/bandit_single","A3R1O5UC9QJGKY","gain","5","","72","H","0","img/none_selected.jpg","0","0","1","0.1678630312","","false","258","0.1678630312","","main_expt","0.4586876348","","0.2367173663","","0.05021154971","","","","","","",""
"77","","bandit","334","768540","0.0-296.0-0.0","48840717","wem/bandit_single","A3R1O5UC9QJGKY","gain","5","","75","K","2","","1","0","0","0.2715647874","","false","259","0.1739170557","","main_expt","0.45931789","","0.2715647874","","0.04357518244","","","","","","",""
"87","","bandit","335","770403","0.0-297.0-0.0","48840717","wem/bandit_single","A3R1O5UC9QJGKY","gain","5","","75","K","2","","0","0","1","0.2310951927","","false","260","0.1848885371","","main_expt","0.4583289396","","0.2310951927","","0.05606835832","","","","","","",""
"35","","bandit","336","772219","0.0-298.0-0.0","48840717","wem/bandit_single","A3R1O5UC9QJGKY","gain","5","","74","J","1","","0","0","1","0.4470277171","","false","261","0.2258440324","","main_expt","0.4470277171","","0.2297288133","","0.05035703518","","","","","","",""
"311","","bandit","337","774310","0.0-299.0-0.0","48840717","wem/bandit_single","A3R1O5UC9QJGKY","gain","5","","76","L","3","","0","0","1","0.04352905051","","false","262","0.2167220908","","main_expt","0.457772586","","0.2072969611","","0.04352905051","","","","","","",""
"267","","bandit","338","776380","0.0-300.0-0.0","48840717","wem/bandit_single","A3R1O5UC9QJGKY","gain","5","","72","H","0","img/none_selected.jpg","0","0","1","0.2118780444","","false","263","0.2118780444","","main_expt","0.417694616","","0.2427077321","","0.0373968872","","","","","","",""
"14","","bandit","339","778182","0.0-301.0-0.0","48840717","wem/bandit_single","A3R1O5UC9QJGKY","gain","5","","74","J","1","","0","0","1","0.4214939516","","false","264","0.1870566281","","main_expt","0.4214939516","","0.3052561595","","0.04440415955","","","","","","",""
"45","","bandit","340","780014","0.0-302.0-0.0","48840717","wem/bandit_single","A3R1O5UC9QJGKY","gain","5","","75","K","2","","0","0","1","0.3000319327","","false","265","0.1706127143","","main_expt","0.413465883","","0.3000319327","","0.0139225964","","","","","","",""
"42","","bandit","341","781848","0.0-303.0-0.0","48840717","wem/bandit_single","A3R1O5UC9QJGKY","gain","5","","76","L","3","","0","0","1","0.01259799349","","false","266","0.1693140566","","main_expt","0.4116424673","","0.3134404232","","0.01259799349","","","","","","",""
"92","","bandit","342","783727","0.0-304.0-0.0","48840717","wem/bandit_single","A3R1O5UC9QJGKY","gain","5","","74","J","1","","1","0","0","0.3863145418","","false","267","0.1753800763","","main_expt","0.3863145418","","0.3066387991","","0.00740451457","","","","","","",""
"28","","bandit","343","785544","0.0-305.0-0.0","48840717","wem/bandit_single","A3R1O5UC9QJGKY","gain","5","","74","J","1","","0","0","1","0.4265221664","","false","268","0.1918786918","","main_expt","0.4265221664","","0.3058482798","","0.004693585052","","","","","","",""
"106","","bandit","344","787438","0.0-306.0-0.0","48840717","wem/bandit_single","A3R1O5UC9QJGKY","gain","5","","75","K","2","","0","0","1","0.2523051309","","false","269","0.1999989265","","main_expt","0.4515898034","","0.2523051309","","0.004824061053","","","","","","",""
"181","","bandit","345","789403","0.0-307.0-0.0","48840717","wem/bandit_single","A3R1O5UC9QJGKY","gain","5","","76","L","3","","0","0","1","0.006174480496","","false","270","0.2211747839","","main_expt","0.4467147125","","0.2663701485","","0.006174480496","","","","","","",""
"79","","bandit","346","791267","0.0-308.0-0.0","48840717","wem/bandit_single","A3R1O5UC9QJGKY","gain","5","","75","K","2","","0","0","1","0.2485798686","","false","271","0.2404792593","","main_expt","0.4582909467","","0.2485798686","","0.00832103917","","","","","","",""
"61","","bandit","347","793109","0.0-309.0-0.0","48840717","wem/bandit_single","A3R1O5UC9QJGKY","gain","5","","72","H","0","img/none_selected.jpg","0","0","1","0.2558589782","","false","272","0.2558589782","","main_expt","0.4709209778","","0.2345495347","","0.00728594366","","","","","","",""
"497","","bandit","348","795397","0.0-310.0-0.0","48840717","wem/bandit_single","A3R1O5UC9QJGKY","gain","5","","74","J","1","","1","0","0","0.4660917397","","false","273","0.1700432942","","main_expt","0.4660917397","","0.2137032991","","0.01114453755","","","","","","",""
"80","","bandit","349","797260","0.0-311.0-0.0","48840717","wem/bandit_single","A3R1O5UC9QJGKY","gain","5","","74","J","1","","0","0","1","0.4639522763","","false","274","0.2452429789","","main_expt","0.4639522763","","0.2108512091","","0.01390500062","","","","","","",""
"19","","bandit","350","799064","0.0-312.0-0.0","48840717","wem/bandit_single","A3R1O5UC9QJGKY","gain","5","","75","K","2","","0","0","1","0.1817434844","","false","275","0.2540496776","","main_expt","0.4559735555","","0.1817434844","","0.01307999715","","","","","","",""
"201","","bandit","351","801046","0.0-313.0-0.0","48840717","wem/bandit_single","A3R1O5UC9QJGKY","gain","5","","76","L","3","","0","0","1","0.01650166306","","false","276","0.2816965905","","main_expt","0.4246507461","","0.2037179719","","0.01650166306","","","","","","",""
"58","","bandit","352","802886","0.0-314.0-0.0","48840717","wem/bandit_single","A3R1O5UC9QJGKY","gain","5","","75","K","2","","0","0","1","0.211691867","","false","277","0.2757967379","","main_expt","0.4061878557","","0.211691867","","0.02228120093","","","","","","",""
"282","","bandit","353","804951","0.0-315.0-0.0","48840717","wem/bandit_single","A3R1O5UC9QJGKY","gain","5","","74","J","1","","0","0","1","0.4185559707","","false","278","0.3233086266","","main_expt","0.4185559707","","0.1725584367","","0.01609054627","","","","","","",""
"129","","bandit","354","806861","0.0-316.0-0.0","48840717","wem/bandit_single","A3R1O5UC9QJGKY","gain","5","","72","H","0","img/none_selected.jpg","0","0","1","0.3447853064","","false","279","0.3447853064","","main_expt","0.4048416859","","0.1976152383","","0.03276024715","","","","","","",""
"8","","bandit","355","808659","0.0-317.0-0.0","48840717","wem/bandit_single","A3R1O5UC9QJGKY","gain","5","","74","J","1","","0","0","1","0.3930733378","","false","280","0.2944080033","","main_expt","0.3930733378","","0.2245419331","","0.045813934","","","","","","",""
"45","","bandit","356","810483","0.0-318.0-0.0","48840717","wem/bandit_single","A3R1O5UC9QJGKY","gain","5","","75","K","2","","0","0","1","0.2649095144","","false","281","0.3455536282","","main_expt","0.3722539572","","0.2649095144","","0.07680660156","","","","","","",""
"199","","bandit","357","812466","0.0-319.0-0.0","48840717","wem/bandit_single","A3R1O5UC9QJGKY","gain","5","","76","L","3","","0","0","1","0.08989395926","","false","282","0.3002636441","","main_expt","0.392640689","","0.2440542309","","0.08989395926","","","","","","",""
"174","","bandit","358","814420","0.0-320.0-0.0","48840717","wem/bandit_single","A3R1O5UC9QJGKY","gain","5","","74","J","1","","1","0","0","0.3657249804","","false","283","0.2433385189","","main_expt","0.3657249804","","0.3074658718","","0.1096048843","","","","","","",""
"56","","bandit","359","816258","0.0-321.0-0.0","48840717","wem/bandit_single","A3R1O5UC9QJGKY","gain","5","","74","J","1","","0","0","1","0.3625644972","","false","284","0.2108667552","","main_expt","0.3625644972","","0.3224089974","","0.1082817284","","","","","","",""
"124","","bandit","360","818162","0.0-322.0-0.0","48840717","wem/bandit_single","A3R1O5UC9QJGKY","gain","5","","75","K","2","","1","0","0","0.3022873968","","false","285","0.2340218901","","main_expt","0.3054288932","","0.3022873968","","0.1629804938","","","","","","",""
"52","","bandit","361","819995","0.0-323.0-0.0","48840717","wem/bandit_single","A3R1O5UC9QJGKY","gain","5","","75","K","2","","1","0","0","0.2889410052","","false","286","0.2499238339","","main_expt","0.3391155559","","0.2889410052","","0.1852598429","","","","","","",""
"71","","bandit","362","821845","0.0-324.0-0.0","48840717","wem/bandit_single","A3R1O5UC9QJGKY","gain","5","","75","K","2","","1","0","0","0.3151816804","","false","287","0.2334780882","","main_expt","0.3328791194","","0.3151816804","","0.2065414002","","","","","","",""
"44","","bandit","363","823665","0.0-325.0-0.0","48840717","wem/bandit_single","A3R1O5UC9QJGKY","gain","5","","75","K","2","","1","0","0","0.3489654206","","false","288","0.2784320663","","main_expt","0.3011075564","","0.3489654206","","0.1811366591","","","","","","",""
"7","","bandit","364","825450","0.0-326.0-0.0","48840717","wem/bandit_single","A3R1O5UC9QJGKY","gain","5","","75","K","2","","0","0","1","0.3673528387","","false","289","0.2751214951","","main_expt","0.3326814497","","0.3673528387","","0.1202209304","","","","","","",""
"93","","bandit","365","827322","0.0-327.0-0.0","48840717","wem/bandit_single","A3R1O5UC9QJGKY","gain","5","","76","L","3","","1","0","0","0.1453470377","","false","290","0.304381699","","main_expt","0.3289320066","","0.3156989172","","0.1453470377","","","","","","",""
"28","","bandit","366","829132","0.0-328.0-0.0","48840717","wem/bandit_single","A3R1O5UC9QJGKY","gain","5","","76","L","3","","0","0","1","0.1477070836","","false","291","0.2447169523","","main_expt","0.3074380044","","0.3731423443","","0.1477070836","","","","","","",""
"267","","bandit","367","831180","0.0-329.0-0.0","48840717","wem/bandit_single","A3R1O5UC9QJGKY","gain","5","","74","J","1","","0","0","1","0.247625386","","false","292","0.2422140582","","main_expt","0.247625386","","0.3819638953","","0.1442574827","","","","","","",""
"45","","bandit","368","833003","0.0-330.0-0.0","48840717","wem/bandit_single","A3R1O5UC9QJGKY","gain","5","","72","H","0","img/none_selected.jpg","0","0","1","0.1480972705","","false","293","0.1480972705","","main_expt","0.2438381571","","0.3709780048","","0.1219757373","","","","","","",""
"20","","bandit","369","834803","0.0-331.0-0.0","48840717","wem/bandit_single","A3R1O5UC9QJGKY","gain","5","","75","K","2","","0","0","1","0.4013541824","","false","294","0.1338078997","","main_expt","0.2772308066","","0.4013541824","","0.149249144","","","","","","",""
"212","","bandit","370","836795","0.0-332.0-0.0","48840717","wem/bandit_single","A3R1O5UC9QJGKY","gain","5","","76","L","3","","0","0","1","0.1066825056","","false","295","0.1452417655","","main_expt","0.2386370059","","0.4203470877","","0.1066825056","","","","","","",""
"101","","bandit","371","838673","0.0-333.0-0.0","48840717","wem/bandit_single","A3R1O5UC9QJGKY","gain","5","","74","J","1","","1","0","0","0.2322267342","","false","296","0.12995508","","main_expt","0.2322267342","","0.4006598815","","0.06692503618","","","","","","",""
"742","","bandit","372","841193","0.0-334.0-0.0","48840717","wem/bandit_single","A3R1O5UC9QJGKY","gain","5","","74","J","1","","0","0","1","0.2930795043","","false","297","0.1079814357","","main_expt","0.2930795043","","0.4189250697","","0.08806334149","","","","","","",""
"110","","bandit","373","843086","0.0-335.0-0.0","48840717","wem/bandit_single","A3R1O5UC9QJGKY","gain","5","","75","K","2","","0","0","1","0.4204303011","","false","298","0.08396844466","","main_expt","0.3168190842","","0.4204303011","","0.0708541643","","","","","","",""
"390","","bandit","374","845294","0.0-336.0-0.0","48840717","wem/bandit_single","A3R1O5UC9QJGKY","gain","5","","76","L","3","","1","0","0","0.07807128628","","false","299","0.08942466987","","main_expt","0.3251331367","","0.3955170021","","0.07807128628","","","","","","",""
"68","","bandit","375","847153","0.0-337.0-0.0","48840717","wem/bandit_single","A3R1O5UC9QJGKY","gain","5","","76","L","3","","0","0","1","0.09051803512","","false","300","0.09399158568","","main_expt","0.3253714703","","0.3580479124","","0.09051803512","","","","","","",""
"166","","bandit","376","849118","0.0-338.0-0.0","48840717","wem/bandit_single","A3R1O5UC9QJGKY","gain","5","","72","H","0","img/none_selected.jpg","0","0","1","0.1057054846","","false","301","0.1057054846","","main_expt","0.2996689164","","0.3709648371","","0.06690684845","","","","","","",""
