"rt","responses","trial_type","trial_index","time_elapsed","internal_node_id","subjID","study","MID","cond","drift","key_press","respCharCode","respKey","respChoiceNum","respChoice","gems","bombs","no_reward","GemPrChosen","BombPrChosen","practice","trial_counter","WinPr_0","LosePr_0","trial_label","WinPr_1","LosePr_1","WinPr_2","LosePr_2","WinPr_3","LosePr_3","Q0","Q1","Q2","gender","age","ethnicity"
"6274","{""Q0"":""A1NJZH7D5RLEBH""}","survey-text","0","6282","0.0-0.0","49266897","wem/bandit_single","A1NJZH7D5RLEBH","pain","7","","","","","","","","","","","","","","","","","","","","","","","","","","",""
"1617","","text","1","8916","0.0-1.0","49266897","wem/bandit_single","A1NJZH7D5RLEBH","pain","7","32","","","","","","","","","","","","","","","","","","","","","","","","","",""
"3604","","text","2","12523","0.0-2.0","49266897","wem/bandit_single","A1NJZH7D5RLEBH","pain","7","32","","","","","","","","","","","","","","","","","","","","","","","","","",""
"5518","","text","3","18044","0.0-3.0","49266897","wem/bandit_single","A1NJZH7D5RLEBH","pain","7","32","","","","","","","","","","","","","","","","","","","","","","","","","",""
"1205","","text","4","19251","0.0-4.0","49266897","wem/bandit_single","A1NJZH7D5RLEBH","pain","7","32","","","","","","","","","","","","","","","","","","","","","","","","","",""
"3206","","text","5","22459","0.0-5.0","49266897","wem/bandit_single","A1NJZH7D5RLEBH","pain","7","32","","","","","","","","","","","","","","","","","","","","","","","","","",""
"2165","","text","6","24628","0.0-6.0","49266897","wem/bandit_single","A1NJZH7D5RLEBH","pain","7","32","","","","","","","","","","","","","","","","","","","","","","","","","",""
"2782","","text","7","27412","0.0-7.0","49266897","wem/bandit_single","A1NJZH7D5RLEBH","pain","7","32","","","","","","","","","","","","","","","","","","","","","","","","","",""
"1449","","text","8","28863","0.0-8.0","49266897","wem/bandit_single","A1NJZH7D5RLEBH","pain","7","32","","","","","","","","","","","","","","","","","","","","","","","","","",""
"667","","text","9","29532","0.0-9.0","49266897","wem/bandit_single","A1NJZH7D5RLEBH","pain","7","32","","","","","","","","","","","","","","","","","","","","","","","","","",""
"2240","","text","10","31775","0.0-10.0","49266897","wem/bandit_single","A1NJZH7D5RLEBH","pain","7","32","","","","","","","","","","","","","","","","","","","","","","","","","",""
"3674","","text","11","35453","0.0-11.0","49266897","wem/bandit_single","A1NJZH7D5RLEBH","pain","7","32","","","","","","","","","","","","","","","","","","","","","","","","","",""
"743","","bandit","12","37727","0.0-12.0-0.0","49266897","wem/bandit_single","A1NJZH7D5RLEBH","pain","7","","74","J","0","img/none_selected_demo.jpg","0","0","1","0","0","true","0","0","0","","","","","","","","","","","","",""
"141","","bandit","13","39654","0.0-13.0-0.0","49266897","wem/bandit_single","A1NJZH7D5RLEBH","pain","7","","75","K","0","img/none_selected_demo.jpg","0","0","1","0","0","true","0","0","0","","","","","","","","","","","","",""
"1543","","text","14","41461","0.0-14.0","49266897","wem/bandit_single","A1NJZH7D5RLEBH","pain","7","32","","","","","","","","","","","","","","","","","","","","","","","","","",""
"792","","text","15","42256","0.0-15.0","49266897","wem/bandit_single","A1NJZH7D5RLEBH","pain","7","32","","","","","","","","","","","","","","","","","","","","","","","","","",""
"475","","text","16","42735","0.0-16.0","49266897","wem/bandit_single","A1NJZH7D5RLEBH","pain","7","32","","","","","","","","","","","","","","","","","","","","","","","","","",""
"572","","text","17","43311","0.0-17.0","49266897","wem/bandit_single","A1NJZH7D5RLEBH","pain","7","32","","","","","","","","","","","","","","","","","","","","","","","","","",""
"1402","","bandit","18","46242","0.0-18.0-0.0","49266897","wem/bandit_single","A1NJZH7D5RLEBH","pain","7","","74","J","0","img/none_selected_demo.jpg","0","0","1","0","0.8","true","0","0","0.8","80_20_practice","0","0.2","","","","","","","","","",""
"95","","bandit","19","48112","0.0-18.0-1.0","49266897","wem/bandit_single","A1NJZH7D5RLEBH","pain","7","","74","J","0","img/none_selected_demo.jpg","0","1","0","0","0.8","true","0","0","0.8","80_20_practice","0","0.2","","","","","","","","","",""
"60","","bandit","20","49948","0.0-18.0-2.0","49266897","wem/bandit_single","A1NJZH7D5RLEBH","pain","7","","75","K","1","","0","0","1","0","0.2","true","0","0","0.8","80_20_practice","0","0.2","","","","","","","","","",""
"1","","bandit","21","51727","0.0-18.0-3.0","49266897","wem/bandit_single","A1NJZH7D5RLEBH","pain","7","","75","K","1","","0","0","1","0","0.2","true","0","0","0.8","80_20_practice","0","0.2","","","","","","","","","",""
"708","","bandit","22","54224","0.0-18.0-4.0","49266897","wem/bandit_single","A1NJZH7D5RLEBH","pain","7","","75","K","1","","0","0","1","0","0.2","true","0","0","0.8","80_20_practice","0","0.2","","","","","","","","","",""
"390","","bandit","23","56392","0.0-18.0-5.0","49266897","wem/bandit_single","A1NJZH7D5RLEBH","pain","7","","74","J","0","img/none_selected_demo.jpg","0","1","0","0","0.8","true","0","0","0.8","80_20_practice","0","0.2","","","","","","","","","",""
"259","","bandit","24","58436","0.0-18.0-6.0","49266897","wem/bandit_single","A1NJZH7D5RLEBH","pain","7","","74","J","0","img/none_selected_demo.jpg","0","1","0","0","0.8","true","0","0","0.8","80_20_practice","0","0.2","","","","","","","","","",""
"458","","bandit","25","60685","0.0-18.0-7.0","49266897","wem/bandit_single","A1NJZH7D5RLEBH","pain","7","","74","J","0","img/none_selected_demo.jpg","0","1","0","0","0.8","true","0","0","0.8","80_20_practice","0","0.2","","","","","","","","","",""
"21","","bandit","26","62473","0.0-18.0-8.0","49266897","wem/bandit_single","A1NJZH7D5RLEBH","pain","7","","74","J","0","img/none_selected_demo.jpg","0","1","0","0","0.8","true","0","0","0.8","80_20_practice","0","0.2","","","","","","","","","",""
"3","","bandit","27","64249","0.0-18.0-9.0","49266897","wem/bandit_single","A1NJZH7D5RLEBH","pain","7","","74","J","0","img/none_selected_demo.jpg","0","1","0","0","0.8","true","0","0","0.8","80_20_practice","0","0.2","","","","","","","","","",""
"442","","bandit","28","66480","0.0-18.0-10.0","49266897","wem/bandit_single","A1NJZH7D5RLEBH","pain","7","","74","J","0","img/none_selected_demo.jpg","0","1","0","0","0.8","true","0","0","0.8","80_20_practice","0","0.2","","","","","","","","","",""
"5","","bandit","29","68262","0.0-18.0-11.0","49266897","wem/bandit_single","A1NJZH7D5RLEBH","pain","7","","74","J","0","img/none_selected_demo.jpg","0","0","1","0","0.8","true","0","0","0.8","80_20_practice","0","0.2","","","","","","","","","",""
"12","","bandit","30","70084","0.0-18.0-12.0","49266897","wem/bandit_single","A1NJZH7D5RLEBH","pain","7","","75","K","1","","0","0","1","0","0.2","true","0","0","0.8","80_20_practice","0","0.2","","","","","","","","","",""
"364","","bandit","31","72234","0.0-18.0-13.0","49266897","wem/bandit_single","A1NJZH7D5RLEBH","pain","7","","75","K","1","","0","0","1","0","0.2","true","0","0","0.8","80_20_practice","0","0.2","","","","","","","","","",""
"2","","bandit","32","74018","0.0-18.0-14.0","49266897","wem/bandit_single","A1NJZH7D5RLEBH","pain","7","","74","J","0","img/none_selected_demo.jpg","0","0","1","0","0.8","true","0","0","0.8","80_20_practice","0","0.2","","","","","","","","","",""
"379","","bandit","33","76166","0.0-18.0-15.0","49266897","wem/bandit_single","A1NJZH7D5RLEBH","pain","7","","74","J","0","img/none_selected_demo.jpg","0","1","0","0","0.8","true","0","0","0.8","80_20_practice","0","0.2","","","","","","","","","",""
"5","","bandit","34","77961","0.0-18.0-16.0","49266897","wem/bandit_single","A1NJZH7D5RLEBH","pain","7","","74","J","0","img/none_selected_demo.jpg","0","1","0","0","0.8","true","0","0","0.8","80_20_practice","0","0.2","","","","","","","","","",""
"51","","bandit","35","79784","0.0-18.0-17.0","49266897","wem/bandit_single","A1NJZH7D5RLEBH","pain","7","","74","J","0","img/none_selected_demo.jpg","0","1","0","0","0.8","true","0","0","0.8","80_20_practice","0","0.2","","","","","","","","","",""
"111","","bandit","36","81669","0.0-18.0-18.0","49266897","wem/bandit_single","A1NJZH7D5RLEBH","pain","7","","74","J","0","img/none_selected_demo.jpg","0","1","0","0","0.8","true","0","0","0.8","80_20_practice","0","0.2","","","","","","","","","",""
"663","","bandit","37","84135","0.0-18.0-19.0","49266897","wem/bandit_single","A1NJZH7D5RLEBH","pain","7","","74","J","0","img/none_selected_demo.jpg","0","1","0","0","0.8","true","0","0","0.8","80_20_practice","0","0.2","","","","","","","","","",""
"5448","","text","38","89851","0.0-19.0","49266897","wem/bandit_single","A1NJZH7D5RLEBH","pain","7","32","","","","","","","","","","","","","","","","","","","","","","","","","",""
"1087","","bandit","39","92455","0.0-20.0-0.0","49266897","wem/bandit_single","A1NJZH7D5RLEBH","pain","7","","74","J","0","img/none_selected_demo.jpg","0","0","1","0","0","true","0","0","0","","0","0","","","","","","","","","",""
"5148","","text","40","97863","0.0-21.0","49266897","wem/bandit_single","A1NJZH7D5RLEBH","pain","7","32","","","","","","","","","","","","","","","","","","","","","","","","","",""
"1921","","text","41","99787","0.0-22.0","49266897","wem/bandit_single","A1NJZH7D5RLEBH","pain","7","32","","","","","","","","","","","","","","","","","","","","","","","","","",""
"2252","","text","42","102040","0.0-23.0","49266897","wem/bandit_single","A1NJZH7D5RLEBH","pain","7","32","","","","","","","","","","","","","","","","","","","","","","","","","",""
"2632","","text","43","104677","0.0-24.0","49266897","wem/bandit_single","A1NJZH7D5RLEBH","pain","7","32","","","","","","","","","","","","","","","","","","","","","","","","","",""
"7824","","text","44","112504","0.0-25.0","49266897","wem/bandit_single","A1NJZH7D5RLEBH","pain","7","32","","","","","","","","","","","","","","","","","","","","","","","","","",""
"4722","","text","45","117230","0.0-26.0","49266897","wem/bandit_single","A1NJZH7D5RLEBH","pain","7","32","","","","","","","","","","","","","","","","","","","","","","","","","",""
"2509","","text","46","119743","0.0-27.0","49266897","wem/bandit_single","A1NJZH7D5RLEBH","pain","7","32","","","","","","","","","","","","","","","","","","","","","","","","","",""
"1075","","text","47","120822","0.0-28.0","49266897","wem/bandit_single","A1NJZH7D5RLEBH","pain","7","32","","","","","","","","","","","","","","","","","","","","","","","","","",""
"901","","text","48","121726","0.0-29.0","49266897","wem/bandit_single","A1NJZH7D5RLEBH","pain","7","32","","","","","","","","","","","","","","","","","","","","","","","","","",""
"1976","","text","49","123707","0.0-30.0","49266897","wem/bandit_single","A1NJZH7D5RLEBH","pain","7","32","","","","","","","","","","","","","","","","","","","","","","","","","",""
"2007","","text","50","125719","0.0-31.0","49266897","wem/bandit_single","A1NJZH7D5RLEBH","pain","7","32","","","","","","","","","","","","","","","","","","","","","","","","","",""
"698","","bandit","51","127951","0.0-32.0-0.0","49266897","wem/bandit_single","A1NJZH7D5RLEBH","pain","7","","72","H","0","img/none_selected.jpg","0","1","0","0","0.8","true","0","0","0.8","full_practice","0","0.2","0","0.6","0","0.2","","","","","",""
"5","","bandit","52","129741","0.0-32.0-1.0","49266897","wem/bandit_single","A1NJZH7D5RLEBH","pain","7","","72","H","0","img/none_selected.jpg","0","1","0","0","0.8","true","0","0","0.8","full_practice","0","0.2","0","0.6","0","0.2","","","","","",""
"462","","bandit","53","131971","0.0-32.0-2.0","49266897","wem/bandit_single","A1NJZH7D5RLEBH","pain","7","","72","H","0","img/none_selected.jpg","0","1","0","0","0.8","true","0","0","0.8","full_practice","0","0.2","0","0.6","0","0.2","","","","","",""
"71","","bandit","54","133830","0.0-32.0-3.0","49266897","wem/bandit_single","A1NJZH7D5RLEBH","pain","7","","72","H","0","img/none_selected.jpg","0","1","0","0","0.8","true","0","0","0.8","full_practice","0","0.2","0","0.6","0","0.2","","","","","",""
"315","","bandit","55","135926","0.0-32.0-4.0","49266897","wem/bandit_single","A1NJZH7D5RLEBH","pain","7","","72","H","0","img/none_selected.jpg","0","1","0","0","0.8","true","0","0","0.8","full_practice","0","0.2","0","0.6","0","0.2","","","","","",""
"100","","bandit","56","137806","0.0-32.0-5.0","49266897","wem/bandit_single","A1NJZH7D5RLEBH","pain","7","","72","H","0","img/none_selected.jpg","0","1","0","0","0.8","true","0","0","0.8","full_practice","0","0.2","0","0.6","0","0.2","","","","","",""
"208","","bandit","57","139784","0.0-32.0-6.0","49266897","wem/bandit_single","A1NJZH7D5RLEBH","pain","7","","72","H","0","img/none_selected.jpg","0","1","0","0","0.8","true","0","0","0.8","full_practice","0","0.2","0","0.6","0","0.2","","","","","",""
"239","","bandit","58","141784","0.0-32.0-7.0","49266897","wem/bandit_single","A1NJZH7D5RLEBH","pain","7","","72","H","0","img/none_selected.jpg","0","1","0","0","0.8","true","0","0","0.8","full_practice","0","0.2","0","0.6","0","0.2","","","","","",""
"260","","bandit","59","143838","0.0-32.0-8.0","49266897","wem/bandit_single","A1NJZH7D5RLEBH","pain","7","","72","H","0","img/none_selected.jpg","0","1","0","0","0.8","true","0","0","0.8","full_practice","0","0.2","0","0.6","0","0.2","","","","","",""
"264","","bandit","60","145883","0.0-32.0-9.0","49266897","wem/bandit_single","A1NJZH7D5RLEBH","pain","7","","72","H","0","img/none_selected.jpg","0","1","0","0","0.8","true","0","0","0.8","full_practice","0","0.2","0","0.6","0","0.2","","","","","",""
"112","","bandit","61","147760","0.0-32.0-10.0","49266897","wem/bandit_single","A1NJZH7D5RLEBH","pain","7","","72","H","0","img/none_selected.jpg","0","1","0","0","0.8","true","0","0","0.8","full_practice","0","0.2","0","0.6","0","0.2","","","","","",""
"252","","bandit","62","149809","0.0-32.0-11.0","49266897","wem/bandit_single","A1NJZH7D5RLEBH","pain","7","","72","H","0","img/none_selected.jpg","0","0","1","0","0.8","true","0","0","0.8","full_practice","0","0.2","0","0.6","0","0.2","","","","","",""
"49","","bandit","63","151621","0.0-32.0-12.0","49266897","wem/bandit_single","A1NJZH7D5RLEBH","pain","7","","74","J","1","","0","1","0","0","0.2","true","0","0","0.8","full_practice","0","0.2","0","0.6","0","0.2","","","","","",""
"25","","bandit","64","153418","0.0-32.0-13.0","49266897","wem/bandit_single","A1NJZH7D5RLEBH","pain","7","","74","J","1","","0","0","1","0","0.2","true","0","0","0.8","full_practice","0","0.2","0","0.6","0","0.2","","","","","",""
"136","","bandit","65","155345","0.0-32.0-14.0","49266897","wem/bandit_single","A1NJZH7D5RLEBH","pain","7","","75","K","2","","0","1","0","0","0.6","true","0","0","0.8","full_practice","0","0.2","0","0.6","0","0.2","","","","","",""
"631","","bandit","66","157753","0.0-32.0-15.0","49266897","wem/bandit_single","A1NJZH7D5RLEBH","pain","7","","75","K","2","","0","1","0","0","0.6","true","0","0","0.8","full_practice","0","0.2","0","0.6","0","0.2","","","","","",""
"82","","bandit","67","159608","0.0-32.0-16.0","49266897","wem/bandit_single","A1NJZH7D5RLEBH","pain","7","","75","K","2","","0","1","0","0","0.6","true","0","0","0.8","full_practice","0","0.2","0","0.6","0","0.2","","","","","",""
"20","","bandit","68","161408","0.0-32.0-17.0","49266897","wem/bandit_single","A1NJZH7D5RLEBH","pain","7","","75","K","2","","0","1","0","0","0.6","true","0","0","0.8","full_practice","0","0.2","0","0.6","0","0.2","","","","","",""
"409","","bandit","69","163583","0.0-32.0-18.0","49266897","wem/bandit_single","A1NJZH7D5RLEBH","pain","7","","75","K","2","","0","0","1","0","0.6","true","0","0","0.8","full_practice","0","0.2","0","0.6","0","0.2","","","","","",""
"42","","bandit","70","165408","0.0-32.0-19.0","49266897","wem/bandit_single","A1NJZH7D5RLEBH","pain","7","","76","L","3","","0","1","0","0","0.2","true","0","0","0.8","full_practice","0","0.2","0","0.6","0","0.2","","","","","",""
"2238","","text","71","167911","0.0-33.0","49266897","wem/bandit_single","A1NJZH7D5RLEBH","pain","7","32","","","","","","","","","","","","","","","","","","","","","","","","","",""
"9461","","text","72","178392","0.0-34.0","49266897","wem/bandit_single","A1NJZH7D5RLEBH","pain","7","32","","","","","","","","","","","","","","","","","","","","","","","","","",""
"1488","","text","73","179886","0.0-35.0","49266897","wem/bandit_single","A1NJZH7D5RLEBH","pain","7","32","","","","","","","","","","","","","","","","","","","","","","","","","",""
"2552","","text","74","182444","0.0-36.0","49266897","wem/bandit_single","A1NJZH7D5RLEBH","pain","7","32","","","","","","","","","","","","","","","","","","","","","","","","","",""
"1214","","text","75","183661","0.0-37.0","49266897","wem/bandit_single","A1NJZH7D5RLEBH","pain","7","32","","","","","","","","","","","","","","","","","","","","","","","","","",""
"600","","bandit","76","185771","0.0-38.0-0.0","49266897","wem/bandit_single","A1NJZH7D5RLEBH","pain","7","","72","H","0","img/none_selected.jpg","0","0","1","","0.05137684772","false","1","","0.05137684772","main_expt","","0.182860278","","0.2046929885","","0.4656663819","","","","","",""
"56","","bandit","77","187608","0.0-39.0-0.0","49266897","wem/bandit_single","A1NJZH7D5RLEBH","pain","7","","76","L","3","","0","0","1","","0.4696156166","false","2","","0.07150319997","main_expt","","0.1824128093","","0.1903203277","","0.4696156166","","","","","",""
"316","","bandit","78","189700","0.0-40.0-0.0","49266897","wem/bandit_single","A1NJZH7D5RLEBH","pain","7","","75","K","2","","0","0","1","","0.1806567389","false","3","","0.080703679","main_expt","","0.1671989933","","0.1806567389","","0.477042595","","","","","",""
"310","","bandit","79","191780","0.0-41.0-0.0","49266897","wem/bandit_single","A1NJZH7D5RLEBH","pain","7","","74","J","1","","0","1","0","","0.1769774761","false","4","","0.09206073837","main_expt","","0.1769774761","","0.1746643784","","0.4833388502","","","","","",""
"2","","bandit","80","193556","0.0-42.0-0.0","49266897","wem/bandit_single","A1NJZH7D5RLEBH","pain","7","","74","J","1","","0","0","1","","0.1847579949","false","5","","0.09846378213","main_expt","","0.1847579949","","0.1575849224","","0.4679643189","","","","","",""
"18","","bandit","81","195347","0.0-43.0-0.0","49266897","wem/bandit_single","A1NJZH7D5RLEBH","pain","7","","74","J","1","","0","0","1","","0.2263389119","false","6","","0.07982937149","main_expt","","0.2263389119","","0.1848921601","","0.4728114282","","","","","",""
"364","","bandit","82","197500","0.0-44.0-0.0","49266897","wem/bandit_single","A1NJZH7D5RLEBH","pain","7","","72","H","0","img/none_selected.jpg","0","0","1","","0.08361087011","false","7","","0.08361087011","main_expt","","0.233500047","","0.2090417599","","0.4763129956","","","","","",""
"32","","bandit","83","199308","0.0-45.0-0.0","49266897","wem/bandit_single","A1NJZH7D5RLEBH","pain","7","","75","K","2","","0","1","0","","0.2340345007","false","8","","0.1210475052","main_expt","","0.2213385325","","0.2340345007","","0.4605171502","","","","","",""
"120","","bandit","84","201220","0.0-46.0-0.0","49266897","wem/bandit_single","A1NJZH7D5RLEBH","pain","7","","75","K","2","","0","0","1","","0.2388832632","false","9","","0.1023248189","main_expt","","0.216727727","","0.2388832632","","0.457599345","","","","","",""
"24","","bandit","85","203027","0.0-47.0-0.0","49266897","wem/bandit_single","A1NJZH7D5RLEBH","pain","7","","76","L","3","","0","0","1","","0.4514273669","false","10","","0.1311876697","main_expt","","0.1757193701","","0.2336568073","","0.4514273669","","","","","",""
"94","","bandit","86","204898","0.0-48.0-0.0","49266897","wem/bandit_single","A1NJZH7D5RLEBH","pain","7","","72","H","0","img/none_selected.jpg","0","0","1","","0.1171839072","false","11","","0.1171839072","main_expt","","0.221687112","","0.2682397485","","0.461109344","","","","","",""
"9","","bandit","87","206673","0.0-49.0-0.0","49266897","wem/bandit_single","A1NJZH7D5RLEBH","pain","7","","72","H","0","img/none_selected.jpg","0","0","1","","0.09103905321","false","12","","0.09103905321","main_expt","","0.1693148256","","0.2855743842","","0.4750360261","","","","","",""
"71","","bandit","88","208527","0.0-50.0-0.0","49266897","wem/bandit_single","A1NJZH7D5RLEBH","pain","7","","74","J","1","","0","0","1","","0.1861997022","false","13","","0.08195125901","main_expt","","0.1861997022","","0.2877368863","","0.4882900813","","","","","",""
"1","","bandit","89","210308","0.0-51.0-0.0","49266897","wem/bandit_single","A1NJZH7D5RLEBH","pain","7","","72","H","0","img/none_selected.jpg","0","0","1","","0.1022478824","false","14","","0.1022478824","main_expt","","0.2056371894","","0.2904717711","","0.4836145896","","","","","",""
"15","","bandit","90","212091","0.0-52.0-0.0","49266897","wem/bandit_single","A1NJZH7D5RLEBH","pain","7","","76","L","3","","0","1","0","","0.4841526839","false","15","","0.1295923723","main_expt","","0.207651467","","0.3145527135","","0.4841526839","","","","","",""
"161","","bandit","91","214048","0.0-53.0-0.0","49266897","wem/bandit_single","A1NJZH7D5RLEBH","pain","7","","76","L","3","","0","0","1","","0.4733209008","false","16","","0.1259026636","main_expt","","0.264879833","","0.2919685568","","0.4733209008","","","","","",""
"24","","bandit","92","215839","0.0-54.0-0.0","49266897","wem/bandit_single","A1NJZH7D5RLEBH","pain","7","","76","L","3","","0","1","0","","0.4548629562","false","17","","0.08714849596","main_expt","","0.301226273","","0.2437915417","","0.4548629562","","","","","",""
"6","","bandit","93","217621","0.0-55.0-0.0","49266897","wem/bandit_single","A1NJZH7D5RLEBH","pain","7","","76","L","3","","0","0","1","","0.4423108412","false","18","","0.06082296625","main_expt","","0.3355017989","","0.2139729843","","0.4423108412","","","","","",""
"380","","bandit","94","219774","0.0-56.0-0.0","49266897","wem/bandit_single","A1NJZH7D5RLEBH","pain","7","","76","L","3","","0","1","0","","0.4510346454","false","19","","0.04376078701","main_expt","","0.4066928382","","0.2117718275","","0.4510346454","","","","","",""
"291","","bandit","95","221854","0.0-57.0-0.0","49266897","wem/bandit_single","A1NJZH7D5RLEBH","pain","7","","76","L","3","","0","1","0","","0.4522943673","false","20","","0.0431273538","main_expt","","0.4152799178","","0.2128214431","","0.4522943673","","","","","",""
"307","","bandit","96","223940","0.0-58.0-0.0","49266897","wem/bandit_single","A1NJZH7D5RLEBH","pain","7","","76","L","3","","0","1","0","","0.4213917452","false","21","","0.05700218709","main_expt","","0.4005545413","","0.2557511999","","0.4213917452","","","","","",""
"0","","bandit","97","225708","0.0-59.0-0.0","49266897","wem/bandit_single","A1NJZH7D5RLEBH","pain","7","","76","L","3","","0","0","1","","0.4055738921","false","22","","0.03008320558","main_expt","","0.4065945052","","0.2240556206","","0.4055738921","","","","","",""
"69","","bandit","98","227566","0.0-60.0-0.0","49266897","wem/bandit_single","A1NJZH7D5RLEBH","pain","7","","76","L","3","","0","1","0","","0.4102744642","false","23","","0.04675245401","main_expt","","0.4396923884","","0.1913455436","","0.4102744642","","","","","",""
"189","","bandit","99","229553","0.0-61.0-0.0","49266897","wem/bandit_single","A1NJZH7D5RLEBH","pain","7","","76","L","3","","0","0","1","","0.4215519413","false","24","","0.02664245213","main_expt","","0.4414607804","","0.1767964116","","0.4215519413","","","","","",""
"344","","bandit","100","231671","0.0-62.0-0.0","49266897","wem/bandit_single","A1NJZH7D5RLEBH","pain","7","","76","L","3","","0","0","1","","0.4076768117","false","25","","0.02443183667","main_expt","","0.430597795","","0.1667721477","","0.4076768117","","","","","",""
"22","","bandit","101","233471","0.0-63.0-0.0","49266897","wem/bandit_single","A1NJZH7D5RLEBH","pain","7","","74","J","1","","0","1","0","","0.4049624372","false","26","","0.02765515704","main_expt","","0.4049624372","","0.132468293","","0.3563873355","","","","","",""
"52","","bandit","102","235302","0.0-64.0-0.0","49266897","wem/bandit_single","A1NJZH7D5RLEBH","pain","7","","74","J","1","","0","1","0","","0.3959859591","false","27","","0.05751586542","main_expt","","0.3959859591","","0.1283549716","","0.3305608977","","","","","",""
"444","","bandit","103","237520","0.0-65.0-0.0","49266897","wem/bandit_single","A1NJZH7D5RLEBH","pain","7","","74","J","1","","0","1","0","","0.4316273603","false","28","","0.1046410472","main_expt","","0.4316273603","","0.1218888314","","0.323916825","","","","","",""
"40","","bandit","104","239341","0.0-66.0-0.0","49266897","wem/bandit_single","A1NJZH7D5RLEBH","pain","7","","74","J","1","","0","1","0","","0.4618757987","false","29","","0.1174110135","main_expt","","0.4618757987","","0.08739650486","","0.3256975875","","","","","",""
"412","","bandit","105","241535","0.0-67.0-0.0","49266897","wem/bandit_single","A1NJZH7D5RLEBH","pain","7","","74","J","1","","0","0","1","","0.4764599947","false","30","","0.09344635718","main_expt","","0.4764599947","","0.1113113005","","0.3590663193","","","","","",""
"4","","bandit","106","243326","0.0-68.0-0.0","49266897","wem/bandit_single","A1NJZH7D5RLEBH","pain","7","","74","J","1","","0","0","1","","0.4870567238","false","31","","0.07228097062","main_expt","","0.4870567238","","0.1234593762","","0.2794303661","","","","","",""
"11","","bandit","107","245110","0.0-69.0-0.0","49266897","wem/bandit_single","A1NJZH7D5RLEBH","pain","7","","72","H","0","img/none_selected.jpg","0","0","1","","0.06660380695","false","32","","0.06660380695","main_expt","","0.4744541924","","0.1204693509","","0.2725021833","","","","","",""
"32","","bandit","108","246929","0.0-70.0-0.0","49266897","wem/bandit_single","A1NJZH7D5RLEBH","pain","7","","75","K","2","","0","0","1","","0.1525092538","false","33","","0.06161000393","main_expt","","0.4595636441","","0.1525092538","","0.2662358977","","","","","",""
"26","","bandit","109","248734","0.0-71.0-0.0","49266897","wem/bandit_single","A1NJZH7D5RLEBH","pain","7","","75","K","2","","0","1","0","","0.0933794629","false","34","","0.08245015188","main_expt","","0.4700794195","","0.0933794629","","0.3062719381","","","","","",""
"40","","bandit","110","250552","0.0-72.0-0.0","49266897","wem/bandit_single","A1NJZH7D5RLEBH","pain","7","","75","K","2","","0","1","0","","0.06693018499","false","35","","0.08195488018","main_expt","","0.46481425","","0.06693018499","","0.3199342551","","","","","",""
"24","","bandit","111","252359","0.0-73.0-0.0","49266897","wem/bandit_single","A1NJZH7D5RLEBH","pain","7","","75","K","2","","0","1","0","","0.09916465935","false","36","","0.1004102013","main_expt","","0.4518384169","","0.09916465935","","0.3039619122","","","","","",""
"430","","bandit","112","254570","0.0-74.0-0.0","49266897","wem/bandit_single","A1NJZH7D5RLEBH","pain","7","","75","K","2","","0","0","1","","0.08872434017","false","37","","0.1390326598","main_expt","","0.439581627","","0.08872434017","","0.2927636057","","","","","",""
"300","","bandit","113","256662","0.0-75.0-0.0","49266897","wem/bandit_single","A1NJZH7D5RLEBH","pain","7","","72","H","0","img/none_selected.jpg","0","0","1","","0.143322519","false","38","","0.143322519","main_expt","","0.3994664239","","0.08103487055","","0.3513205482","","","","","",""
"352","","bandit","114","258781","0.0-76.0-0.0","49266897","wem/bandit_single","A1NJZH7D5RLEBH","pain","7","","72","H","0","img/none_selected.jpg","0","0","1","","0.1439849427","false","39","","0.1439849427","main_expt","","0.399239641","","0.09262773223","","0.3199725693","","","","","",""
"245","","bandit","115","260787","0.0-77.0-0.0","49266897","wem/bandit_single","A1NJZH7D5RLEBH","pain","7","","74","J","1","","0","1","0","","0.3842971785","false","40","","0.1813186375","main_expt","","0.3842971785","","0.08276392867","","0.2899826696","","","","","",""
"167","","bandit","116","262735","0.0-78.0-0.0","49266897","wem/bandit_single","A1NJZH7D5RLEBH","pain","7","","74","J","1","","0","0","1","","0.3584077127","false","41","","0.182623784","main_expt","","0.3584077127","","0.07889170896","","0.2470457707","","","","","",""
"27","","bandit","117","264542","0.0-79.0-0.0","49266897","wem/bandit_single","A1NJZH7D5RLEBH","pain","7","","76","L","3","","0","0","1","","0.2860815649","false","42","","0.1310997782","main_expt","","0.2940512223","","0.1007082374","","0.2860815649","","","","","",""
"294","","bandit","118","266624","0.0-80.0-0.0","49266897","wem/bandit_single","A1NJZH7D5RLEBH","pain","7","","76","L","3","","0","0","1","","0.3649324249","false","43","","0.1211351308","main_expt","","0.3274682868","","0.04983151166","","0.3649324249","","","","","",""
"26","","bandit","119","268423","0.0-81.0-0.0","49266897","wem/bandit_single","A1NJZH7D5RLEBH","pain","7","","75","K","2","","0","0","1","","0.06772206808","false","44","","0.1032393721","main_expt","","0.3105097628","","0.06772206808","","0.3722884938","","","","","",""
"27","","bandit","120","270237","0.0-82.0-0.0","49266897","wem/bandit_single","A1NJZH7D5RLEBH","pain","7","","75","K","2","","0","0","1","","0.07082322934","false","45","","0.145243047","main_expt","","0.3253779088","","0.07082322934","","0.3589666793","","","","","",""
"277","","bandit","121","272283","0.0-83.0-0.0","49266897","wem/bandit_single","A1NJZH7D5RLEBH","pain","7","","74","J","1","","0","0","1","","0.2907447256","false","46","","0.1871821161","main_expt","","0.2907447256","","0.08302100682","","0.309469461","","","","","",""
"205","","bandit","122","274283","0.0-84.0-0.0","49266897","wem/bandit_single","A1NJZH7D5RLEBH","pain","7","","74","J","1","","0","1","0","","0.2922490699","false","47","","0.1827431821","main_expt","","0.2922490699","","0.04947507936","","0.3486132663","","","","","",""
"109","","bandit","123","276169","0.0-85.0-0.0","49266897","wem/bandit_single","A1NJZH7D5RLEBH","pain","7","","74","J","1","","0","0","1","","0.3012354267","false","48","","0.1863443356","main_expt","","0.3012354267","","0.05970491685","","0.3613151755","","","","","",""
"161","","bandit","124","278116","0.0-86.0-0.0","49266897","wem/bandit_single","A1NJZH7D5RLEBH","pain","7","","74","J","1","","0","0","1","","0.3199255499","false","49","","0.2089920758","main_expt","","0.3199255499","","0.05846806591","","0.3810076255","","","","","",""
"135","","bandit","125","280028","0.0-87.0-0.0","49266897","wem/bandit_single","A1NJZH7D5RLEBH","pain","7","","75","K","2","","0","0","1","","0.08078022322","false","50","","0.2204805957","main_expt","","0.3246792682","","0.08078022322","","0.3528158806","","","","","",""
"59","","bandit","126","281870","0.0-88.0-0.0","49266897","wem/bandit_single","A1NJZH7D5RLEBH","pain","7","","75","K","2","","0","0","1","","0.08366705542","false","51","","0.2796788854","main_expt","","0.3158487008","","0.08366705542","","0.4127521961","","","","","",""
"285","","bandit","127","283919","0.0-89.0-0.0","49266897","wem/bandit_single","A1NJZH7D5RLEBH","pain","7","","72","H","0","img/none_selected.jpg","0","0","1","","0.2870992152","false","52","","0.2870992152","main_expt","","0.2764666405","","0.1365111474","","0.4034362436","","","","","",""
"78","","bandit","128","285767","0.0-90.0-0.0","49266897","wem/bandit_single","A1NJZH7D5RLEBH","pain","7","","72","H","0","img/none_selected.jpg","0","1","0","","0.3176469779","false","53","","0.3176469779","main_expt","","0.2740398937","","0.1238361543","","0.4268522392","","","","","",""
"213","","bandit","129","287750","0.0-91.0-0.0","49266897","wem/bandit_single","A1NJZH7D5RLEBH","pain","7","","72","H","0","img/none_selected.jpg","0","0","1","","0.3407727651","false","54","","0.3407727651","main_expt","","0.2499565254","","0.1150058699","","0.4471231168","","","","","",""
"92","","bandit","130","289618","0.0-92.0-0.0","49266897","wem/bandit_single","A1NJZH7D5RLEBH","pain","7","","72","H","0","img/none_selected.jpg","0","1","0","","0.380871147","false","55","","0.380871147","main_expt","","0.221305586","","0.1498695165","","0.4397300441","","","","","",""
"220","","bandit","131","291634","0.0-93.0-0.0","49266897","wem/bandit_single","A1NJZH7D5RLEBH","pain","7","","72","H","0","img/none_selected.jpg","0","1","0","","0.3614982187","false","56","","0.3614982187","main_expt","","0.2513729962","","0.1559096332","","0.4266514607","","","","","",""
"229","","bandit","132","293672","0.0-94.0-0.0","49266897","wem/bandit_single","A1NJZH7D5RLEBH","pain","7","","72","H","0","img/none_selected.jpg","0","1","0","","0.3219973572","false","57","","0.3219973572","main_expt","","0.254621842","","0.139260175","","0.4351066669","","","","","",""
"76","","bandit","133","295531","0.0-95.0-0.0","49266897","wem/bandit_single","A1NJZH7D5RLEBH","pain","7","","72","H","0","img/none_selected.jpg","0","0","1","","0.3136466855","false","58","","0.3136466855","main_expt","","0.2911199408","","0.1101041774","","0.4114765848","","","","","",""
"146","","bandit","134","297466","0.0-96.0-0.0","49266897","wem/bandit_single","A1NJZH7D5RLEBH","pain","7","","76","L","3","","0","1","0","","0.4331866813","false","59","","0.3553654786","main_expt","","0.3260103257","","0.1619704935","","0.4331866813","","","","","",""
"44","","bandit","135","299284","0.0-97.0-0.0","49266897","wem/bandit_single","A1NJZH7D5RLEBH","pain","7","","76","L","3","","0","1","0","","0.4452666195","false","60","","0.302494743","main_expt","","0.3801831719","","0.1023472493","","0.4452666195","","","","","",""
"134","","bandit","136","301210","0.0-98.0-0.0","49266897","wem/bandit_single","A1NJZH7D5RLEBH","pain","7","","76","L","3","","0","0","1","","0.4533212266","false","61","","0.3194951829","main_expt","","0.4097171909","","0.1659923055","","0.4533212266","","","","","",""
"166","","bandit","137","303172","0.0-99.0-0.0","49266897","wem/bandit_single","A1NJZH7D5RLEBH","pain","7","","76","L","3","","0","1","0","","0.4546633602","false","62","","0.3491175101","main_expt","","0.4297251169","","0.1773336283","","0.4546633602","","","","","",""
"49","","bandit","138","305012","0.0-100.0-0.0","49266897","wem/bandit_single","A1NJZH7D5RLEBH","pain","7","","76","L","3","","0","0","1","","0.431915851","false","63","","0.3618657485","main_expt","","0.4523537282","","0.1838898345","","0.431915851","","","","","",""
"161","","bandit","139","306945","0.0-101.0-0.0","49266897","wem/bandit_single","A1NJZH7D5RLEBH","pain","7","","76","L","3","","0","0","1","","0.4397857724","false","64","","0.3331995431","main_expt","","0.4577822331","","0.1535376321","","0.4397857724","","","","","",""
"86","","bandit","140","308800","0.0-102.0-0.0","49266897","wem/bandit_single","A1NJZH7D5RLEBH","pain","7","","74","J","1","","0","0","1","","0.4366397349","false","65","","0.3222916502","main_expt","","0.4366397349","","0.1696059705","","0.3803141428","","","","","",""
"170","","bandit","141","310743","0.0-103.0-0.0","49266897","wem/bandit_single","A1NJZH7D5RLEBH","pain","7","","74","J","1","","0","0","1","","0.4223045317","false","66","","0.2935747005","main_expt","","0.4223045317","","0.1747776373","","0.4318665216","","","","","",""
"93","","bandit","142","312626","0.0-104.0-0.0","49266897","wem/bandit_single","A1NJZH7D5RLEBH","pain","7","","75","K","2","","0","0","1","","0.1880318686","false","67","","0.272098099","main_expt","","0.453094409","","0.1880318686","","0.3783394243","","","","","",""
"170","","bandit","143","314573","0.0-105.0-0.0","49266897","wem/bandit_single","A1NJZH7D5RLEBH","pain","7","","75","K","2","","0","1","0","","0.1703396733","false","68","","0.2839543474","main_expt","","0.4441165928","","0.1703396733","","0.3424409758","","","","","",""
"10","","bandit","144","316357","0.0-106.0-0.0","49266897","wem/bandit_single","A1NJZH7D5RLEBH","pain","7","","75","K","2","","0","0","1","","0.2041307244","false","69","","0.3106529802","main_expt","","0.437102529","","0.2041307244","","0.3825588005","","","","","",""
"38","","bandit","145","318169","0.0-107.0-0.0","49266897","wem/bandit_single","A1NJZH7D5RLEBH","pain","7","","75","K","2","","0","0","1","","0.2380468473","false","70","","0.2152651325","main_expt","","0.463010405","","0.2380468473","","0.4019939479","","","","","",""
"26","","bandit","146","319968","0.0-108.0-0.0","49266897","wem/bandit_single","A1NJZH7D5RLEBH","pain","7","","72","H","0","img/none_selected.jpg","0","0","1","","0.2150247356","false","71","","0.2150247356","main_expt","","0.4511055106","","0.2540220497","","0.3995375499","","","","","",""
"24","","bandit","147","321762","0.0-109.0-0.0","49266897","wem/bandit_single","A1NJZH7D5RLEBH","pain","7","","74","J","1","","0","1","0","","0.456238914","false","72","","0.2196699897","main_expt","","0.456238914","","0.2877519017","","0.3655493795","","","","","",""
"132","","bandit","148","323694","0.0-110.0-0.0","49266897","wem/bandit_single","A1NJZH7D5RLEBH","pain","7","","74","J","1","","0","0","1","","0.4499554287","false","73","","0.2086164273","main_expt","","0.4499554287","","0.3090267326","","0.3443296275","","","","","",""
"150","","bandit","149","325629","0.0-111.0-0.0","49266897","wem/bandit_single","A1NJZH7D5RLEBH","pain","7","","74","J","1","","0","1","0","","0.4439780401","false","74","","0.2226006448","main_expt","","0.4439780401","","0.3400901674","","0.3647916216","","","","","",""
"248","","bandit","150","327652","0.0-112.0-0.0","49266897","wem/bandit_single","A1NJZH7D5RLEBH","pain","7","","74","J","1","","0","0","1","","0.4332341766","false","75","","0.2015377479","main_expt","","0.4332341766","","0.3519214117","","0.3531956798","","","","","",""
"74","","bandit","151","329495","0.0-113.0-0.0","49266897","wem/bandit_single","A1NJZH7D5RLEBH","pain","7","","74","J","1","","0","1","0","","0.4241516559","false","76","","0.2614433548","main_expt","","0.4241516559","","0.3621584499","","0.3375826797","","","","","",""
"114","","bandit","152","331388","0.0-114.0-0.0","49266897","wem/bandit_single","A1NJZH7D5RLEBH","pain","7","","74","J","1","","0","0","1","","0.404580079","false","77","","0.3216300101","main_expt","","0.404580079","","0.3919288513","","0.3389323042","","","","","",""
"79","","bandit","153","333264","0.0-115.0-0.0","49266897","wem/bandit_single","A1NJZH7D5RLEBH","pain","7","","72","H","0","img/none_selected.jpg","0","1","0","","0.3253900192","false","78","","0.3253900192","main_expt","","0.4291019186","","0.3733142104","","0.3633343286","","","","","",""
"9","","bandit","154","335060","0.0-116.0-0.0","49266897","wem/bandit_single","A1NJZH7D5RLEBH","pain","7","","72","H","0","img/none_selected.jpg","0","0","1","","0.3253799771","false","79","","0.3253799771","main_expt","","0.4431072694","","0.3594898906","","0.35510173","","","","","",""
"8","","bandit","155","336855","0.0-117.0-0.0","49266897","wem/bandit_single","A1NJZH7D5RLEBH","pain","7","","72","H","0","img/none_selected.jpg","0","0","1","","0.321449248","false","80","","0.321449248","main_expt","","0.4443251544","","0.3740263767","","0.3313699227","","","","","",""
"36","","bandit","156","338671","0.0-118.0-0.0","49266897","wem/bandit_single","A1NJZH7D5RLEBH","pain","7","","75","K","2","","0","0","1","","0.4031190442","false","81","","0.3644617874","main_expt","","0.4222806544","","0.4031190442","","0.3545786091","","","","","",""
"17","","bandit","157","340468","0.0-119.0-0.0","49266897","wem/bandit_single","A1NJZH7D5RLEBH","pain","7","","75","K","2","","0","1","0","","0.397551472","false","82","","0.3646727683","main_expt","","0.4348184101","","0.397551472","","0.36958943","","","","","",""
"0","","bandit","158","342255","0.0-120.0-0.0","49266897","wem/bandit_single","A1NJZH7D5RLEBH","pain","7","","75","K","2","","0","1","0","","0.4251589807","false","83","","0.3823543101","main_expt","","0.4237956171","","0.4251589807","","0.3818301908","","","","","",""
"51","","bandit","159","344077","0.0-121.0-0.0","49266897","wem/bandit_single","A1NJZH7D5RLEBH","pain","7","","72","H","0","img/none_selected.jpg","0","0","1","","0.3927357351","false","84","","0.3927357351","main_expt","","0.4255820551","","0.406460911","","0.3841316884","","","","","",""
"130","","bandit","160","345994","0.0-122.0-0.0","49266897","wem/bandit_single","A1NJZH7D5RLEBH","pain","7","","75","K","2","","0","0","1","","0.4190094225","false","85","","0.3242792488","main_expt","","0.4407045426","","0.4190094225","","0.3769873451","","","","","",""
"98","","bandit","161","347863","0.0-123.0-0.0","49266897","wem/bandit_single","A1NJZH7D5RLEBH","pain","7","","75","K","2","","0","0","1","","0.4006115864","false","86","","0.3257651096","main_expt","","0.4276882268","","0.4006115864","","0.3624331431","","","","","",""
"23","","bandit","162","349660","0.0-124.0-0.0","49266897","wem/bandit_single","A1NJZH7D5RLEBH","pain","7","","76","L","3","","0","0","1","","0.356636023","false","87","","0.3768973447","main_expt","","0.4430021271","","0.3761684651","","0.356636023","","","","","",""
"43","","bandit","163","351494","0.0-125.0-0.0","49266897","wem/bandit_single","A1NJZH7D5RLEBH","pain","7","","76","L","3","","0","0","1","","0.392705536","false","88","","0.3333804566","main_expt","","0.4259892117","","0.3935355307","","0.392705536","","","","","",""
"36","","bandit","164","353295","0.0-126.0-0.0","49266897","wem/bandit_single","A1NJZH7D5RLEBH","pain","7","","74","J","1","","0","1","0","","0.4451393147","false","89","","0.3326985542","main_expt","","0.4451393147","","0.3870426381","","0.39579544","","","","","",""
"242","","bandit","165","355326","0.0-127.0-0.0","49266897","wem/bandit_single","A1NJZH7D5RLEBH","pain","7","","74","J","1","","0","1","0","","0.4450202473","false","90","","0.3392082427","main_expt","","0.4450202473","","0.3838573884","","0.3832348421","","","","","",""
"109","","bandit","166","357226","0.0-128.0-0.0","49266897","wem/bandit_single","A1NJZH7D5RLEBH","pain","7","","74","J","1","","0","0","1","","0.428726471","false","91","","0.2686139101","main_expt","","0.428726471","","0.376063899","","0.4009824957","","","","","",""
"152","","bandit","167","359181","0.0-129.0-0.0","49266897","wem/bandit_single","A1NJZH7D5RLEBH","pain","7","","72","H","0","img/none_selected.jpg","0","1","0","","0.247120026","false","92","","0.247120026","main_expt","","0.4207086611","","0.3877690924","","0.360902971","","","","","",""
"18","","bandit","168","360983","0.0-130.0-0.0","49266897","wem/bandit_single","A1NJZH7D5RLEBH","pain","7","","72","H","0","img/none_selected.jpg","0","0","1","","0.1945967668","false","93","","0.1945967668","main_expt","","0.4271109851","","0.3832772702","","0.4098322422","","","","","",""
"117","","bandit","169","362896","0.0-131.0-0.0","49266897","wem/bandit_single","A1NJZH7D5RLEBH","pain","7","","74","J","1","","0","1","0","","0.3988025755","false","94","","0.2059940606","main_expt","","0.3988025755","","0.3569295009","","0.365685068","","","","","",""
"27","","bandit","170","364707","0.0-132.0-0.0","49266897","wem/bandit_single","A1NJZH7D5RLEBH","pain","7","","74","J","1","","0","1","0","","0.3413505888","false","95","","0.2276463074","main_expt","","0.3413505888","","0.3462427099","","0.3246475432","","","","","",""
"243","","bandit","171","366747","0.0-133.0-0.0","49266897","wem/bandit_single","A1NJZH7D5RLEBH","pain","7","","74","J","1","","0","0","1","","0.2791034264","false","96","","0.3088064785","main_expt","","0.2791034264","","0.2902370181","","0.3155220288","","","","","",""
"172","","bandit","172","368690","0.0-134.0-0.0","49266897","wem/bandit_single","A1NJZH7D5RLEBH","pain","7","","74","J","1","","0","0","1","","0.2300358144","false","97","","0.3167474357","main_expt","","0.2300358144","","0.2679909325","","0.2920368253","","","","","",""
"148","","bandit","173","370642","0.0-135.0-0.0","49266897","wem/bandit_single","A1NJZH7D5RLEBH","pain","7","","75","K","2","","0","1","0","","0.1827708427","false","98","","0.3311058144","main_expt","","0.245913642","","0.1827708427","","0.3060047135","","","","","",""
"40","","bandit","174","372460","0.0-136.0-0.0","49266897","wem/bandit_single","A1NJZH7D5RLEBH","pain","7","","75","K","2","","0","0","1","","0.1847148603","false","99","","0.2831383079","main_expt","","0.1977736678","","0.1847148603","","0.2834300817","","","","","",""
"771","","bandit","175","375040","0.0-137.0-0.0","49266897","wem/bandit_single","A1NJZH7D5RLEBH","pain","7","","75","K","2","","0","0","1","","0.230590463","false","100","","0.2697282324","main_expt","","0.2300987319","","0.230590463","","0.3094748938","","","","","",""
"142","","bandit","176","376962","0.0-138.0-0.0","49266897","wem/bandit_single","A1NJZH7D5RLEBH","pain","7","","76","L","3","","0","0","1","","0.2776834174","false","101","","0.2908511313","main_expt","","0.2375929523","","0.2036778932","","0.2776834174","","","","","",""
"218","","bandit","177","378960","0.0-139.0-0.0","49266897","wem/bandit_single","A1NJZH7D5RLEBH","pain","7","","72","H","0","img/none_selected.jpg","0","0","1","","0.3371086545","false","102","","0.3371086545","main_expt","","0.2034833152","","0.2146692458","","0.2649828438","","","","","",""
"209","","bandit","178","380963","0.0-140.0-0.0","49266897","wem/bandit_single","A1NJZH7D5RLEBH","pain","7","","72","H","0","img/none_selected.jpg","0","0","1","","0.2925399581","false","103","","0.2925399581","main_expt","","0.2510503681","","0.2194044235","","0.1977849252","","","","","",""
"191","","bandit","179","382941","0.0-141.0-0.0","49266897","wem/bandit_single","A1NJZH7D5RLEBH","pain","7","","72","H","0","img/none_selected.jpg","0","1","0","","0.229866195","false","104","","0.229866195","main_expt","","0.2563420723","","0.2869514305","","0.164180841","","","","","",""
"126","","bandit","180","384852","0.0-142.0-0.0","49266897","wem/bandit_single","A1NJZH7D5RLEBH","pain","7","","72","H","0","img/none_selected.jpg","0","0","1","","0.2786648232","false","105","","0.2786648232","main_expt","","0.2025228913","","0.2577924419","","0.1410880488","","","","","",""
"57","","bandit","181","386687","0.0-143.0-0.0","49266897","wem/bandit_single","A1NJZH7D5RLEBH","pain","7","","72","H","0","img/none_selected.jpg","0","0","1","","0.2907959635","false","106","","0.2907959635","main_expt","","0.2288818116","","0.2984789445","","0.2151151798","","","","","",""
"0","","bandit","182","388481","0.0-144.0-0.0","49266897","wem/bandit_single","A1NJZH7D5RLEBH","pain","7","","72","H","0","img/none_selected.jpg","0","0","1","","0.2934471614","false","107","","0.2934471614","main_expt","","0.2725684277","","0.2483059356","","0.2068678097","","","","","",""
"227","","bandit","183","390496","0.0-145.0-0.0","49266897","wem/bandit_single","A1NJZH7D5RLEBH","pain","7","","74","J","1","","0","0","1","","0.2725367566","false","108","","0.2761460559","main_expt","","0.2725367566","","0.2177203031","","0.1775779384","","","","","",""
"152","","bandit","184","392435","0.0-146.0-0.0","49266897","wem/bandit_single","A1NJZH7D5RLEBH","pain","7","","75","K","2","","0","1","0","","0.2155336726","false","109","","0.3154055318","main_expt","","0.2645412755","","0.2155336726","","0.1633907035","","","","","",""
"132","","bandit","185","394365","0.0-147.0-0.0","49266897","wem/bandit_single","A1NJZH7D5RLEBH","pain","7","","75","K","2","","0","0","1","","0.2012134729","false","110","","0.3375256398","main_expt","","0.2537238549","","0.2012134729","","0.1918139944","","","","","",""
"23","","bandit","186","396170","0.0-148.0-0.0","49266897","wem/bandit_single","A1NJZH7D5RLEBH","pain","7","","76","L","3","","0","1","0","","0.1512725872","false","111","","0.3575411602","main_expt","","0.2404930496","","0.1362677005","","0.1512725872","","","","","",""
"35","","bandit","187","397988","0.0-149.0-0.0","49266897","wem/bandit_single","A1NJZH7D5RLEBH","pain","7","","76","L","3","","0","0","1","","0.1579322392","false","112","","0.3357984678","main_expt","","0.2031918028","","0.1146466799","","0.1579322392","","","","","",""
"22","","bandit","188","399771","0.0-150.0-0.0","49266897","wem/bandit_single","A1NJZH7D5RLEBH","pain","7","","74","J","1","","0","0","1","","0.2649243105","false","113","","0.2950954247","main_expt","","0.2649243105","","0.1503083978","","0.1638150459","","","","","",""
"231","","bandit","189","401764","0.0-151.0-0.0","49266897","wem/bandit_single","A1NJZH7D5RLEBH","pain","7","","74","J","1","","0","0","1","","0.2669290767","false","114","","0.3242299597","main_expt","","0.2669290767","","0.1750780752","","0.1913716077","","","","","",""
"71","","bandit","190","403624","0.0-152.0-0.0","49266897","wem/bandit_single","A1NJZH7D5RLEBH","pain","7","","75","K","2","","0","0","1","","0.1486636943","false","115","","0.3224166769","main_expt","","0.2538219684","","0.1486636943","","0.1762938339","","","","","",""
"37","","bandit","191","405449","0.0-153.0-0.0","49266897","wem/bandit_single","A1NJZH7D5RLEBH","pain","7","","76","L","3","","0","0","1","","0.1696576366","false","116","","0.3512221687","main_expt","","0.2987800907","","0.149377163","","0.1696576366","","","","","",""
"0","","bandit","192","407251","0.0-154.0-0.0","49266897","wem/bandit_single","A1NJZH7D5RLEBH","pain","7","","74","J","1","","0","0","1","","0.2863147972","false","117","","0.3854596622","main_expt","","0.2863147972","","0.1255156769","","0.1743908607","","","","","",""
"178","","bandit","193","409215","0.0-155.0-0.0","49266897","wem/bandit_single","A1NJZH7D5RLEBH","pain","7","","72","H","0","img/none_selected.jpg","0","0","1","","0.3311459155","false","118","","0.3311459155","main_expt","","0.2863485017","","0.09405737873","","0.2187419408","","","","","",""
"46","","bandit","194","411043","0.0-156.0-0.0","49266897","wem/bandit_single","A1NJZH7D5RLEBH","pain","7","","72","H","0","img/none_selected.jpg","0","1","0","","0.3243143835","false","119","","0.3243143835","main_expt","","0.2704451175","","0.0580133569","","0.2602037773","","","","","",""
"52","","bandit","195","412894","0.0-157.0-0.0","49266897","wem/bandit_single","A1NJZH7D5RLEBH","pain","7","","72","H","0","img/none_selected.jpg","0","0","1","","0.3830596167","false","120","","0.3830596167","main_expt","","0.2545920365","","0.04965982272","","0.2665240463","","","","","",""
"112","","bandit","196","414772","0.0-158.0-0.0","49266897","wem/bandit_single","A1NJZH7D5RLEBH","pain","7","","72","H","0","img/none_selected.jpg","0","1","0","","0.4451194006","false","121","","0.4451194006","main_expt","","0.323502768","","0.05452098248","","0.2300357123","","","","","",""
"12","","bandit","197","416569","0.0-159.0-0.0","49266897","wem/bandit_single","A1NJZH7D5RLEBH","pain","7","","72","H","0","img/none_selected.jpg","0","1","0","","0.4636898934","false","122","","0.4636898934","main_expt","","0.3380353075","","0.0475995955","","0.2071140152","","","","","",""
"99","","bandit","198","418445","0.0-160.0-0.0","49266897","wem/bandit_single","A1NJZH7D5RLEBH","pain","7","","72","H","0","img/none_selected.jpg","0","1","0","","0.4384370655","false","123","","0.4384370655","main_expt","","0.341491638","","0.04799769062","","0.2590656513","","","","","",""
"253","","bandit","199","420486","0.0-161.0-0.0","49266897","wem/bandit_single","A1NJZH7D5RLEBH","pain","7","","72","H","0","img/none_selected.jpg","0","0","1","","0.456933673","false","124","","0.456933673","main_expt","","0.3269941981","","0.06454195205","","0.2492473134","","","","","",""
"98","","bandit","200","422375","0.0-162.0-0.0","49266897","wem/bandit_single","A1NJZH7D5RLEBH","pain","7","","75","K","2","","0","0","1","","0.0570469748","false","125","","0.4834692703","main_expt","","0.3263020805","","0.0570469748","","0.2569957816","","","","","",""
"163","","bandit","201","424337","0.0-163.0-0.0","49266897","wem/bandit_single","A1NJZH7D5RLEBH","pain","7","","76","L","3","","0","0","1","","0.2715808503","false","126","","0.4895912119","main_expt","","0.3377655475","","0.06214194377","","0.2715808503","","","","","",""
"219","","bandit","202","426347","0.0-164.0-0.0","49266897","wem/bandit_single","A1NJZH7D5RLEBH","pain","7","","76","L","3","","0","0","1","","0.3260406689","false","127","","0.4791977258","main_expt","","0.3489319456","","0.06219251386","","0.3260406689","","","","","",""
"737","","bandit","203","428881","0.0-165.0-0.0","49266897","wem/bandit_single","A1NJZH7D5RLEBH","pain","7","","76","L","3","","0","0","1","","0.3487232841","false","128","","0.4772399827","main_expt","","0.3450526125","","0.06192095676","","0.3487232841","","","","","",""
"139","","bandit","204","430817","0.0-166.0-0.0","49266897","wem/bandit_single","A1NJZH7D5RLEBH","pain","7","","75","K","2","","0","0","1","","0.03846933599","false","129","","0.4688955373","main_expt","","0.3297424559","","0.03846933599","","0.3601162145","","","","","",""
"145","","bandit","205","432750","0.0-167.0-0.0","49266897","wem/bandit_single","A1NJZH7D5RLEBH","pain","7","","75","K","2","","0","0","1","","0.02330960587","false","130","","0.4651179545","main_expt","","0.3731420779","","0.02330960587","","0.4185413006","","","","","",""
"178","","bandit","206","434721","0.0-168.0-0.0","49266897","wem/bandit_single","A1NJZH7D5RLEBH","pain","7","","75","K","2","","0","0","1","","0.03495479357","false","131","","0.4794739162","main_expt","","0.325638262","","0.03495479357","","0.4537663544","","","","","",""
"106","","bandit","207","436625","0.0-169.0-0.0","49266897","wem/bandit_single","A1NJZH7D5RLEBH","pain","7","","74","J","1","","0","0","1","","0.3132782049","false","132","","0.4679846252","main_expt","","0.3132782049","","0.02752519027","","0.4489861829","","","","","",""
"94","","bandit","208","438496","0.0-170.0-0.0","49266897","wem/bandit_single","A1NJZH7D5RLEBH","pain","7","","75","K","2","","0","0","1","","0.03239645132","false","133","","0.4636487781","main_expt","","0.3552481716","","0.03239645132","","0.4465240103","","","","","",""
"207","","bandit","209","440493","0.0-171.0-0.0","49266897","wem/bandit_single","A1NJZH7D5RLEBH","pain","7","","72","H","0","img/none_selected.jpg","0","0","1","","0.4578614037","false","134","","0.4578614037","main_expt","","0.3478795997","","0.02361228775","","0.4286255731","","","","","",""
"164","","bandit","210","442441","0.0-172.0-0.0","49266897","wem/bandit_single","A1NJZH7D5RLEBH","pain","7","","72","H","0","img/none_selected.jpg","0","0","1","","0.4339873336","false","135","","0.4339873336","main_expt","","0.3394088604","","0.01378345967","","0.3969320342","","","","","",""
"17","","bandit","211","444244","0.0-173.0-0.0","49266897","wem/bandit_single","A1NJZH7D5RLEBH","pain","7","","76","L","3","","0","0","1","","0.3975573163","false","136","","0.4091277288","main_expt","","0.3739095734","","0.01349892684","","0.3975573163","","","","","",""
"167","","bandit","212","446211","0.0-174.0-0.0","49266897","wem/bandit_single","A1NJZH7D5RLEBH","pain","7","","76","L","3","","0","0","1","","0.4226438881","false","137","","0.4024864596","main_expt","","0.3319731639","","0.01373747566","","0.4226438881","","","","","",""
"151","","bandit","213","448157","0.0-175.0-0.0","49266897","wem/bandit_single","A1NJZH7D5RLEBH","pain","7","","76","L","3","","0","0","1","","0.383622376","false","138","","0.3793932322","main_expt","","0.3427854578","","0.009346923256","","0.383622376","","","","","",""
"155","","bandit","214","450099","0.0-176.0-0.0","49266897","wem/bandit_single","A1NJZH7D5RLEBH","pain","7","","74","J","1","","0","0","1","","0.2804250852","false","139","","0.3940691536","main_expt","","0.2804250852","","0.005947695369","","0.3892077266","","","","","",""
"57","","bandit","215","451933","0.0-177.0-0.0","49266897","wem/bandit_single","A1NJZH7D5RLEBH","pain","7","","74","J","1","","0","0","1","","0.294489168","false","140","","0.3878174143","main_expt","","0.294489168","","0.003062149202","","0.3721285976","","","","","",""
"125","","bandit","216","453853","0.0-178.0-0.0","49266897","wem/bandit_single","A1NJZH7D5RLEBH","pain","7","","75","K","2","","0","0","1","","0.003723800288","false","141","","0.3671315422","main_expt","","0.2849233321","","0.003723800288","","0.403063379","","","","","",""
"113","","bandit","217","455745","0.0-179.0-0.0","49266897","wem/bandit_single","A1NJZH7D5RLEBH","pain","7","","72","H","0","img/none_selected.jpg","0","0","1","","0.338830911","false","142","","0.338830911","main_expt","","0.2605380125","","0.003048460602","","0.3916907223","","","","","",""
"113","","bandit","218","457643","0.0-180.0-0.0","49266897","wem/bandit_single","A1NJZH7D5RLEBH","pain","7","","76","L","3","","0","0","1","","0.4212357341","false","143","","0.2709557481","main_expt","","0.3030740536","","0.002664125267","","0.4212357341","","","","","",""
"147","","bandit","219","459574","0.0-181.0-0.0","49266897","wem/bandit_single","A1NJZH7D5RLEBH","pain","7","","74","J","1","","0","0","1","","0.29766321","false","144","","0.249986241","main_expt","","0.29766321","","0.0015633636","","0.3944164323","","","","","",""
"38","","bandit","220","461419","0.0-182.0-0.0","49266897","wem/bandit_single","A1NJZH7D5RLEBH","pain","7","","75","K","2","","0","0","1","","0.002084593646","false","145","","0.2694710106","main_expt","","0.2862291296","","0.002084593646","","0.4129391908","","","","","",""
"14","","bandit","221","463212","0.0-183.0-0.0","49266897","wem/bandit_single","A1NJZH7D5RLEBH","pain","7","","75","K","2","","0","0","1","","0.0008356934022","false","146","","0.3099728414","main_expt","","0.3151642481","","0.0008356934022","","0.4027876266","","","","","",""
"201","","bandit","222","465209","0.0-184.0-0.0","49266897","wem/bandit_single","A1NJZH7D5RLEBH","pain","7","","75","K","2","","0","0","1","","0.00187417998","false","147","","0.3010760093","main_expt","","0.3261334855","","0.00187417998","","0.3906291495","","","","","",""
"159","","bandit","223","467142","0.0-185.0-0.0","49266897","wem/bandit_single","A1NJZH7D5RLEBH","pain","7","","75","K","2","","0","0","1","","0.001549413081","false","148","","0.2861733563","main_expt","","0.3605999671","","0.001549413081","","0.3718958907","","","","","",""
"98","","bandit","224","469040","0.0-186.0-0.0","49266897","wem/bandit_single","A1NJZH7D5RLEBH","pain","7","","74","J","1","","0","0","1","","0.3848975894","false","149","","0.2613296644","main_expt","","0.3848975894","","0.002318569837","","0.3513552953","","","","","",""
"170","","bandit","225","471018","0.0-187.0-0.0","49266897","wem/bandit_single","A1NJZH7D5RLEBH","pain","7","","74","J","1","","0","1","0","","0.3680345664","false","150","","0.2955554784","main_expt","","0.3680345664","","0.002401941109","","0.3796712552","","","","","",""
"86","","bandit","226","472883","0.0-188.0-0.0","49266897","wem/bandit_single","A1NJZH7D5RLEBH","pain","7","","74","J","1","","0","0","1","","0.3517559312","false","151","","0.2928365899","main_expt","","0.3517559312","","0.002416650241","","0.4275550045","","","","","",""
"162","","bandit","227","474833","0.0-189.0-0.0","49266897","wem/bandit_single","A1NJZH7D5RLEBH","pain","7","","74","J","1","","0","0","1","","0.3963282571","false","152","","0.3000067833","main_expt","","0.3963282571","","0.002533271813","","0.4266807854","","","","","",""
"86","","bandit","228","476706","0.0-190.0-0.0","49266897","wem/bandit_single","A1NJZH7D5RLEBH","pain","7","","74","J","1","","0","0","1","","0.432842039","false","153","","0.2757802357","main_expt","","0.432842039","","0.00322942279","","0.4633151701","","","","","",""
"18","","bandit","229","478510","0.0-191.0-0.0","49266897","wem/bandit_single","A1NJZH7D5RLEBH","pain","7","","72","H","0","img/none_selected.jpg","0","1","0","","0.3252288772","false","154","","0.3252288772","main_expt","","0.4134551824","","0.003404333974","","0.4723469507","","","","","",""
"197","","bandit","230","480488","0.0-192.0-0.0","49266897","wem/bandit_single","A1NJZH7D5RLEBH","pain","7","","72","H","0","img/none_selected.jpg","0","1","0","","0.2746928085","false","155","","0.2746928085","main_expt","","0.426737857","","0.008925030754","","0.4829251431","","","","","",""
"19","","bandit","231","482274","0.0-193.0-0.0","49266897","wem/bandit_single","A1NJZH7D5RLEBH","pain","7","","72","H","0","img/none_selected.jpg","0","1","0","","0.2881451241","false","156","","0.2881451241","main_expt","","0.4289541051","","0.005317619152","","0.4753947098","","","","","",""
"239","","bandit","232","484287","0.0-194.0-0.0","49266897","wem/bandit_single","A1NJZH7D5RLEBH","pain","7","","72","H","0","img/none_selected.jpg","0","0","1","","0.2861132768","false","157","","0.2861132768","main_expt","","0.4593738684","","0.002657446392","","0.4686295074","","","","","",""
"181","","bandit","233","486261","0.0-195.0-0.0","49266897","wem/bandit_single","A1NJZH7D5RLEBH","pain","7","","72","H","0","img/none_selected.jpg","0","0","1","","0.2382703247","false","158","","0.2382703247","main_expt","","0.4716769587","","0.005349678466","","0.4746137902","","","","","",""
"146","","bandit","234","488193","0.0-196.0-0.0","49266897","wem/bandit_single","A1NJZH7D5RLEBH","pain","7","","72","H","0","img/none_selected.jpg","0","0","1","","0.2650616746","false","159","","0.2650616746","main_expt","","0.4566829936","","0.00353293949","","0.4626257703","","","","","",""
"182","","bandit","235","490148","0.0-197.0-0.0","49266897","wem/bandit_single","A1NJZH7D5RLEBH","pain","7","","76","L","3","","0","0","1","","0.4690497323","false","160","","0.2841227011","main_expt","","0.4684401337","","0.004525880368","","0.4690497323","","","","","",""
"157","","bandit","236","492096","0.0-198.0-0.0","49266897","wem/bandit_single","A1NJZH7D5RLEBH","pain","7","","76","L","3","","0","1","0","","0.4605728382","false","161","","0.3103310899","main_expt","","0.4327192474","","0.00364468733","","0.4605728382","","","","","",""
"37","","bandit","237","493918","0.0-199.0-0.0","49266897","wem/bandit_single","A1NJZH7D5RLEBH","pain","7","","76","L","3","","0","1","0","","0.4663204896","false","162","","0.2990864795","main_expt","","0.4158578039","","0.004567203872","","0.4663204896","","","","","",""
"14","","bandit","238","495722","0.0-200.0-0.0","49266897","wem/bandit_single","A1NJZH7D5RLEBH","pain","7","","76","L","3","","0","1","0","","0.4626626357","false","163","","0.2650304997","main_expt","","0.4206849782","","0.003538815","","0.4626626357","","","","","",""
"5","","bandit","239","497524","0.0-201.0-0.0","49266897","wem/bandit_single","A1NJZH7D5RLEBH","pain","7","","76","L","3","","0","0","1","","0.4672680551","false","164","","0.2877519924","main_expt","","0.4276923589","","0.002896615325","","0.4672680551","","","","","",""
"80","","bandit","240","499400","0.0-202.0-0.0","49266897","wem/bandit_single","A1NJZH7D5RLEBH","pain","7","","76","L","3","","0","0","1","","0.455015491","false","165","","0.2818109827","main_expt","","0.4204466813","","0.004500484281","","0.455015491","","","","","",""
"145","","bandit","241","501330","0.0-203.0-0.0","49266897","wem/bandit_single","A1NJZH7D5RLEBH","pain","7","","75","K","2","","0","0","1","","0.01017739848","false","166","","0.324785045","main_expt","","0.4229734844","","0.01017739848","","0.4201800218","","","","","",""
"197","","bandit","242","503321","0.0-204.0-0.0","49266897","wem/bandit_single","A1NJZH7D5RLEBH","pain","7","","75","K","2","","0","0","1","","0.0129517719","false","167","","0.3339304688","main_expt","","0.4474449943","","0.0129517719","","0.4430085171","","","","","",""
"184","","bandit","243","505294","0.0-205.0-0.0","49266897","wem/bandit_single","A1NJZH7D5RLEBH","pain","7","","74","J","1","","0","0","1","","0.4458086367","false","168","","0.3351003476","main_expt","","0.4458086367","","0.009045291763","","0.4526671473","","","","","",""
"181","","bandit","244","507261","0.0-206.0-0.0","49266897","wem/bandit_single","A1NJZH7D5RLEBH","pain","7","","72","H","0","img/none_selected.jpg","0","0","1","","0.3556935824","false","169","","0.3556935824","main_expt","","0.4619433307","","0.01553154223","","0.4477525289","","","","","",""
"252","","bandit","245","509309","0.0-207.0-0.0","49266897","wem/bandit_single","A1NJZH7D5RLEBH","pain","7","","72","H","0","img/none_selected.jpg","0","1","0","","0.3690608098","false","170","","0.3690608098","main_expt","","0.4703570947","","0.01787531072","","0.41154262","","","","","",""
"79","","bandit","246","511176","0.0-208.0-0.0","49266897","wem/bandit_single","A1NJZH7D5RLEBH","pain","7","","72","H","0","img/none_selected.jpg","0","0","1","","0.3631266209","false","171","","0.3631266209","main_expt","","0.474742395","","0.01316551092","","0.37868858","","","","","",""
"230","","bandit","247","513202","0.0-209.0-0.0","49266897","wem/bandit_single","A1NJZH7D5RLEBH","pain","7","","74","J","1","","0","1","0","","0.4773845315","false","172","","0.3392191481","main_expt","","0.4773845315","","0.0172037691","","0.3971498268","","","","","",""
"134","","bandit","248","515136","0.0-210.0-0.0","49266897","wem/bandit_single","A1NJZH7D5RLEBH","pain","7","","74","J","1","","0","1","0","","0.4680058345","false","173","","0.2931772585","main_expt","","0.4680058345","","0.01427011775","","0.4319579383","","","","","",""
"184","","bandit","249","517122","0.0-211.0-0.0","49266897","wem/bandit_single","A1NJZH7D5RLEBH","pain","7","","74","J","1","","0","0","1","","0.4561145842","false","174","","0.2750831853","main_expt","","0.4561145842","","0.01057019218","","0.4174714043","","","","","",""
"131","","bandit","250","519042","0.0-212.0-0.0","49266897","wem/bandit_single","A1NJZH7D5RLEBH","pain","7","","75","K","2","","0","0","1","","0.007255369755","false","175","","0.2997345097","main_expt","","0.472279608","","0.007255369755","","0.3846013355","","","","","",""
"137","","bandit","251","520953","0.0-213.0-0.0","49266897","wem/bandit_single","A1NJZH7D5RLEBH","pain","7","","75","K","2","","0","0","1","","0.01305273867","false","176","","0.3402413884","main_expt","","0.4602447812","","0.01305273867","","0.4019342833","","","","","",""
"48","","bandit","252","522768","0.0-214.0-0.0","49266897","wem/bandit_single","A1NJZH7D5RLEBH","pain","7","","76","L","3","","0","1","0","","0.4211485366","false","177","","0.3099882557","main_expt","","0.4343313091","","0.0133150908","","0.4211485366","","","","","",""
"250","","bandit","253","524785","0.0-215.0-0.0","49266897","wem/bandit_single","A1NJZH7D5RLEBH","pain","7","","76","L","3","","0","0","1","","0.4133977621","false","178","","0.2761175095","main_expt","","0.4048428007","","0.01259822705","","0.4133977621","","","","","",""
"90","","bandit","254","526669","0.0-216.0-0.0","49266897","wem/bandit_single","A1NJZH7D5RLEBH","pain","7","","76","L","3","","0","1","0","","0.4395013083","false","179","","0.3053987856","main_expt","","0.3826353834","","0.008971211221","","0.4395013083","","","","","",""
"176","","bandit","255","528624","0.0-217.0-0.0","49266897","wem/bandit_single","A1NJZH7D5RLEBH","pain","7","","76","L","3","","0","1","0","","0.4385200931","false","180","","0.291880519","main_expt","","0.3352628501","","0.01053614943","","0.4385200931","","","","","",""
"117","","bandit","256","530531","0.0-218.0-0.0","49266897","wem/bandit_single","A1NJZH7D5RLEBH","pain","7","","76","L","3","","0","1","0","","0.4225113135","false","181","","0.298429346","main_expt","","0.2990499081","","0.01184041186","","0.4225113135","","","","","",""
"201","","bandit","257","532508","0.0-219.0-0.0","49266897","wem/bandit_single","A1NJZH7D5RLEBH","pain","7","","76","L","3","","0","1","0","","0.3723799893","false","182","","0.3343264324","main_expt","","0.3698835663","","0.03042574256","","0.3723799893","","","","","",""
"252","","bandit","258","534534","0.0-220.0-0.0","49266897","wem/bandit_single","A1NJZH7D5RLEBH","pain","7","","76","L","3","","0","1","0","","0.3790924375","false","183","","0.2890729732","main_expt","","0.3849917371","","0.03286829004","","0.3790924375","","","","","",""
"105","","bandit","259","536422","0.0-221.0-0.0","49266897","wem/bandit_single","A1NJZH7D5RLEBH","pain","7","","76","L","3","","0","0","1","","0.4122006093","false","184","","0.1975841231","main_expt","","0.3560661239","","0.05565884368","","0.4122006093","","","","","",""
"132","","bandit","260","538339","0.0-222.0-0.0","49266897","wem/bandit_single","A1NJZH7D5RLEBH","pain","7","","76","L","3","","0","0","1","","0.3681720139","false","185","","0.213981158","main_expt","","0.3637043243","","0.05703602855","","0.3681720139","","","","","",""
"44","","bandit","261","540165","0.0-223.0-0.0","49266897","wem/bandit_single","A1NJZH7D5RLEBH","pain","7","","75","K","2","","0","0","1","","0.08167625523","false","186","","0.1690135127","main_expt","","0.370254809","","0.08167625523","","0.3735732413","","","","","",""
"139","","bandit","262","542082","0.0-224.0-0.0","49266897","wem/bandit_single","A1NJZH7D5RLEBH","pain","7","","74","J","1","","0","0","1","","0.3451477914","false","187","","0.2606776113","main_expt","","0.3451477914","","0.08146612985","","0.3763431734","","","","","",""
"202","","bandit","263","544066","0.0-225.0-0.0","49266897","wem/bandit_single","A1NJZH7D5RLEBH","pain","7","","74","J","1","","0","1","0","","0.3939300048","false","188","","0.2431197375","main_expt","","0.3939300048","","0.09365986726","","0.3515668436","","","","","",""
"99","","bandit","264","545968","0.0-226.0-0.0","49266897","wem/bandit_single","A1NJZH7D5RLEBH","pain","7","","74","J","1","","0","0","1","","0.4136030152","false","189","","0.2308206277","main_expt","","0.4136030152","","0.09268069957","","0.3343836861","","","","","",""
"221","","bandit","265","547964","0.0-227.0-0.0","49266897","wem/bandit_single","A1NJZH7D5RLEBH","pain","7","","74","J","1","","0","1","0","","0.4261376259","false","190","","0.2025271702","main_expt","","0.4261376259","","0.08594859785","","0.2525345787","","","","","",""
"256","","bandit","266","550013","0.0-228.0-0.0","49266897","wem/bandit_single","A1NJZH7D5RLEBH","pain","7","","74","J","1","","0","0","1","","0.3908696756","false","191","","0.2751540988","main_expt","","0.3908696756","","0.08932588753","","0.2685183708","","","","","",""
"246","","bandit","267","552050","0.0-229.0-0.0","49266897","wem/bandit_single","A1NJZH7D5RLEBH","pain","7","","72","H","0","img/none_selected.jpg","0","0","1","","0.2569606715","false","192","","0.2569606715","main_expt","","0.4106222578","","0.1064261942","","0.2572514827","","","","","",""
"61","","bandit","268","553903","0.0-230.0-0.0","49266897","wem/bandit_single","A1NJZH7D5RLEBH","pain","7","","74","J","1","","0","1","0","","0.4282135821","false","193","","0.2874900681","main_expt","","0.4282135821","","0.1536879749","","0.1969756064","","","","","",""
"11","","bandit","269","555702","0.0-231.0-0.0","49266897","wem/bandit_single","A1NJZH7D5RLEBH","pain","7","","74","J","1","","0","1","0","","0.4423695223","false","194","","0.1735349233","main_expt","","0.4423695223","","0.1389913839","","0.2134952627","","","","","",""
"169","","bandit","270","557673","0.0-232.0-0.0","49266897","wem/bandit_single","A1NJZH7D5RLEBH","pain","7","","74","J","1","","0","0","1","","0.4594299266","false","195","","0.1922880567","main_expt","","0.4594299266","","0.1439418744","","0.1620875807","","","","","",""
"51","","bandit","271","559495","0.0-233.0-0.0","49266897","wem/bandit_single","A1NJZH7D5RLEBH","pain","7","","72","H","0","img/none_selected.jpg","0","0","1","","0.180833075","false","196","","0.180833075","main_expt","","0.4446405127","","0.131143091","","0.166822232","","","","","",""
"84","","bandit","272","561367","0.0-234.0-0.0","49266897","wem/bandit_single","A1NJZH7D5RLEBH","pain","7","","75","K","2","","0","0","1","","0.1358316141","false","197","","0.2213655201","main_expt","","0.4559667881","","0.1358316141","","0.1951417713","","","","","",""
"223","","bandit","273","563388","0.0-235.0-0.0","49266897","wem/bandit_single","A1NJZH7D5RLEBH","pain","7","","76","L","3","","0","0","1","","0.1946571809","false","198","","0.1886922679","main_expt","","0.4760465659","","0.1271866158","","0.1946571809","","","","","",""
"131","","bandit","274","565306","0.0-236.0-0.0","49266897","wem/bandit_single","A1NJZH7D5RLEBH","pain","7","","76","L","3","","0","1","0","","0.125569753","false","199","","0.1960792333","main_expt","","0.4682530898","","0.1427164763","","0.125569753","","","","","",""
"124","","bandit","275","567215","0.0-237.0-0.0","49266897","wem/bandit_single","A1NJZH7D5RLEBH","pain","7","","76","L","3","","0","0","1","","0.110010897","false","200","","0.2093645874","main_expt","","0.4722721777","","0.1465126473","","0.110010897","","","","","",""
"189","","bandit","276","569188","0.0-238.0-0.0","49266897","wem/bandit_single","A1NJZH7D5RLEBH","pain","7","","76","L","3","","0","0","1","","0.1280762957","false","201","","0.1673165995","main_expt","","0.4739800601","","0.1271257608","","0.1280762957","","","","","",""
"122","","bandit","277","571087","0.0-239.0-0.0","49266897","wem/bandit_single","A1NJZH7D5RLEBH","pain","7","","75","K","2","","0","0","1","","0.08657179739","false","202","","0.2086438453","main_expt","","0.479726886","","0.08657179739","","0.1402913484","","","","","",""
"130","","bandit","278","572983","0.0-240.0-0.0","49266897","wem/bandit_single","A1NJZH7D5RLEBH","pain","7","","74","J","1","","0","0","1","","0.4642372742","false","203","","0.1973992815","main_expt","","0.4642372742","","0.09313456927","","0.2217412738","","","","","",""
"110","","bandit","279","574903","0.0-241.0-0.0","49266897","wem/bandit_single","A1NJZH7D5RLEBH","pain","7","","74","J","1","","0","1","0","","0.4560882558","false","204","","0.2256674954","main_expt","","0.4560882558","","0.1497906572","","0.2231628045","","","","","",""
"271","","bandit","280","576954","0.0-242.0-0.0","49266897","wem/bandit_single","A1NJZH7D5RLEBH","pain","7","","74","J","1","","0","1","0","","0.4525737262","false","205","","0.2163874892","main_expt","","0.4525737262","","0.1829644856","","0.2170181201","","","","","",""
"20","","bandit","281","578749","0.0-243.0-0.0","49266897","wem/bandit_single","A1NJZH7D5RLEBH","pain","7","","74","J","1","","0","0","1","","0.4550624295","false","206","","0.2197086186","main_expt","","0.4550624295","","0.1612057882","","0.2796725078","","","","","",""
"131","","bandit","282","580668","0.0-244.0-0.0","49266897","wem/bandit_single","A1NJZH7D5RLEBH","pain","7","","75","K","2","","0","0","1","","0.1697938272","false","207","","0.2065154411","main_expt","","0.4723612306","","0.1697938272","","0.2817680811","","","","","",""
"142","","bandit","283","582600","0.0-245.0-0.0","49266897","wem/bandit_single","A1NJZH7D5RLEBH","pain","7","","76","L","3","","0","0","1","","0.2823403198","false","208","","0.1685179651","main_expt","","0.4766034411","","0.1559958766","","0.2823403198","","","","","",""
"123","","bandit","284","584524","0.0-246.0-0.0","49266897","wem/bandit_single","A1NJZH7D5RLEBH","pain","7","","76","L","3","","0","0","1","","0.3618902866","false","209","","0.138461816","main_expt","","0.483515399","","0.1446830505","","0.3618902866","","","","","",""
"200","","bandit","285","586507","0.0-247.0-0.0","49266897","wem/bandit_single","A1NJZH7D5RLEBH","pain","7","","76","L","3","","0","1","0","","0.373554641","false","210","","0.1494322788","main_expt","","0.4880418707","","0.1231196185","","0.373554641","","","","","",""
"5","","bandit","286","588291","0.0-248.0-0.0","49266897","wem/bandit_single","A1NJZH7D5RLEBH","pain","7","","76","L","3","","0","0","1","","0.4160488284","false","211","","0.1799359977","main_expt","","0.4802592994","","0.1456244431","","0.4160488284","","","","","",""
"22","","bandit","287","590086","0.0-249.0-0.0","49266897","wem/bandit_single","A1NJZH7D5RLEBH","pain","7","","76","L","3","","0","0","1","","0.381710399","false","212","","0.1810857181","main_expt","","0.4738887763","","0.1656867557","","0.381710399","","","","","",""
"150","","bandit","288","592007","0.0-250.0-0.0","49266897","wem/bandit_single","A1NJZH7D5RLEBH","pain","7","","72","H","0","img/none_selected.jpg","0","0","1","","0.1615137558","false","213","","0.1615137558","main_expt","","0.4808850683","","0.224977978","","0.3769148707","","","","","",""
"144","","bandit","289","593941","0.0-251.0-0.0","49266897","wem/bandit_single","A1NJZH7D5RLEBH","pain","7","","74","J","1","","0","0","1","","0.4825694391","false","214","","0.1650702933","main_expt","","0.4825694391","","0.307554285","","0.3476207329","","","","","",""
"139","","bandit","290","595858","0.0-252.0-0.0","49266897","wem/bandit_single","A1NJZH7D5RLEBH","pain","7","","74","J","1","","0","1","0","","0.4847107186","false","215","","0.1804791034","main_expt","","0.4847107186","","0.3638187162","","0.3089741626","","","","","",""
"174","","bandit","291","597814","0.0-253.0-0.0","49266897","wem/bandit_single","A1NJZH7D5RLEBH","pain","7","","74","J","1","","0","1","0","","0.4809007894","false","216","","0.1573161505","main_expt","","0.4809007894","","0.3543809852","","0.3674618518","","","","","",""
"87","","bandit","292","599686","0.0-254.0-0.0","49266897","wem/bandit_single","A1NJZH7D5RLEBH","pain","7","","74","J","1","","0","0","1","","0.4741770765","false","217","","0.1434716653","main_expt","","0.4741770765","","0.3301156576","","0.3283657719","","","","","",""
"17496","","bandit","293","618976","0.0-255.0-0.0","49266897","wem/bandit_single","A1NJZH7D5RLEBH","pain","7","","72","H","0","img/none_selected.jpg","0","0","1","","0.1911838451","false","218","","0.1911838451","main_expt","","0.4819245576","","0.3132999057","","0.3302734852","","","","","",""
"72","","bandit","294","620853","0.0-256.0-0.0","49266897","wem/bandit_single","A1NJZH7D5RLEBH","pain","7","","74","J","1","","0","1","0","","0.4793241995","false","219","","0.1441129831","main_expt","","0.4793241995","","0.2205266592","","0.3554571327","","","","","",""
"111","","bandit","295","622748","0.0-257.0-0.0","49266897","wem/bandit_single","A1NJZH7D5RLEBH","pain","7","","74","J","1","","0","0","1","","0.4713672071","false","220","","0.1920309772","main_expt","","0.4713672071","","0.2167078271","","0.319330444","","","","","",""
"137","","bandit","296","624677","0.0-258.0-0.0","49266897","wem/bandit_single","A1NJZH7D5RLEBH","pain","7","","75","K","2","","0","0","1","","0.2038989409","false","221","","0.1770810464","main_expt","","0.4728071858","","0.2038989409","","0.3105046037","","","","","",""
"12","","bandit","297","626471","0.0-259.0-0.0","49266897","wem/bandit_single","A1NJZH7D5RLEBH","pain","7","","76","L","3","","0","0","1","","0.2971369975","false","222","","0.1726735039","main_expt","","0.4742115633","","0.18760722","","0.2971369975","","","","","",""
"90","","bandit","298","628358","0.0-260.0-0.0","49266897","wem/bandit_single","A1NJZH7D5RLEBH","pain","7","","72","H","0","img/none_selected.jpg","0","0","1","","0.1935596247","false","223","","0.1935596247","main_expt","","0.4606319974","","0.1794058889","","0.2924153056","","","","","",""
"14","","bandit","299","630152","0.0-261.0-0.0","49266897","wem/bandit_single","A1NJZH7D5RLEBH","pain","7","","75","K","2","","0","1","0","","0.1973287288","false","224","","0.184290804","main_expt","","0.4796626282","","0.1973287288","","0.3251713444","","","","","",""
"185","","bandit","300","632121","0.0-262.0-0.0","49266897","wem/bandit_single","A1NJZH7D5RLEBH","pain","7","","75","K","2","","0","0","1","","0.1657141015","false","225","","0.1182631535","main_expt","","0.4770938662","","0.1657141015","","0.3191667618","","","","","",""
"182","","bandit","301","634079","0.0-263.0-0.0","49266897","wem/bandit_single","A1NJZH7D5RLEBH","pain","7","","74","J","1","","0","1","0","","0.4753940461","false","226","","0.1243406576","main_expt","","0.4753940461","","0.1333985498","","0.3163975521","","","","","",""
"47","","bandit","302","635940","0.0-264.0-0.0","49266897","wem/bandit_single","A1NJZH7D5RLEBH","pain","7","","74","J","1","","0","0","1","","0.4692559414","false","227","","0.1887705619","main_expt","","0.4692559414","","0.1426718429","","0.3153023093","","","","","",""
"183","","bandit","303","637916","0.0-265.0-0.0","49266897","wem/bandit_single","A1NJZH7D5RLEBH","pain","7","","72","H","0","img/none_selected.jpg","0","0","1","","0.1594511678","false","228","","0.1594511678","main_expt","","0.4549715312","","0.1510234048","","0.252814401","","","","","",""
"206","","bandit","304","639909","0.0-266.0-0.0","49266897","wem/bandit_single","A1NJZH7D5RLEBH","pain","7","","74","J","1","","0","0","1","","0.4818432606","false","229","","0.1582092687","main_expt","","0.4818432606","","0.1786638104","","0.2830586582","","","","","",""
"154","","bandit","305","641864","0.0-267.0-0.0","49266897","wem/bandit_single","A1NJZH7D5RLEBH","pain","7","","76","L","3","","0","0","1","","0.2124451555","false","230","","0.149178519","main_expt","","0.4542350274","","0.1564383184","","0.2124451555","","","","","",""
"141","","bandit","306","643774","0.0-268.0-0.0","49266897","wem/bandit_single","A1NJZH7D5RLEBH","pain","7","","75","K","2","","0","0","1","","0.1398607303","false","231","","0.2063022429","main_expt","","0.4646494747","","0.1398607303","","0.1175217461","","","","","",""
"148","","bandit","307","645702","0.0-269.0-0.0","49266897","wem/bandit_single","A1NJZH7D5RLEBH","pain","7","","74","J","1","","0","1","0","","0.4617677548","false","232","","0.2424934828","main_expt","","0.4617677548","","0.1323980205","","0.144677577","","","","","",""
"133","","bandit","308","647633","0.0-270.0-0.0","49266897","wem/bandit_single","A1NJZH7D5RLEBH","pain","7","","74","J","1","","0","1","0","","0.4535872836","false","233","","0.2404462099","main_expt","","0.4535872836","","0.1510374747","","0.1555092754","","","","","",""
"18","","bandit","309","649428","0.0-271.0-0.0","49266897","wem/bandit_single","A1NJZH7D5RLEBH","pain","7","","74","J","1","","0","0","1","","0.4297764401","false","234","","0.1830028502","main_expt","","0.4297764401","","0.133247495","","0.1250762939","","","","","",""
"79","","bandit","310","651288","0.0-272.0-0.0","49266897","wem/bandit_single","A1NJZH7D5RLEBH","pain","7","","72","H","0","img/none_selected.jpg","0","0","1","","0.2197419317","false","235","","0.2197419317","main_expt","","0.4335441617","","0.1666928205","","0.1094925358","","","","","",""
"42","","bandit","311","653106","0.0-273.0-0.0","49266897","wem/bandit_single","A1NJZH7D5RLEBH","pain","7","","75","K","2","","0","1","0","","0.1772374327","false","236","","0.2537285896","main_expt","","0.4390497594","","0.1772374327","","0.09099935704","","","","","",""
"256","","bandit","312","655153","0.0-274.0-0.0","49266897","wem/bandit_single","A1NJZH7D5RLEBH","pain","7","","75","K","2","","0","0","1","","0.2093850131","false","237","","0.2967198922","main_expt","","0.4557250369","","0.2093850131","","0.07445530481","","","","","",""
"27","","bandit","313","656976","0.0-275.0-0.0","49266897","wem/bandit_single","A1NJZH7D5RLEBH","pain","7","","76","L","3","","0","0","1","","0.1160826651","false","238","","0.2716881628","main_expt","","0.4712934341","","0.2323540058","","0.1160826651","","","","","",""
"218","","bandit","314","658980","0.0-276.0-0.0","49266897","wem/bandit_single","A1NJZH7D5RLEBH","pain","7","","72","H","0","img/none_selected.jpg","0","0","1","","0.2840113657","false","239","","0.2840113657","main_expt","","0.4744109467","","0.2527052166","","0.1935594103","","","","","",""
"9","","bandit","315","660769","0.0-277.0-0.0","49266897","wem/bandit_single","A1NJZH7D5RLEBH","pain","7","","74","J","1","","0","0","1","","0.4856904038","false","240","","0.3274134878","main_expt","","0.4856904038","","0.2429338356","","0.2305108235","","","","","",""
"680","","bandit","316","663241","0.0-278.0-0.0","49266897","wem/bandit_single","A1NJZH7D5RLEBH","pain","7","","74","J","1","","0","1","0","","0.474377245","false","241","","0.3106351565","main_expt","","0.474377245","","0.2422046893","","0.23744922","","","","","",""
"82","","bandit","317","665130","0.0-279.0-0.0","49266897","wem/bandit_single","A1NJZH7D5RLEBH","pain","7","","74","J","1","","0","0","1","","0.4699498903","false","242","","0.276301991","main_expt","","0.4699498903","","0.1974588069","","0.2644088126","","","","","",""
"148","","bandit","318","667077","0.0-280.0-0.0","49266897","wem/bandit_single","A1NJZH7D5RLEBH","pain","7","","75","K","2","","0","0","1","","0.1697106736","false","243","","0.2682550828","main_expt","","0.4696131401","","0.1697106736","","0.3029471314","","","","","",""
"122","","bandit","319","668973","0.0-281.0-0.0","49266897","wem/bandit_single","A1NJZH7D5RLEBH","pain","7","","72","H","0","img/none_selected.jpg","0","0","1","","0.2717267912","false","244","","0.2717267912","main_expt","","0.4519085084","","0.1495066821","","0.2869027424","","","","","",""
"59","","bandit","320","670827","0.0-282.0-0.0","49266897","wem/bandit_single","A1NJZH7D5RLEBH","pain","7","","75","K","2","","0","0","1","","0.1664551864","false","245","","0.2480355477","main_expt","","0.4620487724","","0.1664551864","","0.2928347339","","","","","",""
"208","","bandit","321","672837","0.0-283.0-0.0","49266897","wem/bandit_single","A1NJZH7D5RLEBH","pain","7","","74","J","1","","0","1","0","","0.4553277256","false","246","","0.2978011657","main_expt","","0.4553277256","","0.1660340973","","0.2537870262","","","","","",""
"98","","bandit","322","674723","0.0-284.0-0.0","49266897","wem/bandit_single","A1NJZH7D5RLEBH","pain","7","","74","J","1","","0","0","1","","0.4470790686","false","247","","0.3183795364","main_expt","","0.4470790686","","0.2232834288","","0.220788829","","","","","",""
"74","","bandit","323","676587","0.0-285.0-0.0","49266897","wem/bandit_single","A1NJZH7D5RLEBH","pain","7","","76","L","3","","0","0","1","","0.2260039815","false","248","","0.3496285813","main_expt","","0.4370243233","","0.2337066106","","0.2260039815","","","","","",""
"442","","bandit","324","678837","0.0-286.0-0.0","49266897","wem/bandit_single","A1NJZH7D5RLEBH","pain","7","","76","L","3","","0","0","1","","0.2536259712","false","249","","0.3450691196","main_expt","","0.4344986606","","0.2555848542","","0.2536259712","","","","","",""
"121","","bandit","325","680748","0.0-287.0-0.0","49266897","wem/bandit_single","A1NJZH7D5RLEBH","pain","7","","72","H","0","img/none_selected.jpg","0","0","1","","0.3451339369","false","250","","0.3451339369","main_expt","","0.4418367533","","0.2423579198","","0.2748463286","","","","","",""
"151","","bandit","326","682686","0.0-288.0-0.0","49266897","wem/bandit_single","A1NJZH7D5RLEBH","pain","7","","75","K","2","","0","0","1","","0.2275025436","false","251","","0.3928119302","main_expt","","0.4227475224","","0.2275025436","","0.2623633266","","","","","",""
"249","","bandit","327","684733","0.0-289.0-0.0","49266897","wem/bandit_single","A1NJZH7D5RLEBH","pain","7","","74","J","1","","0","1","0","","0.423648384","false","252","","0.3926241496","main_expt","","0.423648384","","0.2868871138","","0.3173920108","","","","","",""
"118","","bandit","328","686642","0.0-290.0-0.0","49266897","wem/bandit_single","A1NJZH7D5RLEBH","pain","7","","74","J","1","","0","0","1","","0.4321428437","false","253","","0.4074069762","main_expt","","0.4321428437","","0.2719675916","","0.3172059241","","","","","",""
"645","","bandit","329","689081","0.0-291.0-0.0","49266897","wem/bandit_single","A1NJZH7D5RLEBH","pain","7","","72","H","0","img/none_selected.jpg","0","0","1","","0.3831412703","false","254","","0.3831412703","main_expt","","0.4621147124","","0.3118638267","","0.3200237469","","","","","",""
"142","","bandit","330","691026","0.0-292.0-0.0","49266897","wem/bandit_single","A1NJZH7D5RLEBH","pain","7","","75","K","2","","0","0","1","","0.2103897122","false","255","","0.3639457665","main_expt","","0.4586218194","","0.2103897122","","0.3358809316","","","","","",""
"302","","bandit","331","693119","0.0-293.0-0.0","49266897","wem/bandit_single","A1NJZH7D5RLEBH","pain","7","","75","K","2","","0","0","1","","0.2053105091","false","256","","0.3353936822","main_expt","","0.4661438042","","0.2053105091","","0.3288682213","","","","","",""
"261","","bandit","332","695192","0.0-294.0-0.0","49266897","wem/bandit_single","A1NJZH7D5RLEBH","pain","7","","76","L","3","","0","1","0","","0.3298558235","false","257","","0.3457786028","main_expt","","0.4746145216","","0.2101260802","","0.3298558235","","","","","",""
"11","","bandit","333","696989","0.0-295.0-0.0","49266897","wem/bandit_single","A1NJZH7D5RLEBH","pain","7","","76","L","3","","0","0","1","","0.3544886593","false","258","","0.3336199161","main_expt","","0.479590246","","0.251470712","","0.3544886593","","","","","",""
"164","","bandit","334","698945","0.0-296.0-0.0","49266897","wem/bandit_single","A1NJZH7D5RLEBH","pain","7","","74","J","1","","0","0","1","","0.4543592645","false","259","","0.3182937175","main_expt","","0.4543592645","","0.2320991284","","0.3380036538","","","","","",""
"310","","bandit","335","701038","0.0-297.0-0.0","49266897","wem/bandit_single","A1NJZH7D5RLEBH","pain","7","","72","H","0","img/none_selected.jpg","0","0","1","","0.3004718715","false","260","","0.3004718715","main_expt","","0.4591910344","","0.2850429488","","0.2797544445","","","","","",""
"526","","bandit","336","703336","0.0-298.0-0.0","49266897","wem/bandit_single","A1NJZH7D5RLEBH","pain","7","","75","K","2","","0","0","1","","0.3396488321","false","261","","0.2969538951","main_expt","","0.4416244086","","0.3396488321","","0.2594239605","","","","","",""
"427","","bandit","337","705558","0.0-299.0-0.0","49266897","wem/bandit_single","A1NJZH7D5RLEBH","pain","7","","74","J","1","","0","1","0","","0.410126596","false","262","","0.336502974","main_expt","","0.410126596","","0.243241633","","0.2804023839","","","","","",""
"249","","bandit","338","707602","0.0-300.0-0.0","49266897","wem/bandit_single","A1NJZH7D5RLEBH","pain","7","","74","J","1","","0","1","0","","0.3852167719","false","263","","0.3417757729","main_expt","","0.3852167719","","0.221101122","","0.2526654216","","","","","",""
"278","","bandit","339","709690","0.0-301.0-0.0","49266897","wem/bandit_single","A1NJZH7D5RLEBH","pain","7","","74","J","1","","0","0","1","","0.4048243192","false","264","","0.3288238543","main_expt","","0.4048243192","","0.2475963948","","0.2262009497","","","","","",""
"122","","bandit","340","711596","0.0-302.0-0.0","49266897","wem/bandit_single","A1NJZH7D5RLEBH","pain","7","","76","L","3","","0","1","0","","0.2111455706","false","265","","0.2661945806","main_expt","","0.3671025299","","0.2472156829","","0.2111455706","","","","","",""
"131","","bandit","341","713510","0.0-303.0-0.0","49266897","wem/bandit_single","A1NJZH7D5RLEBH","pain","7","","76","L","3","","0","0","1","","0.1816972253","false","266","","0.2831053071","main_expt","","0.366792141","","0.2257792125","","0.1816972253","","","","","",""
"36","","bandit","342","715351","0.0-304.0-0.0","49266897","wem/bandit_single","A1NJZH7D5RLEBH","pain","7","","75","K","2","","0","0","1","","0.2434052149","false","267","","0.2814616526","main_expt","","0.3187551676","","0.2434052149","","0.08996407949","","","","","",""
"108","","bandit","343","717267","0.0-305.0-0.0","49266897","wem/bandit_single","A1NJZH7D5RLEBH","pain","7","","72","H","0","img/none_selected.jpg","0","1","0","","0.2698532634","false","268","","0.2698532634","main_expt","","0.2992927481","","0.2472891614","","0.08316088703","","","","","",""
"331","","bandit","344","719394","0.0-306.0-0.0","49266897","wem/bandit_single","A1NJZH7D5RLEBH","pain","7","","72","H","0","img/none_selected.jpg","0","0","1","","0.332936287","false","269","","0.332936287","main_expt","","0.3158706852","","0.2592343403","","0.132755096","","","","","",""
"30","","bandit","345","721210","0.0-307.0-0.0","49266897","wem/bandit_single","A1NJZH7D5RLEBH","pain","7","","75","K","2","","0","0","1","","0.2626766442","false","270","","0.3520051328","main_expt","","0.3399881701","","0.2626766442","","0.1295257529","","","","","",""
"334","","bandit","346","723336","0.0-308.0-0.0","49266897","wem/bandit_single","A1NJZH7D5RLEBH","pain","7","","74","J","1","","0","1","0","","0.3425846673","false","271","","0.319936882","main_expt","","0.3425846673","","0.2889536683","","0.1243547369","","","","","",""
"630","","bandit","347","725754","0.0-309.0-0.0","49266897","wem/bandit_single","A1NJZH7D5RLEBH","pain","7","","74","J","1","","0","0","1","","0.3661992365","false","272","","0.3526338178","main_expt","","0.3661992365","","0.3519527746","","0.1129401117","","","","","",""
"192","","bandit","348","727749","0.0-310.0-0.0","49266897","wem/bandit_single","A1NJZH7D5RLEBH","pain","7","","72","H","0","img/none_selected.jpg","0","0","1","","0.3661190652","false","273","","0.3661190652","main_expt","","0.3548292996","","0.3142239271","","0.07602588951","","","","","",""
"121","","bandit","349","729675","0.0-311.0-0.0","49266897","wem/bandit_single","A1NJZH7D5RLEBH","pain","7","","76","L","3","","0","1","0","","0.08326080211","false","274","","0.3531355024","main_expt","","0.3015993901","","0.2858465014","","0.08326080211","","","","","",""
"423","","bandit","350","731887","0.0-312.0-0.0","49266897","wem/bandit_single","A1NJZH7D5RLEBH","pain","7","","76","L","3","","0","0","1","","0.1117875064","false","275","","0.3710682781","main_expt","","0.3074537736","","0.2833142968","","0.1117875064","","","","","",""
"91","","bandit","351","733759","0.0-313.0-0.0","49266897","wem/bandit_single","A1NJZH7D5RLEBH","pain","7","","75","K","2","","0","1","0","","0.303505508","false","276","","0.3039620657","main_expt","","0.2995557441","","0.303505508","","0.1087564456","","","","","",""
"46","","bandit","352","735612","0.0-314.0-0.0","49266897","wem/bandit_single","A1NJZH7D5RLEBH","pain","7","","75","K","2","","0","0","1","","0.2503405658","false","277","","0.3661174243","main_expt","","0.3372524479","","0.2503405658","","0.1402577261","","","","","",""
"326","","bandit","353","737729","0.0-315.0-0.0","49266897","wem/bandit_single","A1NJZH7D5RLEBH","pain","7","","72","H","0","img/none_selected.jpg","0","0","1","","0.3603903852","false","278","","0.3603903852","main_expt","","0.3941332117","","0.2575241406","","0.1639331241","","","","","",""
"347","","bandit","354","739879","0.0-316.0-0.0","49266897","wem/bandit_single","A1NJZH7D5RLEBH","pain","7","","74","J","1","","0","0","1","","0.369807449","false","279","","0.3865241344","main_expt","","0.369807449","","0.2537993043","","0.08855821706","","","","","",""
"92","","bandit","355","741765","0.0-317.0-0.0","49266897","wem/bandit_single","A1NJZH7D5RLEBH","pain","7","","75","K","2","","0","0","1","","0.1734094061","false","280","","0.3941828848","main_expt","","0.3726167961","","0.1734094061","","0.1116659285","","","","","",""
"9","","bandit","356","743558","0.0-318.0-0.0","49266897","wem/bandit_single","A1NJZH7D5RLEBH","pain","7","","74","J","1","","0","0","1","","0.3849966858","false","281","","0.4060440919","main_expt","","0.3849966858","","0.1846732939","","0.1032088387","","","","","",""
"301","","bandit","357","745652","0.0-319.0-0.0","49266897","wem/bandit_single","A1NJZH7D5RLEBH","pain","7","","72","H","0","img/none_selected.jpg","0","1","0","","0.3855255831","false","282","","0.3855255831","main_expt","","0.4081920515","","0.1808782366","","0.1449157137","","","","","",""
"39","","bandit","358","747480","0.0-320.0-0.0","49266897","wem/bandit_single","A1NJZH7D5RLEBH","pain","7","","72","H","0","img/none_selected.jpg","0","0","1","","0.3694157076","false","283","","0.3694157076","main_expt","","0.3930572229","","0.1375342675","","0.1649674285","","","","","",""
"64","","bandit","359","749348","0.0-321.0-0.0","49266897","wem/bandit_single","A1NJZH7D5RLEBH","pain","7","","76","L","3","","0","0","1","","0.1373277791","false","284","","0.4137550783","main_expt","","0.379410926","","0.1029306966","","0.1373277791","","","","","",""
"516","","bandit","360","751654","0.0-322.0-0.0","49266897","wem/bandit_single","A1NJZH7D5RLEBH","pain","7","","76","L","3","","0","0","1","","0.1616488504","false","285","","0.4268254387","main_expt","","0.3947179778","","0.08821361919","","0.1616488504","","","","","",""
"67","","bandit","361","753526","0.0-323.0-0.0","49266897","wem/bandit_single","A1NJZH7D5RLEBH","pain","7","","75","K","2","","0","0","1","","0.08321279743","false","286","","0.4115685589","main_expt","","0.4036344472","","0.08321279743","","0.1306737704","","","","","",""
"483","","bandit","362","755800","0.0-324.0-0.0","49266897","wem/bandit_single","A1NJZH7D5RLEBH","pain","7","","74","J","1","","0","0","1","","0.4025981517","false","287","","0.3828423493","main_expt","","0.4025981517","","0.0595967864","","0.2059275786","","","","","",""
"96","","bandit","363","757683","0.0-325.0-0.0","49266897","wem/bandit_single","A1NJZH7D5RLEBH","pain","7","","76","L","3","","0","0","1","","0.1892738114","false","288","","0.4121581376","main_expt","","0.4183513528","","0.06539189492","","0.1892738114","","","","","",""
"191","","bandit","364","759665","0.0-326.0-0.0","49266897","wem/bandit_single","A1NJZH7D5RLEBH","pain","7","","72","H","0","img/none_selected.jpg","0","0","1","","0.4227758831","false","289","","0.4227758831","main_expt","","0.4516793017","","0.06484578344","","0.1656659279","","","","","",""
"475","","bandit","365","761929","0.0-327.0-0.0","49266897","wem/bandit_single","A1NJZH7D5RLEBH","pain","7","","75","K","2","","0","0","1","","0.06626982825","false","290","","0.4149367164","main_expt","","0.4112115972","","0.06626982825","","0.1814252587","","","","","",""
"196","","bandit","366","763928","0.0-328.0-0.0","49266897","wem/bandit_single","A1NJZH7D5RLEBH","pain","7","","74","J","1","","0","1","0","","0.4372982331","false","291","","0.399757838","main_expt","","0.4372982331","","0.1096348163","","0.2385479929","","","","","",""
"210","","bandit","367","765933","0.0-329.0-0.0","49266897","wem/bandit_single","A1NJZH7D5RLEBH","pain","7","","74","J","1","","0","1","0","","0.4238416902","false","292","","0.3846886596","main_expt","","0.4238416902","","0.1604398542","","0.2322046479","","","","","",""
"110","","bandit","368","767827","0.0-330.0-0.0","49266897","wem/bandit_single","A1NJZH7D5RLEBH","pain","7","","74","J","1","","0","1","0","","0.4034354509","false","293","","0.3364000065","main_expt","","0.4034354509","","0.1714651471","","0.223393304","","","","","",""
"105","","bandit","369","769724","0.0-331.0-0.0","49266897","wem/bandit_single","A1NJZH7D5RLEBH","pain","7","","74","J","1","","0","0","1","","0.4093667064","false","294","","0.3545739736","main_expt","","0.4093667064","","0.1378543876","","0.2290093083","","","","","",""
"574","","bandit","370","772090","0.0-332.0-0.0","49266897","wem/bandit_single","A1NJZH7D5RLEBH","pain","7","","76","L","3","","0","1","0","","0.2875464899","false","295","","0.2891777922","main_expt","","0.4294791191","","0.1243446737","","0.2875464899","","","","","",""
"864","","bandit","371","774747","0.0-333.0-0.0","49266897","wem/bandit_single","A1NJZH7D5RLEBH","pain","7","","76","L","3","","0","1","0","","0.2880416719","false","296","","0.2084544567","main_expt","","0.4289259587","","0.1831574145","","0.2880416719","","","","","",""
"273","","bandit","372","776819","0.0-334.0-0.0","49266897","wem/bandit_single","A1NJZH7D5RLEBH","pain","7","","76","L","3","","0","0","1","","0.2144640116","false","297","","0.2481546198","main_expt","","0.4073385017","","0.1645554297","","0.2144640116","","","","","",""
"342","","bandit","373","778960","0.0-335.0-0.0","49266897","wem/bandit_single","A1NJZH7D5RLEBH","pain","7","","72","H","0","img/none_selected.jpg","0","0","1","","0.2961938921","false","298","","0.2961938921","main_expt","","0.3914212946","","0.1424629524","","0.2150894671","","","","","",""
