"rt","responses","trial_type","trial_index","time_elapsed","internal_node_id","subjID","study","MID","cond","drift","key_press","respCharCode","respKey","respChoiceNum","respChoice","gems","bombs","no_reward","GemPrChosen","BombPrChosen","practice","trial_counter","WinPr_0","LosePr_0","trial_label","WinPr_1","LosePr_1","WinPr_2","LosePr_2","WinPr_3","LosePr_3","Q0","Q1","Q2","gender","age","ethnicity"
"22463","{""Q0"":""A27O2IILV3S5YS""}","survey-text","0","22474","0.0-0.0","50962972","wem/bandit_single","A27O2IILV3S5YS","pain","1","","","","","","","","","","","","","","","","","","","","","","","","","","",""
"2455","","text","1","25936","0.0-1.0","50962972","wem/bandit_single","A27O2IILV3S5YS","pain","1","32","","","","","","","","","","","","","","","","","","","","","","","","","",""
"5500","","text","2","31438","0.0-2.0","50962972","wem/bandit_single","A27O2IILV3S5YS","pain","1","32","","","","","","","","","","","","","","","","","","","","","","","","","",""
"116014","","text","3","147455","0.0-3.0","50962972","wem/bandit_single","A27O2IILV3S5YS","pain","1","32","","","","","","","","","","","","","","","","","","","","","","","","","",""
"12011","","text","4","159470","0.0-4.0","50962972","wem/bandit_single","A27O2IILV3S5YS","pain","1","32","","","","","","","","","","","","","","","","","","","","","","","","","",""
"6485","","text","5","165958","0.0-5.0","50962972","wem/bandit_single","A27O2IILV3S5YS","pain","1","32","","","","","","","","","","","","","","","","","","","","","","","","","",""
"6814","","text","6","172774","0.0-6.0","50962972","wem/bandit_single","A27O2IILV3S5YS","pain","1","32","","","","","","","","","","","","","","","","","","","","","","","","","",""
"4524","","text","7","177302","0.0-7.0","50962972","wem/bandit_single","A27O2IILV3S5YS","pain","1","32","","","","","","","","","","","","","","","","","","","","","","","","","",""
"4365","","text","8","181669","0.0-8.0","50962972","wem/bandit_single","A27O2IILV3S5YS","pain","1","32","","","","","","","","","","","","","","","","","","","","","","","","","",""
"157","","text","9","181829","0.0-9.0","50962972","wem/bandit_single","A27O2IILV3S5YS","pain","1","32","","","","","","","","","","","","","","","","","","","","","","","","","",""
"4655","","text","10","186486","0.0-10.0","50962972","wem/bandit_single","A27O2IILV3S5YS","pain","1","32","","","","","","","","","","","","","","","","","","","","","","","","","",""
"1958","","text","11","188446","0.0-11.0","50962972","wem/bandit_single","A27O2IILV3S5YS","pain","1","32","","","","","","","","","","","","","","","","","","","","","","","","","",""
"992","","bandit","12","190949","0.0-12.0-0.0","50962972","wem/bandit_single","A27O2IILV3S5YS","pain","1","","74","J","0","img/none_selected_demo.jpg","0","0","1","0","0","true","0","0","0","","","","","","","","","","","","",""
"662","","bandit","13","193368","0.0-13.0-0.0","50962972","wem/bandit_single","A27O2IILV3S5YS","pain","1","","75","K","0","img/none_selected_demo.jpg","0","0","1","0","0","true","0","0","0","","","","","","","","","","","","",""
"21104","","text","14","214725","0.0-14.0","50962972","wem/bandit_single","A27O2IILV3S5YS","pain","1","32","","","","","","","","","","","","","","","","","","","","","","","","","",""
"1916","","text","15","216644","0.0-15.0","50962972","wem/bandit_single","A27O2IILV3S5YS","pain","1","32","","","","","","","","","","","","","","","","","","","","","","","","","",""
"3186","","text","16","219833","0.0-16.0","50962972","wem/bandit_single","A27O2IILV3S5YS","pain","1","32","","","","","","","","","","","","","","","","","","","","","","","","","",""
"3456","","text","17","223294","0.0-17.0","50962972","wem/bandit_single","A27O2IILV3S5YS","pain","1","32","","","","","","","","","","","","","","","","","","","","","","","","","",""
"809","","bandit","18","225611","0.0-18.0-0.0","50962972","wem/bandit_single","A27O2IILV3S5YS","pain","1","","74","J","0","img/none_selected_demo.jpg","0","1","0","0","0.8","true","0","0","0.8","80_20_practice","0","0.2","","","","","","","","","",""
"105","","bandit","19","227472","0.0-18.0-1.0","50962972","wem/bandit_single","A27O2IILV3S5YS","pain","1","","75","K","1","","0","0","1","0","0.2","true","0","0","0.8","80_20_practice","0","0.2","","","","","","","","","",""
"47","","bandit","20","229275","0.0-18.0-2.0","50962972","wem/bandit_single","A27O2IILV3S5YS","pain","1","","74","J","0","img/none_selected_demo.jpg","0","1","0","0","0.8","true","0","0","0.8","80_20_practice","0","0.2","","","","","","","","","",""
"511","","bandit","21","231836","0.0-18.0-3.0","50962972","wem/bandit_single","A27O2IILV3S5YS","pain","1","","74","J","0","img/none_selected_demo.jpg","0","1","0","0","0.8","true","0","0","0.8","80_20_practice","0","0.2","","","","","","","","","",""
"274","","bandit","22","233866","0.0-18.0-4.0","50962972","wem/bandit_single","A27O2IILV3S5YS","pain","1","","74","J","0","img/none_selected_demo.jpg","0","1","0","0","0.8","true","0","0","0.8","80_20_practice","0","0.2","","","","","","","","","",""
"342","","bandit","23","235963","0.0-18.0-5.0","50962972","wem/bandit_single","A27O2IILV3S5YS","pain","1","","74","J","0","img/none_selected_demo.jpg","0","0","1","0","0.8","true","0","0","0.8","80_20_practice","0","0.2","","","","","","","","","",""
"460","","bandit","24","238182","0.0-18.0-6.0","50962972","wem/bandit_single","A27O2IILV3S5YS","pain","1","","75","K","1","","0","0","1","0","0.2","true","0","0","0.8","80_20_practice","0","0.2","","","","","","","","","",""
"55","","bandit","25","240075","0.0-18.0-7.0","50962972","wem/bandit_single","A27O2IILV3S5YS","pain","1","","74","J","0","img/none_selected_demo.jpg","0","1","0","0","0.8","true","0","0","0.8","80_20_practice","0","0.2","","","","","","","","","",""
"115","","bandit","26","241949","0.0-18.0-8.0","50962972","wem/bandit_single","A27O2IILV3S5YS","pain","1","","74","J","0","img/none_selected_demo.jpg","0","1","0","0","0.8","true","0","0","0.8","80_20_practice","0","0.2","","","","","","","","","",""
"32","","bandit","27","243738","0.0-18.0-9.0","50962972","wem/bandit_single","A27O2IILV3S5YS","pain","1","","74","J","0","img/none_selected_demo.jpg","0","1","0","0","0.8","true","0","0","0.8","80_20_practice","0","0.2","","","","","","","","","",""
"83","","bandit","28","245580","0.0-18.0-10.0","50962972","wem/bandit_single","A27O2IILV3S5YS","pain","1","","74","J","0","img/none_selected_demo.jpg","0","0","1","0","0.8","true","0","0","0.8","80_20_practice","0","0.2","","","","","","","","","",""
"32","","bandit","29","247371","0.0-18.0-11.0","50962972","wem/bandit_single","A27O2IILV3S5YS","pain","1","","74","J","0","img/none_selected_demo.jpg","0","1","0","0","0.8","true","0","0","0.8","80_20_practice","0","0.2","","","","","","","","","",""
"129","","bandit","30","249259","0.0-18.0-12.0","50962972","wem/bandit_single","A27O2IILV3S5YS","pain","1","","74","J","0","img/none_selected_demo.jpg","0","0","1","0","0.8","true","0","0","0.8","80_20_practice","0","0.2","","","","","","","","","",""
"191","","bandit","31","251435","0.0-18.0-13.0","50962972","wem/bandit_single","A27O2IILV3S5YS","pain","1","","75","K","1","","0","1","0","0","0.2","true","0","0","0.8","80_20_practice","0","0.2","","","","","","","","","",""
"113","","bandit","32","253308","0.0-18.0-14.0","50962972","wem/bandit_single","A27O2IILV3S5YS","pain","1","","74","J","0","img/none_selected_demo.jpg","0","1","0","0","0.8","true","0","0","0.8","80_20_practice","0","0.2","","","","","","","","","",""
"225","","bandit","33","255529","0.0-18.0-15.0","50962972","wem/bandit_single","A27O2IILV3S5YS","pain","1","","74","J","0","img/none_selected_demo.jpg","0","1","0","0","0.8","true","0","0","0.8","80_20_practice","0","0.2","","","","","","","","","",""
"405","","bandit","34","257691","0.0-18.0-16.0","50962972","wem/bandit_single","A27O2IILV3S5YS","pain","1","","74","J","0","img/none_selected_demo.jpg","0","1","0","0","0.8","true","0","0","0.8","80_20_practice","0","0.2","","","","","","","","","",""
"324","","bandit","35","259772","0.0-18.0-17.0","50962972","wem/bandit_single","A27O2IILV3S5YS","pain","1","","74","J","0","img/none_selected_demo.jpg","0","1","0","0","0.8","true","0","0","0.8","80_20_practice","0","0.2","","","","","","","","","",""
"178","","bandit","36","261729","0.0-18.0-18.0","50962972","wem/bandit_single","A27O2IILV3S5YS","pain","1","","74","J","0","img/none_selected_demo.jpg","0","0","1","0","0.8","true","0","0","0.8","80_20_practice","0","0.2","","","","","","","","","",""
"109","","bandit","37","263596","0.0-18.0-19.0","50962972","wem/bandit_single","A27O2IILV3S5YS","pain","1","","75","K","1","","0","0","1","0","0.2","true","0","0","0.8","80_20_practice","0","0.2","","","","","","","","","",""
"16513","","text","38","280364","0.0-19.0","50962972","wem/bandit_single","A27O2IILV3S5YS","pain","1","32","","","","","","","","","","","","","","","","","","","","","","","","","",""
"1800","","bandit","39","283674","0.0-20.0-0.0","50962972","wem/bandit_single","A27O2IILV3S5YS","pain","1","","74","J","0","img/none_selected_demo.jpg","0","0","1","0","0","true","0","0","0","","0","0","","","","","","","","","",""
"129","","text","40","284059","0.0-21.0","50962972","wem/bandit_single","A27O2IILV3S5YS","pain","1","74","","","","","","","","","","","","","","","","","","","","","","","","","",""
"4970","","text","41","289035","0.0-22.0","50962972","wem/bandit_single","A27O2IILV3S5YS","pain","1","32","","","","","","","","","","","","","","","","","","","","","","","","","",""
"2795","","text","42","291835","0.0-23.0","50962972","wem/bandit_single","A27O2IILV3S5YS","pain","1","32","","","","","","","","","","","","","","","","","","","","","","","","","",""
"2155","","text","43","293995","0.0-24.0","50962972","wem/bandit_single","A27O2IILV3S5YS","pain","1","32","","","","","","","","","","","","","","","","","","","","","","","","","",""
"6315","","text","44","300315","0.0-25.0","50962972","wem/bandit_single","A27O2IILV3S5YS","pain","1","32","","","","","","","","","","","","","","","","","","","","","","","","","",""
"4875","","text","45","305194","0.0-26.0","50962972","wem/bandit_single","A27O2IILV3S5YS","pain","1","32","","","","","","","","","","","","","","","","","","","","","","","","","",""
"3020","","text","46","308219","0.0-27.0","50962972","wem/bandit_single","A27O2IILV3S5YS","pain","1","32","","","","","","","","","","","","","","","","","","","","","","","","","",""
"3144","","text","47","311370","0.0-28.0","50962972","wem/bandit_single","A27O2IILV3S5YS","pain","1","32","","","","","","","","","","","","","","","","","","","","","","","","","",""
"3356","","text","48","314731","0.0-29.0","50962972","wem/bandit_single","A27O2IILV3S5YS","pain","1","32","","","","","","","","","","","","","","","","","","","","","","","","","",""
"1020","","text","49","315755","0.0-30.0","50962972","wem/bandit_single","A27O2IILV3S5YS","pain","1","32","","","","","","","","","","","","","","","","","","","","","","","","","",""
"1061","","text","50","316821","0.0-31.0","50962972","wem/bandit_single","A27O2IILV3S5YS","pain","1","32","","","","","","","","","","","","","","","","","","","","","","","","","",""
"655","","bandit","51","318983","0.0-32.0-0.0","50962972","wem/bandit_single","A27O2IILV3S5YS","pain","1","","74","J","1","","0","0","1","0","0.2","true","0","0","0.8","full_practice","0","0.2","0","0.6","0","0.2","","","","","",""
"79","","bandit","52","321117","0.0-32.0-1.0","50962972","wem/bandit_single","A27O2IILV3S5YS","pain","1","","72","H","0","img/none_selected.jpg","0","1","0","0","0.8","true","0","0","0.8","full_practice","0","0.2","0","0.6","0","0.2","","","","","",""
"109","","bandit","53","322983","0.0-32.0-2.0","50962972","wem/bandit_single","A27O2IILV3S5YS","pain","1","","75","K","2","","0","1","0","0","0.6","true","0","0","0.8","full_practice","0","0.2","0","0.6","0","0.2","","","","","",""
"361","","bandit","54","325400","0.0-32.0-3.0","50962972","wem/bandit_single","A27O2IILV3S5YS","pain","1","","76","L","3","","0","0","1","0","0.2","true","0","0","0.8","full_practice","0","0.2","0","0.6","0","0.2","","","","","",""
"80","","bandit","55","327239","0.0-32.0-4.0","50962972","wem/bandit_single","A27O2IILV3S5YS","pain","1","","75","K","2","","0","0","1","0","0.6","true","0","0","0.8","full_practice","0","0.2","0","0.6","0","0.2","","","","","",""
"145","","bandit","56","329145","0.0-32.0-5.0","50962972","wem/bandit_single","A27O2IILV3S5YS","pain","1","","75","K","2","","0","1","0","0","0.6","true","0","0","0.8","full_practice","0","0.2","0","0.6","0","0.2","","","","","",""
"303","","bandit","57","331420","0.0-32.0-6.0","50962972","wem/bandit_single","A27O2IILV3S5YS","pain","1","","75","K","2","","0","0","1","0","0.6","true","0","0","0.8","full_practice","0","0.2","0","0.6","0","0.2","","","","","",""
"93","","bandit","58","333281","0.0-32.0-7.0","50962972","wem/bandit_single","A27O2IILV3S5YS","pain","1","","74","J","1","","0","0","1","0","0.2","true","0","0","0.8","full_practice","0","0.2","0","0.6","0","0.2","","","","","",""
"1","","bandit","59","335347","0.0-32.0-8.0","50962972","wem/bandit_single","A27O2IILV3S5YS","pain","1","","72","H","0","img/none_selected.jpg","0","1","0","0","0.8","true","0","0","0.8","full_practice","0","0.2","0","0.6","0","0.2","","","","","",""
"213","","bandit","60","337444","0.0-32.0-9.0","50962972","wem/bandit_single","A27O2IILV3S5YS","pain","1","","74","J","1","","0","0","1","0","0.2","true","0","0","0.8","full_practice","0","0.2","0","0.6","0","0.2","","","","","",""
"179","","bandit","61","339385","0.0-32.0-10.0","50962972","wem/bandit_single","A27O2IILV3S5YS","pain","1","","76","L","3","","0","0","1","0","0.2","true","0","0","0.8","full_practice","0","0.2","0","0.6","0","0.2","","","","","",""
"237","","bandit","62","341385","0.0-32.0-11.0","50962972","wem/bandit_single","A27O2IILV3S5YS","pain","1","","75","K","2","","0","1","0","0","0.6","true","0","0","0.8","full_practice","0","0.2","0","0.6","0","0.2","","","","","",""
"333","","bandit","63","343489","0.0-32.0-12.0","50962972","wem/bandit_single","A27O2IILV3S5YS","pain","1","","74","J","1","","0","0","1","0","0.2","true","0","0","0.8","full_practice","0","0.2","0","0.6","0","0.2","","","","","",""
"114","","bandit","64","345363","0.0-32.0-13.0","50962972","wem/bandit_single","A27O2IILV3S5YS","pain","1","","75","K","2","","0","0","1","0","0.6","true","0","0","0.8","full_practice","0","0.2","0","0.6","0","0.2","","","","","",""
"239","","bandit","65","347537","0.0-32.0-14.0","50962972","wem/bandit_single","A27O2IILV3S5YS","pain","1","","72","H","0","img/none_selected.jpg","0","1","0","0","0.8","true","0","0","0.8","full_practice","0","0.2","0","0.6","0","0.2","","","","","",""
"479","","bandit","66","349778","0.0-32.0-15.0","50962972","wem/bandit_single","A27O2IILV3S5YS","pain","1","","72","H","0","img/none_selected.jpg","0","1","0","0","0.8","true","0","0","0.8","full_practice","0","0.2","0","0.6","0","0.2","","","","","",""
"607","","bandit","67","352193","0.0-32.0-16.0","50962972","wem/bandit_single","A27O2IILV3S5YS","pain","1","","72","H","0","img/none_selected.jpg","0","1","0","0","0.8","true","0","0","0.8","full_practice","0","0.2","0","0.6","0","0.2","","","","","",""
"544","","bandit","68","354675","0.0-32.0-17.0","50962972","wem/bandit_single","A27O2IILV3S5YS","pain","1","","72","H","0","img/none_selected.jpg","0","1","0","0","0.8","true","0","0","0.8","full_practice","0","0.2","0","0.6","0","0.2","","","","","",""
"125","","bandit","69","356563","0.0-32.0-18.0","50962972","wem/bandit_single","A27O2IILV3S5YS","pain","1","","72","H","0","img/none_selected.jpg","0","1","0","0","0.8","true","0","0","0.8","full_practice","0","0.2","0","0.6","0","0.2","","","","","",""
"285","","bandit","70","358611","0.0-32.0-19.0","50962972","wem/bandit_single","A27O2IILV3S5YS","pain","1","","72","H","0","img/none_selected.jpg","0","1","0","0","0.8","true","0","0","0.8","full_practice","0","0.2","0","0.6","0","0.2","","","","","",""
"2412","","text","71","361293","0.0-33.0","50962972","wem/bandit_single","A27O2IILV3S5YS","pain","1","32","","","","","","","","","","","","","","","","","","","","","","","","","",""
"8261","","text","72","370563","0.0-34.0","50962972","wem/bandit_single","A27O2IILV3S5YS","pain","1","32","","","","","","","","","","","","","","","","","","","","","","","","","",""
"5081","","text","73","375651","0.0-35.0","50962972","wem/bandit_single","A27O2IILV3S5YS","pain","1","32","","","","","","","","","","","","","","","","","","","","","","","","","",""
"5144","","text","74","380802","0.0-36.0","50962972","wem/bandit_single","A27O2IILV3S5YS","pain","1","32","","","","","","","","","","","","","","","","","","","","","","","","","",""
"4057","","text","75","384867","0.0-37.0","50962972","wem/bandit_single","A27O2IILV3S5YS","pain","1","32","","","","","","","","","","","","","","","","","","","","","","","","","",""
"1192","","bandit","76","387570","0.0-38.0-0.0","50962972","wem/bandit_single","A27O2IILV3S5YS","pain","1","","72","H","0","img/none_selected.jpg","0","0","1","","0.1079408374","false","1","","0.1079408374","main_expt","","0.1765468105","","0.04371116513","","0.433486002","","","","","",""
"109","","bandit","77","389441","0.0-39.0-0.0","50962972","wem/bandit_single","A27O2IILV3S5YS","pain","1","","76","L","3","","0","0","1","","0.4446307222","false","2","","0.1605706499","main_expt","","0.1569258514","","0.0204546363","","0.4446307222","","","","","",""
"48","","bandit","78","391594","0.0-40.0-0.0","50962972","wem/bandit_single","A27O2IILV3S5YS","pain","1","","75","K","2","","0","0","1","","0.02109221713","false","3","","0.1829447669","main_expt","","0.1639246388","","0.02109221713","","0.4522438858","","","","","",""
"36","","bandit","79","393391","0.0-41.0-0.0","50962972","wem/bandit_single","A27O2IILV3S5YS","pain","1","","74","J","1","","0","0","1","","0.2130332657","false","4","","0.1756642407","main_expt","","0.2130332657","","0.04448829896","","0.4330109471","","","","","",""
"83","","bandit","80","395237","0.0-42.0-0.0","50962972","wem/bandit_single","A27O2IILV3S5YS","pain","1","","74","J","1","","0","0","1","","0.1939577492","false","5","","0.1349544936","main_expt","","0.1939577492","","0.03824555068","","0.4678508314","","","","","",""
"42","","bandit","81","397040","0.0-43.0-0.0","50962972","wem/bandit_single","A27O2IILV3S5YS","pain","1","","72","H","0","img/none_selected.jpg","0","0","1","","0.1356037804","false","6","","0.1356037804","main_expt","","0.2419857306","","0.03028715703","","0.4644602632","","","","","",""
"461","","bandit","82","399503","0.0-44.0-0.0","50962972","wem/bandit_single","A27O2IILV3S5YS","pain","1","","75","K","2","","0","0","1","","0.0280090558","false","7","","0.1731738011","main_expt","","0.2437977828","","0.0280090558","","0.4575746565","","","","","",""
"303","","bandit","83","401569","0.0-45.0-0.0","50962972","wem/bandit_single","A27O2IILV3S5YS","pain","1","","72","H","0","img/none_selected.jpg","0","0","1","","0.1697830552","false","8","","0.1697830552","main_expt","","0.2910779813","","0.01994926529","","0.4508833002","","","","","",""
"238","","bandit","84","403568","0.0-46.0-0.0","50962972","wem/bandit_single","A27O2IILV3S5YS","pain","1","","72","H","0","img/none_selected.jpg","0","0","1","","0.1792782501","false","9","","0.1792782501","main_expt","","0.3043628405","","0.02255652904","","0.446295775","","","","","",""
"75","","bandit","85","405416","0.0-47.0-0.0","50962972","wem/bandit_single","A27O2IILV3S5YS","pain","1","","72","H","0","img/none_selected.jpg","0","1","0","","0.1705688187","false","10","","0.1705688187","main_expt","","0.3568141906","","0.02794315976","","0.4564580261","","","","","",""
"34","","bandit","86","407214","0.0-48.0-0.0","50962972","wem/bandit_single","A27O2IILV3S5YS","pain","1","","72","H","0","img/none_selected.jpg","0","0","1","","0.1974022207","false","11","","0.1974022207","main_expt","","0.3439843329","","0.02289966844","","0.4233437492","","","","","",""
"368","","bandit","87","409344","0.0-49.0-0.0","50962972","wem/bandit_single","A27O2IILV3S5YS","pain","1","","76","L","3","","0","1","0","","0.4129107721","false","12","","0.1753487428","main_expt","","0.2959247237","","0.01510656417","","0.4129107721","","","","","",""
"74","","bandit","88","411299","0.0-50.0-0.0","50962972","wem/bandit_single","A27O2IILV3S5YS","pain","1","","76","L","3","","0","1","0","","0.4188058581","false","13","","0.1858973774","main_expt","","0.2711511111","","0.01475809492","","0.4188058581","","","","","",""
"138","","bandit","89","413199","0.0-51.0-0.0","50962972","wem/bandit_single","A27O2IILV3S5YS","pain","1","","76","L","3","","0","1","0","","0.4542155744","false","14","","0.1873997244","main_expt","","0.2351285692","","0.00909265887","","0.4542155744","","","","","",""
"77","","bandit","90","415037","0.0-52.0-0.0","50962972","wem/bandit_single","A27O2IILV3S5YS","pain","1","","76","L","3","","0","0","1","","0.4436127815","false","15","","0.2079034381","main_expt","","0.3299180318","","0.004683339805","","0.4436127815","","","","","",""
"141","","bandit","91","416942","0.0-53.0-0.0","50962972","wem/bandit_single","A27O2IILV3S5YS","pain","1","","72","H","0","img/none_selected.jpg","0","1","0","","0.2116662278","false","16","","0.2116662278","main_expt","","0.3382291528","","0.007493295572","","0.4255220112","","","","","",""
"334","","bandit","92","419244","0.0-54.0-0.0","50962972","wem/bandit_single","A27O2IILV3S5YS","pain","1","","72","H","0","img/none_selected.jpg","0","0","1","","0.2460799228","false","17","","0.2460799228","main_expt","","0.3890963744","","0.009835384986","","0.4221090449","","","","","",""
"65","","bandit","93","421072","0.0-55.0-0.0","50962972","wem/bandit_single","A27O2IILV3S5YS","pain","1","","76","L","3","","0","0","1","","0.4157246332","false","18","","0.2725156425","main_expt","","0.3102907615","","0.01282838009","","0.4157246332","","","","","",""
"336","","bandit","94","423170","0.0-56.0-0.0","50962972","wem/bandit_single","A27O2IILV3S5YS","pain","1","","75","K","2","","0","0","1","","0.03935122736","false","19","","0.319312936","main_expt","","0.2734902963","","0.03935122736","","0.4000612909","","","","","",""
"217","","bandit","95","425187","0.0-57.0-0.0","50962972","wem/bandit_single","A27O2IILV3S5YS","pain","1","","76","L","3","","0","0","1","","0.4116546581","false","20","","0.3449168397","main_expt","","0.2157414593","","0.03712672215","","0.4116546581","","","","","",""
"83","","bandit","96","427038","0.0-58.0-0.0","50962972","wem/bandit_single","A27O2IILV3S5YS","pain","1","","76","L","3","","0","0","1","","0.4276829816","false","21","","0.2668327531","main_expt","","0.2148325275","","0.02631596187","","0.4276829816","","","","","",""
"422","","bandit","97","429231","0.0-59.0-0.0","50962972","wem/bandit_single","A27O2IILV3S5YS","pain","1","","72","H","0","img/none_selected.jpg","0","0","1","","0.2786929748","false","22","","0.2786929748","main_expt","","0.1819582271","","0.0338100911","","0.3861543943","","","","","",""
"182","","bandit","98","431181","0.0-60.0-0.0","50962972","wem/bandit_single","A27O2IILV3S5YS","pain","1","","74","J","1","","0","0","1","","0.1776669961","false","23","","0.2012253143","main_expt","","0.1776669961","","0.06132921526","","0.3815006395","","","","","",""
"715","","bandit","99","433658","0.0-61.0-0.0","50962972","wem/bandit_single","A27O2IILV3S5YS","pain","1","","75","K","2","","0","0","1","","0.06546003458","false","24","","0.1363446769","main_expt","","0.2595803745","","0.06546003458","","0.4063144844","","","","","",""
"190","","bandit","100","435615","0.0-62.0-0.0","50962972","wem/bandit_single","A27O2IILV3S5YS","pain","1","","76","L","3","","0","0","1","","0.3218764758","false","25","","0.1395957504","main_expt","","0.2184946748","","0.08327489459","","0.3218764758","","","","","",""
"234","","bandit","101","437613","0.0-63.0-0.0","50962972","wem/bandit_single","A27O2IILV3S5YS","pain","1","","76","L","3","","0","0","1","","0.3190898414","false","26","","0.1095431569","main_expt","","0.2382025465","","0.06117167893","","0.3190898414","","","","","",""
"93","","bandit","102","439468","0.0-64.0-0.0","50962972","wem/bandit_single","A27O2IILV3S5YS","pain","1","","75","K","2","","0","0","1","","0.03494965278","false","27","","0.1290148999","main_expt","","0.2249508913","","0.03494965278","","0.361309168","","","","","",""
"29","","bandit","103","441261","0.0-65.0-0.0","50962972","wem/bandit_single","A27O2IILV3S5YS","pain","1","","74","J","1","","0","0","1","","0.2388683754","false","28","","0.09304199486","main_expt","","0.2388683754","","0.02964638986","","0.3247985582","","","","","",""
"188","","bandit","104","443398","0.0-66.0-0.0","50962972","wem/bandit_single","A27O2IILV3S5YS","pain","1","","72","H","0","img/none_selected.jpg","0","0","1","","0.1042487788","false","29","","0.1042487788","main_expt","","0.238121012","","0.03498116837","","0.3358989687","","","","","",""
"194","","bandit","105","445358","0.0-67.0-0.0","50962972","wem/bandit_single","A27O2IILV3S5YS","pain","1","","72","H","0","img/none_selected.jpg","0","0","1","","0.1177759499","false","30","","0.1177759499","main_expt","","0.2995264376","","0.04244048525","","0.3833706669","","","","","",""
"0","","bandit","106","447431","0.0-68.0-0.0","50962972","wem/bandit_single","A27O2IILV3S5YS","pain","1","","72","H","0","img/none_selected.jpg","0","1","0","","0.1177925617","false","31","","0.1177925617","main_expt","","0.2738636663","","0.06152315655","","0.365606812","","","","","",""
"114","","bandit","107","449460","0.0-69.0-0.0","50962972","wem/bandit_single","A27O2IILV3S5YS","pain","1","","72","H","0","img/none_selected.jpg","0","0","1","","0.08495919706","false","32","","0.08495919706","main_expt","","0.3185168498","","0.04890303061","","0.3376656117","","","","","",""
"149","","bandit","108","451372","0.0-70.0-0.0","50962972","wem/bandit_single","A27O2IILV3S5YS","pain","1","","76","L","3","","0","0","1","","0.3632929272","false","33","","0.09918690981","main_expt","","0.3160257618","","0.06913310411","","0.3632929272","","","","","",""
"77","","bandit","109","453212","0.0-71.0-0.0","50962972","wem/bandit_single","A27O2IILV3S5YS","pain","1","","76","L","3","","0","1","0","","0.4008603673","false","34","","0.1267106232","main_expt","","0.3411570355","","0.07311713639","","0.4008603673","","","","","",""
"303","","bandit","110","455278","0.0-72.0-0.0","50962972","wem/bandit_single","A27O2IILV3S5YS","pain","1","","76","L","3","","0","0","1","","0.4024879816","false","35","","0.1076928618","main_expt","","0.3190481916","","0.08374615962","","0.4024879816","","","","","",""
"188","","bandit","111","457230","0.0-73.0-0.0","50962972","wem/bandit_single","A27O2IILV3S5YS","pain","1","","75","K","2","","0","1","0","","0.08182693844","false","36","","0.1298816773","main_expt","","0.3264142162","","0.08182693844","","0.3740303516","","","","","",""
"170","","bandit","112","459163","0.0-74.0-0.0","50962972","wem/bandit_single","A27O2IILV3S5YS","pain","1","","75","K","2","","0","0","1","","0.1343371601","false","37","","0.1459487567","main_expt","","0.3198880486","","0.1343371601","","0.3728306432","","","","","",""
"269","","bandit","113","461197","0.0-75.0-0.0","50962972","wem/bandit_single","A27O2IILV3S5YS","pain","1","","74","J","1","","0","1","0","","0.3683112265","false","38","","0.1339045699","main_expt","","0.3683112265","","0.155986589","","0.3805434418","","","","","",""
"221","","bandit","114","463186","0.0-76.0-0.0","50962972","wem/bandit_single","A27O2IILV3S5YS","pain","1","","74","J","1","","0","1","0","","0.3427238384","false","39","","0.1345127174","main_expt","","0.3427238384","","0.1477757124","","0.3969568822","","","","","",""
"417","","bandit","115","465521","0.0-77.0-0.0","50962972","wem/bandit_single","A27O2IILV3S5YS","pain","1","","74","J","1","","0","1","0","","0.3218453083","false","40","","0.1283460502","main_expt","","0.3218453083","","0.1673850924","","0.3988554294","","","","","",""
"331","","bandit","116","467619","0.0-78.0-0.0","50962972","wem/bandit_single","A27O2IILV3S5YS","pain","1","","74","J","1","","0","1","0","","0.3085515908","false","41","","0.120913883","main_expt","","0.3085515908","","0.1798739011","","0.4510691137","","","","","",""
"251","","bandit","117","469643","0.0-79.0-0.0","50962972","wem/bandit_single","A27O2IILV3S5YS","pain","1","","74","J","1","","0","0","1","","0.3072415044","false","42","","0.1045942129","main_expt","","0.3072415044","","0.1559165864","","0.4575220824","","","","","",""
"156","","bandit","118","471569","0.0-80.0-0.0","50962972","wem/bandit_single","A27O2IILV3S5YS","pain","1","","74","J","1","","0","0","1","","0.272500382","false","43","","0.09432917568","main_expt","","0.272500382","","0.1058033922","","0.4425049573","","","","","",""
"426","","bandit","119","473955","0.0-81.0-0.0","50962972","wem/bandit_single","A27O2IILV3S5YS","pain","1","","75","K","2","","0","0","1","","0.08489334424","false","44","","0.07221407183","main_expt","","0.2865836788","","0.08489334424","","0.4232077065","","","","","",""
"341","","bandit","120","476080","0.0-82.0-0.0","50962972","wem/bandit_single","A27O2IILV3S5YS","pain","1","","76","L","3","","0","1","0","","0.4098430077","false","45","","0.05666738762","main_expt","","0.2991622886","","0.05905190464","","0.4098430077","","","","","",""
"396","","bandit","121","478374","0.0-83.0-0.0","50962972","wem/bandit_single","A27O2IILV3S5YS","pain","1","","76","L","3","","0","0","1","","0.4038708701","false","46","","0.03432969329","main_expt","","0.2531917612","","0.06331323714","","0.4038708701","","","","","",""
"592","","bandit","122","480850","0.0-84.0-0.0","50962972","wem/bandit_single","A27O2IILV3S5YS","pain","1","","76","L","3","","0","0","1","","0.4162646915","false","47","","0.03955917442","main_expt","","0.174020607","","0.05657329797","","0.4162646915","","","","","",""
"325","","bandit","123","482967","0.0-85.0-0.0","50962972","wem/bandit_single","A27O2IILV3S5YS","pain","1","","76","L","3","","0","0","1","","0.4188900116","false","48","","0.02792503423","main_expt","","0.1890064997","","0.04718629669","","0.4188900116","","","","","",""
"435","","bandit","124","485329","0.0-86.0-0.0","50962972","wem/bandit_single","A27O2IILV3S5YS","pain","1","","75","K","2","","0","0","1","","0.03289244517","false","49","","0.03726959289","main_expt","","0.218442061","","0.03289244517","","0.4566014176","","","","","",""
"202","","bandit","125","487298","0.0-87.0-0.0","50962972","wem/bandit_single","A27O2IILV3S5YS","pain","1","","76","L","3","","0","1","0","","0.4447058567","false","50","","0.03358305353","main_expt","","0.1635183119","","0.03266450512","","0.4447058567","","","","","",""
"1","","bandit","126","489332","0.0-88.0-0.0","50962972","wem/bandit_single","A27O2IILV3S5YS","pain","1","","76","L","3","","0","1","0","","0.4304926469","false","51","","0.03344521258","main_expt","","0.1366577914","","0.03026904774","","0.4304926469","","","","","",""
"455","","bandit","127","491551","0.0-89.0-0.0","50962972","wem/bandit_single","A27O2IILV3S5YS","pain","1","","76","L","3","","0","0","1","","0.4221781581","false","52","","0.04269272659","main_expt","","0.1797398031","","0.03251993274","","0.4221781581","","","","","",""
"730","","bandit","128","494047","0.0-90.0-0.0","50962972","wem/bandit_single","A27O2IILV3S5YS","pain","1","","75","K","2","","0","1","0","","0.03960602941","false","53","","0.023815337","main_expt","","0.2893410322","","0.03960602941","","0.3687481665","","","","","",""
"747","","bandit","129","496580","0.0-91.0-0.0","50962972","wem/bandit_single","A27O2IILV3S5YS","pain","1","","75","K","2","","0","0","1","","0.05707063203","false","54","","0.02455785224","main_expt","","0.2985665456","","0.05707063203","","0.3458934235","","","","","",""
"549","","bandit","130","499145","0.0-92.0-0.0","50962972","wem/bandit_single","A27O2IILV3S5YS","pain","1","","74","J","1","","0","0","1","","0.3336948264","false","55","","0.03998391886","main_expt","","0.3336948264","","0.04044117434","","0.4042580408","","","","","",""
"176","","bandit","131","501087","0.0-93.0-0.0","50962972","wem/bandit_single","A27O2IILV3S5YS","pain","1","","74","J","1","","0","1","0","","0.282194417","false","56","","0.06538112884","main_expt","","0.282194417","","0.05627119328","","0.4471112694","","","","","",""
"573","","bandit","132","503685","0.0-94.0-0.0","50962972","wem/bandit_single","A27O2IILV3S5YS","pain","1","","74","J","1","","0","0","1","","0.3239389597","false","57","","0.08662171517","main_expt","","0.3239389597","","0.06172895681","","0.4640351361","","","","","",""
"1316","","bandit","133","506769","0.0-95.0-0.0","50962972","wem/bandit_single","A27O2IILV3S5YS","pain","1","","72","H","0","img/none_selected.jpg","0","0","1","","0.08191290536","false","58","","0.08191290536","main_expt","","0.3114288274","","0.0708730922","","0.4654795878","","","","","",""
"408","","bandit","134","508945","0.0-96.0-0.0","50962972","wem/bandit_single","A27O2IILV3S5YS","pain","1","","72","H","0","img/none_selected.jpg","0","0","1","","0.06359390603","false","59","","0.06359390603","main_expt","","0.3090129124","","0.06307994893","","0.477644797","","","","","",""
"250","","bandit","135","510959","0.0-97.0-0.0","50962972","wem/bandit_single","A27O2IILV3S5YS","pain","1","","74","J","1","","0","1","0","","0.3273240357","false","60","","0.1113565871","main_expt","","0.3273240357","","0.06865221942","","0.4637057102","","","","","",""
"348","","bandit","136","513074","0.0-98.0-0.0","50962972","wem/bandit_single","A27O2IILV3S5YS","pain","1","","74","J","1","","0","0","1","","0.333760802","false","61","","0.1224908949","main_expt","","0.333760802","","0.04710261487","","0.4575353452","","","","","",""
"953","","bandit","137","515791","0.0-99.0-0.0","50962972","wem/bandit_single","A27O2IILV3S5YS","pain","1","","75","K","2","","0","0","1","","0.04180279512","false","62","","0.1011510181","main_expt","","0.3721083552","","0.04180279512","","0.4511824808","","","","","",""
"507","","bandit","138","518065","0.0-100.0-0.0","50962972","wem/bandit_single","A27O2IILV3S5YS","pain","1","","75","K","2","","0","0","1","","0.04669584184","false","63","","0.1241823521","main_expt","","0.3366911892","","0.04669584184","","0.4522744543","","","","","",""
"488","","bandit","139","520320","0.0-101.0-0.0","50962972","wem/bandit_single","A27O2IILV3S5YS","pain","1","","76","L","3","","0","0","1","","0.4534383651","false","64","","0.1277445844","main_expt","","0.352845708","","0.04699929359","","0.4534383651","","","","","",""
"169","","bandit","140","522261","0.0-102.0-0.0","50962972","wem/bandit_single","A27O2IILV3S5YS","pain","1","","76","L","3","","0","0","1","","0.4578128414","false","65","","0.1594820305","main_expt","","0.3797865956","","0.06422912444","","0.4578128414","","","","","",""
"44","","bandit","141","524076","0.0-103.0-0.0","50962972","wem/bandit_single","A27O2IILV3S5YS","pain","1","","76","L","3","","0","1","0","","0.4675149648","false","66","","0.1902728197","main_expt","","0.3776123686","","0.09107067683","","0.4675149648","","","","","",""
"183","","bandit","142","526028","0.0-104.0-0.0","50962972","wem/bandit_single","A27O2IILV3S5YS","pain","1","","76","L","3","","0","0","1","","0.4801185054","false","67","","0.1915604568","main_expt","","0.3520302909","","0.1295134299","","0.4801185054","","","","","",""
"220","","bandit","143","528061","0.0-105.0-0.0","50962972","wem/bandit_single","A27O2IILV3S5YS","pain","1","","75","K","2","","0","0","1","","0.1501953896","false","68","","0.2292904293","main_expt","","0.3563070861","","0.1501953896","","0.4853911876","","","","","",""
"312","","bandit","144","530156","0.0-106.0-0.0","50962972","wem/bandit_single","A27O2IILV3S5YS","pain","1","","75","K","2","","0","0","1","","0.2120393587","false","69","","0.2982444272","main_expt","","0.3773129781","","0.2120393587","","0.45952887","","","","","",""
"746","","bandit","145","532712","0.0-107.0-0.0","50962972","wem/bandit_single","A27O2IILV3S5YS","pain","1","","74","J","1","","0","0","1","","0.3620092878","false","70","","0.2038928517","main_expt","","0.3620092878","","0.2046372205","","0.4519788387","","","","","",""
"344","","bandit","146","534826","0.0-108.0-0.0","50962972","wem/bandit_single","A27O2IILV3S5YS","pain","1","","72","H","0","img/none_selected.jpg","0","0","1","","0.2470144531","false","71","","0.2470144531","main_expt","","0.3689610789","","0.1711657315","","0.4644284496","","","","","",""
"282","","bandit","147","537121","0.0-109.0-0.0","50962972","wem/bandit_single","A27O2IILV3S5YS","pain","1","","72","H","0","img/none_selected.jpg","0","0","1","","0.2339224101","false","72","","0.2339224101","main_expt","","0.335535794","","0.1804367846","","0.4275080271","","","","","",""
"343","","bandit","148","539245","0.0-110.0-0.0","50962972","wem/bandit_single","A27O2IILV3S5YS","pain","1","","74","J","1","","0","0","1","","0.3669127126","false","73","","0.198403553","main_expt","","0.3669127126","","0.1582310148","","0.4333248441","","","","","",""
"201","","bandit","149","541306","0.0-111.0-0.0","50962972","wem/bandit_single","A27O2IILV3S5YS","pain","1","","75","K","2","","0","0","1","","0.1300952354","false","74","","0.2162510441","main_expt","","0.3360165716","","0.1300952354","","0.4272577829","","","","","",""
"111","","bandit","150","543185","0.0-112.0-0.0","50962972","wem/bandit_single","A27O2IILV3S5YS","pain","1","","75","K","2","","0","0","1","","0.1414689969","false","75","","0.2467290531","main_expt","","0.3379177146","","0.1414689969","","0.353629049","","","","","",""
"115","","bandit","151","545068","0.0-113.0-0.0","50962972","wem/bandit_single","A27O2IILV3S5YS","pain","1","","75","K","2","","0","0","1","","0.1315789974","false","76","","0.2199510863","main_expt","","0.3489784935","","0.1315789974","","0.3526453175","","","","","",""
"151","","bandit","152","546988","0.0-114.0-0.0","50962972","wem/bandit_single","A27O2IILV3S5YS","pain","1","","74","J","1","","0","1","0","","0.2843927136","false","77","","0.1600424727","main_expt","","0.2843927136","","0.1054244057","","0.397337216","","","","","",""
"41","","bandit","153","548793","0.0-115.0-0.0","50962972","wem/bandit_single","A27O2IILV3S5YS","pain","1","","74","J","1","","0","0","1","","0.2585585406","false","78","","0.1366877547","main_expt","","0.2585585406","","0.1028875903","","0.3747850168","","","","","",""
"181","","bandit","154","550976","0.0-116.0-0.0","50962972","wem/bandit_single","A27O2IILV3S5YS","pain","1","","74","J","1","","0","0","1","","0.2211992803","false","79","","0.1608027171","main_expt","","0.2211992803","","0.1010795136","","0.3500135026","","","","","",""
"132","","bandit","155","552875","0.0-117.0-0.0","50962972","wem/bandit_single","A27O2IILV3S5YS","pain","1","","74","J","1","","0","0","1","","0.1670678668","false","80","","0.2004121585","main_expt","","0.1670678668","","0.09661145037","","0.3362224365","","","","","",""
"1","","bandit","156","554903","0.0-118.0-0.0","50962972","wem/bandit_single","A27O2IILV3S5YS","pain","1","","75","K","2","","0","0","1","","0.06079528701","false","81","","0.2100463009","main_expt","","0.1536487801","","0.06079528701","","0.3626400229","","","","","",""
"46","","bandit","157","556826","0.0-119.0-0.0","50962972","wem/bandit_single","A27O2IILV3S5YS","pain","1","","75","K","2","","0","0","1","","0.0561923849","false","82","","0.2313995655","main_expt","","0.164055667","","0.0561923849","","0.3433004166","","","","","",""
"407","","bandit","158","559002","0.0-120.0-0.0","50962972","wem/bandit_single","A27O2IILV3S5YS","pain","1","","76","L","3","","0","0","1","","0.3564809269","false","83","","0.1805974068","main_expt","","0.1795096781","","0.05471979201","","0.3564809269","","","","","",""
"108","","bandit","159","560877","0.0-121.0-0.0","50962972","wem/bandit_single","A27O2IILV3S5YS","pain","1","","75","K","2","","0","0","1","","0.04961315052","false","84","","0.1351257884","main_expt","","0.1568762326","","0.04961315052","","0.3403656385","","","","","",""
"166","","bandit","160","562812","0.0-122.0-0.0","50962972","wem/bandit_single","A27O2IILV3S5YS","pain","1","","74","J","1","","0","0","1","","0.1857208284","false","85","","0.1372280885","main_expt","","0.1857208284","","0.05195310968","","0.3009252634","","","","","",""
"182","","bandit","161","564830","0.0-123.0-0.0","50962972","wem/bandit_single","A27O2IILV3S5YS","pain","1","","72","H","0","img/none_selected.jpg","0","0","1","","0.1685840628","false","86","","0.1685840628","main_expt","","0.2180329602","","0.05385113756","","0.3067316121","","","","","",""
"131","","bandit","162","566730","0.0-124.0-0.0","50962972","wem/bandit_single","A27O2IILV3S5YS","pain","1","","74","J","1","","0","0","1","","0.1893737279","false","87","","0.1654340797","main_expt","","0.1893737279","","0.08202519069","","0.3073916088","","","","","",""
"297","","bandit","163","569116","0.0-125.0-0.0","50962972","wem/bandit_single","A27O2IILV3S5YS","pain","1","","74","J","1","","0","1","0","","0.2309201776","false","88","","0.1870328522","main_expt","","0.2309201776","","0.04873944257","","0.301504441","","","","","",""
"557","","bandit","164","571807","0.0-126.0-0.0","50962972","wem/bandit_single","A27O2IILV3S5YS","pain","1","","74","J","1","","0","0","1","","0.2368651839","false","89","","0.1786415591","main_expt","","0.2368651839","","0.05553778571","","0.3324072184","","","","","",""
"207","","bandit","165","573784","0.0-127.0-0.0","50962972","wem/bandit_single","A27O2IILV3S5YS","pain","1","","74","J","1","","0","0","1","","0.2459093935","false","90","","0.2293974223","main_expt","","0.2459093935","","0.04980790846","","0.3245139686","","","","","",""
"609","","bandit","166","576396","0.0-128.0-0.0","50962972","wem/bandit_single","A27O2IILV3S5YS","pain","1","","75","K","2","","0","0","1","","0.05804880768","false","91","","0.2407797963","main_expt","","0.2371609774","","0.05804880768","","0.3310751299","","","","","",""
"1118","","bandit","167","579282","0.0-129.0-0.0","50962972","wem/bandit_single","A27O2IILV3S5YS","pain","1","","72","H","0","img/none_selected.jpg","0","1","0","","0.2337544695","false","92","","0.2337544695","main_expt","","0.260478489","","0.0614883172","","0.3717444616","","","","","",""
"756","","bandit","168","581807","0.0-130.0-0.0","50962972","wem/bandit_single","A27O2IILV3S5YS","pain","1","","74","J","1","","0","1","0","","0.2595992258","false","93","","0.2589688886","main_expt","","0.2595992258","","0.0764333552","","0.3846532122","","","","","",""
"173","","bandit","169","583749","0.0-131.0-0.0","50962972","wem/bandit_single","A27O2IILV3S5YS","pain","1","","74","J","1","","0","0","1","","0.206568391","false","94","","0.2699529923","main_expt","","0.206568391","","0.1280824273","","0.4017211595","","","","","",""
"195","","bandit","170","585717","0.0-132.0-0.0","50962972","wem/bandit_single","A27O2IILV3S5YS","pain","1","","74","J","1","","0","0","1","","0.1846794781","false","95","","0.2626559999","main_expt","","0.1846794781","","0.1191245721","","0.3736639641","","","","","",""
"794","","bandit","171","588288","0.0-133.0-0.0","50962972","wem/bandit_single","A27O2IILV3S5YS","pain","1","","75","K","2","","0","0","1","","0.08526153109","false","96","","0.2196428224","main_expt","","0.2484851932","","0.08526153109","","0.3220453652","","","","","",""
"666","","bandit","172","590727","0.0-134.0-0.0","50962972","wem/bandit_single","A27O2IILV3S5YS","pain","1","","75","K","2","","0","0","1","","0.0775518538","false","97","","0.1922289922","main_expt","","0.198145661","","0.0775518538","","0.2964534367","","","","","",""
"702","","bandit","173","593199","0.0-135.0-0.0","50962972","wem/bandit_single","A27O2IILV3S5YS","pain","1","","75","K","2","","0","0","1","","0.08824897118","false","98","","0.2328023708","main_expt","","0.1738253929","","0.08824897118","","0.3388366936","","","","","",""
"204","","bandit","174","595187","0.0-136.0-0.0","50962972","wem/bandit_single","A27O2IILV3S5YS","pain","1","","75","K","2","","0","0","1","","0.08912321317","false","99","","0.2606341713","main_expt","","0.1261523865","","0.08912321317","","0.4233536788","","","","","",""
"327","","bandit","175","597285","0.0-137.0-0.0","50962972","wem/bandit_single","A27O2IILV3S5YS","pain","1","","72","H","0","img/none_selected.jpg","0","1","0","","0.310387162","false","100","","0.310387162","main_expt","","0.1368684177","","0.1217067293","","0.3799029244","","","","","",""
"486","","bandit","176","599563","0.0-138.0-0.0","50962972","wem/bandit_single","A27O2IILV3S5YS","pain","1","","72","H","0","img/none_selected.jpg","0","0","1","","0.3802628165","false","101","","0.3802628165","main_expt","","0.1262970555","","0.08537200695","","0.3644029447","","","","","",""
"322","","bandit","177","601669","0.0-139.0-0.0","50962972","wem/bandit_single","A27O2IILV3S5YS","pain","1","","76","L","3","","0","0","1","","0.3414838768","false","102","","0.4133848668","main_expt","","0.1022564356","","0.09606980913","","0.3414838768","","","","","",""
"207","","bandit","178","603753","0.0-140.0-0.0","50962972","wem/bandit_single","A27O2IILV3S5YS","pain","1","","75","K","2","","0","0","1","","0.09968925047","false","103","","0.4352089555","main_expt","","0.07046703442","","0.09968925047","","0.3691073091","","","","","",""
"467","","bandit","179","605989","0.0-141.0-0.0","50962972","wem/bandit_single","A27O2IILV3S5YS","pain","1","","74","J","1","","0","0","1","","0.08582175226","false","104","","0.4248252031","main_expt","","0.08582175226","","0.1070137741","","0.3386210986","","","","","",""
"661","","bandit","180","608422","0.0-142.0-0.0","50962972","wem/bandit_single","A27O2IILV3S5YS","pain","1","","75","K","2","","0","1","0","","0.1086060941","false","105","","0.4382512542","main_expt","","0.08910626196","","0.1086060941","","0.3517858304","","","","","",""
"570","","bandit","181","611064","0.0-143.0-0.0","50962972","wem/bandit_single","A27O2IILV3S5YS","pain","1","","75","K","2","","0","0","1","","0.1006724549","false","106","","0.4551412652","main_expt","","0.09380004764","","0.1006724549","","0.4016578568","","","","","",""
"331","","bandit","182","613628","0.0-144.0-0.0","50962972","wem/bandit_single","A27O2IILV3S5YS","pain","1","","76","L","3","","0","1","0","","0.3951748439","false","107","","0.4481373055","main_expt","","0.08916311959","","0.07769839914","","0.3951748439","","","","","",""
"1021","","bandit","183","616421","0.0-145.0-0.0","50962972","wem/bandit_single","A27O2IILV3S5YS","pain","1","","76","L","3","","0","0","1","","0.3933810371","false","108","","0.4611843773","main_expt","","0.1635033392","","0.09470950607","","0.3933810371","","","","","",""
"566","","bandit","184","618757","0.0-146.0-0.0","50962972","wem/bandit_single","A27O2IILV3S5YS","pain","1","","76","L","3","","0","0","1","","0.3961603237","false","109","","0.416280782","main_expt","","0.1923408453","","0.1117426234","","0.3961603237","","","","","",""
"580","","bandit","185","621110","0.0-147.0-0.0","50962972","wem/bandit_single","A27O2IILV3S5YS","pain","1","","76","L","3","","0","0","1","","0.3933476799","false","110","","0.3959176693","main_expt","","0.1668397223","","0.1190643529","","0.3933476799","","","","","",""
"386","","bandit","186","623283","0.0-148.0-0.0","50962972","wem/bandit_single","A27O2IILV3S5YS","pain","1","","75","K","2","","0","0","1","","0.1605091549","false","111","","0.3881072513","main_expt","","0.1254506171","","0.1605091549","","0.3953313537","","","","","",""
"808","","bandit","187","625864","0.0-149.0-0.0","50962972","wem/bandit_single","A27O2IILV3S5YS","pain","1","","74","J","1","","0","0","1","","0.1596839241","false","112","","0.3430735849","main_expt","","0.1596839241","","0.1531505469","","0.3398422341","","","","","",""
"489","","bandit","188","628125","0.0-150.0-0.0","50962972","wem/bandit_single","A27O2IILV3S5YS","pain","1","","72","H","0","img/none_selected.jpg","0","0","1","","0.3036143476","false","113","","0.3036143476","main_expt","","0.1986187203","","0.1796188848","","0.375538402","","","","","",""
"205","","bandit","189","630123","0.0-151.0-0.0","50962972","wem/bandit_single","A27O2IILV3S5YS","pain","1","","72","H","0","img/none_selected.jpg","0","0","1","","0.3581708668","false","114","","0.3581708668","main_expt","","0.2334514198","","0.1820080726","","0.3629483147","","","","","",""
"204","","bandit","190","632101","0.0-152.0-0.0","50962972","wem/bandit_single","A27O2IILV3S5YS","pain","1","","74","J","1","","0","0","1","","0.1892672839","false","115","","0.2948471219","main_expt","","0.1892672839","","0.2050936175","","0.2969550108","","","","","",""
"308","","bandit","191","634187","0.0-153.0-0.0","50962972","wem/bandit_single","A27O2IILV3S5YS","pain","1","","75","K","2","","0","0","1","","0.2071503316","false","116","","0.2711132382","main_expt","","0.1507180646","","0.2071503316","","0.260261953","","","","","",""
"288","","bandit","192","636244","0.0-154.0-0.0","50962972","wem/bandit_single","A27O2IILV3S5YS","pain","1","","75","K","2","","0","0","1","","0.2359882763","false","117","","0.3124997295","main_expt","","0.1830546279","","0.2359882763","","0.2626326191","","","","","",""
"437","","bandit","193","638453","0.0-155.0-0.0","50962972","wem/bandit_single","A27O2IILV3S5YS","pain","1","","76","L","3","","0","1","0","","0.2933310536","false","118","","0.3888019654","main_expt","","0.1415506149","","0.2388261631","","0.2933310536","","","","","",""
"452","","bandit","194","640677","0.0-156.0-0.0","50962972","wem/bandit_single","A27O2IILV3S5YS","pain","1","","76","L","3","","0","0","1","","0.2469992957","false","119","","0.3695751837","main_expt","","0.1814909568","","0.2470137322","","0.2469992957","","","","","",""
"325","","bandit","195","642775","0.0-157.0-0.0","50962972","wem/bandit_single","A27O2IILV3S5YS","pain","1","","75","K","2","","0","1","0","","0.209676098","false","120","","0.3471196364","main_expt","","0.1900691043","","0.209676098","","0.2186909282","","","","","",""
"100","","bandit","196","644818","0.0-158.0-0.0","50962972","wem/bandit_single","A27O2IILV3S5YS","pain","1","","75","K","2","","0","0","1","","0.2058519679","false","121","","0.3164400491","main_expt","","0.2002257321","","0.2058519679","","0.1915374776","","","","","",""
"121","","bandit","197","646711","0.0-159.0-0.0","50962972","wem/bandit_single","A27O2IILV3S5YS","pain","1","","74","J","1","","0","0","1","","0.2000360786","false","122","","0.3565888941","main_expt","","0.2000360786","","0.1409467191","","0.1666700693","","","","","",""
"454","","bandit","198","649206","0.0-160.0-0.0","50962972","wem/bandit_single","A27O2IILV3S5YS","pain","1","","75","K","2","","0","0","1","","0.08785727187","false","123","","0.3293983066","main_expt","","0.1656706666","","0.08785727187","","0.1779758636","","","","","",""
"276","","bandit","199","651255","0.0-161.0-0.0","50962972","wem/bandit_single","A27O2IILV3S5YS","pain","1","","76","L","3","","0","0","1","","0.2483730269","false","124","","0.3202360925","main_expt","","0.2433115295","","0.1153756664","","0.2483730269","","","","","",""
"75","","bandit","200","653111","0.0-162.0-0.0","50962972","wem/bandit_single","A27O2IILV3S5YS","pain","1","","76","L","3","","0","0","1","","0.2274485556","false","125","","0.3478690395","main_expt","","0.1810024247","","0.1211147435","","0.2274485556","","","","","",""
"49","","bandit","201","655330","0.0-163.0-0.0","50962972","wem/bandit_single","A27O2IILV3S5YS","pain","1","","76","L","3","","0","0","1","","0.2506805994","false","126","","0.3312811416","main_expt","","0.2138299762","","0.1434737457","","0.2506805994","","","","","",""
"38","","bandit","202","657143","0.0-164.0-0.0","50962972","wem/bandit_single","A27O2IILV3S5YS","pain","1","","76","L","3","","0","0","1","","0.2520497492","false","127","","0.2641060438","main_expt","","0.1993304114","","0.1970801631","","0.2520497492","","","","","",""
"378","","bandit","203","659292","0.0-165.0-0.0","50962972","wem/bandit_single","A27O2IILV3S5YS","pain","1","","75","K","2","","0","1","0","","0.2891253811","false","128","","0.2239657692","main_expt","","0.2602773644","","0.2891253811","","0.1948091286","","","","","",""
"525","","bandit","204","661588","0.0-166.0-0.0","50962972","wem/bandit_single","A27O2IILV3S5YS","pain","1","","75","K","2","","0","0","1","","0.2389970352","false","129","","0.2243581634","main_expt","","0.2960784606","","0.2389970352","","0.1749799719","","","","","",""
"70","","bandit","205","663429","0.0-167.0-0.0","50962972","wem/bandit_single","A27O2IILV3S5YS","pain","1","","74","J","1","","0","0","1","","0.2720271615","false","130","","0.2215765871","main_expt","","0.2720271615","","0.2613596901","","0.1950546205","","","","","",""
"131","","bandit","206","665333","0.0-168.0-0.0","50962972","wem/bandit_single","A27O2IILV3S5YS","pain","1","","72","H","0","img/none_selected.jpg","0","0","1","","0.1796651873","false","131","","0.1796651873","main_expt","","0.2403459828","","0.2254289723","","0.2501377387","","","","","",""
"149","","bandit","207","667254","0.0-169.0-0.0","50962972","wem/bandit_single","A27O2IILV3S5YS","pain","1","","74","J","1","","0","0","1","","0.2261584059","false","132","","0.1946412172","main_expt","","0.2261584059","","0.2759434303","","0.2275015869","","","","","",""
"114","","bandit","208","669141","0.0-170.0-0.0","50962972","wem/bandit_single","A27O2IILV3S5YS","pain","1","","75","K","2","","0","0","1","","0.3153186182","false","133","","0.2390261597","main_expt","","0.225512635","","0.3153186182","","0.1961271051","","","","","",""
"85","","bandit","209","670997","0.0-171.0-0.0","50962972","wem/bandit_single","A27O2IILV3S5YS","pain","1","","75","K","2","","0","1","0","","0.2950667763","false","134","","0.227958871","main_expt","","0.2119287539","","0.2950667763","","0.2508816485","","","","","",""
"39","","bandit","210","673122","0.0-172.0-0.0","50962972","wem/bandit_single","A27O2IILV3S5YS","pain","1","","75","K","2","","0","1","0","","0.3307223606","false","135","","0.2312014448","main_expt","","0.1980603764","","0.3307223606","","0.3394706536","","","","","",""
"23","","bandit","211","674916","0.0-173.0-0.0","50962972","wem/bandit_single","A27O2IILV3S5YS","pain","1","","75","K","2","","0","0","1","","0.3298223854","false","136","","0.27599984","main_expt","","0.2325476757","","0.3298223854","","0.2837829406","","","","","",""
"579","","bandit","212","677266","0.0-174.0-0.0","50962972","wem/bandit_single","A27O2IILV3S5YS","pain","1","","75","K","2","","0","0","1","","0.3330531331","false","137","","0.2313694212","main_expt","","0.2334264213","","0.3330531331","","0.3024244849","","","","","",""
"105","","bandit","213","679144","0.0-175.0-0.0","50962972","wem/bandit_single","A27O2IILV3S5YS","pain","1","","76","L","3","","0","1","0","","0.3473265679","false","138","","0.1816115857","main_expt","","0.3107735177","","0.292929501","","0.3473265679","","","","","",""
"111","","bandit","214","681029","0.0-176.0-0.0","50962972","wem/bandit_single","A27O2IILV3S5YS","pain","1","","76","L","3","","0","0","1","","0.2828336224","false","139","","0.1658496667","main_expt","","0.3374098654","","0.2849421758","","0.2828336224","","","","","",""
"81","","bandit","215","682885","0.0-177.0-0.0","50962972","wem/bandit_single","A27O2IILV3S5YS","pain","1","","76","L","3","","0","0","1","","0.3238397914","false","140","","0.1644365985","main_expt","","0.3401298673","","0.3149573531","","0.3238397914","","","","","",""
"83","","bandit","216","684740","0.0-178.0-0.0","50962972","wem/bandit_single","A27O2IILV3S5YS","pain","1","","75","K","2","","0","0","1","","0.2937847178","false","141","","0.16055167","main_expt","","0.363539884","","0.2937847178","","0.3490905252","","","","","",""
"52","","bandit","217","686565","0.0-179.0-0.0","50962972","wem/bandit_single","A27O2IILV3S5YS","pain","1","","75","K","2","","0","0","1","","0.2695919138","false","142","","0.1426499966","main_expt","","0.3207651517","","0.2695919138","","0.337853111","","","","","",""
"81","","bandit","218","688420","0.0-180.0-0.0","50962972","wem/bandit_single","A27O2IILV3S5YS","pain","1","","74","J","1","","0","1","0","","0.2976941359","false","143","","0.1133276474","main_expt","","0.2976941359","","0.206179854","","0.3475703167","","","","","",""
"19","","bandit","219","690491","0.0-181.0-0.0","50962972","wem/bandit_single","A27O2IILV3S5YS","pain","1","","74","J","1","","0","0","1","","0.2405576463","false","144","","0.1351054788","main_expt","","0.2405576463","","0.2123329462","","0.3809945211","","","","","",""
"493","","bandit","220","692894","0.0-182.0-0.0","50962972","wem/bandit_single","A27O2IILV3S5YS","pain","1","","72","H","0","img/none_selected.jpg","0","0","1","","0.1703546958","false","145","","0.1703546958","main_expt","","0.2513929943","","0.2144195617","","0.3842622547","","","","","",""
"119","","bandit","221","694787","0.0-183.0-0.0","50962972","wem/bandit_single","A27O2IILV3S5YS","pain","1","","74","J","1","","0","1","0","","0.2665850657","false","146","","0.1382352341","main_expt","","0.2665850657","","0.2264269311","","0.4068715463","","","","","",""
"16","","bandit","222","696579","0.0-184.0-0.0","50962972","wem/bandit_single","A27O2IILV3S5YS","pain","1","","74","J","1","","0","0","1","","0.2742171136","false","147","","0.1111211324","main_expt","","0.2742171136","","0.2458089499","","0.3690267696","","","","","",""
"898","","bandit","223","699283","0.0-185.0-0.0","50962972","wem/bandit_single","A27O2IILV3S5YS","pain","1","","74","J","1","","0","0","1","","0.2504516377","false","148","","0.1046256567","main_expt","","0.2504516377","","0.2581131455","","0.3999465919","","","","","",""
"451","","bandit","224","701511","0.0-186.0-0.0","50962972","wem/bandit_single","A27O2IILV3S5YS","pain","1","","75","K","2","","0","0","1","","0.2055420423","false","149","","0.09450025474","main_expt","","0.2749888299","","0.2055420423","","0.3823047489","","","","","",""
"273","","bandit","225","703553","0.0-187.0-0.0","50962972","wem/bandit_single","A27O2IILV3S5YS","pain","1","","75","K","2","","0","1","0","","0.2196547661","false","150","","0.08682851814","main_expt","","0.2199302859","","0.2196547661","","0.3970301866","","","","","",""
"116","","bandit","226","705442","0.0-188.0-0.0","50962972","wem/bandit_single","A27O2IILV3S5YS","pain","1","","76","L","3","","0","0","1","","0.4141828336","false","151","","0.0775356828","main_expt","","0.228921305","","0.2311854424","","0.4141828336","","","","","",""
"113","","bandit","227","707330","0.0-189.0-0.0","50962972","wem/bandit_single","A27O2IILV3S5YS","pain","1","","75","K","2","","0","1","0","","0.2692750042","false","152","","0.08719832593","main_expt","","0.1858313389","","0.2692750042","","0.4233092002","","","","","",""
"31","","bandit","228","709135","0.0-190.0-0.0","50962972","wem/bandit_single","A27O2IILV3S5YS","pain","1","","75","K","2","","0","1","0","","0.3209664266","false","153","","0.06950392785","main_expt","","0.2253380596","","0.3209664266","","0.3961827626","","","","","",""
"104","","bandit","229","711012","0.0-191.0-0.0","50962972","wem/bandit_single","A27O2IILV3S5YS","pain","1","","75","K","2","","0","0","1","","0.2633096479","false","154","","0.09734883616","main_expt","","0.1787374968","","0.2633096479","","0.4023640633","","","","","",""
"31","","bandit","230","712818","0.0-192.0-0.0","50962972","wem/bandit_single","A27O2IILV3S5YS","pain","1","","74","J","1","","0","1","0","","0.1026625787","false","155","","0.1078867986","main_expt","","0.1026625787","","0.2611493198","","0.3927422998","","","","","",""
"80","","bandit","231","714859","0.0-193.0-0.0","50962972","wem/bandit_single","A27O2IILV3S5YS","pain","1","","74","J","1","","0","1","0","","0.1201393653","false","156","","0.09294383108","main_expt","","0.1201393653","","0.2556392324","","0.3696188161","","","","","",""
"71","","bandit","232","716704","0.0-194.0-0.0","50962972","wem/bandit_single","A27O2IILV3S5YS","pain","1","","74","J","1","","0","0","1","","0.1601810659","false","157","","0.1344904143","main_expt","","0.1601810659","","0.2237912435","","0.3562863837","","","","","",""
"323","","bandit","233","719055","0.0-195.0-0.0","50962972","wem/bandit_single","A27O2IILV3S5YS","pain","1","","75","K","2","","0","0","1","","0.2269937079","false","158","","0.1682501471","main_expt","","0.2178666355","","0.2269937079","","0.3891013447","","","","","",""
"107","","bandit","234","720962","0.0-196.0-0.0","50962972","wem/bandit_single","A27O2IILV3S5YS","pain","1","","75","K","2","","0","1","0","","0.2244600926","false","159","","0.1859978291","main_expt","","0.2088119712","","0.2244600926","","0.3771509201","","","","","",""
"45","","bandit","235","722784","0.0-197.0-0.0","50962972","wem/bandit_single","A27O2IILV3S5YS","pain","1","","75","K","2","","0","0","1","","0.231654425","false","160","","0.1169857497","main_expt","","0.2853399033","","0.231654425","","0.3677966378","","","","","",""
"158","","bandit","236","724721","0.0-198.0-0.0","50962972","wem/bandit_single","A27O2IILV3S5YS","pain","1","","74","J","1","","0","1","0","","0.2755093387","false","161","","0.1131976547","main_expt","","0.2755093387","","0.2415747561","","0.3691576932","","","","","",""
"465","","bandit","237","726960","0.0-199.0-0.0","50962972","wem/bandit_single","A27O2IILV3S5YS","pain","1","","74","J","1","","0","1","0","","0.2706635439","false","162","","0.1560378341","main_expt","","0.2706635439","","0.1807921844","","0.3102253273","","","","","",""
"529","","bandit","238","729264","0.0-200.0-0.0","50962972","wem/bandit_single","A27O2IILV3S5YS","pain","1","","74","J","1","","0","0","1","","0.2856851073","false","163","","0.1200759877","main_expt","","0.2856851073","","0.1986212186","","0.3361037566","","","","","",""
"292","","bandit","239","731380","0.0-201.0-0.0","50962972","wem/bandit_single","A27O2IILV3S5YS","pain","1","","75","K","2","","0","1","0","","0.1799022971","false","164","","0.1198838954","main_expt","","0.3188827228","","0.1799022971","","0.3097300036","","","","","",""
"43","","bandit","240","733199","0.0-202.0-0.0","50962972","wem/bandit_single","A27O2IILV3S5YS","pain","1","","75","K","2","","0","0","1","","0.2610149466","false","165","","0.1397308529","main_expt","","0.3258940933","","0.2610149466","","0.3234169084","","","","","",""
"240","","bandit","241","735217","0.0-203.0-0.0","50962972","wem/bandit_single","A27O2IILV3S5YS","pain","1","","74","J","1","","0","0","1","","0.3525092479","false","166","","0.1506282743","main_expt","","0.3525092479","","0.2673729835","","0.3201458278","","","","","",""
"43","","bandit","242","737039","0.0-204.0-0.0","50962972","wem/bandit_single","A27O2IILV3S5YS","pain","1","","74","J","1","","0","0","1","","0.3919017073","false","167","","0.1407574557","main_expt","","0.3919017073","","0.169486101","","0.366643239","","","","","",""
"147","","bandit","243","738972","0.0-205.0-0.0","50962972","wem/bandit_single","A27O2IILV3S5YS","pain","1","","75","K","2","","0","0","1","","0.1997030364","false","168","","0.1217255528","main_expt","","0.3855955566","","0.1997030364","","0.3877512758","","","","","",""
"4","","bandit","244","740788","0.0-206.0-0.0","50962972","wem/bandit_single","A27O2IILV3S5YS","pain","1","","75","K","2","","0","1","0","","0.2391799942","false","169","","0.118108524","main_expt","","0.3882436634","","0.2391799942","","0.3733196812","","","","","",""
"21","","bandit","245","742592","0.0-207.0-0.0","50962972","wem/bandit_single","A27O2IILV3S5YS","pain","1","","75","K","2","","0","0","1","","0.2239577552","false","170","","0.0750780909","main_expt","","0.4096789578","","0.2239577552","","0.3616719183","","","","","",""
"97","","bandit","246","744463","0.0-208.0-0.0","50962972","wem/bandit_single","A27O2IILV3S5YS","pain","1","","76","L","3","","0","1","0","","0.3222484871","false","171","","0.07048665386","main_expt","","0.4326257363","","0.2175962327","","0.3222484871","","","","","",""
"1","","bandit","247","746241","0.0-209.0-0.0","50962972","wem/bandit_single","A27O2IILV3S5YS","pain","1","","76","L","3","","0","1","0","","0.2849842628","false","172","","0.09439478605","main_expt","","0.4381189537","","0.2061205584","","0.2849842628","","","","","",""
"111","","bandit","248","748126","0.0-210.0-0.0","50962972","wem/bandit_single","A27O2IILV3S5YS","pain","1","","76","L","3","","0","0","1","","0.2896949147","false","173","","0.05932603211","main_expt","","0.3823577146","","0.1787022686","","0.2896949147","","","","","",""
"17","","bandit","249","750266","0.0-211.0-0.0","50962972","wem/bandit_single","A27O2IILV3S5YS","pain","1","","76","L","3","","0","1","0","","0.260829927","false","174","","0.1019229976","main_expt","","0.4155511425","","0.1782801474","","0.260829927","","","","","",""
"38","","bandit","250","752077","0.0-212.0-0.0","50962972","wem/bandit_single","A27O2IILV3S5YS","pain","1","","76","L","3","","0","0","1","","0.1608433896","false","175","","0.1270031357","main_expt","","0.4391025654","","0.1723114597","","0.1608433896","","","","","",""
"371","","bandit","251","754230","0.0-213.0-0.0","50962972","wem/bandit_single","A27O2IILV3S5YS","pain","1","","72","H","0","img/none_selected.jpg","0","0","1","","0.1519507126","false","176","","0.1519507126","main_expt","","0.4654332747","","0.1714247165","","0.1924323662","","","","","",""
"235","","bandit","252","756276","0.0-214.0-0.0","50962972","wem/bandit_single","A27O2IILV3S5YS","pain","1","","76","L","3","","0","0","1","","0.1942299772","false","177","","0.2645819263","main_expt","","0.4862166952","","0.2003569552","","0.1942299772","","","","","",""
"40","","bandit","253","758095","0.0-215.0-0.0","50962972","wem/bandit_single","A27O2IILV3S5YS","pain","1","","76","L","3","","0","0","1","","0.2266891382","false","178","","0.2497033982","main_expt","","0.4878504479","","0.1848954505","","0.2266891382","","","","","",""
"368","","bandit","254","760237","0.0-216.0-0.0","50962972","wem/bandit_single","A27O2IILV3S5YS","pain","1","","75","K","2","","0","0","1","","0.120488448","false","179","","0.2464833147","main_expt","","0.4925433574","","0.120488448","","0.193755509","","","","","",""
"578","","bandit","255","762592","0.0-217.0-0.0","50962972","wem/bandit_single","A27O2IILV3S5YS","pain","1","","74","J","1","","0","1","0","","0.4863546804","false","180","","0.191435525","main_expt","","0.4863546804","","0.09518531587","","0.2143300014","","","","","",""
"30","","bandit","256","764561","0.0-218.0-0.0","50962972","wem/bandit_single","A27O2IILV3S5YS","pain","1","","74","J","1","","0","1","0","","0.4898831258","false","181","","0.2095150634","main_expt","","0.4898831258","","0.1110105533","","0.1996101457","","","","","",""
"94","","bandit","257","766432","0.0-219.0-0.0","50962972","wem/bandit_single","A27O2IILV3S5YS","pain","1","","74","J","1","","0","1","0","","0.4702328405","false","182","","0.2238619417","main_expt","","0.4702328405","","0.1321710188","","0.220362663","","","","","",""
"1","","bandit","258","768413","0.0-220.0-0.0","50962972","wem/bandit_single","A27O2IILV3S5YS","pain","1","","74","J","1","","0","1","0","","0.4443650637","false","183","","0.172430875","main_expt","","0.4443650637","","0.07205074818","","0.2087999581","","","","","",""
"17","","bandit","259","770207","0.0-221.0-0.0","50962972","wem/bandit_single","A27O2IILV3S5YS","pain","1","","74","J","1","","0","0","1","","0.4395551327","false","184","","0.1537152065","main_expt","","0.4395551327","","0.08140980564","","0.2693368533","","","","","",""
"129","","bandit","260","772433","0.0-222.0-0.0","50962972","wem/bandit_single","A27O2IILV3S5YS","pain","1","","75","K","2","","0","0","1","","0.07005875891","false","185","","0.1089078126","main_expt","","0.427498872","","0.07005875891","","0.3177788722","","","","","",""
"78","","bandit","261","774318","0.0-223.0-0.0","50962972","wem/bandit_single","A27O2IILV3S5YS","pain","1","","76","L","3","","0","1","0","","0.3093747324","false","186","","0.1150542287","main_expt","","0.4126395781","","0.04712836877","","0.3093747324","","","","","",""
"45","","bandit","262","776145","0.0-224.0-0.0","50962972","wem/bandit_single","A27O2IILV3S5YS","pain","1","","76","L","3","","0","0","1","","0.3361469263","false","187","","0.07877539194","main_expt","","0.4059631444","","0.07097221374","","0.3361469263","","","","","",""
"30","","bandit","263","777949","0.0-225.0-0.0","50962972","wem/bandit_single","A27O2IILV3S5YS","pain","1","","75","K","2","","0","0","1","","0.04255461481","false","188","","0.06234325246","main_expt","","0.4007853126","","0.04255461481","","0.3096611705","","","","","",""
"33","","bandit","264","779759","0.0-226.0-0.0","50962972","wem/bandit_single","A27O2IILV3S5YS","pain","1","","74","J","1","","0","0","1","","0.4208201059","false","189","","0.07748383332","main_expt","","0.4208201059","","0.03834091028","","0.298651231","","","","","",""
"3","","bandit","265","781540","0.0-227.0-0.0","50962972","wem/bandit_single","A27O2IILV3S5YS","pain","1","","74","J","1","","0","0","1","","0.4249824956","false","190","","0.08864116925","main_expt","","0.4249824956","","0.03101500858","","0.3361123746","","","","","",""
"118","","bandit","266","783440","0.0-228.0-0.0","50962972","wem/bandit_single","A27O2IILV3S5YS","pain","1","","72","H","0","img/none_selected.jpg","0","0","1","","0.1114019665","false","191","","0.1114019665","main_expt","","0.4519194686","","0.05137759752","","0.3529126189","","","","","",""
"122","","bandit","267","785346","0.0-229.0-0.0","50962972","wem/bandit_single","A27O2IILV3S5YS","pain","1","","74","J","1","","0","1","0","","0.449072141","false","192","","0.0944181321","main_expt","","0.449072141","","0.05101019331","","0.3806900048","","","","","",""
"233","","bandit","268","787377","0.0-230.0-0.0","50962972","wem/bandit_single","A27O2IILV3S5YS","pain","1","","74","J","1","","0","0","1","","0.4069092802","false","193","","0.09015445577","main_expt","","0.4069092802","","0.0408087357","","0.3191299148","","","","","",""
"203","","bandit","269","789361","0.0-231.0-0.0","50962972","wem/bandit_single","A27O2IILV3S5YS","pain","1","","75","K","2","","0","0","1","","0.04787233925","false","194","","0.09569888082","main_expt","","0.399300076","","0.04787233925","","0.3350705725","","","","","",""
"186","","bandit","270","791325","0.0-232.0-0.0","50962972","wem/bandit_single","A27O2IILV3S5YS","pain","1","","75","K","2","","0","0","1","","0.07297342555","false","195","","0.1521563302","main_expt","","0.4028519225","","0.07297342555","","0.3579412151","","","","","",""
"93","","bandit","271","793347","0.0-233.0-0.0","50962972","wem/bandit_single","A27O2IILV3S5YS","pain","1","","75","K","2","","0","0","1","","0.1090796252","false","196","","0.1612876033","main_expt","","0.3708283831","","0.1090796252","","0.4135102269","","","","","",""
"15","","bandit","272","795140","0.0-234.0-0.0","50962972","wem/bandit_single","A27O2IILV3S5YS","pain","1","","76","L","3","","0","1","0","","0.4368922102","false","197","","0.1818980103","main_expt","","0.3992028251","","0.1141593934","","0.4368922102","","","","","",""
"485","","bandit","273","797405","0.0-235.0-0.0","50962972","wem/bandit_single","A27O2IILV3S5YS","pain","1","","76","L","3","","0","0","1","","0.4329908538","false","198","","0.1426991491","main_expt","","0.3662313723","","0.1247063377","","0.4329908538","","","","","",""
"302","","bandit","274","799488","0.0-236.0-0.0","50962972","wem/bandit_single","A27O2IILV3S5YS","pain","1","","75","K","2","","0","0","1","","0.1324590526","false","199","","0.1339470975","main_expt","","0.3667285709","","0.1324590526","","0.4458308372","","","","","",""
"39","","bandit","275","801312","0.0-237.0-0.0","50962972","wem/bandit_single","A27O2IILV3S5YS","pain","1","","74","J","1","","0","1","0","","0.365396467","false","200","","0.1615481579","main_expt","","0.365396467","","0.1062358191","","0.4535445428","","","","","",""
"137","","bandit","276","803234","0.0-238.0-0.0","50962972","wem/bandit_single","A27O2IILV3S5YS","pain","1","","72","H","0","img/none_selected.jpg","0","0","1","","0.1889616495","false","201","","0.1889616495","main_expt","","0.3413602931","","0.1027729413","","0.4258040833","","","","","",""
"392","","bandit","277","805404","0.0-239.0-0.0","50962972","wem/bandit_single","A27O2IILV3S5YS","pain","1","","74","J","1","","0","0","1","","0.3655369163","false","202","","0.2043886565","main_expt","","0.3655369163","","0.09207086273","","0.413157784","","","","","",""
"152","","bandit","278","807420","0.0-240.0-0.0","50962972","wem/bandit_single","A27O2IILV3S5YS","pain","1","","75","K","2","","0","0","1","","0.1409949376","false","203","","0.2274570119","main_expt","","0.3301706169","","0.1409949376","","0.358983575","","","","","",""
"236","","bandit","279","809439","0.0-241.0-0.0","50962972","wem/bandit_single","A27O2IILV3S5YS","pain","1","","76","L","3","","0","1","0","","0.3354839288","false","204","","0.1795680912","main_expt","","0.3305557625","","0.2067441942","","0.3354839288","","","","","",""
"1","","bandit","280","811409","0.0-242.0-0.0","50962972","wem/bandit_single","A27O2IILV3S5YS","pain","1","","76","L","3","","0","0","1","","0.3814446138","false","205","","0.1823506393","main_expt","","0.3332543728","","0.2171549514","","0.3814446138","","","","","",""
"14","","bandit","281","813358","0.0-243.0-0.0","50962972","wem/bandit_single","A27O2IILV3S5YS","pain","1","","75","K","2","","0","0","1","","0.1399251859","false","206","","0.1401809595","main_expt","","0.270761893","","0.1399251859","","0.4069937863","","","","","",""
"167","","bandit","282","815312","0.0-244.0-0.0","50962972","wem/bandit_single","A27O2IILV3S5YS","pain","1","","74","J","1","","0","0","1","","0.2595670132","false","207","","0.1651993972","main_expt","","0.2595670132","","0.1700254018","","0.4261201247","","","","","",""
"105","","bandit","283","817196","0.0-245.0-0.0","50962972","wem/bandit_single","A27O2IILV3S5YS","pain","1","","75","K","2","","0","1","0","","0.1831619311","false","208","","0.1803987852","main_expt","","0.2772442529","","0.1831619311","","0.4105702951","","","","","",""
"45","","bandit","284","819034","0.0-246.0-0.0","50962972","wem/bandit_single","A27O2IILV3S5YS","pain","1","","75","K","2","","0","0","1","","0.151215806","false","209","","0.1470434113","main_expt","","0.2654441326","","0.151215806","","0.402481318","","","","","",""
"135","","bandit","285","820958","0.0-247.0-0.0","50962972","wem/bandit_single","A27O2IILV3S5YS","pain","1","","76","L","3","","0","0","1","","0.4378094136","false","210","","0.1375860563","main_expt","","0.2475709295","","0.1841878728","","0.4378094136","","","","","",""
"184","","bandit","286","822920","0.0-248.0-0.0","50962972","wem/bandit_single","A27O2IILV3S5YS","pain","1","","75","K","2","","0","1","0","","0.190591144","false","211","","0.1181257803","main_expt","","0.1836637302","","0.190591144","","0.4174257438","","","","","",""
"151","","bandit","287","824879","0.0-249.0-0.0","50962972","wem/bandit_single","A27O2IILV3S5YS","pain","1","","75","K","2","","0","0","1","","0.2024219406","false","212","","0.1284194295","main_expt","","0.2018671691","","0.2024219406","","0.4235695044","","","","","",""
"1800","","bandit","288","828479","0.0-250.0-0.0","50962972","wem/bandit_single","A27O2IILV3S5YS","pain","1","","75","K","2","","0","0","1","","0.1985525674","false","213","","0.1088774305","main_expt","","0.1807811906","","0.1985525674","","0.4112054282","","","","","",""
"6","","bandit","289","830278","0.0-251.0-0.0","50962972","wem/bandit_single","A27O2IILV3S5YS","pain","1","","76","L","3","","0","0","1","","0.3986702209","false","214","","0.07230623063","main_expt","","0.2432807767","","0.1940352924","","0.3986702209","","","","","",""
"2","","bandit","290","832345","0.0-252.0-0.0","50962972","wem/bandit_single","A27O2IILV3S5YS","pain","1","","76","L","3","","0","1","0","","0.4379561577","false","215","","0.07963887701","main_expt","","0.2167976264","","0.1155678072","","0.4379561577","","","","","",""
"107","","bandit","291","834293","0.0-253.0-0.0","50962972","wem/bandit_single","A27O2IILV3S5YS","pain","1","","76","L","3","","0","1","0","","0.425003275","false","216","","0.0792987172","main_expt","","0.2963745884","","0.08288275022","","0.425003275","","","","","",""
"109","","bandit","292","836186","0.0-254.0-0.0","50962972","wem/bandit_single","A27O2IILV3S5YS","pain","1","","76","L","3","","0","1","0","","0.4398514333","false","217","","0.07576557353","main_expt","","0.2704200786","","0.1108164962","","0.4398514333","","","","","",""
"16","","bandit","293","837982","0.0-255.0-0.0","50962972","wem/bandit_single","A27O2IILV3S5YS","pain","1","","76","L","3","","0","1","0","","0.4307107256","false","218","","0.05946619603","main_expt","","0.2057322541","","0.1166222362","","0.4307107256","","","","","",""
"164","","bandit","294","839929","0.0-256.0-0.0","50962972","wem/bandit_single","A27O2IILV3S5YS","pain","1","","76","L","3","","0","1","0","","0.4236121262","false","219","","0.07419684477","main_expt","","0.2143414454","","0.1441412427","","0.4236121262","","","","","",""
"153","","bandit","295","842226","0.0-257.0-0.0","50962972","wem/bandit_single","A27O2IILV3S5YS","pain","1","","76","L","3","","0","0","1","","0.4020148519","false","220","","0.09297922461","main_expt","","0.1630835619","","0.1460318591","","0.4020148519","","","","","",""
"128","","bandit","296","844137","0.0-258.0-0.0","50962972","wem/bandit_single","A27O2IILV3S5YS","pain","1","","76","L","3","","0","1","0","","0.4073181559","false","221","","0.1429286242","main_expt","","0.1536312793","","0.1068666799","","0.4073181559","","","","","",""
"0","","bandit","297","846323","0.0-259.0-0.0","50962972","wem/bandit_single","A27O2IILV3S5YS","pain","1","","76","L","3","","0","1","0","","0.3651123295","false","222","","0.1708286753","main_expt","","0.2214617817","","0.1101844092","","0.3651123295","","","","","",""
"14","","bandit","298","848187","0.0-260.0-0.0","50962972","wem/bandit_single","A27O2IILV3S5YS","pain","1","","76","L","3","","0","0","1","","0.3836441325","false","223","","0.1461267001","main_expt","","0.2273662723","","0.0707480467","","0.3836441325","","","","","",""
"142","","bandit","299","850119","0.0-261.0-0.0","50962972","wem/bandit_single","A27O2IILV3S5YS","pain","1","","75","K","2","","0","0","1","","0.06117493494","false","224","","0.144808321","main_expt","","0.1894352557","","0.06117493494","","0.3982756155","","","","","",""
"234","","bandit","300","852148","0.0-262.0-0.0","50962972","wem/bandit_single","A27O2IILV3S5YS","pain","1","","72","H","0","img/none_selected.jpg","0","0","1","","0.1890777341","false","225","","0.1890777341","main_expt","","0.1292085382","","0.0615688762","","0.3942448394","","","","","",""
"14","","bandit","301","853944","0.0-263.0-0.0","50962972","wem/bandit_single","A27O2IILV3S5YS","pain","1","","74","J","1","","0","0","1","","0.1530858041","false","226","","0.1442837472","main_expt","","0.1530858041","","0.05052633559","","0.4169515918","","","","","",""
"32","","bandit","302","855797","0.0-264.0-0.0","50962972","wem/bandit_single","A27O2IILV3S5YS","pain","1","","74","J","1","","0","0","1","","0.1593334253","false","227","","0.1425852804","main_expt","","0.1593334253","","0.05726050712","","0.4204191544","","","","","",""
"31","","bandit","303","857607","0.0-265.0-0.0","50962972","wem/bandit_single","A27O2IILV3S5YS","pain","1","","75","K","2","","0","0","1","","0.0758768547","false","228","","0.1116716659","main_expt","","0.1247523642","","0.0758768547","","0.4091886","","","","","",""
"24","","bandit","304","859655","0.0-266.0-0.0","50962972","wem/bandit_single","A27O2IILV3S5YS","pain","1","","75","K","2","","0","0","1","","0.07022353505","false","229","","0.1206121499","main_expt","","0.1463700977","","0.07022353505","","0.407276644","","","","","",""
"14","","bandit","305","861448","0.0-267.0-0.0","50962972","wem/bandit_single","A27O2IILV3S5YS","pain","1","","76","L","3","","0","1","0","","0.4254558538","false","230","","0.1168532629","main_expt","","0.1402324221","","0.06577032649","","0.4254558538","","","","","",""
"41","","bandit","306","863281","0.0-268.0-0.0","50962972","wem/bandit_single","A27O2IILV3S5YS","pain","1","","76","L","3","","0","1","0","","0.4259586803","false","231","","0.0916199044","main_expt","","0.1914784592","","0.06313303242","","0.4259586803","","","","","",""
"34","","bandit","307","865096","0.0-269.0-0.0","50962972","wem/bandit_single","A27O2IILV3S5YS","pain","1","","76","L","3","","0","0","1","","0.4429649496","false","232","","0.09573807812","main_expt","","0.1507361932","","0.05490827263","","0.4429649496","","","","","",""
"356","","bandit","308","867526","0.0-270.0-0.0","50962972","wem/bandit_single","A27O2IILV3S5YS","pain","1","","75","K","2","","0","0","1","","0.04200611561","false","233","","0.1246926578","main_expt","","0.1902650793","","0.04200611561","","0.4456598826","","","","","",""
"75","","bandit","309","869383","0.0-271.0-0.0","50962972","wem/bandit_single","A27O2IILV3S5YS","pain","1","","72","H","0","img/none_selected.jpg","0","0","1","","0.122457211","false","234","","0.122457211","main_expt","","0.2663902881","","0.0550058871","","0.4504169918","","","","","",""
"42572","","bandit","310","913823","0.0-272.0-0.0","50962972","wem/bandit_single","A27O2IILV3S5YS","pain","1","","72","H","0","img/none_selected.jpg","0","0","1","","0.1561374187","false","235","","0.1561374187","main_expt","","0.257874652","","0.06273227262","","0.4255816076","","","","","",""
"89","","bandit","311","915703","0.0-273.0-0.0","50962972","wem/bandit_single","A27O2IILV3S5YS","pain","1","","74","J","1","","0","0","1","","0.2134416149","false","236","","0.1726763947","main_expt","","0.2134416149","","0.09869136657","","0.4262424011","","","","","",""
"247","","bandit","312","917734","0.0-274.0-0.0","50962972","wem/bandit_single","A27O2IILV3S5YS","pain","1","","75","K","2","","0","0","1","","0.06464195797","false","237","","0.163453789","main_expt","","0.1655180868","","0.06464195797","","0.4314914545","","","","","",""
"122","","bandit","313","919636","0.0-275.0-0.0","50962972","wem/bandit_single","A27O2IILV3S5YS","pain","1","","74","J","1","","0","0","1","","0.1528926348","false","238","","0.1511244057","main_expt","","0.1528926348","","0.1092425733","","0.4580147213","","","","","",""
"107","","bandit","314","921842","0.0-276.0-0.0","50962972","wem/bandit_single","A27O2IILV3S5YS","pain","1","","76","L","3","","0","0","1","","0.4437162142","false","239","","0.1170855371","main_expt","","0.1594670864","","0.08920017271","","0.4437162142","","","","","",""
"269","","bandit","315","923895","0.0-277.0-0.0","50962972","wem/bandit_single","A27O2IILV3S5YS","pain","1","","76","L","3","","0","1","0","","0.4423909474","false","240","","0.1281478965","main_expt","","0.104293197","","0.138477068","","0.4423909474","","","","","",""
"16","","bandit","316","925858","0.0-278.0-0.0","50962972","wem/bandit_single","A27O2IILV3S5YS","pain","1","","76","L","3","","0","1","0","","0.4542424264","false","241","","0.1579661802","main_expt","","0.07968297136","","0.1249513709","","0.4542424264","","","","","",""
"414","","bandit","317","928052","0.0-279.0-0.0","50962972","wem/bandit_single","A27O2IILV3S5YS","pain","1","","76","L","3","","0","1","0","","0.4659063812","false","242","","0.1345462726","main_expt","","0.07079416442","","0.09754639251","","0.4659063812","","","","","",""
"138","","bandit","318","929973","0.0-280.0-0.0","50962972","wem/bandit_single","A27O2IILV3S5YS","pain","1","","76","L","3","","0","1","0","","0.4702771719","false","243","","0.1793426478","main_expt","","0.08709770617","","0.1223474156","","0.4702771719","","","","","",""
"73","","bandit","319","931830","0.0-281.0-0.0","50962972","wem/bandit_single","A27O2IILV3S5YS","pain","1","","76","L","3","","0","1","0","","0.4678480784","false","244","","0.1623289848","main_expt","","0.08252109256","","0.1004902073","","0.4678480784","","","","","",""
"52","","bandit","320","933667","0.0-282.0-0.0","50962972","wem/bandit_single","A27O2IILV3S5YS","pain","1","","76","L","3","","0","1","0","","0.4608336118","false","245","","0.1638267454","main_expt","","0.07130924754","","0.09372717231","","0.4608336118","","","","","",""
"201","","bandit","321","935879","0.0-283.0-0.0","50962972","wem/bandit_single","A27O2IILV3S5YS","pain","1","","76","L","3","","0","0","1","","0.4455928316","false","246","","0.1794660524","main_expt","","0.06886742221","","0.1004977064","","0.4455928316","","","","","",""
"54","","bandit","322","937735","0.0-284.0-0.0","50962972","wem/bandit_single","A27O2IILV3S5YS","pain","1","","76","L","3","","0","1","0","","0.4322927154","false","247","","0.1751092572","main_expt","","0.064138504","","0.09336015453","","0.4322927154","","","","","",""
"0","","bandit","323","939869","0.0-285.0-0.0","50962972","wem/bandit_single","A27O2IILV3S5YS","pain","1","","76","L","3","","0","0","1","","0.4293825987","false","248","","0.188480637","main_expt","","0.05051083443","","0.09552903486","","0.4293825987","","","","","",""
"18","","bandit","324","941871","0.0-286.0-0.0","50962972","wem/bandit_single","A27O2IILV3S5YS","pain","1","","75","K","2","","0","0","1","","0.1087111068","false","249","","0.1718025207","main_expt","","0.05514480776","","0.1087111068","","0.4338924945","","","","","",""
"27","","bandit","325","943684","0.0-287.0-0.0","50962972","wem/bandit_single","A27O2IILV3S5YS","pain","1","","74","J","1","","0","0","1","","0.02780796002","false","250","","0.1377417152","main_expt","","0.02780796002","","0.08296073337","","0.4356531551","","","","","",""
"47","","bandit","326","945528","0.0-288.0-0.0","50962972","wem/bandit_single","A27O2IILV3S5YS","pain","1","","72","H","0","img/none_selected.jpg","0","0","1","","0.1623098307","false","251","","0.1623098307","main_expt","","0.02786711831","","0.08988728922","","0.4561881598","","","","","",""
"197","","bandit","327","947506","0.0-289.0-0.0","50962972","wem/bandit_single","A27O2IILV3S5YS","pain","1","","76","L","3","","0","0","1","","0.4517263236","false","252","","0.1702242208","main_expt","","0.03881205422","","0.07043490844","","0.4517263236","","","","","",""
"86","","bandit","328","949379","0.0-290.0-0.0","50962972","wem/bandit_single","A27O2IILV3S5YS","pain","1","","76","L","3","","0","1","0","","0.4280730872","false","253","","0.1571297736","main_expt","","0.03211176865","","0.06648959932","","0.4280730872","","","","","",""
"25","","bandit","329","951186","0.0-291.0-0.0","50962972","wem/bandit_single","A27O2IILV3S5YS","pain","1","","76","L","3","","0","0","1","","0.3976691957","false","254","","0.1311762281","main_expt","","0.02501863174","","0.04750248463","","0.3976691957","","","","","",""
"25","","bandit","330","953010","0.0-292.0-0.0","50962972","wem/bandit_single","A27O2IILV3S5YS","pain","1","","76","L","3","","0","1","0","","0.3920211634","false","255","","0.1262313745","main_expt","","0.03845468041","","0.0685067328","","0.3920211634","","","","","",""
"8","","bandit","331","954802","0.0-293.0-0.0","50962972","wem/bandit_single","A27O2IILV3S5YS","pain","1","","76","L","3","","0","1","0","","0.3802568344","false","256","","0.08888936201","main_expt","","0.03093107714","","0.06106940649","","0.3802568344","","","","","",""
"153","","bandit","332","956947","0.0-294.0-0.0","50962972","wem/bandit_single","A27O2IILV3S5YS","pain","1","","76","L","3","","0","0","1","","0.4153547565","false","257","","0.1016624202","main_expt","","0.02284381284","","0.03925251802","","0.4153547565","","","","","",""
"120","","bandit","333","958851","0.0-295.0-0.0","50962972","wem/bandit_single","A27O2IILV3S5YS","pain","1","","75","K","2","","0","0","1","","0.07528758783","false","258","","0.1201960749","main_expt","","0.01195927332","","0.07528758783","","0.412770775","","","","","",""
"41","","bandit","334","960675","0.0-296.0-0.0","50962972","wem/bandit_single","A27O2IILV3S5YS","pain","1","","74","J","1","","0","0","1","","0.009837890866","false","259","","0.09869940493","main_expt","","0.009837890866","","0.06168900656","","0.4364469878","","","","","",""
"23","","bandit","335","962483","0.0-297.0-0.0","50962972","wem/bandit_single","A27O2IILV3S5YS","pain","1","","74","J","1","","0","0","1","","0.01652501309","false","260","","0.140367269","main_expt","","0.01652501309","","0.05358732337","","0.4143686848","","","","","",""
"0","","bandit","336","964547","0.0-298.0-0.0","50962972","wem/bandit_single","A27O2IILV3S5YS","pain","1","","75","K","2","","0","0","1","","0.05974294151","false","261","","0.107121031","main_expt","","0.0246934762","","0.05974294151","","0.3932103286","","","","","",""
"90","","bandit","337","966718","0.0-299.0-0.0","50962972","wem/bandit_single","A27O2IILV3S5YS","pain","1","","76","L","3","","0","1","0","","0.4299042069","false","262","","0.142880744","main_expt","","0.02217338967","","0.0656558392","","0.4299042069","","","","","",""
"23","","bandit","338","968532","0.0-300.0-0.0","50962972","wem/bandit_single","A27O2IILV3S5YS","pain","1","","76","L","3","","0","1","0","","0.3864913748","false","263","","0.1398656543","main_expt","","0.02538488248","","0.08006927963","","0.3864913748","","","","","",""
"102","","bandit","339","970416","0.0-301.0-0.0","50962972","wem/bandit_single","A27O2IILV3S5YS","pain","1","","76","L","3","","0","0","1","","0.3721946297","false","264","","0.185630342","main_expt","","0.03542132602","","0.07803510261","","0.3721946297","","","","","",""
"119","","bandit","340","972322","0.0-302.0-0.0","50962972","wem/bandit_single","A27O2IILV3S5YS","pain","1","","76","L","3","","0","1","0","","0.3326379545","false","265","","0.1483619715","main_expt","","0.03052618628","","0.08917846028","","0.3326379545","","","","","",""
"6","","bandit","341","974116","0.0-303.0-0.0","50962972","wem/bandit_single","A27O2IILV3S5YS","pain","1","","76","L","3","","0","0","1","","0.3337002386","false","266","","0.1677753502","main_expt","","0.02388326919","","0.1562168236","","0.3337002386","","","","","",""
"85","","bandit","342","975987","0.0-304.0-0.0","50962972","wem/bandit_single","A27O2IILV3S5YS","pain","1","","75","K","2","","0","0","1","","0.1873085091","false","267","","0.1748953786","main_expt","","0.01496915784","","0.1873085091","","0.3044940876","","","","","",""
"0","","bandit","343","978118","0.0-305.0-0.0","50962972","wem/bandit_single","A27O2IILV3S5YS","pain","1","","74","J","1","","0","0","1","","0.01735494223","false","268","","0.152215306","main_expt","","0.01735494223","","0.1850807086","","0.2966269971","","","","","",""
"67","","bandit","344","979973","0.0-306.0-0.0","50962972","wem/bandit_single","A27O2IILV3S5YS","pain","1","","72","H","0","img/none_selected.jpg","0","0","1","","0.1420691147","false","269","","0.1420691147","main_expt","","0.01365938384","","0.1461958128","","0.2617435325","","","","","",""
"1","","bandit","345","982114","0.0-307.0-0.0","50962972","wem/bandit_single","A27O2IILV3S5YS","pain","1","","74","J","1","","0","0","1","","0.01871615964","false","270","","0.1338049101","main_expt","","0.01871615964","","0.1348565207","","0.2599280147","","","","","",""
"181","","bandit","346","984082","0.0-308.0-0.0","50962972","wem/bandit_single","A27O2IILV3S5YS","pain","1","","75","K","2","","0","0","1","","0.1588166083","false","271","","0.1178923734","main_expt","","0.01663887187","","0.1588166083","","0.2499936179","","","","","",""
"84","","bandit","347","985954","0.0-309.0-0.0","50962972","wem/bandit_single","A27O2IILV3S5YS","pain","1","","75","K","2","","0","0","1","","0.1288650497","false","272","","0.1436833609","main_expt","","0.01973971225","","0.1288650497","","0.2703142459","","","","","",""
"114","","bandit","348","987866","0.0-310.0-0.0","50962972","wem/bandit_single","A27O2IILV3S5YS","pain","1","","76","L","3","","0","1","0","","0.2835249431","false","273","","0.1917782062","main_expt","","0.01954424634","","0.1414039315","","0.2835249431","","","","","",""
"349","","bandit","349","990000","0.0-311.0-0.0","50962972","wem/bandit_single","A27O2IILV3S5YS","pain","1","","76","L","3","","0","0","1","","0.2906451875","false","274","","0.1657285368","main_expt","","0.008862655739","","0.1132613661","","0.2906451875","","","","","",""
"1160","","bandit","350","992946","0.0-312.0-0.0","50962972","wem/bandit_single","A27O2IILV3S5YS","pain","1","","76","L","3","","0","1","0","","0.2670480505","false","275","","0.1420329436","main_expt","","0.0094605031","","0.1396690899","","0.2670480505","","","","","",""
"836","","bandit","351","995585","0.0-313.0-0.0","50962972","wem/bandit_single","A27O2IILV3S5YS","pain","1","","76","L","3","","0","1","0","","0.2358592403","false","276","","0.1369756733","main_expt","","0.01191149084","","0.1109816737","","0.2358592403","","","","","",""
"1029","","bandit","352","998404","0.0-314.0-0.0","50962972","wem/bandit_single","A27O2IILV3S5YS","pain","1","","76","L","3","","0","0","1","","0.1877967456","false","277","","0.1781068979","main_expt","","0.00904810236","","0.08046464388","","0.1877967456","","","","","",""
"1058","","bandit","353","1001537","0.0-315.0-0.0","50962972","wem/bandit_single","A27O2IILV3S5YS","pain","1","","76","L","3","","0","0","1","","0.1537245983","false","278","","0.248352092","main_expt","","0.007795284796","","0.07407019324","","0.1537245983","","","","","",""
"988","","bandit","354","1004311","0.0-316.0-0.0","50962972","wem/bandit_single","A27O2IILV3S5YS","pain","1","","75","K","2","","0","0","1","","0.06478755197","false","279","","0.263219496","main_expt","","0.01747653863","","0.06478755197","","0.1662011111","","","","","",""
"1393","","bandit","355","1007494","0.0-317.0-0.0","50962972","wem/bandit_single","A27O2IILV3S5YS","pain","1","","74","J","1","","0","0","1","","0.02326096521","false","280","","0.210776847","main_expt","","0.02326096521","","0.04895059186","","0.1622625537","","","","","",""
"1026","","bandit","356","1010312","0.0-318.0-0.0","50962972","wem/bandit_single","A27O2IILV3S5YS","pain","1","","74","J","1","","0","0","1","","0.03290281633","false","281","","0.1901401854","main_expt","","0.03290281633","","0.04598133094","","0.2160365104","","","","","",""
"370","","bandit","357","1012470","0.0-319.0-0.0","50962972","wem/bandit_single","A27O2IILV3S5YS","pain","1","","72","H","0","img/none_selected.jpg","0","0","1","","0.1692674388","false","282","","0.1692674388","main_expt","","0.03647511751","","0.0454431083","","0.2031844556","","","","","",""
"757","","bandit","358","1015013","0.0-320.0-0.0","50962972","wem/bandit_single","A27O2IILV3S5YS","pain","1","","74","J","1","","0","0","1","","0.0381479171","false","283","","0.1697823826","main_expt","","0.0381479171","","0.0377119091","","0.236778666","","","","","",""
"333","","bandit","359","1017465","0.0-321.0-0.0","50962972","wem/bandit_single","A27O2IILV3S5YS","pain","1","","75","K","2","","0","0","1","","0.0346676025","false","284","","0.1647860582","main_expt","","0.04237273713","","0.0346676025","","0.2082896542","","","","","",""
"438","","bandit","360","1020035","0.0-322.0-0.0","50962972","wem/bandit_single","A27O2IILV3S5YS","pain","1","","76","L","3","","0","0","1","","0.1682052712","false","285","","0.2346467376","main_expt","","0.08736605616","","0.03394591187","","0.1682052712","","","","","",""
"407","","bandit","361","1022475","0.0-323.0-0.0","50962972","wem/bandit_single","A27O2IILV3S5YS","pain","1","","76","L","3","","0","0","1","","0.1287852917","false","286","","0.1651037306","main_expt","","0.149418319","","0.03437308726","","0.1287852917","","","","","",""
"238","","bandit","362","1024503","0.0-324.0-0.0","50962972","wem/bandit_single","A27O2IILV3S5YS","pain","1","","76","L","3","","0","0","1","","0.0739145169","false","287","","0.113933185","main_expt","","0.2149685411","","0.043905831","","0.0739145169","","","","","",""
"670","","bandit","363","1027054","0.0-325.0-0.0","50962972","wem/bandit_single","A27O2IILV3S5YS","pain","1","","76","L","3","","0","0","1","","0.08295252225","false","288","","0.08260993421","main_expt","","0.181398065","","0.02064047927","","0.08295252225","","","","","",""
"604","","bandit","364","1029617","0.0-326.0-0.0","50962972","wem/bandit_single","A27O2IILV3S5YS","pain","1","","75","K","2","","0","0","1","","0.0250169619","false","289","","0.07260323305","main_expt","","0.1523032639","","0.0250169619","","0.0479508895","","","","","",""
"536","","bandit","365","1031942","0.0-327.0-0.0","50962972","wem/bandit_single","A27O2IILV3S5YS","pain","1","","74","J","1","","0","0","1","","0.1404761367","false","290","","0.06306400378","main_expt","","0.1404761367","","0.04785043425","","0.05498143303","","","","","",""
"306","","bandit","366","1034042","0.0-328.0-0.0","50962972","wem/bandit_single","A27O2IILV3S5YS","pain","1","","72","H","0","img/none_selected.jpg","0","0","1","","0.06173149747","false","291","","0.06173149747","main_expt","","0.1639955189","","0.05997729544","","0.06238518006","","","","","",""
"206","","bandit","367","1036035","0.0-329.0-0.0","50962972","wem/bandit_single","A27O2IILV3S5YS","pain","1","","74","J","1","","0","0","1","","0.1365824739","false","292","","0.049421281","main_expt","","0.1365824739","","0.08013724224","","0.06246846358","","","","","",""
"441","","bandit","368","1038268","0.0-330.0-0.0","50962972","wem/bandit_single","A27O2IILV3S5YS","pain","1","","75","K","2","","0","0","1","","0.08257915178","false","293","","0.04661139695","main_expt","","0.2190436779","","0.08257915178","","0.0635142122","","","","","",""
"620","","bandit","369","1040679","0.0-331.0-0.0","50962972","wem/bandit_single","A27O2IILV3S5YS","pain","1","","76","L","3","","0","0","1","","0.1078883856","false","294","","0.05266196286","main_expt","","0.2961987497","","0.07979116831","","0.1078883856","","","","","",""
"92","","bandit","370","1042562","0.0-332.0-0.0","50962972","wem/bandit_single","A27O2IILV3S5YS","pain","1","","75","K","2","","0","0","1","","0.1168190604","false","295","","0.0541153793","main_expt","","0.3422413176","","0.1168190604","","0.1065048767","","","","","",""
"117","","bandit","371","1044734","0.0-333.0-0.0","50962972","wem/bandit_single","A27O2IILV3S5YS","pain","1","","76","L","3","","0","0","1","","0.1528862056","false","296","","0.03514166697","main_expt","","0.3023757447","","0.1280513587","","0.1528862056","","","","","",""
"185","","bandit","372","1046709","0.0-334.0-0.0","50962972","wem/bandit_single","A27O2IILV3S5YS","pain","1","","75","K","2","","0","0","1","","0.1545711336","false","297","","0.0293008482","main_expt","","0.3744966898","","0.1545711336","","0.1655716118","","","","","",""
"1","","bandit","373","1048730","0.0-335.0-0.0","50962972","wem/bandit_single","A27O2IILV3S5YS","pain","1","","76","L","3","","0","0","1","","0.1725180782","false","298","","0.03311380314","main_expt","","0.3702548021","","0.1485956324","","0.1725180782","","","","","",""
"669","","bandit","374","1051191","0.0-336.0-0.0","50962972","wem/bandit_single","A27O2IILV3S5YS","pain","1","","75","K","2","","0","0","1","","0.1680902507","false","299","","0.02365994183","main_expt","","0.3675060033","","0.1680902507","","0.1569797065","","","","","",""
"224","","bandit","375","1053206","0.0-337.0-0.0","50962972","wem/bandit_single","A27O2IILV3S5YS","pain","1","","74","J","1","","0","0","1","","0.3623977575","false","300","","0.03748312384","main_expt","","0.3623977575","","0.1461034277","","0.2025314082","","","","","",""
