"rt","responses","trial_type","trial_index","time_elapsed","internal_node_id","subjID","study","MID","cond","drift","key_press","respCharCode","respKey","respChoiceNum","respChoice","gems","bombs","no_reward","GemPrChosen","BombPrChosen","practice","trial_counter","WinPr_0","LosePr_0","trial_label","WinPr_1","LosePr_1","WinPr_2","LosePr_2","WinPr_3","LosePr_3","Q0","Q1","Q2","gender","age","ethnicity"
"39543","{""Q0"":""ATKG4FI2S5MVL""}","survey-text","0","39549","0.0-0.0","52415738","wem/bandit_single","ATKG4FI2S5MVL","pain","8","","","","","","","","","","","","","","","","","","","","","","","","","","",""
"4335","","text","1","44889","0.0-1.0","52415738","wem/bandit_single","ATKG4FI2S5MVL","pain","8","32","","","","","","","","","","","","","","","","","","","","","","","","","",""
"2318","","text","2","47208","0.0-2.0","52415738","wem/bandit_single","ATKG4FI2S5MVL","pain","8","32","","","","","","","","","","","","","","","","","","","","","","","","","",""
"18898","","text","3","66107","0.0-3.0","52415738","wem/bandit_single","ATKG4FI2S5MVL","pain","8","32","","","","","","","","","","","","","","","","","","","","","","","","","",""
"14272","","text","4","80381","0.0-4.0","52415738","wem/bandit_single","ATKG4FI2S5MVL","pain","8","32","","","","","","","","","","","","","","","","","","","","","","","","","",""
"7122","","text","5","87503","0.0-5.0","52415738","wem/bandit_single","ATKG4FI2S5MVL","pain","8","32","","","","","","","","","","","","","","","","","","","","","","","","","",""
"8659","","text","6","96164","0.0-6.0","52415738","wem/bandit_single","ATKG4FI2S5MVL","pain","8","32","","","","","","","","","","","","","","","","","","","","","","","","","",""
"3678","","text","7","99843","0.0-7.0","52415738","wem/bandit_single","ATKG4FI2S5MVL","pain","8","32","","","","","","","","","","","","","","","","","","","","","","","","","",""
"2398","","text","8","102242","0.0-8.0","52415738","wem/bandit_single","ATKG4FI2S5MVL","pain","8","32","","","","","","","","","","","","","","","","","","","","","","","","","",""
"1279","","text","9","103523","0.0-9.0","52415738","wem/bandit_single","ATKG4FI2S5MVL","pain","8","32","","","","","","","","","","","","","","","","","","","","","","","","","",""
"2559","","text","10","106083","0.0-10.0","52415738","wem/bandit_single","ATKG4FI2S5MVL","pain","8","32","","","","","","","","","","","","","","","","","","","","","","","","","",""
"2383","","text","11","108467","0.0-11.0","52415738","wem/bandit_single","ATKG4FI2S5MVL","pain","8","32","","","","","","","","","","","","","","","","","","","","","","","","","",""
"1228","","bandit","12","111210","0.0-12.0-0.0","52415738","wem/bandit_single","ATKG4FI2S5MVL","pain","8","","74","J","0","img/none_selected_demo.jpg","0","0","1","0","0","true","0","0","0","","","","","","","","","","","","",""
"247","","bandit","13","113222","0.0-13.0-0.0","52415738","wem/bandit_single","ATKG4FI2S5MVL","pain","8","","75","K","0","img/none_selected_demo.jpg","0","0","1","0","0","true","0","0","0","","","","","","","","","","","","",""
"11259","","text","14","124735","0.0-14.0","52415738","wem/bandit_single","ATKG4FI2S5MVL","pain","8","32","","","","","","","","","","","","","","","","","","","","","","","","","",""
"2614","","text","15","127350","0.0-15.0","52415738","wem/bandit_single","ATKG4FI2S5MVL","pain","8","32","","","","","","","","","","","","","","","","","","","","","","","","","",""
"1726","","text","16","129077","0.0-16.0","52415738","wem/bandit_single","ATKG4FI2S5MVL","pain","8","32","","","","","","","","","","","","","","","","","","","","","","","","","",""
"1799","","text","17","130877","0.0-17.0","52415738","wem/bandit_single","ATKG4FI2S5MVL","pain","8","32","","","","","","","","","","","","","","","","","","","","","","","","","",""
"1125","","bandit","18","133511","0.0-18.0-0.0","52415738","wem/bandit_single","ATKG4FI2S5MVL","pain","8","","74","J","0","img/none_selected_demo.jpg","0","1","0","0","0.8","true","0","0","0.8","80_20_practice","0","0.2","","","","","","","","","",""
"422","","bandit","19","135693","0.0-18.0-1.0","52415738","wem/bandit_single","ATKG4FI2S5MVL","pain","8","","74","J","0","img/none_selected_demo.jpg","0","0","1","0","0.8","true","0","0","0.8","80_20_practice","0","0.2","","","","","","","","","",""
"422","","bandit","20","137880","0.0-18.0-2.0","52415738","wem/bandit_single","ATKG4FI2S5MVL","pain","8","","74","J","0","img/none_selected_demo.jpg","0","1","0","0","0.8","true","0","0","0.8","80_20_practice","0","0.2","","","","","","","","","",""
"418","","bandit","21","140065","0.0-18.0-3.0","52415738","wem/bandit_single","ATKG4FI2S5MVL","pain","8","","74","J","0","img/none_selected_demo.jpg","0","1","0","0","0.8","true","0","0","0.8","80_20_practice","0","0.2","","","","","","","","","",""
"601","","bandit","22","142433","0.0-18.0-4.0","52415738","wem/bandit_single","ATKG4FI2S5MVL","pain","8","","75","K","1","","0","1","0","0","0.2","true","0","0","0.8","80_20_practice","0","0.2","","","","","","","","","",""
"107","","bandit","23","144308","0.0-18.0-5.0","52415738","wem/bandit_single","ATKG4FI2S5MVL","pain","8","","75","K","1","","0","1","0","0","0.2","true","0","0","0.8","80_20_practice","0","0.2","","","","","","","","","",""
"568","","bandit","24","146639","0.0-18.0-6.0","52415738","wem/bandit_single","ATKG4FI2S5MVL","pain","8","","75","K","1","","0","0","1","0","0.2","true","0","0","0.8","80_20_practice","0","0.2","","","","","","","","","",""
"251","","bandit","25","148656","0.0-18.0-7.0","52415738","wem/bandit_single","ATKG4FI2S5MVL","pain","8","","75","K","1","","0","0","1","0","0.2","true","0","0","0.8","80_20_practice","0","0.2","","","","","","","","","",""
"372","","bandit","26","150789","0.0-18.0-8.0","52415738","wem/bandit_single","ATKG4FI2S5MVL","pain","8","","74","J","0","img/none_selected_demo.jpg","0","1","0","0","0.8","true","0","0","0.8","80_20_practice","0","0.2","","","","","","","","","",""
"338","","bandit","27","152886","0.0-18.0-9.0","52415738","wem/bandit_single","ATKG4FI2S5MVL","pain","8","","74","J","0","img/none_selected_demo.jpg","0","1","0","0","0.8","true","0","0","0.8","80_20_practice","0","0.2","","","","","","","","","",""
"191","","bandit","28","154840","0.0-18.0-10.0","52415738","wem/bandit_single","ATKG4FI2S5MVL","pain","8","","74","J","0","img/none_selected_demo.jpg","0","1","0","0","0.8","true","0","0","0.8","80_20_practice","0","0.2","","","","","","","","","",""
"526","","bandit","29","157130","0.0-18.0-11.0","52415738","wem/bandit_single","ATKG4FI2S5MVL","pain","8","","74","J","0","img/none_selected_demo.jpg","0","1","0","0","0.8","true","0","0","0.8","80_20_practice","0","0.2","","","","","","","","","",""
"614","","bandit","30","159504","0.0-18.0-12.0","52415738","wem/bandit_single","ATKG4FI2S5MVL","pain","8","","74","J","0","img/none_selected_demo.jpg","0","1","0","0","0.8","true","0","0","0.8","80_20_practice","0","0.2","","","","","","","","","",""
"309","","bandit","31","161573","0.0-18.0-13.0","52415738","wem/bandit_single","ATKG4FI2S5MVL","pain","8","","74","J","0","img/none_selected_demo.jpg","0","1","0","0","0.8","true","0","0","0.8","80_20_practice","0","0.2","","","","","","","","","",""
"536","","bandit","32","163870","0.0-18.0-14.0","52415738","wem/bandit_single","ATKG4FI2S5MVL","pain","8","","74","J","0","img/none_selected_demo.jpg","0","1","0","0","0.8","true","0","0","0.8","80_20_practice","0","0.2","","","","","","","","","",""
"118","","bandit","33","165751","0.0-18.0-15.0","52415738","wem/bandit_single","ATKG4FI2S5MVL","pain","8","","74","J","0","img/none_selected_demo.jpg","0","1","0","0","0.8","true","0","0","0.8","80_20_practice","0","0.2","","","","","","","","","",""
"468","","bandit","34","167985","0.0-18.0-16.0","52415738","wem/bandit_single","ATKG4FI2S5MVL","pain","8","","74","J","0","img/none_selected_demo.jpg","0","0","1","0","0.8","true","0","0","0.8","80_20_practice","0","0.2","","","","","","","","","",""
"1003","","bandit","35","170754","0.0-18.0-17.0","52415738","wem/bandit_single","ATKG4FI2S5MVL","pain","8","","74","J","0","img/none_selected_demo.jpg","0","0","1","0","0.8","true","0","0","0.8","80_20_practice","0","0.2","","","","","","","","","",""
"2895","","bandit","36","175415","0.0-18.0-18.0","52415738","wem/bandit_single","ATKG4FI2S5MVL","pain","8","","74","J","0","img/none_selected_demo.jpg","0","1","0","0","0.8","true","0","0","0.8","80_20_practice","0","0.2","","","","","","","","","",""
"512","","bandit","37","177693","0.0-18.0-19.0","52415738","wem/bandit_single","ATKG4FI2S5MVL","pain","8","","74","J","0","img/none_selected_demo.jpg","0","1","0","0","0.8","true","0","0","0.8","80_20_practice","0","0.2","","","","","","","","","",""
"5631","","text","38","183579","0.0-19.0","52415738","wem/bandit_single","ATKG4FI2S5MVL","pain","8","32","","","","","","","","","","","","","","","","","","","","","","","","","",""
"5053","","bandit","39","190139","0.0-20.0-0.0","52415738","wem/bandit_single","ATKG4FI2S5MVL","pain","8","","74","J","0","img/none_selected_demo.jpg","0","0","1","0","0","true","0","0","0","","0","0","","","","","","","","","",""
"10640","","text","40","201036","0.0-21.0","52415738","wem/bandit_single","ATKG4FI2S5MVL","pain","8","32","","","","","","","","","","","","","","","","","","","","","","","","","",""
"2797","","text","41","203835","0.0-22.0","52415738","wem/bandit_single","ATKG4FI2S5MVL","pain","8","32","","","","","","","","","","","","","","","","","","","","","","","","","",""
"1886","","text","42","205723","0.0-23.0","52415738","wem/bandit_single","ATKG4FI2S5MVL","pain","8","32","","","","","","","","","","","","","","","","","","","","","","","","","",""
"1182","","text","43","206907","0.0-24.0","52415738","wem/bandit_single","ATKG4FI2S5MVL","pain","8","32","","","","","","","","","","","","","","","","","","","","","","","","","",""
"21101","","text","44","228009","0.0-25.0","52415738","wem/bandit_single","ATKG4FI2S5MVL","pain","8","32","","","","","","","","","","","","","","","","","","","","","","","","","",""
"1397","","text","45","229408","0.0-26.0","52415738","wem/bandit_single","ATKG4FI2S5MVL","pain","8","32","","","","","","","","","","","","","","","","","","","","","","","","","",""
"1862","","text","46","231272","0.0-27.0","52415738","wem/bandit_single","ATKG4FI2S5MVL","pain","8","32","","","","","","","","","","","","","","","","","","","","","","","","","",""
"1799","","text","47","233073","0.0-28.0","52415738","wem/bandit_single","ATKG4FI2S5MVL","pain","8","32","","","","","","","","","","","","","","","","","","","","","","","","","",""
"2790","","text","48","235865","0.0-29.0","52415738","wem/bandit_single","ATKG4FI2S5MVL","pain","8","32","","","","","","","","","","","","","","","","","","","","","","","","","",""
"1453","","text","49","237320","0.0-30.0","52415738","wem/bandit_single","ATKG4FI2S5MVL","pain","8","32","","","","","","","","","","","","","","","","","","","","","","","","","",""
"5534","","text","50","242855","0.0-31.0","52415738","wem/bandit_single","ATKG4FI2S5MVL","pain","8","32","","","","","","","","","","","","","","","","","","","","","","","","","",""
"996","","bandit","51","245355","0.0-32.0-0.0","52415738","wem/bandit_single","ATKG4FI2S5MVL","pain","8","","72","H","0","img/none_selected.jpg","0","1","0","0","0.8","true","0","0","0.8","full_practice","0","0.2","0","0.6","0","0.2","","","","","",""
"148","","bandit","52","247268","0.0-32.0-1.0","52415738","wem/bandit_single","ATKG4FI2S5MVL","pain","8","","72","H","0","img/none_selected.jpg","0","0","1","0","0.8","true","0","0","0.8","full_practice","0","0.2","0","0.6","0","0.2","","","","","",""
"1199","","bandit","53","250234","0.0-32.0-2.0","52415738","wem/bandit_single","ATKG4FI2S5MVL","pain","8","","74","J","1","","0","0","1","0","0.2","true","0","0","0.8","full_practice","0","0.2","0","0.6","0","0.2","","","","","",""
"3","","bandit","54","251996","0.0-32.0-3.0","52415738","wem/bandit_single","ATKG4FI2S5MVL","pain","8","","75","K","2","","0","0","1","0","0.6","true","0","0","0.8","full_practice","0","0.2","0","0.6","0","0.2","","","","","",""
"115","","bandit","55","253871","0.0-32.0-4.0","52415738","wem/bandit_single","ATKG4FI2S5MVL","pain","8","","76","L","3","","0","0","1","0","0.2","true","0","0","0.8","full_practice","0","0.2","0","0.6","0","0.2","","","","","",""
"81","","bandit","56","255713","0.0-32.0-5.0","52415738","wem/bandit_single","ATKG4FI2S5MVL","pain","8","","76","L","3","","0","0","1","0","0.2","true","0","0","0.8","full_practice","0","0.2","0","0.6","0","0.2","","","","","",""
"3","","bandit","57","257478","0.0-32.0-6.0","52415738","wem/bandit_single","ATKG4FI2S5MVL","pain","8","","75","K","2","","0","1","0","0","0.6","true","0","0","0.8","full_practice","0","0.2","0","0.6","0","0.2","","","","","",""
"13","","bandit","58","259253","0.0-32.0-7.0","52415738","wem/bandit_single","ATKG4FI2S5MVL","pain","8","","75","K","2","","0","0","1","0","0.6","true","0","0","0.8","full_practice","0","0.2","0","0.6","0","0.2","","","","","",""
"373","","bandit","59","261391","0.0-32.0-8.0","52415738","wem/bandit_single","ATKG4FI2S5MVL","pain","8","","74","J","1","","0","0","1","0","0.2","true","0","0","0.8","full_practice","0","0.2","0","0.6","0","0.2","","","","","",""
"244","","bandit","60","263399","0.0-32.0-9.0","52415738","wem/bandit_single","ATKG4FI2S5MVL","pain","8","","72","H","0","img/none_selected.jpg","0","1","0","0","0.8","true","0","0","0.8","full_practice","0","0.2","0","0.6","0","0.2","","","","","",""
"77","","bandit","61","265238","0.0-32.0-10.0","52415738","wem/bandit_single","ATKG4FI2S5MVL","pain","8","","72","H","0","img/none_selected.jpg","0","1","0","0","0.8","true","0","0","0.8","full_practice","0","0.2","0","0.6","0","0.2","","","","","",""
"157","","bandit","62","267161","0.0-32.0-11.0","52415738","wem/bandit_single","ATKG4FI2S5MVL","pain","8","","72","H","0","img/none_selected.jpg","0","1","0","0","0.8","true","0","0","0.8","full_practice","0","0.2","0","0.6","0","0.2","","","","","",""
"259","","bandit","63","269181","0.0-32.0-12.0","52415738","wem/bandit_single","ATKG4FI2S5MVL","pain","8","","72","H","0","img/none_selected.jpg","0","0","1","0","0.8","true","0","0","0.8","full_practice","0","0.2","0","0.6","0","0.2","","","","","",""
"166","","bandit","64","271112","0.0-32.0-13.0","52415738","wem/bandit_single","ATKG4FI2S5MVL","pain","8","","72","H","0","img/none_selected.jpg","0","0","1","0","0.8","true","0","0","0.8","full_practice","0","0.2","0","0.6","0","0.2","","","","","",""
"324","","bandit","65","273196","0.0-32.0-14.0","52415738","wem/bandit_single","ATKG4FI2S5MVL","pain","8","","74","J","1","","0","0","1","0","0.2","true","0","0","0.8","full_practice","0","0.2","0","0.6","0","0.2","","","","","",""
"265","","bandit","66","275224","0.0-32.0-15.0","52415738","wem/bandit_single","ATKG4FI2S5MVL","pain","8","","75","K","2","","0","1","0","0","0.6","true","0","0","0.8","full_practice","0","0.2","0","0.6","0","0.2","","","","","",""
"10","","bandit","67","276994","0.0-32.0-16.0","52415738","wem/bandit_single","ATKG4FI2S5MVL","pain","8","","75","K","2","","0","1","0","0","0.6","true","0","0","0.8","full_practice","0","0.2","0","0.6","0","0.2","","","","","",""
"155","","bandit","68","278912","0.0-32.0-17.0","52415738","wem/bandit_single","ATKG4FI2S5MVL","pain","8","","75","K","2","","0","1","0","0","0.6","true","0","0","0.8","full_practice","0","0.2","0","0.6","0","0.2","","","","","",""
"333","","bandit","69","281005","0.0-32.0-18.0","52415738","wem/bandit_single","ATKG4FI2S5MVL","pain","8","","75","K","2","","0","1","0","0","0.6","true","0","0","0.8","full_practice","0","0.2","0","0.6","0","0.2","","","","","",""
"77","","bandit","70","282849","0.0-32.0-19.0","52415738","wem/bandit_single","ATKG4FI2S5MVL","pain","8","","75","K","2","","0","0","1","0","0.6","true","0","0","0.8","full_practice","0","0.2","0","0.6","0","0.2","","","","","",""
"1778","","text","71","284884","0.0-33.0","52415738","wem/bandit_single","ATKG4FI2S5MVL","pain","8","32","","","","","","","","","","","","","","","","","","","","","","","","","",""
"8713","","text","72","294599","0.0-34.0","52415738","wem/bandit_single","ATKG4FI2S5MVL","pain","8","32","","","","","","","","","","","","","","","","","","","","","","","","","",""
"3045","","text","73","297646","0.0-35.0","52415738","wem/bandit_single","ATKG4FI2S5MVL","pain","8","32","","","","","","","","","","","","","","","","","","","","","","","","","",""
"2301","","text","74","299950","0.0-36.0","52415738","wem/bandit_single","ATKG4FI2S5MVL","pain","8","32","","","","","","","","","","","","","","","","","","","","","","","","","",""
"2861","","text","75","302814","0.0-37.0","52415738","wem/bandit_single","ATKG4FI2S5MVL","pain","8","32","","","","","","","","","","","","","","","","","","","","","","","","","",""
"1404","","bandit","76","305730","0.0-38.0-0.0","52415738","wem/bandit_single","ATKG4FI2S5MVL","pain","8","","72","H","0","img/none_selected.jpg","0","0","1","","0.461186604","false","1","","0.461186604","main_expt","","0.2726752288","","0.2895646149","","0.4519399214","","","","","",""
"67","","bandit","77","307562","0.0-39.0-0.0","52415738","wem/bandit_single","ATKG4FI2S5MVL","pain","8","","74","J","1","","0","0","1","","0.2373300031","false","2","","0.4745384616","main_expt","","0.2373300031","","0.3162770887","","0.4414774062","","","","","",""
"66","","bandit","78","309390","0.0-40.0-0.0","52415738","wem/bandit_single","ATKG4FI2S5MVL","pain","8","","75","K","2","","0","0","1","","0.3445892231","false","3","","0.476270309","main_expt","","0.2268539811","","0.3445892231","","0.4248782664","","","","","",""
"0","","bandit","79","311152","0.0-41.0-0.0","52415738","wem/bandit_single","ATKG4FI2S5MVL","pain","8","","76","L","3","","0","1","0","","0.3797460064","false","4","","0.4750198572","main_expt","","0.2312911009","","0.318720175","","0.3797460064","","","","","",""
"6","","bandit","80","312919","0.0-42.0-0.0","52415738","wem/bandit_single","ATKG4FI2S5MVL","pain","8","","76","L","3","","0","0","1","","0.3747955817","false","5","","0.4711191004","main_expt","","0.1875260819","","0.2768356494","","0.3747955817","","","","","",""
"19","","bandit","81","314703","0.0-43.0-0.0","52415738","wem/bandit_single","ATKG4FI2S5MVL","pain","8","","75","K","2","","0","0","1","","0.2660169375","false","6","","0.4561500297","main_expt","","0.190272436","","0.2660169375","","0.3434652127","","","","","",""
"11","","bandit","82","316478","0.0-44.0-0.0","52415738","wem/bandit_single","ATKG4FI2S5MVL","pain","8","","74","J","1","","0","0","1","","0.1912500229","false","7","","0.4549462182","main_expt","","0.1912500229","","0.3364590491","","0.3450192323","","","","","",""
"6","","bandit","83","318245","0.0-45.0-0.0","52415738","wem/bandit_single","ATKG4FI2S5MVL","pain","8","","72","H","0","img/none_selected.jpg","0","0","1","","0.4738433377","false","8","","0.4738433377","main_expt","","0.2317086102","","0.2814314702","","0.3319287687","","","","","",""
"4","","bandit","84","320011","0.0-46.0-0.0","52415738","wem/bandit_single","ATKG4FI2S5MVL","pain","8","","74","J","1","","0","1","0","","0.2732709622","false","9","","0.4719526371","main_expt","","0.2732709622","","0.172204453","","0.3592879842","","","","","",""
"3","","bandit","85","321777","0.0-47.0-0.0","52415738","wem/bandit_single","ATKG4FI2S5MVL","pain","8","","74","J","1","","0","1","0","","0.2369361721","false","10","","0.4102917743","main_expt","","0.2369361721","","0.1714760066","","0.4119036765","","","","","",""
"123","","bandit","86","323665","0.0-48.0-0.0","52415738","wem/bandit_single","ATKG4FI2S5MVL","pain","8","","74","J","1","","0","1","0","","0.2428480584","false","11","","0.4247485268","main_expt","","0.2428480584","","0.1477319919","","0.440335537","","","","","",""
"119","","bandit","87","325543","0.0-49.0-0.0","52415738","wem/bandit_single","ATKG4FI2S5MVL","pain","8","","74","J","1","","0","0","1","","0.3127978045","false","12","","0.3805001106","main_expt","","0.3127978045","","0.1195530135","","0.4198069009","","","","","",""
"77","","bandit","88","327385","0.0-50.0-0.0","52415738","wem/bandit_single","ATKG4FI2S5MVL","pain","8","","75","K","2","","0","0","1","","0.1097065617","false","13","","0.3922463094","main_expt","","0.3411181312","","0.1097065617","","0.4095272681","","","","","",""
"94","","bandit","89","329243","0.0-51.0-0.0","52415738","wem/bandit_single","ATKG4FI2S5MVL","pain","8","","76","L","3","","0","1","0","","0.4393311008","false","14","","0.3385893542","main_expt","","0.3547490374","","0.1146709003","","0.4393311008","","","","","",""
"33","","bandit","90","331040","0.0-52.0-0.0","52415738","wem/bandit_single","ATKG4FI2S5MVL","pain","8","","76","L","3","","0","1","0","","0.4232641195","false","15","","0.2580729479","main_expt","","0.3447780093","","0.105598426","","0.4232641195","","","","","",""
"33","","bandit","91","332834","0.0-53.0-0.0","52415738","wem/bandit_single","ATKG4FI2S5MVL","pain","8","","76","L","3","","0","1","0","","0.408879381","false","16","","0.3126944558","main_expt","","0.3451486401","","0.1085338479","","0.408879381","","","","","",""
"456","","bandit","92","335054","0.0-54.0-0.0","52415738","wem/bandit_single","ATKG4FI2S5MVL","pain","8","","76","L","3","","0","1","0","","0.376774317","false","17","","0.3693960878","main_expt","","0.3788599072","","0.1267686316","","0.376774317","","","","","",""
"317","","bandit","93","337138","0.0-55.0-0.0","52415738","wem/bandit_single","ATKG4FI2S5MVL","pain","8","","76","L","3","","0","0","1","","0.4245824949","false","18","","0.3881723811","main_expt","","0.3977159439","","0.2161611973","","0.4245824949","","","","","",""
"186","","bandit","94","339088","0.0-56.0-0.0","52415738","wem/bandit_single","ATKG4FI2S5MVL","pain","8","","75","K","2","","0","0","1","","0.2028493804","false","19","","0.3762380044","main_expt","","0.3885232362","","0.2028493804","","0.4391895307","","","","","",""
"46","","bandit","95","340898","0.0-57.0-0.0","52415738","wem/bandit_single","ATKG4FI2S5MVL","pain","8","","74","J","1","","0","1","0","","0.3985462001","false","20","","0.3842023068","main_expt","","0.3985462001","","0.2258994585","","0.4621127774","","","","","",""
"52","","bandit","96","342716","0.0-58.0-0.0","52415738","wem/bandit_single","ATKG4FI2S5MVL","pain","8","","74","J","1","","0","0","1","","0.349749023","false","21","","0.3509270449","main_expt","","0.349749023","","0.1591174119","","0.4621164646","","","","","",""
"344","","bandit","97","344824","0.0-59.0-0.0","52415738","wem/bandit_single","ATKG4FI2S5MVL","pain","8","","72","H","0","img/none_selected.jpg","0","1","0","","0.3777441782","false","22","","0.3777441782","main_expt","","0.3437713834","","0.1526874152","","0.4347396303","","","","","",""
"1189","","bandit","98","347773","0.0-60.0-0.0","52415738","wem/bandit_single","ATKG4FI2S5MVL","pain","8","","72","H","0","img/none_selected.jpg","0","1","0","","0.3799964268","false","23","","0.3799964268","main_expt","","0.3608333873","","0.1461335862","","0.43496863","","","","","",""
"200","","bandit","99","349735","0.0-61.0-0.0","52415738","wem/bandit_single","ATKG4FI2S5MVL","pain","8","","72","H","0","img/none_selected.jpg","0","0","1","","0.4097073291","false","24","","0.4097073291","main_expt","","0.3832767268","","0.194032511","","0.43684491","","","","","",""
"55","","bandit","100","351551","0.0-62.0-0.0","52415738","wem/bandit_single","ATKG4FI2S5MVL","pain","8","","74","J","1","","0","1","0","","0.3839685871","false","25","","0.4196977393","main_expt","","0.3839685871","","0.1913779305","","0.3785768995","","","","","",""
"61","","bandit","101","353374","0.0-63.0-0.0","52415738","wem/bandit_single","ATKG4FI2S5MVL","pain","8","","74","J","1","","0","0","1","","0.3871157951","false","26","","0.3798545817","main_expt","","0.3871157951","","0.2830828826","","0.3754964585","","","","","",""
"23","","bandit","102","355156","0.0-64.0-0.0","52415738","wem/bandit_single","ATKG4FI2S5MVL","pain","8","","75","K","2","","0","1","0","","0.3268824087","false","27","","0.3531061786","main_expt","","0.4093540125","","0.3268824087","","0.3964499655","","","","","",""
"24","","bandit","103","356943","0.0-65.0-0.0","52415738","wem/bandit_single","ATKG4FI2S5MVL","pain","8","","75","K","2","","0","1","0","","0.3092871108","false","28","","0.3327392046","main_expt","","0.3781829904","","0.3092871108","","0.4243602908","","","","","",""
"28","","bandit","104","358734","0.0-66.0-0.0","52415738","wem/bandit_single","ATKG4FI2S5MVL","pain","8","","75","K","2","","0","0","1","","0.299803321","false","29","","0.2799969064","main_expt","","0.3633234486","","0.299803321","","0.4296462108","","","","","",""
"136","","bandit","105","360635","0.0-67.0-0.0","52415738","wem/bandit_single","ATKG4FI2S5MVL","pain","8","","76","L","3","","0","0","1","","0.4442153724","false","30","","0.225268033","main_expt","","0.395486831","","0.3318792252","","0.4442153724","","","","","",""
"26","","bandit","106","362421","0.0-68.0-0.0","52415738","wem/bandit_single","ATKG4FI2S5MVL","pain","8","","75","K","2","","0","1","0","","0.3274080626","false","31","","0.2195205817","main_expt","","0.353932484","","0.3274080626","","0.4425075274","","","","","",""
"207","","bandit","107","364391","0.0-69.0-0.0","52415738","wem/bandit_single","ATKG4FI2S5MVL","pain","8","","75","K","2","","0","0","1","","0.3233555863","false","32","","0.2569702332","main_expt","","0.3902442546","","0.3233555863","","0.4038806219","","","","","",""
"35","","bandit","108","366191","0.0-70.0-0.0","52415738","wem/bandit_single","ATKG4FI2S5MVL","pain","8","","75","K","2","","0","1","0","","0.3836123675","false","33","","0.2914027765","main_expt","","0.3727342875","","0.3836123675","","0.4283701542","","","","","",""
"20","","bandit","109","367976","0.0-71.0-0.0","52415738","wem/bandit_single","ATKG4FI2S5MVL","pain","8","","75","K","2","","0","0","1","","0.4200589335","false","34","","0.2667004126","main_expt","","0.3940120807","","0.4200589335","","0.4332078231","","","","","",""
"391","","bandit","110","370139","0.0-72.0-0.0","52415738","wem/bandit_single","ATKG4FI2S5MVL","pain","8","","75","K","2","","0","0","1","","0.4280145355","false","35","","0.3112773703","main_expt","","0.3682756201","","0.4280145355","","0.3861361583","","","","","",""
"160","","bandit","111","372064","0.0-73.0-0.0","52415738","wem/bandit_single","ATKG4FI2S5MVL","pain","8","","74","J","1","","0","1","0","","0.4136743311","false","36","","0.3158013471","main_expt","","0.4136743311","","0.3696194815","","0.3176889815","","","","","",""
"55","","bandit","112","373880","0.0-74.0-0.0","52415738","wem/bandit_single","ATKG4FI2S5MVL","pain","8","","74","J","1","","0","0","1","","0.449594317","false","37","","0.3348696363","main_expt","","0.449594317","","0.3567242832","","0.3333355096","","","","","",""
"640","","bandit","113","376286","0.0-75.0-0.0","52415738","wem/bandit_single","ATKG4FI2S5MVL","pain","8","","74","J","1","","0","0","1","","0.4427192246","false","38","","0.2967031697","main_expt","","0.4427192246","","0.3139752797","","0.3613286773","","","","","",""
"88","","bandit","114","378142","0.0-76.0-0.0","52415738","wem/bandit_single","ATKG4FI2S5MVL","pain","8","","72","H","0","img/none_selected.jpg","0","0","1","","0.2816090282","false","39","","0.2816090282","main_expt","","0.4375360897","","0.2884672813","","0.3354588101","","","","","",""
"307","","bandit","115","380216","0.0-77.0-0.0","52415738","wem/bandit_single","ATKG4FI2S5MVL","pain","8","","74","J","1","","0","1","0","","0.452648821","false","40","","0.2900329111","main_expt","","0.452648821","","0.3253538103","","0.4044898685","","","","","",""
"144","","bandit","116","382125","0.0-78.0-0.0","52415738","wem/bandit_single","ATKG4FI2S5MVL","pain","8","","74","J","1","","0","1","0","","0.4689255384","false","41","","0.3160732104","main_expt","","0.4689255384","","0.2782289032","","0.3615903795","","","","","",""
"276","","bandit","117","384167","0.0-79.0-0.0","52415738","wem/bandit_single","ATKG4FI2S5MVL","pain","8","","74","J","1","","0","0","1","","0.470096522","false","42","","0.370849222","main_expt","","0.470096522","","0.2378060085","","0.3239257876","","","","","",""
"154","","bandit","118","386087","0.0-80.0-0.0","52415738","wem/bandit_single","ATKG4FI2S5MVL","pain","8","","74","J","1","","0","1","0","","0.4349244256","false","43","","0.385301305","main_expt","","0.4349244256","","0.2250536993","","0.2907144625","","","","","",""
"189","","bandit","119","388035","0.0-81.0-0.0","52415738","wem/bandit_single","ATKG4FI2S5MVL","pain","8","","74","J","1","","0","0","1","","0.4316966947","false","44","","0.416838688","main_expt","","0.4316966947","","0.2132249492","","0.2937558929","","","","","",""
"184","","bandit","120","389984","0.0-82.0-0.0","52415738","wem/bandit_single","ATKG4FI2S5MVL","pain","8","","74","J","1","","0","0","1","","0.4526201082","false","45","","0.3927526088","main_expt","","0.4526201082","","0.2669052982","","0.3667346614","","","","","",""
"27","","bandit","121","391775","0.0-83.0-0.0","52415738","wem/bandit_single","ATKG4FI2S5MVL","pain","8","","75","K","2","","0","0","1","","0.259601005","false","46","","0.3789336214","main_expt","","0.4696962879","","0.259601005","","0.4084803937","","","","","",""
"77","","bandit","122","393617","0.0-84.0-0.0","52415738","wem/bandit_single","ATKG4FI2S5MVL","pain","8","","76","L","3","","0","0","1","","0.3956447052","false","47","","0.3994803113","main_expt","","0.4591824552","","0.2442503122","","0.3956447052","","","","","",""
"96","","bandit","123","395476","0.0-85.0-0.0","52415738","wem/bandit_single","ATKG4FI2S5MVL","pain","8","","76","L","3","","0","0","1","","0.3859230678","false","48","","0.3570668153","main_expt","","0.4548607847","","0.2427668164","","0.3859230678","","","","","",""
"86","","bandit","124","397328","0.0-86.0-0.0","52415738","wem/bandit_single","ATKG4FI2S5MVL","pain","8","","75","K","2","","0","1","0","","0.218731525","false","49","","0.3500417472","main_expt","","0.4625410341","","0.218731525","","0.394993817","","","","","",""
"67","","bandit","125","399157","0.0-87.0-0.0","52415738","wem/bandit_single","ATKG4FI2S5MVL","pain","8","","75","K","2","","0","1","0","","0.2187604329","false","50","","0.3110114061","main_expt","","0.4620574215","","0.2187604329","","0.4358915385","","","","","",""
"341","","bandit","126","401263","0.0-88.0-0.0","52415738","wem/bandit_single","ATKG4FI2S5MVL","pain","8","","75","K","2","","0","0","1","","0.2764450854","false","51","","0.3165374422","main_expt","","0.4573118055","","0.2764450854","","0.4437026926","","","","","",""
"1708","","bandit","127","404734","0.0-89.0-0.0","52415738","wem/bandit_single","ATKG4FI2S5MVL","pain","8","","75","K","2","","0","0","1","","0.2735561336","false","52","","0.3212783944","main_expt","","0.4577170033","","0.2735561336","","0.4357441266","","","","","",""
"516","","bandit","128","407016","0.0-90.0-0.0","52415738","wem/bandit_single","ATKG4FI2S5MVL","pain","8","","75","K","2","","0","1","0","","0.2558353256","false","53","","0.3079714244","main_expt","","0.4599667981","","0.2558353256","","0.3926545571","","","","","",""
"1409","","bandit","129","410191","0.0-91.0-0.0","52415738","wem/bandit_single","ATKG4FI2S5MVL","pain","8","","75","K","2","","0","0","1","","0.2856473895","false","54","","0.3538619638","main_expt","","0.4598989899","","0.2856473895","","0.3841940555","","","","","",""
"69","","bandit","130","412020","0.0-92.0-0.0","52415738","wem/bandit_single","ATKG4FI2S5MVL","pain","8","","74","J","1","","0","1","0","","0.4371040197","false","55","","0.3390258849","main_expt","","0.4371040197","","0.3110799389","","0.3733442546","","","","","",""
"85","","bandit","131","413866","0.0-93.0-0.0","52415738","wem/bandit_single","ATKG4FI2S5MVL","pain","8","","74","J","1","","0","1","0","","0.3889704242","false","56","","0.3282580673","main_expt","","0.3889704242","","0.2862995849","","0.3500738246","","","","","",""
"310","","bandit","132","415944","0.0-94.0-0.0","52415738","wem/bandit_single","ATKG4FI2S5MVL","pain","8","","74","J","1","","0","0","1","","0.4089883961","false","57","","0.3014999451","main_expt","","0.4089883961","","0.3029349154","","0.3265916347","","","","","",""
"268","","bandit","133","417973","0.0-95.0-0.0","52415738","wem/bandit_single","ATKG4FI2S5MVL","pain","8","","72","H","0","img/none_selected.jpg","0","1","0","","0.2895525025","false","58","","0.2895525025","main_expt","","0.3682078294","","0.282602966","","0.3203483638","","","","","",""
"27","","bandit","134","419768","0.0-96.0-0.0","52415738","wem/bandit_single","ATKG4FI2S5MVL","pain","8","","72","H","0","img/none_selected.jpg","0","0","1","","0.2538740387","false","59","","0.2538740387","main_expt","","0.426053772","","0.3271218703","","0.258324817","","","","","",""
"169","","bandit","135","421699","0.0-97.0-0.0","52415738","wem/bandit_single","ATKG4FI2S5MVL","pain","8","","74","J","1","","0","0","1","","0.4175969639","false","60","","0.2509640494","main_expt","","0.4175969639","","0.2978757068","","0.2527557167","","","","","",""
"499","","bandit","136","423966","0.0-98.0-0.0","52415738","wem/bandit_single","ATKG4FI2S5MVL","pain","8","","75","K","2","","0","0","1","","0.1922553384","false","61","","0.1930295055","main_expt","","0.4124946444","","0.1922553384","","0.2925705146","","","","","",""
"74","","bandit","137","425807","0.0-99.0-0.0","52415738","wem/bandit_single","ATKG4FI2S5MVL","pain","8","","76","L","3","","0","1","0","","0.310648962","false","62","","0.1259826115","main_expt","","0.4077217862","","0.1408400783","","0.310648962","","","","","",""
"178","","bandit","138","427748","0.0-100.0-0.0","52415738","wem/bandit_single","ATKG4FI2S5MVL","pain","8","","76","L","3","","0","1","0","","0.3175489896","false","63","","0.1388804293","main_expt","","0.4258821936","","0.1779610645","","0.3175489896","","","","","",""
"93","","bandit","139","429607","0.0-101.0-0.0","52415738","wem/bandit_single","ATKG4FI2S5MVL","pain","8","","76","L","3","","0","0","1","","0.2756852574","false","64","","0.1412297375","main_expt","","0.4314195329","","0.1733040919","","0.2756852574","","","","","",""
"136","","bandit","140","431512","0.0-102.0-0.0","52415738","wem/bandit_single","ATKG4FI2S5MVL","pain","8","","72","H","0","img/none_selected.jpg","0","0","1","","0.07856201072","false","65","","0.07856201072","main_expt","","0.4174082156","","0.1669650696","","0.2798966648","","","","","",""
"547","","bandit","141","433817","0.0-103.0-0.0","52415738","wem/bandit_single","ATKG4FI2S5MVL","pain","8","","76","L","3","","0","0","1","","0.2440426105","false","66","","0.04493535693","main_expt","","0.4396479182","","0.1439674443","","0.2440426105","","","","","",""
"511","","bandit","142","436093","0.0-104.0-0.0","52415738","wem/bandit_single","ATKG4FI2S5MVL","pain","8","","75","K","2","","0","1","0","","0.1892066175","false","67","","0.06268984171","main_expt","","0.4080198752","","0.1892066175","","0.2630461485","","","","","",""
"100","","bandit","143","437956","0.0-105.0-0.0","52415738","wem/bandit_single","ATKG4FI2S5MVL","pain","8","","75","K","2","","0","0","1","","0.1994174399","false","68","","0.0976634122","main_expt","","0.4137299856","","0.1994174399","","0.2456224984","","","","","",""
"294","","bandit","144","440016","0.0-106.0-0.0","52415738","wem/bandit_single","ATKG4FI2S5MVL","pain","8","","74","J","1","","0","0","1","","0.3938947582","false","69","","0.1303859095","main_expt","","0.3938947582","","0.1624567358","","0.328759159","","","","","",""
"136","","bandit","145","441921","0.0-107.0-0.0","52415738","wem/bandit_single","ATKG4FI2S5MVL","pain","8","","75","K","2","","0","0","1","","0.203142037","false","70","","0.09159795462","main_expt","","0.3876621225","","0.203142037","","0.3063762308","","","","","",""
"168","","bandit","146","443854","0.0-108.0-0.0","52415738","wem/bandit_single","ATKG4FI2S5MVL","pain","8","","76","L","3","","0","1","0","","0.3509026903","false","71","","0.07422050438","main_expt","","0.3788053019","","0.218187973","","0.3509026903","","","","","",""
"353","","bandit","147","445973","0.0-109.0-0.0","52415738","wem/bandit_single","ATKG4FI2S5MVL","pain","8","","76","L","3","","0","0","1","","0.3695940198","false","72","","0.05420033029","main_expt","","0.3632611749","","0.2357875668","","0.3695940198","","","","","",""
"340","","bandit","148","448078","0.0-110.0-0.0","52415738","wem/bandit_single","ATKG4FI2S5MVL","pain","8","","76","L","3","","0","0","1","","0.3532210052","false","73","","0.04794676006","main_expt","","0.3121818875","","0.1951490082","","0.3532210052","","","","","",""
"197","","bandit","149","450034","0.0-111.0-0.0","52415738","wem/bandit_single","ATKG4FI2S5MVL","pain","8","","76","L","3","","0","0","1","","0.3780170277","false","74","","0.03645121522","main_expt","","0.3385624816","","0.208621177","","0.3780170277","","","","","",""
"70","","bandit","150","451870","0.0-112.0-0.0","52415738","wem/bandit_single","ATKG4FI2S5MVL","pain","8","","72","H","0","img/none_selected.jpg","0","0","1","","0.04346784694","false","75","","0.04346784694","main_expt","","0.3393964734","","0.2016482668","","0.3141643986","","","","","",""
"250","","bandit","151","453882","0.0-113.0-0.0","52415738","wem/bandit_single","ATKG4FI2S5MVL","pain","8","","74","J","1","","0","1","0","","0.3489067358","false","76","","0.05697420644","main_expt","","0.3489067358","","0.2495615647","","0.3520496016","","","","","",""
"76","","bandit","152","455723","0.0-114.0-0.0","52415738","wem/bandit_single","ATKG4FI2S5MVL","pain","8","","74","J","1","","0","1","0","","0.3502211764","false","77","","0.05831686642","main_expt","","0.3502211764","","0.2225386599","","0.2628688268","","","","","",""
"284","","bandit","153","457773","0.0-115.0-0.0","52415738","wem/bandit_single","ATKG4FI2S5MVL","pain","8","","74","J","1","","0","0","1","","0.2979424841","false","78","","0.0396837938","main_expt","","0.2979424841","","0.2525784454","","0.2856335909","","","","","",""
"50","","bandit","154","459590","0.0-116.0-0.0","52415738","wem/bandit_single","ATKG4FI2S5MVL","pain","8","","75","K","2","","0","0","1","","0.2691825077","false","79","","0.03651397352","main_expt","","0.2779986596","","0.2691825077","","0.3052483479","","","","","",""
"147","","bandit","155","461498","0.0-117.0-0.0","52415738","wem/bandit_single","ATKG4FI2S5MVL","pain","8","","74","J","1","","0","1","0","","0.2681941829","false","80","","0.0570793957","main_expt","","0.2681941829","","0.2749696362","","0.2809417262","","","","","",""
"100","","bandit","156","463362","0.0-118.0-0.0","52415738","wem/bandit_single","ATKG4FI2S5MVL","pain","8","","74","J","1","","0","0","1","","0.2536714586","false","81","","0.05597964966","main_expt","","0.2536714586","","0.291945729","","0.2639407754","","","","","",""
"236","","bandit","157","465361","0.0-119.0-0.0","52415738","wem/bandit_single","ATKG4FI2S5MVL","pain","8","","75","K","2","","0","0","1","","0.2804178179","false","82","","0.0589745046","main_expt","","0.1904528106","","0.2804178179","","0.3352417475","","","","","",""
"119","","bandit","158","467241","0.0-120.0-0.0","52415738","wem/bandit_single","ATKG4FI2S5MVL","pain","8","","76","L","3","","0","1","0","","0.3246721101","false","83","","0.04461225985","main_expt","","0.2497062266","","0.2253075454","","0.3246721101","","","","","",""
"159","","bandit","159","469164","0.0-121.0-0.0","52415738","wem/bandit_single","ATKG4FI2S5MVL","pain","8","","76","L","3","","0","0","1","","0.3082112656","false","84","","0.04600221485","main_expt","","0.2960017758","","0.2475548924","","0.3082112656","","","","","",""
"112","","bandit","160","471040","0.0-122.0-0.0","52415738","wem/bandit_single","ATKG4FI2S5MVL","pain","8","","74","J","1","","0","1","0","","0.2677312645","false","85","","0.04782026086","main_expt","","0.2677312645","","0.2443994903","","0.2733186338","","","","","",""
"150","","bandit","161","472956","0.0-123.0-0.0","52415738","wem/bandit_single","ATKG4FI2S5MVL","pain","8","","74","J","1","","0","0","1","","0.2764415163","false","86","","0.05551660222","main_expt","","0.2764415163","","0.2112262296","","0.2595222796","","","","","",""
"97","","bandit","162","474817","0.0-124.0-0.0","52415738","wem/bandit_single","ATKG4FI2S5MVL","pain","8","","76","L","3","","0","0","1","","0.2256999028","false","87","","0.04708869331","main_expt","","0.324022149","","0.2188998383","","0.2256999028","","","","","",""
"199","","bandit","163","476779","0.0-125.0-0.0","52415738","wem/bandit_single","ATKG4FI2S5MVL","pain","8","","74","J","1","","0","0","1","","0.3109963835","false","88","","0.02844544313","main_expt","","0.3109963835","","0.2197891412","","0.1990670624","","","","","",""
"459","","bandit","164","479002","0.0-126.0-0.0","52415738","wem/bandit_single","ATKG4FI2S5MVL","pain","8","","75","K","2","","0","0","1","","0.1264972534","false","89","","0.02947982339","main_expt","","0.324941543","","0.1264972534","","0.2125628639","","","","","",""
"247","","bandit","165","481010","0.0-127.0-0.0","52415738","wem/bandit_single","ATKG4FI2S5MVL","pain","8","","72","H","0","img/none_selected.jpg","0","0","1","","0.01544371513","false","90","","0.01544371513","main_expt","","0.3309337967","","0.09492746395","","0.2335475446","","","","","",""
"1424","","bandit","166","484197","0.0-128.0-0.0","52415738","wem/bandit_single","ATKG4FI2S5MVL","pain","8","","75","K","2","","0","0","1","","0.0779798764","false","91","","0.02662688154","main_expt","","0.2419508287","","0.0779798764","","0.2803997126","","","","","",""
"114","","bandit","167","486078","0.0-129.0-0.0","52415738","wem/bandit_single","ATKG4FI2S5MVL","pain","8","","74","J","1","","0","1","0","","0.2040869203","false","92","","0.03471523835","main_expt","","0.2040869203","","0.1178574791","","0.2771315147","","","","","",""
"330","","bandit","168","488173","0.0-130.0-0.0","52415738","wem/bandit_single","ATKG4FI2S5MVL","pain","8","","74","J","1","","0","0","1","","0.1936143615","false","93","","0.0252433293","main_expt","","0.1936143615","","0.1199697814","","0.3069544445","","","","","",""
"170","","bandit","169","490110","0.0-131.0-0.0","52415738","wem/bandit_single","ATKG4FI2S5MVL","pain","8","","76","L","3","","0","0","1","","0.2585327286","false","94","","0.02873343753","main_expt","","0.2296452841","","0.1351842626","","0.2585327286","","","","","",""
"259","","bandit","170","492130","0.0-132.0-0.0","52415738","wem/bandit_single","ATKG4FI2S5MVL","pain","8","","76","L","3","","0","0","1","","0.2043747222","false","95","","0.03754278977","main_expt","","0.3009770616","","0.1229387465","","0.2043747222","","","","","",""
"788","","bandit","171","494681","0.0-133.0-0.0","52415738","wem/bandit_single","ATKG4FI2S5MVL","pain","8","","75","K","2","","0","0","1","","0.1341504272","false","96","","0.02045008397","main_expt","","0.3664634414","","0.1341504272","","0.2149370614","","","","","",""
"148","","bandit","172","496597","0.0-134.0-0.0","52415738","wem/bandit_single","ATKG4FI2S5MVL","pain","8","","75","K","2","","0","0","1","","0.08646330057","false","97","","0.01282395838","main_expt","","0.3476641925","","0.08646330057","","0.1294523689","","","","","",""
"391","","bandit","173","498754","0.0-135.0-0.0","52415738","wem/bandit_single","ATKG4FI2S5MVL","pain","8","","75","K","2","","0","0","1","","0.07731746448","false","98","","0.02206163243","main_expt","","0.3885632826","","0.07731746448","","0.1653870254","","","","","",""
"106","","bandit","174","500630","0.0-136.0-0.0","52415738","wem/bandit_single","ATKG4FI2S5MVL","pain","8","","74","J","1","","0","0","1","","0.3222143249","false","99","","0.03016500256","main_expt","","0.3222143249","","0.05048608161","","0.187235433","","","","","",""
"231","","bandit","175","502626","0.0-137.0-0.0","52415738","wem/bandit_single","ATKG4FI2S5MVL","pain","8","","72","H","0","img/none_selected.jpg","0","0","1","","0.03237578522","false","100","","0.03237578522","main_expt","","0.3386714995","","0.03970728334","","0.1583251777","","","","","",""
"188","","bandit","176","504578","0.0-138.0-0.0","52415738","wem/bandit_single","ATKG4FI2S5MVL","pain","8","","74","J","1","","0","1","0","","0.3131396166","false","101","","0.03241037075","main_expt","","0.3131396166","","0.02108340439","","0.1337381207","","","","","",""
"151","","bandit","177","506493","0.0-139.0-0.0","52415738","wem/bandit_single","ATKG4FI2S5MVL","pain","8","","74","J","1","","0","1","0","","0.3417288757","false","102","","0.06000215667","main_expt","","0.3417288757","","0.05244648731","","0.1163639012","","","","","",""
"252","","bandit","178","508505","0.0-140.0-0.0","52415738","wem/bandit_single","ATKG4FI2S5MVL","pain","8","","74","J","1","","0","0","1","","0.3582654759","false","103","","0.08726741307","main_expt","","0.3582654759","","0.04574159302","","0.1118657557","","","","","",""
"124","","bandit","179","510393","0.0-141.0-0.0","52415738","wem/bandit_single","ATKG4FI2S5MVL","pain","8","","75","K","2","","0","0","1","","0.05033190662","false","104","","0.1067467257","main_expt","","0.3409136392","","0.05033190662","","0.1501499683","","","","","",""
"207","","bandit","180","512360","0.0-142.0-0.0","52415738","wem/bandit_single","ATKG4FI2S5MVL","pain","8","","74","J","1","","0","1","0","","0.3532992837","false","105","","0.1004566838","main_expt","","0.3532992837","","0.1076128494","","0.1354733374","","","","","",""
"324","","bandit","181","514452","0.0-143.0-0.0","52415738","wem/bandit_single","ATKG4FI2S5MVL","pain","8","","74","J","1","","0","0","1","","0.335683565","false","106","","0.1055318719","main_expt","","0.335683565","","0.06740855405","","0.1727398631","","","","","",""
"143","","bandit","182","516360","0.0-144.0-0.0","52415738","wem/bandit_single","ATKG4FI2S5MVL","pain","8","","76","L","3","","0","1","0","","0.1474174257","false","107","","0.1236328269","main_expt","","0.3924059951","","0.06658027063","","0.1474174257","","","","","",""
"320","","bandit","183","518440","0.0-145.0-0.0","52415738","wem/bandit_single","ATKG4FI2S5MVL","pain","8","","76","L","3","","0","0","1","","0.1683059408","false","108","","0.1301170461","main_expt","","0.3626054341","","0.0777756245","","0.1683059408","","","","","",""
"199","","bandit","184","520402","0.0-146.0-0.0","52415738","wem/bandit_single","ATKG4FI2S5MVL","pain","8","","74","J","1","","0","0","1","","0.3806857721","false","109","","0.1507941036","main_expt","","0.3806857721","","0.1117823495","","0.1972223025","","","","","",""
"20","","bandit","185","522184","0.0-147.0-0.0","52415738","wem/bandit_single","ATKG4FI2S5MVL","pain","8","","75","K","2","","0","0","1","","0.08710900622","false","110","","0.1647590848","main_expt","","0.3452619283","","0.08710900622","","0.2085186414","","","","","",""
"215","","bandit","186","524162","0.0-148.0-0.0","52415738","wem/bandit_single","ATKG4FI2S5MVL","pain","8","","74","J","1","","0","1","0","","0.3653509784","false","111","","0.1574612326","main_expt","","0.3653509784","","0.107183683","","0.1811180602","","","","","",""
"289","","bandit","187","526213","0.0-149.0-0.0","52415738","wem/bandit_single","ATKG4FI2S5MVL","pain","8","","74","J","1","","0","1","0","","0.3435522482","false","112","","0.1406493921","main_expt","","0.3435522482","","0.1099425133","","0.222295219","","","","","",""
"704","","bandit","188","528679","0.0-150.0-0.0","52415738","wem/bandit_single","ATKG4FI2S5MVL","pain","8","","74","J","1","","0","0","1","","0.3424956272","false","113","","0.1367300214","main_expt","","0.3424956272","","0.1457634924","","0.254178783","","","","","",""
"531","","bandit","189","530974","0.0-151.0-0.0","52415738","wem/bandit_single","ATKG4FI2S5MVL","pain","8","","72","H","0","img/none_selected.jpg","0","0","1","","0.1534665218","false","114","","0.1534665218","main_expt","","0.3353894863","","0.09824844824","","0.2315882939","","","","","",""
"120","","bandit","190","532853","0.0-152.0-0.0","52415738","wem/bandit_single","ATKG4FI2S5MVL","pain","8","","72","H","0","img/none_selected.jpg","0","0","1","","0.1890238391","false","115","","0.1890238391","main_expt","","0.3965113255","","0.07202874502","","0.2079629003","","","","","",""
"90","","bandit","191","534710","0.0-153.0-0.0","52415738","wem/bandit_single","ATKG4FI2S5MVL","pain","8","","74","J","1","","0","0","1","","0.3889101716","false","116","","0.1480670238","main_expt","","0.3889101716","","0.08386797302","","0.2117584369","","","","","",""
"103","","bandit","192","536579","0.0-154.0-0.0","52415738","wem/bandit_single","ATKG4FI2S5MVL","pain","8","","75","K","2","","0","0","1","","0.1223406282","false","117","","0.1450369027","main_expt","","0.412290601","","0.1223406282","","0.1897465023","","","","","",""
"89","","bandit","193","538431","0.0-155.0-0.0","52415738","wem/bandit_single","ATKG4FI2S5MVL","pain","8","","76","L","3","","0","0","1","","0.2162179109","false","118","","0.1525061225","main_expt","","0.4090296977","","0.1131974311","","0.2162179109","","","","","",""
"1008","","bandit","194","541200","0.0-156.0-0.0","52415738","wem/bandit_single","ATKG4FI2S5MVL","pain","8","","74","J","1","","0","0","1","","0.3900906375","false","119","","0.1327940691","main_expt","","0.3900906375","","0.1214903214","","0.1954464435","","","","","",""
"197","","bandit","195","543162","0.0-157.0-0.0","52415738","wem/bandit_single","ATKG4FI2S5MVL","pain","8","","75","K","2","","0","0","1","","0.1379734046","false","120","","0.1517026744","main_expt","","0.3722828095","","0.1379734046","","0.2433439763","","","","","",""
"224","","bandit","196","545154","0.0-158.0-0.0","52415738","wem/bandit_single","ATKG4FI2S5MVL","pain","8","","72","H","0","img/none_selected.jpg","0","0","1","","0.09770447215","false","121","","0.09770447215","main_expt","","0.3593952677","","0.1537473387","","0.2093375247","","","","","",""
"241","","bandit","197","547162","0.0-159.0-0.0","52415738","wem/bandit_single","ATKG4FI2S5MVL","pain","8","","76","L","3","","0","0","1","","0.2030857612","false","122","","0.1084092314","main_expt","","0.3670381393","","0.1654199468","","0.2030857612","","","","","",""
"248","","bandit","198","549176","0.0-160.0-0.0","52415738","wem/bandit_single","ATKG4FI2S5MVL","pain","8","","74","J","1","","0","0","1","","0.3587286137","false","123","","0.1828660492","main_expt","","0.3587286137","","0.1908187881","","0.1810532848","","","","","",""
"92","","bandit","199","551033","0.0-161.0-0.0","52415738","wem/bandit_single","ATKG4FI2S5MVL","pain","8","","75","K","2","","0","0","1","","0.2229551501","false","124","","0.1743556658","main_expt","","0.3492740793","","0.2229551501","","0.1582229448","","","","","",""
"175","","bandit","200","552969","0.0-162.0-0.0","52415738","wem/bandit_single","ATKG4FI2S5MVL","pain","8","","72","H","0","img/none_selected.jpg","0","1","0","","0.2091647646","false","125","","0.2091647646","main_expt","","0.3031262708","","0.2354127912","","0.1223239468","","","","","",""
"105","","bandit","201","554842","0.0-163.0-0.0","52415738","wem/bandit_single","ATKG4FI2S5MVL","pain","8","","72","H","0","img/none_selected.jpg","0","0","1","","0.2089783764","false","126","","0.2089783764","main_expt","","0.3272336491","","0.25119817","","0.08912034734","","","","","",""
"66","","bandit","202","556676","0.0-164.0-0.0","52415738","wem/bandit_single","ATKG4FI2S5MVL","pain","8","","76","L","3","","0","0","1","","0.05948163","false","127","","0.21334071","main_expt","","0.3153677968","","0.2312690923","","0.05948163","","","","","",""
"72","","bandit","203","558513","0.0-165.0-0.0","52415738","wem/bandit_single","ATKG4FI2S5MVL","pain","8","","75","K","2","","0","0","1","","0.2741150261","false","128","","0.1916283041","main_expt","","0.3317710332","","0.2741150261","","0.06525821595","","","","","",""
"156","","bandit","204","560429","0.0-166.0-0.0","52415738","wem/bandit_single","ATKG4FI2S5MVL","pain","8","","74","J","1","","0","0","1","","0.3818586719","false","129","","0.1810604207","main_expt","","0.3818586719","","0.2804264122","","0.04677418535","","","","","",""
"110","","bandit","205","562304","0.0-167.0-0.0","52415738","wem/bandit_single","ATKG4FI2S5MVL","pain","8","","75","K","2","","0","0","1","","0.2746384559","false","130","","0.1492319935","main_expt","","0.3778611376","","0.2746384559","","0.04931785787","","","","","",""
"68","","bandit","206","564140","0.0-168.0-0.0","52415738","wem/bandit_single","ATKG4FI2S5MVL","pain","8","","75","K","2","","0","0","1","","0.3052944487","false","131","","0.129351286","main_expt","","0.3745485054","","0.3052944487","","0.03231589458","","","","","",""
"151","","bandit","207","566053","0.0-169.0-0.0","52415738","wem/bandit_single","ATKG4FI2S5MVL","pain","8","","76","L","3","","0","0","1","","0.0374336399","false","132","","0.1020216346","main_expt","","0.3901944836","","0.2871604017","","0.0374336399","","","","","",""
"284","","bandit","208","568107","0.0-170.0-0.0","52415738","wem/bandit_single","ATKG4FI2S5MVL","pain","8","","72","H","0","img/none_selected.jpg","0","0","1","","0.1100395313","false","133","","0.1100395313","main_expt","","0.3245875462","","0.2262434135","","0.04583961862","","","","","",""
"60","","bandit","209","569928","0.0-171.0-0.0","52415738","wem/bandit_single","ATKG4FI2S5MVL","pain","8","","74","J","1","","0","0","1","","0.2794858075","false","134","","0.1078381017","main_expt","","0.2794858075","","0.2020687113","","0.04150300199","","","","","",""
"228","","bandit","210","571919","0.0-172.0-0.0","52415738","wem/bandit_single","ATKG4FI2S5MVL","pain","8","","75","K","2","","0","0","1","","0.2168620662","false","135","","0.1093486249","main_expt","","0.2867414221","","0.2168620662","","0.04663842542","","","","","",""
"242","","bandit","211","573928","0.0-173.0-0.0","52415738","wem/bandit_single","ATKG4FI2S5MVL","pain","8","","74","J","1","","0","0","1","","0.2388941587","false","136","","0.1246456113","main_expt","","0.2388941587","","0.151139006","","0.06291357963","","","","","",""
"212","","bandit","212","575907","0.0-174.0-0.0","52415738","wem/bandit_single","ATKG4FI2S5MVL","pain","8","","76","L","3","","0","0","1","","0.0848669819","false","137","","0.1167447495","main_expt","","0.2301747732","","0.1452995234","","0.0848669819","","","","","",""
"258","","bandit","213","577930","0.0-175.0-0.0","52415738","wem/bandit_single","ATKG4FI2S5MVL","pain","8","","72","H","0","img/none_selected.jpg","0","0","1","","0.1357570265","false","138","","0.1357570265","main_expt","","0.2344721482","","0.1599176777","","0.1250360552","","","","","",""
"169","","bandit","214","579867","0.0-176.0-0.0","52415738","wem/bandit_single","ATKG4FI2S5MVL","pain","8","","72","H","0","img/none_selected.jpg","0","0","1","","0.1616689495","false","139","","0.1616689495","main_expt","","0.2351335283","","0.1704699841","","0.122190115","","","","","",""
"74","","bandit","215","581704","0.0-177.0-0.0","52415738","wem/bandit_single","ATKG4FI2S5MVL","pain","8","","74","J","1","","0","0","1","","0.2876903143","false","140","","0.1979747013","main_expt","","0.2876903143","","0.1142956015","","0.08666030548","","","","","",""
"75","","bandit","216","583547","0.0-178.0-0.0","52415738","wem/bandit_single","ATKG4FI2S5MVL","pain","8","","74","J","1","","0","0","1","","0.2865732071","false","141","","0.1708965128","main_expt","","0.2865732071","","0.1206890816","","0.09967801986","","","","","",""
"58","","bandit","217","585369","0.0-179.0-0.0","52415738","wem/bandit_single","ATKG4FI2S5MVL","pain","8","","75","K","2","","0","0","1","","0.1324259923","false","142","","0.204481367","main_expt","","0.248943806","","0.1324259923","","0.1125289611","","","","","",""
"57","","bandit","218","587192","0.0-180.0-0.0","52415738","wem/bandit_single","ATKG4FI2S5MVL","pain","8","","75","K","2","","0","0","1","","0.09892217097","false","143","","0.1861099789","main_expt","","0.2839045407","","0.09892217097","","0.1467602081","","","","","",""
"24","","bandit","219","588986","0.0-181.0-0.0","52415738","wem/bandit_single","ATKG4FI2S5MVL","pain","8","","76","L","3","","0","1","0","","0.1467522766","false","144","","0.1956465744","main_expt","","0.3150250783","","0.1577744197","","0.1467522766","","","","","",""
"234","","bandit","220","590983","0.0-182.0-0.0","52415738","wem/bandit_single","ATKG4FI2S5MVL","pain","8","","76","L","3","","0","1","0","","0.118212248","false","145","","0.2622876922","main_expt","","0.3090395899","","0.1392006829","","0.118212248","","","","","",""
"118","","bandit","221","592860","0.0-183.0-0.0","52415738","wem/bandit_single","ATKG4FI2S5MVL","pain","8","","76","L","3","","0","0","1","","0.1089879874","false","146","","0.304745079","main_expt","","0.3122039877","","0.1262993523","","0.1089879874","","","","","",""
"90","","bandit","222","594720","0.0-184.0-0.0","52415738","wem/bandit_single","ATKG4FI2S5MVL","pain","8","","76","L","3","","0","0","1","","0.1200469816","false","147","","0.2888799162","main_expt","","0.2959619691","","0.1970652478","","0.1200469816","","","","","",""
"108","","bandit","223","596595","0.0-185.0-0.0","52415738","wem/bandit_single","ATKG4FI2S5MVL","pain","8","","76","L","3","","0","0","1","","0.1276189258","false","148","","0.2290209364","main_expt","","0.2395536641","","0.2502259542","","0.1276189258","","","","","",""
"143","","bandit","224","598503","0.0-186.0-0.0","52415738","wem/bandit_single","ATKG4FI2S5MVL","pain","8","","75","K","2","","0","0","1","","0.264890558","false","149","","0.1626908122","main_expt","","0.2650868272","","0.264890558","","0.1280703092","","","","","",""
"59","","bandit","225","600326","0.0-187.0-0.0","52415738","wem/bandit_single","ATKG4FI2S5MVL","pain","8","","75","K","2","","0","0","1","","0.2458403893","false","150","","0.1958031623","main_expt","","0.2986082654","","0.2458403893","","0.1260403861","","","","","",""
"35","","bandit","226","602128","0.0-188.0-0.0","52415738","wem/bandit_single","ATKG4FI2S5MVL","pain","8","","74","J","1","","0","0","1","","0.2843767109","false","151","","0.2110526716","main_expt","","0.2843767109","","0.3021038309","","0.1472493067","","","","","",""
"242","","bandit","227","604136","0.0-189.0-0.0","52415738","wem/bandit_single","ATKG4FI2S5MVL","pain","8","","74","J","1","","0","0","1","","0.2910803031","false","152","","0.239542308","main_expt","","0.2910803031","","0.2863751765","","0.1256460397","","","","","",""
"155","","bandit","228","606053","0.0-190.0-0.0","52415738","wem/bandit_single","ATKG4FI2S5MVL","pain","8","","72","H","0","img/none_selected.jpg","0","0","1","","0.2781725502","false","153","","0.2781725502","main_expt","","0.2910028656","","0.250244768","","0.1567097088","","","","","",""
"276","","bandit","229","608095","0.0-191.0-0.0","52415738","wem/bandit_single","ATKG4FI2S5MVL","pain","8","","72","H","0","img/none_selected.jpg","0","0","1","","0.228047793","false","154","","0.228047793","main_expt","","0.2845613835","","0.2127808211","","0.1473662378","","","","","",""
"70","","bandit","230","609930","0.0-192.0-0.0","52415738","wem/bandit_single","ATKG4FI2S5MVL","pain","8","","76","L","3","","0","0","1","","0.1466549972","false","155","","0.2683949018","main_expt","","0.2707345723","","0.205053704","","0.1466549972","","","","","",""
"274","","bandit","231","611967","0.0-193.0-0.0","52415738","wem/bandit_single","ATKG4FI2S5MVL","pain","8","","75","K","2","","0","1","0","","0.1648482415","false","156","","0.3192141369","main_expt","","0.3156720475","","0.1648482415","","0.1127453184","","","","","",""
"74","","bandit","232","613807","0.0-194.0-0.0","52415738","wem/bandit_single","ATKG4FI2S5MVL","pain","8","","75","K","2","","0","1","0","","0.1888047422","false","157","","0.3402823895","main_expt","","0.3101066834","","0.1888047422","","0.1577506677","","","","","",""
"229","","bandit","233","615798","0.0-195.0-0.0","52415738","wem/bandit_single","ATKG4FI2S5MVL","pain","8","","75","K","2","","0","0","1","","0.1759444775","false","158","","0.2944958958","main_expt","","0.3236654942","","0.1759444775","","0.177177298","","","","","",""
"352","","bandit","234","617917","0.0-196.0-0.0","52415738","wem/bandit_single","ATKG4FI2S5MVL","pain","8","","74","J","1","","0","0","1","","0.2735657487","false","159","","0.3007248388","main_expt","","0.2735657487","","0.2066832709","","0.1693510486","","","","","",""
"123","","bandit","235","619804","0.0-197.0-0.0","52415738","wem/bandit_single","ATKG4FI2S5MVL","pain","8","","72","H","0","img/none_selected.jpg","0","1","0","","0.3179332055","false","160","","0.3179332055","main_expt","","0.2384912546","","0.2570817279","","0.1230292859","","","","","",""
"257","","bandit","236","621824","0.0-198.0-0.0","52415738","wem/bandit_single","ATKG4FI2S5MVL","pain","8","","72","H","0","img/none_selected.jpg","0","1","0","","0.2506164635","false","161","","0.2506164635","main_expt","","0.2615252743","","0.2244749933","","0.07903667538","","","","","",""
"281","","bandit","237","623873","0.0-199.0-0.0","52415738","wem/bandit_single","ATKG4FI2S5MVL","pain","8","","72","H","0","img/none_selected.jpg","0","1","0","","0.2858836385","false","162","","0.2858836385","main_expt","","0.2187643747","","0.23263707","","0.1136507332","","","","","",""
"259","","bandit","238","625899","0.0-200.0-0.0","52415738","wem/bandit_single","ATKG4FI2S5MVL","pain","8","","72","H","0","img/none_selected.jpg","0","0","1","","0.2848163613","false","163","","0.2848163613","main_expt","","0.1909081127","","0.2287127565","","0.1137116213","","","","","",""
"185","","bandit","239","627849","0.0-201.0-0.0","52415738","wem/bandit_single","ATKG4FI2S5MVL","pain","8","","76","L","3","","0","1","0","","0.1254102563","false","164","","0.2688566635","main_expt","","0.1808716434","","0.2303253206","","0.1254102563","","","","","",""
"106","","bandit","240","629718","0.0-202.0-0.0","52415738","wem/bandit_single","ATKG4FI2S5MVL","pain","8","","76","L","3","","0","0","1","","0.1216805934","false","165","","0.2921202554","main_expt","","0.2118073572","","0.2771057403","","0.1216805934","","","","","",""
"45","","bandit","241","631526","0.0-203.0-0.0","52415738","wem/bandit_single","ATKG4FI2S5MVL","pain","8","","75","K","2","","0","1","0","","0.2371810998","false","166","","0.3143591269","main_expt","","0.2410554973","","0.2371810998","","0.1291529517","","","","","",""
"220","","bandit","242","633515","0.0-204.0-0.0","52415738","wem/bandit_single","ATKG4FI2S5MVL","pain","8","","75","K","2","","0","1","0","","0.2349122652","false","167","","0.2892924204","main_expt","","0.2574005288","","0.2349122652","","0.1535345887","","","","","",""
"336","","bandit","243","635612","0.0-205.0-0.0","52415738","wem/bandit_single","ATKG4FI2S5MVL","pain","8","","75","K","2","","0","0","1","","0.1959020284","false","168","","0.2786305655","main_expt","","0.2729884233","","0.1959020284","","0.1435034989","","","","","",""
"340","","bandit","244","637723","0.0-206.0-0.0","52415738","wem/bandit_single","ATKG4FI2S5MVL","pain","8","","74","J","1","","0","0","1","","0.2625821735","false","169","","0.246803054","main_expt","","0.2625821735","","0.1899859579","","0.1957458285","","","","","",""
"137","","bandit","245","639626","0.0-207.0-0.0","52415738","wem/bandit_single","ATKG4FI2S5MVL","pain","8","","75","K","2","","0","0","1","","0.2213833812","false","170","","0.2375021307","main_expt","","0.3100542845","","0.2213833812","","0.1308867566","","","","","",""
"190","","bandit","246","641583","0.0-208.0-0.0","52415738","wem/bandit_single","ATKG4FI2S5MVL","pain","8","","76","L","3","","0","0","1","","0.1422271972","false","171","","0.2965678991","main_expt","","0.3083945368","","0.1589997081","","0.1422271972","","","","","",""
"130","","bandit","247","643481","0.0-209.0-0.0","52415738","wem/bandit_single","ATKG4FI2S5MVL","pain","8","","74","J","1","","0","0","1","","0.3929186772","false","172","","0.2696718616","main_expt","","0.3929186772","","0.1669714507","","0.1541925874","","","","","",""
"400","","bandit","248","645647","0.0-210.0-0.0","52415738","wem/bandit_single","ATKG4FI2S5MVL","pain","8","","72","H","0","img/none_selected.jpg","0","0","1","","0.2576521005","false","173","","0.2576521005","main_expt","","0.4107736206","","0.1699847696","","0.1416394444","","","","","",""
"392","","bandit","249","647806","0.0-211.0-0.0","52415738","wem/bandit_single","ATKG4FI2S5MVL","pain","8","","75","K","2","","0","0","1","","0.202136981","false","174","","0.2839516933","main_expt","","0.4267170337","","0.202136981","","0.1207830423","","","","","",""
"82","","bandit","250","649657","0.0-212.0-0.0","52415738","wem/bandit_single","ATKG4FI2S5MVL","pain","8","","74","J","1","","0","0","1","","0.420504823","false","175","","0.2932452363","main_expt","","0.420504823","","0.1863880777","","0.1636312712","","","","","",""
"177","","bandit","251","651597","0.0-213.0-0.0","52415738","wem/bandit_single","ATKG4FI2S5MVL","pain","8","","76","L","3","","0","0","1","","0.186569684","false","176","","0.3118313574","main_expt","","0.3956962169","","0.1426909825","","0.186569684","","","","","",""
"302","","bandit","252","653663","0.0-214.0-0.0","52415738","wem/bandit_single","ATKG4FI2S5MVL","pain","8","","75","K","2","","0","1","0","","0.1335645184","false","177","","0.3378695823","main_expt","","0.3834761318","","0.1335645184","","0.1089038478","","","","","",""
"231","","bandit","253","655665","0.0-215.0-0.0","52415738","wem/bandit_single","ATKG4FI2S5MVL","pain","8","","75","K","2","","0","0","1","","0.09719791569","false","178","","0.3234122319","main_expt","","0.4167112469","","0.09719791569","","0.08465244813","","","","","",""
"290","","bandit","254","657717","0.0-216.0-0.0","52415738","wem/bandit_single","ATKG4FI2S5MVL","pain","8","","74","J","1","","0","0","1","","0.4370197561","false","179","","0.3281528324","main_expt","","0.4370197561","","0.07123289457","","0.1015747644","","","","","",""
"226","","bandit","255","659714","0.0-217.0-0.0","52415738","wem/bandit_single","ATKG4FI2S5MVL","pain","8","","75","K","2","","0","0","1","","0.05555663239","false","180","","0.340497037","main_expt","","0.3776598584","","0.05555663239","","0.1277953302","","","","","",""
"125","","bandit","256","661603","0.0-218.0-0.0","52415738","wem/bandit_single","ATKG4FI2S5MVL","pain","8","","76","L","3","","0","0","1","","0.1854921141","false","181","","0.3007371283","main_expt","","0.3636519722","","0.04396828199","","0.1854921141","","","","","",""
"423","","bandit","257","663792","0.0-219.0-0.0","52415738","wem/bandit_single","ATKG4FI2S5MVL","pain","8","","72","H","0","img/none_selected.jpg","0","0","1","","0.3190136055","false","182","","0.3190136055","main_expt","","0.3246411676","","0.02691259782","","0.2273529654","","","","","",""
"390","","bandit","258","665949","0.0-220.0-0.0","52415738","wem/bandit_single","ATKG4FI2S5MVL","pain","8","","74","J","1","","0","0","1","","0.3187018958","false","183","","0.322323442","main_expt","","0.3187018958","","0.04807599522","","0.2600234541","","","","","",""
"419","","bandit","259","668134","0.0-221.0-0.0","52415738","wem/bandit_single","ATKG4FI2S5MVL","pain","8","","75","K","2","","0","0","1","","0.05076165442","false","184","","0.3086696071","main_expt","","0.3497063737","","0.05076165442","","0.2689652485","","","","","",""
"161","","bandit","260","670060","0.0-222.0-0.0","52415738","wem/bandit_single","ATKG4FI2S5MVL","pain","8","","75","K","2","","0","0","1","","0.1128087831","false","185","","0.3146814862","main_expt","","0.3334532315","","0.1128087831","","0.2646203852","","","","","",""
"101","","bandit","261","671924","0.0-223.0-0.0","52415738","wem/bandit_single","ATKG4FI2S5MVL","pain","8","","76","L","3","","0","0","1","","0.2038557162","false","186","","0.3353274036","main_expt","","0.3511592443","","0.1592260056","","0.2038557162","","","","","",""
"90","","bandit","262","673783","0.0-224.0-0.0","52415738","wem/bandit_single","ATKG4FI2S5MVL","pain","8","","76","L","3","","0","1","0","","0.2643634763","false","187","","0.331036234","main_expt","","0.3758503369","","0.2195828404","","0.2643634763","","","","","",""
"231","","bandit","263","675778","0.0-225.0-0.0","52415738","wem/bandit_single","ATKG4FI2S5MVL","pain","8","","76","L","3","","0","0","1","","0.2137054787","false","188","","0.3061178756","main_expt","","0.3951098987","","0.214856838","","0.2137054787","","","","","",""
"237","","bandit","264","677782","0.0-226.0-0.0","52415738","wem/bandit_single","ATKG4FI2S5MVL","pain","8","","75","K","2","","0","0","1","","0.2103369464","false","189","","0.3455914038","main_expt","","0.3766733461","","0.2103369464","","0.2349639762","","","","","",""
"80","","bandit","265","679633","0.0-227.0-0.0","52415738","wem/bandit_single","ATKG4FI2S5MVL","pain","8","","76","L","3","","0","1","0","","0.2067261929","false","190","","0.3734842368","main_expt","","0.3974997784","","0.1932940482","","0.2067261929","","","","","",""
"189","","bandit","266","681590","0.0-228.0-0.0","52415738","wem/bandit_single","ATKG4FI2S5MVL","pain","8","","76","L","3","","0","0","1","","0.275245882","false","191","","0.3648323685","main_expt","","0.4174686418","","0.2285646161","","0.275245882","","","","","",""
"87","","bandit","267","683446","0.0-229.0-0.0","52415738","wem/bandit_single","ATKG4FI2S5MVL","pain","8","","76","L","3","","0","0","1","","0.306220044","false","192","","0.3339781981","main_expt","","0.3963748123","","0.2589031043","","0.306220044","","","","","",""
"194","","bandit","268","685402","0.0-230.0-0.0","52415738","wem/bandit_single","ATKG4FI2S5MVL","pain","8","","75","K","2","","0","0","1","","0.2195537535","false","193","","0.3342714415","main_expt","","0.3921748604","","0.2195537535","","0.3035773814","","","","","",""
"31","","bandit","269","687200","0.0-231.0-0.0","52415738","wem/bandit_single","ATKG4FI2S5MVL","pain","8","","76","L","3","","0","1","0","","0.2510827831","false","194","","0.3241295504","main_expt","","0.3580841109","","0.2027550427","","0.2510827831","","","","","",""
"448","","bandit","270","689415","0.0-232.0-0.0","52415738","wem/bandit_single","ATKG4FI2S5MVL","pain","8","","75","K","2","","0","0","1","","0.1862287394","false","195","","0.3116310431","main_expt","","0.3508589263","","0.1862287394","","0.2455858858","","","","","",""
"555","","bandit","271","691737","0.0-233.0-0.0","52415738","wem/bandit_single","ATKG4FI2S5MVL","pain","8","","76","L","3","","0","0","1","","0.2514601016","false","196","","0.3757707762","main_expt","","0.3580593089","","0.1892299528","","0.2514601016","","","","","",""
"585","","bandit","272","694087","0.0-234.0-0.0","52415738","wem/bandit_single","ATKG4FI2S5MVL","pain","8","","76","L","3","","0","0","1","","0.2735270373","false","197","","0.3510132286","main_expt","","0.325214339","","0.2217707201","","0.2735270373","","","","","",""
"121","","bandit","273","695971","0.0-235.0-0.0","52415738","wem/bandit_single","ATKG4FI2S5MVL","pain","8","","74","J","1","","0","1","0","","0.3214736551","false","198","","0.3775824693","main_expt","","0.3214736551","","0.2622368769","","0.1856542716","","","","","",""
"126","","bandit","274","697858","0.0-236.0-0.0","52415738","wem/bandit_single","ATKG4FI2S5MVL","pain","8","","74","J","1","","0","0","1","","0.3134841864","false","199","","0.3591355879","main_expt","","0.3134841864","","0.2566369559","","0.1439471636","","","","","",""
"53","","bandit","275","699674","0.0-237.0-0.0","52415738","wem/bandit_single","ATKG4FI2S5MVL","pain","8","","75","K","2","","0","1","0","","0.2405232655","false","200","","0.4329566742","main_expt","","0.3484934822","","0.2405232655","","0.1920673188","","","","","",""
"9","","bandit","276","701448","0.0-238.0-0.0","52415738","wem/bandit_single","ATKG4FI2S5MVL","pain","8","","75","K","2","","0","0","1","","0.191632201","false","201","","0.4316294991","main_expt","","0.3509587021","","0.191632201","","0.2139557707","","","","","",""
"266","","bandit","277","703480","0.0-239.0-0.0","52415738","wem/bandit_single","ATKG4FI2S5MVL","pain","8","","72","H","0","img/none_selected.jpg","0","0","1","","0.4446061493","false","202","","0.4446061493","main_expt","","0.3472711197","","0.1860277461","","0.2411081829","","","","","",""
"86","","bandit","278","705331","0.0-240.0-0.0","52415738","wem/bandit_single","ATKG4FI2S5MVL","pain","8","","76","L","3","","0","0","1","","0.2229679022","false","203","","0.4350640844","main_expt","","0.3501901851","","0.1959395152","","0.2229679022","","","","","",""
"81","","bandit","279","707182","0.0-241.0-0.0","52415738","wem/bandit_single","ATKG4FI2S5MVL","pain","8","","74","J","1","","0","0","1","","0.4021923856","false","204","","0.4511953558","main_expt","","0.4021923856","","0.1909798814","","0.2094072873","","","","","",""
"465","","bandit","280","709413","0.0-242.0-0.0","52415738","wem/bandit_single","ATKG4FI2S5MVL","pain","8","","75","K","2","","0","0","1","","0.1952925147","false","205","","0.4444608137","main_expt","","0.4103624794","","0.1952925147","","0.2061243076","","","","","",""
"103","","bandit","281","711288","0.0-243.0-0.0","52415738","wem/bandit_single","ATKG4FI2S5MVL","pain","8","","75","K","2","","0","1","0","","0.2333477628","false","206","","0.4174874576","main_expt","","0.3884407208","","0.2333477628","","0.1830656651","","","","","",""
"2106","","bandit","282","715157","0.0-244.0-0.0","52415738","wem/bandit_single","ATKG4FI2S5MVL","pain","8","","74","J","1","","0","1","0","","0.4205181933","false","207","","0.4473837798","main_expt","","0.4205181933","","0.2366383375","","0.1806213093","","","","","",""
"1105","","bandit","283","718024","0.0-245.0-0.0","52415738","wem/bandit_single","ATKG4FI2S5MVL","pain","8","","74","J","1","","0","0","1","","0.39705837","false","208","","0.4423282801","main_expt","","0.39705837","","0.2588239296","","0.1547428587","","","","","",""
"246","","bandit","284","720035","0.0-246.0-0.0","52415738","wem/bandit_single","ATKG4FI2S5MVL","pain","8","","75","K","2","","0","0","1","","0.2109346514","false","209","","0.4495798672","main_expt","","0.3763678409","","0.2109346514","","0.1633509089","","","","","",""
"1621","","bandit","285","723420","0.0-247.0-0.0","52415738","wem/bandit_single","ATKG4FI2S5MVL","pain","8","","74","J","1","","0","0","1","","0.329669689","false","210","","0.4604116181","main_expt","","0.329669689","","0.2352346414","","0.194224154","","","","","",""
"127","","bandit","286","725315","0.0-248.0-0.0","52415738","wem/bandit_single","ATKG4FI2S5MVL","pain","8","","76","L","3","","0","0","1","","0.1428536625","false","211","","0.4515605979","main_expt","","0.3234151823","","0.1919095989","","0.1428536625","","","","","",""
"626","","bandit","287","727706","0.0-249.0-0.0","52415738","wem/bandit_single","ATKG4FI2S5MVL","pain","8","","72","H","0","img/none_selected.jpg","0","0","1","","0.3796359761","false","212","","0.3796359761","main_expt","","0.346289724","","0.2511997366","","0.1876263767","","","","","",""
"819","","bandit","288","730292","0.0-250.0-0.0","52415738","wem/bandit_single","ATKG4FI2S5MVL","pain","8","","72","H","0","img/none_selected.jpg","0","0","1","","0.4098311692","false","213","","0.4098311692","main_expt","","0.3579646626","","0.2247602752","","0.1767426991","","","","","",""
"377","","bandit","289","732440","0.0-251.0-0.0","52415738","wem/bandit_single","ATKG4FI2S5MVL","pain","8","","74","J","1","","0","1","0","","0.3871938136","false","214","","0.3758430492","main_expt","","0.3871938136","","0.2078026042","","0.1997003326","","","","","",""
"342","","bandit","290","734547","0.0-252.0-0.0","52415738","wem/bandit_single","ATKG4FI2S5MVL","pain","8","","74","J","1","","0","0","1","","0.4072701047","false","215","","0.3391734167","main_expt","","0.4072701047","","0.2000367883","","0.1753208105","","","","","",""
"552","","bandit","291","736869","0.0-253.0-0.0","52415738","wem/bandit_single","ATKG4FI2S5MVL","pain","8","","75","K","2","","0","0","1","","0.1850279066","false","216","","0.3292806148","main_expt","","0.4139997029","","0.1850279066","","0.1526073348","","","","","",""
"345","","bandit","292","738982","0.0-254.0-0.0","52415738","wem/bandit_single","ATKG4FI2S5MVL","pain","8","","76","L","3","","0","0","1","","0.1885901152","false","217","","0.3672552775","main_expt","","0.4058129166","","0.1862329662","","0.1885901152","","","","","",""
"72","","bandit","293","740816","0.0-255.0-0.0","52415738","wem/bandit_single","ATKG4FI2S5MVL","pain","8","","74","J","1","","0","0","1","","0.3831507141","false","218","","0.3540988412","main_expt","","0.3831507141","","0.2076422808","","0.2068683321","","","","","",""
"217","","bandit","294","742798","0.0-256.0-0.0","52415738","wem/bandit_single","ATKG4FI2S5MVL","pain","8","","75","K","2","","0","0","1","","0.1693095695","false","219","","0.3705907093","main_expt","","0.3975704748","","0.1693095695","","0.1830460615","","","","","",""
"551","","bandit","295","745114","0.0-257.0-0.0","52415738","wem/bandit_single","ATKG4FI2S5MVL","pain","8","","72","H","0","img/none_selected.jpg","0","1","0","","0.4071767116","false","220","","0.4071767116","main_expt","","0.420208779","","0.1643321708","","0.1510464272","","","","","",""
"154","","bandit","296","747031","0.0-258.0-0.0","52415738","wem/bandit_single","ATKG4FI2S5MVL","pain","8","","72","H","0","img/none_selected.jpg","0","0","1","","0.4000591573","false","221","","0.4000591573","main_expt","","0.4277126104","","0.1755642267","","0.1195154075","","","","","",""
"350","","bandit","297","749146","0.0-259.0-0.0","52415738","wem/bandit_single","ATKG4FI2S5MVL","pain","8","","76","L","3","","0","0","1","","0.1322821073","false","222","","0.4257242725","main_expt","","0.4098861052","","0.2047466037","","0.1322821073","","","","","",""
"78","","bandit","298","750986","0.0-260.0-0.0","52415738","wem/bandit_single","ATKG4FI2S5MVL","pain","8","","72","H","0","img/none_selected.jpg","0","0","1","","0.4084538547","false","223","","0.4084538547","main_expt","","0.3865692481","","0.1261696039","","0.1634864242","","","","","",""
"219","","bandit","299","752971","0.0-261.0-0.0","52415738","wem/bandit_single","ATKG4FI2S5MVL","pain","8","","74","J","1","","0","0","1","","0.3942994903","false","224","","0.3756333804","main_expt","","0.3942994903","","0.1671605087","","0.1927622759","","","","","",""
"238","","bandit","300","754980","0.0-262.0-0.0","52415738","wem/bandit_single","ATKG4FI2S5MVL","pain","8","","75","K","2","","0","0","1","","0.1498322393","false","225","","0.3977261909","main_expt","","0.3444994861","","0.1498322393","","0.1949177646","","","","","",""
"328","","bandit","301","757073","0.0-263.0-0.0","52415738","wem/bandit_single","ATKG4FI2S5MVL","pain","8","","72","H","0","img/none_selected.jpg","0","0","1","","0.3876796808","false","226","","0.3876796808","main_expt","","0.4042132592","","0.106170416","","0.1675301724","","","","","",""
"92","","bandit","302","758934","0.0-264.0-0.0","52415738","wem/bandit_single","ATKG4FI2S5MVL","pain","8","","74","J","1","","0","0","1","","0.3906229402","false","227","","0.3213858912","main_expt","","0.3906229402","","0.0897934899","","0.163375113","","","","","",""
"74","","bandit","303","760773","0.0-265.0-0.0","52415738","wem/bandit_single","ATKG4FI2S5MVL","pain","8","","75","K","2","","0","0","1","","0.09443294629","false","228","","0.3331191915","main_expt","","0.3417164876","","0.09443294629","","0.195474145","","","","","",""
"279","","bandit","304","762815","0.0-266.0-0.0","52415738","wem/bandit_single","ATKG4FI2S5MVL","pain","8","","76","L","3","","0","0","1","","0.2410354958","false","229","","0.308496805","main_expt","","0.3222205624","","0.0848669953","","0.2410354958","","","","","",""
"347","","bandit","305","764936","0.0-267.0-0.0","52415738","wem/bandit_single","ATKG4FI2S5MVL","pain","8","","72","H","0","img/none_selected.jpg","0","1","0","","0.2734654059","false","230","","0.2734654059","main_expt","","0.3442672336","","0.0701458292","","0.2567648542","","","","","",""
"274","","bandit","306","766979","0.0-268.0-0.0","52415738","wem/bandit_single","ATKG4FI2S5MVL","pain","8","","72","H","0","img/none_selected.jpg","0","0","1","","0.292212981","false","231","","0.292212981","main_expt","","0.3164459362","","0.1251282835","","0.2304241664","","","","","",""
"337","","bandit","307","769086","0.0-269.0-0.0","52415738","wem/bandit_single","ATKG4FI2S5MVL","pain","8","","75","K","2","","0","0","1","","0.1124912266","false","232","","0.2516656152","main_expt","","0.3396906789","","0.1124912266","","0.2264886823","","","","","",""
"432","","bandit","308","771286","0.0-270.0-0.0","52415738","wem/bandit_single","ATKG4FI2S5MVL","pain","8","","74","J","1","","0","1","0","","0.3008540409","false","233","","0.2563877418","main_expt","","0.3008540409","","0.1535494164","","0.1892320941","","","","","",""
"368","","bandit","309","773416","0.0-271.0-0.0","52415738","wem/bandit_single","ATKG4FI2S5MVL","pain","8","","74","J","1","","0","0","1","","0.2767988229","false","234","","0.283882603","main_expt","","0.2767988229","","0.1389628654","","0.1556895318","","","","","",""
"263","","bandit","310","775439","0.0-272.0-0.0","52415738","wem/bandit_single","ATKG4FI2S5MVL","pain","8","","76","L","3","","0","1","0","","0.1976044491","false","235","","0.2758852766","main_expt","","0.2507781603","","0.1680793718","","0.1976044491","","","","","",""
"325","","bandit","311","777531","0.0-273.0-0.0","52415738","wem/bandit_single","ATKG4FI2S5MVL","pain","8","","76","L","3","","0","0","1","","0.1468950029","false","236","","0.2434452049","main_expt","","0.3091667607","","0.2037097706","","0.1468950029","","","","","",""
"171","","bandit","312","779465","0.0-274.0-0.0","52415738","wem/bandit_single","ATKG4FI2S5MVL","pain","8","","75","K","2","","0","1","0","","0.1897176974","false","237","","0.2405517979","main_expt","","0.2883211118","","0.1897176974","","0.1365515699","","","","","",""
"1853","","bandit","313","783084","0.0-275.0-0.0","52415738","wem/bandit_single","ATKG4FI2S5MVL","pain","8","","75","K","2","","0","0","1","","0.2317710791","false","238","","0.2260832521","main_expt","","0.2756444762","","0.2317710791","","0.1527077476","","","","","",""
"956","","bandit","314","785804","0.0-276.0-0.0","52415738","wem/bandit_single","ATKG4FI2S5MVL","pain","8","","74","J","1","","0","0","1","","0.3061346513","false","239","","0.2061693665","main_expt","","0.3061346513","","0.2206906913","","0.1315224722","","","","","",""
"54","","bandit","315","787623","0.0-277.0-0.0","52415738","wem/bandit_single","ATKG4FI2S5MVL","pain","8","","72","H","0","img/none_selected.jpg","0","0","1","","0.2203195159","false","240","","0.2203195159","main_expt","","0.3274201615","","0.2155283076","","0.1398926963","","","","","",""
"422","","bandit","316","789809","0.0-278.0-0.0","52415738","wem/bandit_single","ATKG4FI2S5MVL","pain","8","","76","L","3","","0","1","0","","0.1698873683","false","241","","0.2230507071","main_expt","","0.2838770346","","0.2386015387","","0.1698873683","","","","","",""
"146","","bandit","317","791723","0.0-279.0-0.0","52415738","wem/bandit_single","ATKG4FI2S5MVL","pain","8","","76","L","3","","0","0","1","","0.1693915972","false","242","","0.1834748297","main_expt","","0.261873528","","0.2178179326","","0.1693915972","","","","","",""
"385","","bandit","318","793873","0.0-280.0-0.0","52415738","wem/bandit_single","ATKG4FI2S5MVL","pain","8","","76","L","3","","0","0","1","","0.2011280514","false","243","","0.1450766806","main_expt","","0.2346518895","","0.2209910316","","0.2011280514","","","","","",""
"223","","bandit","319","795858","0.0-281.0-0.0","52415738","wem/bandit_single","ATKG4FI2S5MVL","pain","8","","75","K","2","","0","0","1","","0.2202366047","false","244","","0.1407015906","main_expt","","0.2253303202","","0.2202366047","","0.283074141","","","","","",""
"116","","bandit","320","797738","0.0-282.0-0.0","52415738","wem/bandit_single","ATKG4FI2S5MVL","pain","8","","74","J","1","","0","1","0","","0.2379184421","false","245","","0.1386250556","main_expt","","0.2379184421","","0.2369425358","","0.2960363525","","","","","",""
"188","","bandit","321","799688","0.0-283.0-0.0","52415738","wem/bandit_single","ATKG4FI2S5MVL","pain","8","","74","J","1","","0","0","1","","0.1704118475","false","246","","0.1561911267","main_expt","","0.1704118475","","0.2437218948","","0.2985154159","","","","","",""
"292","","bandit","322","801744","0.0-284.0-0.0","52415738","wem/bandit_single","ATKG4FI2S5MVL","pain","8","","75","K","2","","0","0","1","","0.2573167276","false","247","","0.251644506","main_expt","","0.1520093858","","0.2573167276","","0.3159682012","","","","","",""
"1342","","bandit","323","804847","0.0-285.0-0.0","52415738","wem/bandit_single","ATKG4FI2S5MVL","pain","8","","72","H","0","img/none_selected.jpg","0","0","1","","0.2541276422","false","248","","0.2541276422","main_expt","","0.1246217458","","0.255349996","","0.2937445921","","","","","",""
"182","","bandit","324","806794","0.0-286.0-0.0","52415738","wem/bandit_single","ATKG4FI2S5MVL","pain","8","","76","L","3","","0","0","1","","0.2794909668","false","249","","0.1924412691","main_expt","","0.1525969556","","0.2866877344","","0.2794909668","","","","","",""
"25","","bandit","325","808587","0.0-287.0-0.0","52415738","wem/bandit_single","ATKG4FI2S5MVL","pain","8","","74","J","1","","0","0","1","","0.1500628479","false","250","","0.1397358892","main_expt","","0.1500628479","","0.2330780591","","0.2327966623","","","","","",""
"886","","bandit","326","811241","0.0-288.0-0.0","52415738","wem/bandit_single","ATKG4FI2S5MVL","pain","8","","75","K","2","","0","1","0","","0.2580196572","false","251","","0.1362233376","main_expt","","0.1141396938","","0.2580196572","","0.2595602212","","","","","",""
"255","","bandit","327","813266","0.0-289.0-0.0","52415738","wem/bandit_single","ATKG4FI2S5MVL","pain","8","","75","K","2","","0","0","1","","0.2003146692","false","252","","0.1796418735","main_expt","","0.1476089834","","0.2003146692","","0.2715763176","","","","","",""
"30","","bandit","328","815063","0.0-290.0-0.0","52415738","wem/bandit_single","ATKG4FI2S5MVL","pain","8","","72","H","0","img/none_selected.jpg","0","0","1","","0.1833608075","false","253","","0.1833608075","main_expt","","0.175183139","","0.1651092288","","0.3146654463","","","","","",""
"693","","bandit","329","817527","0.0-291.0-0.0","52415738","wem/bandit_single","ATKG4FI2S5MVL","pain","8","","72","H","0","img/none_selected.jpg","0","0","1","","0.1983034343","false","254","","0.1983034343","main_expt","","0.1916323123","","0.1413675546","","0.3037610447","","","","","",""
"2","","bandit","330","819297","0.0-292.0-0.0","52415738","wem/bandit_single","ATKG4FI2S5MVL","pain","8","","76","L","3","","0","0","1","","0.287825992","false","255","","0.2286544637","main_expt","","0.1888714334","","0.1801919014","","0.287825992","","","","","",""
"186","","bandit","331","821248","0.0-293.0-0.0","52415738","wem/bandit_single","ATKG4FI2S5MVL","pain","8","","75","K","2","","0","0","1","","0.1883387327","false","256","","0.2502735072","main_expt","","0.2338577058","","0.1883387327","","0.2673332977","","","","","",""
"688","","bandit","332","823706","0.0-294.0-0.0","52415738","wem/bandit_single","ATKG4FI2S5MVL","pain","8","","74","J","1","","0","0","1","","0.2235288738","false","257","","0.2657937058","main_expt","","0.2235288738","","0.1757220287","","0.2867614738","","","","","",""
"800","","bandit","333","826275","0.0-295.0-0.0","52415738","wem/bandit_single","ATKG4FI2S5MVL","pain","8","","74","J","1","","0","0","1","","0.2256298632","false","258","","0.2326681124","main_expt","","0.2256298632","","0.1817694486","","0.2432485896","","","","","",""
"436","","bandit","334","828481","0.0-296.0-0.0","52415738","wem/bandit_single","ATKG4FI2S5MVL","pain","8","","75","K","2","","0","0","1","","0.1938363466","false","259","","0.2128848171","main_expt","","0.229367941","","0.1938363466","","0.2433124215","","","","","",""
"295","","bandit","335","830546","0.0-297.0-0.0","52415738","wem/bandit_single","ATKG4FI2S5MVL","pain","8","","76","L","3","","0","0","1","","0.202057327","false","260","","0.261065439","main_expt","","0.2585863351","","0.2129025296","","0.202057327","","","","","",""
"13","","bandit","336","832329","0.0-298.0-0.0","52415738","wem/bandit_single","ATKG4FI2S5MVL","pain","8","","72","H","0","img/none_selected.jpg","0","0","1","","0.2693274395","false","261","","0.2693274395","main_expt","","0.2748644017","","0.1931457884","","0.163702413","","","","","",""
"418","","bandit","337","834512","0.0-299.0-0.0","52415738","wem/bandit_single","ATKG4FI2S5MVL","pain","8","","74","J","1","","0","0","1","","0.288340978","false","262","","0.3386888623","main_expt","","0.288340978","","0.183306516","","0.1317961998","","","","","",""
"653","","bandit","338","836933","0.0-300.0-0.0","52415738","wem/bandit_single","ATKG4FI2S5MVL","pain","8","","75","K","2","","0","0","1","","0.1293037787","false","263","","0.3645909238","main_expt","","0.3151532186","","0.1293037787","","0.09680570831","","","","","",""
"428","","bandit","339","839134","0.0-301.0-0.0","52415738","wem/bandit_single","ATKG4FI2S5MVL","pain","8","","76","L","3","","0","0","1","","0.08846786375","false","264","","0.3437159196","main_expt","","0.2931268787","","0.1386072774","","0.08846786375","","","","","",""
"440","","bandit","340","841340","0.0-302.0-0.0","52415738","wem/bandit_single","ATKG4FI2S5MVL","pain","8","","75","K","2","","0","1","0","","0.1511252148","false","265","","0.3644358952","main_expt","","0.3131275506","","0.1511252148","","0.08556864258","","","","","",""
"397","","bandit","341","843504","0.0-303.0-0.0","52415738","wem/bandit_single","ATKG4FI2S5MVL","pain","8","","75","K","2","","0","0","1","","0.2186772706","false","266","","0.3904852039","main_expt","","0.336523231","","0.2186772706","","0.0706515048","","","","","",""
"173","","bandit","342","845448","0.0-304.0-0.0","52415738","wem/bandit_single","ATKG4FI2S5MVL","pain","8","","74","J","1","","0","0","1","","0.2850369317","false","267","","0.3896615427","main_expt","","0.2850369317","","0.2625163009","","0.0747424838","","","","","",""
"343","","bandit","343","847561","0.0-305.0-0.0","52415738","wem/bandit_single","ATKG4FI2S5MVL","pain","8","","74","J","1","","0","0","1","","0.3163307124","false","268","","0.4017278216","main_expt","","0.3163307124","","0.3140442454","","0.112617448","","","","","",""
"544","","bandit","344","849871","0.0-306.0-0.0","52415738","wem/bandit_single","ATKG4FI2S5MVL","pain","8","","75","K","2","","0","1","0","","0.3069084364","false","269","","0.370996795","main_expt","","0.2956683275","","0.3069084364","","0.1406639307","","","","","",""
"383","","bandit","345","852022","0.0-307.0-0.0","52415738","wem/bandit_single","ATKG4FI2S5MVL","pain","8","","75","K","2","","0","0","1","","0.2814908846","false","270","","0.4255483526","main_expt","","0.3574655381","","0.2814908846","","0.1398727949","","","","","",""
"1197","","bandit","346","854986","0.0-308.0-0.0","52415738","wem/bandit_single","ATKG4FI2S5MVL","pain","8","","76","L","3","","0","0","1","","0.1430486157","false","271","","0.3948114384","main_expt","","0.3969117111","","0.3060786573","","0.1430486157","","","","","",""
"512","","bandit","347","857261","0.0-309.0-0.0","52415738","wem/bandit_single","ATKG4FI2S5MVL","pain","8","","72","H","0","img/none_selected.jpg","0","0","1","","0.3713372483","false","272","","0.3713372483","main_expt","","0.3938657786","","0.3555003363","","0.1872928851","","","","","",""
"277","","bandit","348","859304","0.0-310.0-0.0","52415738","wem/bandit_single","ATKG4FI2S5MVL","pain","8","","74","J","1","","0","0","1","","0.3903330825","false","273","","0.3650537767","main_expt","","0.3903330825","","0.3980140183","","0.1769074474","","","","","",""
"159","","bandit","349","861228","0.0-311.0-0.0","52415738","wem/bandit_single","ATKG4FI2S5MVL","pain","8","","74","J","1","","0","1","0","","0.4236793781","false","274","","0.3414565802","main_expt","","0.4236793781","","0.4077181827","","0.1820324592","","","","","",""
"317","","bandit","350","863315","0.0-312.0-0.0","52415738","wem/bandit_single","ATKG4FI2S5MVL","pain","8","","74","J","1","","0","1","0","","0.4320968281","false","275","","0.3027622838","main_expt","","0.4320968281","","0.4142369189","","0.1923133529","","","","","",""
"332","","bandit","351","865412","0.0-313.0-0.0","52415738","wem/bandit_single","ATKG4FI2S5MVL","pain","8","","74","J","1","","0","1","0","","0.4017915655","false","276","","0.3125082267","main_expt","","0.4017915655","","0.4250096067","","0.1917589367","","","","","",""
"302","","bandit","352","867483","0.0-314.0-0.0","52415738","wem/bandit_single","ATKG4FI2S5MVL","pain","8","","74","J","1","","0","0","1","","0.3548215972","false","277","","0.348890663","main_expt","","0.3548215972","","0.4378988515","","0.1667093518","","","","","",""
"138","","bandit","353","869386","0.0-315.0-0.0","52415738","wem/bandit_single","ATKG4FI2S5MVL","pain","8","","74","J","1","","0","1","0","","0.3683165275","false","278","","0.3341457036","main_expt","","0.3683165275","","0.4323676568","","0.1695638059","","","","","",""
"123","","bandit","354","871280","0.0-316.0-0.0","52415738","wem/bandit_single","ATKG4FI2S5MVL","pain","8","","74","J","1","","0","1","0","","0.3750953637","false","279","","0.2341959149","main_expt","","0.3750953637","","0.4391545144","","0.1696283439","","","","","",""
"127","","bandit","355","873177","0.0-317.0-0.0","52415738","wem/bandit_single","ATKG4FI2S5MVL","pain","8","","74","J","1","","0","0","1","","0.3557095414","false","280","","0.1839622844","main_expt","","0.3557095414","","0.4467207207","","0.09227733008","","","","","",""
"104","","bandit","356","875044","0.0-318.0-0.0","52415738","wem/bandit_single","ATKG4FI2S5MVL","pain","8","","74","J","1","","0","0","1","","0.374333358","false","281","","0.1303375237","main_expt","","0.374333358","","0.3922333676","","0.08059064446","","","","","",""
"69","","bandit","357","876881","0.0-319.0-0.0","52415738","wem/bandit_single","ATKG4FI2S5MVL","pain","8","","74","J","1","","0","1","0","","0.3786855632","false","282","","0.07449941097","main_expt","","0.3786855632","","0.4243132136","","0.06236597977","","","","","",""
"116","","bandit","358","878768","0.0-320.0-0.0","52415738","wem/bandit_single","ATKG4FI2S5MVL","pain","8","","74","J","1","","0","1","0","","0.437514669","false","283","","0.08783129911","main_expt","","0.437514669","","0.4187362854","","0.07782340279","","","","","",""
"393","","bandit","359","880927","0.0-321.0-0.0","52415738","wem/bandit_single","ATKG4FI2S5MVL","pain","8","","74","J","1","","0","1","0","","0.410198323","false","284","","0.08228152097","main_expt","","0.410198323","","0.422543139","","0.07564660971","","","","","",""
"267","","bandit","360","882959","0.0-322.0-0.0","52415738","wem/bandit_single","ATKG4FI2S5MVL","pain","8","","74","J","1","","0","0","1","","0.3777139522","false","285","","0.09246744832","main_expt","","0.3777139522","","0.434302279","","0.08237135124","","","","","",""
"200","","bandit","361","884926","0.0-323.0-0.0","52415738","wem/bandit_single","ATKG4FI2S5MVL","pain","8","","74","J","1","","0","0","1","","0.3841171753","false","286","","0.08394792075","main_expt","","0.3841171753","","0.4094725029","","0.05670298638","","","","","",""
"298","","bandit","362","886993","0.0-324.0-0.0","52415738","wem/bandit_single","ATKG4FI2S5MVL","pain","8","","74","J","1","","0","0","1","","0.3641862554","false","287","","0.1021913287","main_expt","","0.3641862554","","0.3778080042","","0.06647452785","","","","","",""
"215","","bandit","363","888973","0.0-325.0-0.0","52415738","wem/bandit_single","ATKG4FI2S5MVL","pain","8","","75","K","2","","0","1","0","","0.3671495563","false","288","","0.1188664616","main_expt","","0.3192590496","","0.3671495563","","0.04859701272","","","","","",""
"465","","bandit","364","891207","0.0-326.0-0.0","52415738","wem/bandit_single","ATKG4FI2S5MVL","pain","8","","75","K","2","","0","0","1","","0.3622055636","false","289","","0.1050513492","main_expt","","0.3384054944","","0.3622055636","","0.04246321062","","","","","",""
"552","","bandit","365","893529","0.0-327.0-0.0","52415738","wem/bandit_single","ATKG4FI2S5MVL","pain","8","","75","K","2","","0","0","1","","0.3616647964","false","290","","0.1304324694","main_expt","","0.329366118","","0.3616647964","","0.08307379137","","","","","",""
"61","","bandit","366","895356","0.0-328.0-0.0","52415738","wem/bandit_single","ATKG4FI2S5MVL","pain","8","","76","L","3","","0","0","1","","0.09664054691","false","291","","0.09707891459","main_expt","","0.38061917","","0.3521760992","","0.09664054691","","","","","",""
"202","","bandit","367","897325","0.0-329.0-0.0","52415738","wem/bandit_single","ATKG4FI2S5MVL","pain","8","","72","H","0","img/none_selected.jpg","0","1","0","","0.1166693976","false","292","","0.1166693976","main_expt","","0.3703624541","","0.3062989856","","0.1089287446","","","","","",""
"63","","bandit","368","899160","0.0-330.0-0.0","52415738","wem/bandit_single","ATKG4FI2S5MVL","pain","8","","72","H","0","img/none_selected.jpg","0","0","1","","0.1448282665","false","293","","0.1448282665","main_expt","","0.3554666564","","0.2594623792","","0.1426967363","","","","","",""
"62","","bandit","369","900994","0.0-331.0-0.0","52415738","wem/bandit_single","ATKG4FI2S5MVL","pain","8","","72","H","0","img/none_selected.jpg","0","0","1","","0.1486412875","false","294","","0.1486412875","main_expt","","0.3976604504","","0.2666401727","","0.08295656842","","","","","",""
"283","","bandit","370","903049","0.0-332.0-0.0","52415738","wem/bandit_single","ATKG4FI2S5MVL","pain","8","","76","L","3","","0","0","1","","0.07441347029","false","295","","0.1266024918","main_expt","","0.3567340825","","0.2160621863","","0.07441347029","","","","","",""
"108","","bandit","371","904927","0.0-333.0-0.0","52415738","wem/bandit_single","ATKG4FI2S5MVL","pain","8","","76","L","3","","0","0","1","","0.08167080543","false","296","","0.1499702932","main_expt","","0.3802278382","","0.1924669582","","0.08167080543","","","","","",""
"289","","bandit","372","906979","0.0-334.0-0.0","52415738","wem/bandit_single","ATKG4FI2S5MVL","pain","8","","74","J","1","","0","1","0","","0.3764104085","false","297","","0.1124444021","main_expt","","0.3764104085","","0.2572135825","","0.06721412472","","","","","",""
"218","","bandit","373","908965","0.0-335.0-0.0","52415738","wem/bandit_single","ATKG4FI2S5MVL","pain","8","","74","J","1","","0","1","0","","0.3801851674","false","298","","0.122133656","main_expt","","0.3801851674","","0.2660288188","","0.1106754059","","","","","",""
"376","","bandit","374","911113","0.0-336.0-0.0","52415738","wem/bandit_single","ATKG4FI2S5MVL","pain","8","","74","J","1","","0","0","1","","0.37372938","false","299","","0.1064281731","main_expt","","0.37372938","","0.2708303459","","0.146580741","","","","","",""
"284","","bandit","375","913167","0.0-337.0-0.0","52415738","wem/bandit_single","ATKG4FI2S5MVL","pain","8","","74","J","1","","0","1","0","","0.3709854059","false","300","","0.125842667","main_expt","","0.3709854059","","0.1994240472","","0.1256846985","","","","","",""
"367","","bandit","376","915303","0.0-338.0-0.0","52415738","wem/bandit_single","ATKG4FI2S5MVL","pain","8","","74","J","1","","0","0","1","","0.3880870626","false","301","","0.1285904212","main_expt","","0.3880870626","","0.1651355876","","0.1336853102","","","","","",""
"238","","bandit","377","917310","0.0-339.0-0.0","52415738","wem/bandit_single","ATKG4FI2S5MVL","pain","8","","74","J","1","","0","1","0","","0.3724002202","false","302","","0.114934442","main_expt","","0.3724002202","","0.1759020612","","0.09031246233","","","","","",""
