"rt","responses","trial_type","trial_index","time_elapsed","internal_node_id","subjID","study","MID","cond","drift","key_press","respCharCode","respKey","respChoiceNum","respChoice","gems","bombs","no_reward","GemPrChosen","BombPrChosen","practice","trial_counter","WinPr_0","LosePr_0","trial_label","WinPr_1","LosePr_1","WinPr_2","LosePr_2","WinPr_3","LosePr_3","Q0","Q1","Q2","gender","age","ethnicity"
"6980","{""Q0"":""A11W7R2O4RQSSS""}","survey-text","0","7004","0.0-0.0","54250555","wem/bandit_single","A11W7R2O4RQSSS","pain","5","","","","","","","","","","","","","","","","","","","","","","","","","","",""
"15560","","text","1","23589","0.0-1.0","54250555","wem/bandit_single","A11W7R2O4RQSSS","pain","5","32","","","","","","","","","","","","","","","","","","","","","","","","","",""
"3196","","text","2","26795","0.0-2.0","54250555","wem/bandit_single","A11W7R2O4RQSSS","pain","5","32","","","","","","","","","","","","","","","","","","","","","","","","","",""
"1182","","text","3","27988","0.0-3.0","54250555","wem/bandit_single","A11W7R2O4RQSSS","pain","5","32","","","","","","","","","","","","","","","","","","","","","","","","","",""
"2085","","text","4","30080","0.0-4.0","54250555","wem/bandit_single","A11W7R2O4RQSSS","pain","5","32","","","","","","","","","","","","","","","","","","","","","","","","","",""
"2725","","text","5","32814","0.0-5.0","54250555","wem/bandit_single","A11W7R2O4RQSSS","pain","5","32","","","","","","","","","","","","","","","","","","","","","","","","","",""
"3276","","text","6","36096","0.0-6.0","54250555","wem/bandit_single","A11W7R2O4RQSSS","pain","5","32","","","","","","","","","","","","","","","","","","","","","","","","","",""
"1517","","text","7","37617","0.0-7.0","54250555","wem/bandit_single","A11W7R2O4RQSSS","pain","5","32","","","","","","","","","","","","","","","","","","","","","","","","","",""
"2506","","text","8","40129","0.0-8.0","54250555","wem/bandit_single","A11W7R2O4RQSSS","pain","5","32","","","","","","","","","","","","","","","","","","","","","","","","","",""
"1015","","text","9","41151","0.0-9.0","54250555","wem/bandit_single","A11W7R2O4RQSSS","pain","5","32","","","","","","","","","","","","","","","","","","","","","","","","","",""
"1726","","text","10","42883","0.0-10.0","54250555","wem/bandit_single","A11W7R2O4RQSSS","pain","5","32","","","","","","","","","","","","","","","","","","","","","","","","","",""
"10663","","text","11","53552","0.0-11.0","54250555","wem/bandit_single","A11W7R2O4RQSSS","pain","5","32","","","","","","","","","","","","","","","","","","","","","","","","","",""
"1491","","bandit","12","56597","0.0-12.0-0.0","54250555","wem/bandit_single","A11W7R2O4RQSSS","pain","5","","74","J","0","img/none_selected_demo.jpg","0","0","1","0","0","true","0","0","0","","","","","","","","","","","","",""
"1949","","bandit","13","60320","0.0-13.0-0.0","54250555","wem/bandit_single","A11W7R2O4RQSSS","pain","5","","75","K","0","img/none_selected_demo.jpg","0","0","1","0","0","true","0","0","0","","","","","","","","","","","","",""
"1579","","text","14","62158","0.0-14.0","54250555","wem/bandit_single","A11W7R2O4RQSSS","pain","5","32","","","","","","","","","","","","","","","","","","","","","","","","","",""
"1514","","text","15","63680","0.0-15.0","54250555","wem/bandit_single","A11W7R2O4RQSSS","pain","5","32","","","","","","","","","","","","","","","","","","","","","","","","","",""
"1108","","text","16","64799","0.0-16.0","54250555","wem/bandit_single","A11W7R2O4RQSSS","pain","5","32","","","","","","","","","","","","","","","","","","","","","","","","","",""
"5271","","text","17","70076","0.0-17.0","54250555","wem/bandit_single","A11W7R2O4RQSSS","pain","5","32","","","","","","","","","","","","","","","","","","","","","","","","","",""
"932","","bandit","18","72532","0.0-18.0-0.0","54250555","wem/bandit_single","A11W7R2O4RQSSS","pain","5","","75","K","1","","0","0","1","0","0.2","true","0","0","0.8","80_20_practice","0","0.2","","","","","","","","","",""
"3056","","bandit","19","77354","0.0-18.0-1.0","54250555","wem/bandit_single","A11W7R2O4RQSSS","pain","5","","75","K","1","","0","1","0","0","0.2","true","0","0","0.8","80_20_practice","0","0.2","","","","","","","","","",""
"68","","bandit","20","79201","0.0-18.0-2.0","54250555","wem/bandit_single","A11W7R2O4RQSSS","pain","5","","74","J","0","img/none_selected_demo.jpg","0","1","0","0","0.8","true","0","0","0.8","80_20_practice","0","0.2","","","","","","","","","",""
"1014","","bandit","21","81999","0.0-18.0-3.0","54250555","wem/bandit_single","A11W7R2O4RQSSS","pain","5","","75","K","1","","0","0","1","0","0.2","true","0","0","0.8","80_20_practice","0","0.2","","","","","","","","","",""
"16","","bandit","22","83792","0.0-18.0-4.0","54250555","wem/bandit_single","A11W7R2O4RQSSS","pain","5","","75","K","1","","0","0","1","0","0.2","true","0","0","0.8","80_20_practice","0","0.2","","","","","","","","","",""
"96","","bandit","23","85660","0.0-18.0-5.0","54250555","wem/bandit_single","A11W7R2O4RQSSS","pain","5","","74","J","0","img/none_selected_demo.jpg","0","0","1","0","0.8","true","0","0","0.8","80_20_practice","0","0.2","","","","","","","","","",""
"16","","bandit","24","87454","0.0-18.0-6.0","54250555","wem/bandit_single","A11W7R2O4RQSSS","pain","5","","74","J","0","img/none_selected_demo.jpg","0","1","0","0","0.8","true","0","0","0.8","80_20_practice","0","0.2","","","","","","","","","",""
"82","","bandit","25","89321","0.0-18.0-7.0","54250555","wem/bandit_single","A11W7R2O4RQSSS","pain","5","","74","J","0","img/none_selected_demo.jpg","0","1","0","0","0.8","true","0","0","0.8","80_20_practice","0","0.2","","","","","","","","","",""
"155","","bandit","26","91256","0.0-18.0-8.0","54250555","wem/bandit_single","A11W7R2O4RQSSS","pain","5","","74","J","0","img/none_selected_demo.jpg","0","0","1","0","0.8","true","0","0","0.8","80_20_practice","0","0.2","","","","","","","","","",""
"50","","bandit","27","93084","0.0-18.0-9.0","54250555","wem/bandit_single","A11W7R2O4RQSSS","pain","5","","75","K","1","","0","0","1","0","0.2","true","0","0","0.8","80_20_practice","0","0.2","","","","","","","","","",""
"15","","bandit","28","94871","0.0-18.0-10.0","54250555","wem/bandit_single","A11W7R2O4RQSSS","pain","5","","75","K","1","","0","1","0","0","0.2","true","0","0","0.8","80_20_practice","0","0.2","","","","","","","","","",""
"1","","bandit","29","96652","0.0-18.0-11.0","54250555","wem/bandit_single","A11W7R2O4RQSSS","pain","5","","75","K","1","","0","0","1","0","0.2","true","0","0","0.8","80_20_practice","0","0.2","","","","","","","","","",""
"63","","bandit","30","98483","0.0-18.0-12.0","54250555","wem/bandit_single","A11W7R2O4RQSSS","pain","5","","74","J","0","img/none_selected_demo.jpg","0","0","1","0","0.8","true","0","0","0.8","80_20_practice","0","0.2","","","","","","","","","",""
"12","","bandit","31","100283","0.0-18.0-13.0","54250555","wem/bandit_single","A11W7R2O4RQSSS","pain","5","","75","K","1","","0","0","1","0","0.2","true","0","0","0.8","80_20_practice","0","0.2","","","","","","","","","",""
"43","","bandit","32","102093","0.0-18.0-14.0","54250555","wem/bandit_single","A11W7R2O4RQSSS","pain","5","","75","K","1","","0","1","0","0","0.2","true","0","0","0.8","80_20_practice","0","0.2","","","","","","","","","",""
"86","","bandit","33","103956","0.0-18.0-15.0","54250555","wem/bandit_single","A11W7R2O4RQSSS","pain","5","","75","K","1","","0","0","1","0","0.2","true","0","0","0.8","80_20_practice","0","0.2","","","","","","","","","",""
"119","","bandit","34","105863","0.0-18.0-16.0","54250555","wem/bandit_single","A11W7R2O4RQSSS","pain","5","","74","J","0","img/none_selected_demo.jpg","0","0","1","0","0.8","true","0","0","0.8","80_20_practice","0","0.2","","","","","","","","","",""
"142","","bandit","35","107782","0.0-18.0-17.0","54250555","wem/bandit_single","A11W7R2O4RQSSS","pain","5","","74","J","0","img/none_selected_demo.jpg","0","1","0","0","0.8","true","0","0","0.8","80_20_practice","0","0.2","","","","","","","","","",""
"113","","bandit","36","109673","0.0-18.0-18.0","54250555","wem/bandit_single","A11W7R2O4RQSSS","pain","5","","74","J","0","img/none_selected_demo.jpg","0","1","0","0","0.8","true","0","0","0.8","80_20_practice","0","0.2","","","","","","","","","",""
"39","","bandit","37","111493","0.0-18.0-19.0","54250555","wem/bandit_single","A11W7R2O4RQSSS","pain","5","","74","J","0","img/none_selected_demo.jpg","0","1","0","0","0.8","true","0","0","0.8","80_20_practice","0","0.2","","","","","","","","","",""
"10227","","text","38","121983","0.0-19.0","54250555","wem/bandit_single","A11W7R2O4RQSSS","pain","5","32","","","","","","","","","","","","","","","","","","","","","","","","","",""
"337","","bandit","39","123837","0.0-20.0-0.0","54250555","wem/bandit_single","A11W7R2O4RQSSS","pain","5","","75","K","1","","0","0","1","0","0","true","0","0","0","","0","0","","","","","","","","","",""
"239","","text","40","124335","0.0-21.0","54250555","wem/bandit_single","A11W7R2O4RQSSS","pain","5","32","","","","","","","","","","","","","","","","","","","","","","","","","",""
"198","","text","41","124544","0.0-22.0","54250555","wem/bandit_single","A11W7R2O4RQSSS","pain","5","32","","","","","","","","","","","","","","","","","","","","","","","","","",""
"222","","text","42","124777","0.0-23.0","54250555","wem/bandit_single","A11W7R2O4RQSSS","pain","5","32","","","","","","","","","","","","","","","","","","","","","","","","","",""
"241","","text","43","125034","0.0-24.0","54250555","wem/bandit_single","A11W7R2O4RQSSS","pain","5","32","","","","","","","","","","","","","","","","","","","","","","","","","",""
"250","","text","44","125296","0.0-25.0","54250555","wem/bandit_single","A11W7R2O4RQSSS","pain","5","32","","","","","","","","","","","","","","","","","","","","","","","","","",""
"257","","text","45","125567","0.0-26.0","54250555","wem/bandit_single","A11W7R2O4RQSSS","pain","5","32","","","","","","","","","","","","","","","","","","","","","","","","","",""
"253","","text","46","125830","0.0-27.0","54250555","wem/bandit_single","A11W7R2O4RQSSS","pain","5","32","","","","","","","","","","","","","","","","","","","","","","","","","",""
"213","","text","47","126053","0.0-28.0","54250555","wem/bandit_single","A11W7R2O4RQSSS","pain","5","32","","","","","","","","","","","","","","","","","","","","","","","","","",""
"511","","text","48","126572","0.0-29.0","54250555","wem/bandit_single","A11W7R2O4RQSSS","pain","5","32","","","","","","","","","","","","","","","","","","","","","","","","","",""
"221","","text","49","126801","0.0-30.0","54250555","wem/bandit_single","A11W7R2O4RQSSS","pain","5","32","","","","","","","","","","","","","","","","","","","","","","","","","",""
"169","","text","50","126986","0.0-31.0","54250555","wem/bandit_single","A11W7R2O4RQSSS","pain","5","32","","","","","","","","","","","","","","","","","","","","","","","","","",""
"121","","bandit","51","128627","0.0-32.0-0.0","54250555","wem/bandit_single","A11W7R2O4RQSSS","pain","5","","74","J","1","","0","1","0","0","0.2","true","0","0","0.8","full_practice","0","0.2","0","0.6","0","0.2","","","","","",""
"1","","bandit","52","130409","0.0-32.0-1.0","54250555","wem/bandit_single","A11W7R2O4RQSSS","pain","5","","74","J","1","","0","0","1","0","0.2","true","0","0","0.8","full_practice","0","0.2","0","0.6","0","0.2","","","","","",""
"120","","bandit","53","132308","0.0-32.0-2.0","54250555","wem/bandit_single","A11W7R2O4RQSSS","pain","5","","74","J","1","","0","0","1","0","0.2","true","0","0","0.8","full_practice","0","0.2","0","0.6","0","0.2","","","","","",""
"68","","bandit","54","134163","0.0-32.0-3.0","54250555","wem/bandit_single","A11W7R2O4RQSSS","pain","5","","72","H","0","img/none_selected.jpg","0","1","0","0","0.8","true","0","0","0.8","full_practice","0","0.2","0","0.6","0","0.2","","","","","",""
"1565","","bandit","55","137509","0.0-32.0-4.0","54250555","wem/bandit_single","A11W7R2O4RQSSS","pain","5","","76","L","3","","0","1","0","0","0.2","true","0","0","0.8","full_practice","0","0.2","0","0.6","0","0.2","","","","","",""
"1","","bandit","56","139285","0.0-32.0-5.0","54250555","wem/bandit_single","A11W7R2O4RQSSS","pain","5","","76","L","3","","0","1","0","0","0.2","true","0","0","0.8","full_practice","0","0.2","0","0.6","0","0.2","","","","","",""
"41","","bandit","57","141113","0.0-32.0-6.0","54250555","wem/bandit_single","A11W7R2O4RQSSS","pain","5","","74","J","1","","0","1","0","0","0.2","true","0","0","0.8","full_practice","0","0.2","0","0.6","0","0.2","","","","","",""
"4","","bandit","58","142904","0.0-32.0-7.0","54250555","wem/bandit_single","A11W7R2O4RQSSS","pain","5","","76","L","3","","0","0","1","0","0.2","true","0","0","0.8","full_practice","0","0.2","0","0.6","0","0.2","","","","","",""
"3","","bandit","59","144685","0.0-32.0-8.0","54250555","wem/bandit_single","A11W7R2O4RQSSS","pain","5","","74","J","1","","0","0","1","0","0.2","true","0","0","0.8","full_practice","0","0.2","0","0.6","0","0.2","","","","","",""
"26","","bandit","60","146482","0.0-32.0-9.0","54250555","wem/bandit_single","A11W7R2O4RQSSS","pain","5","","76","L","3","","0","0","1","0","0.2","true","0","0","0.8","full_practice","0","0.2","0","0.6","0","0.2","","","","","",""
"33","","bandit","61","148293","0.0-32.0-10.0","54250555","wem/bandit_single","A11W7R2O4RQSSS","pain","5","","76","L","3","","0","1","0","0","0.2","true","0","0","0.8","full_practice","0","0.2","0","0.6","0","0.2","","","","","",""
"19","","bandit","62","150094","0.0-32.0-11.0","54250555","wem/bandit_single","A11W7R2O4RQSSS","pain","5","","76","L","3","","0","0","1","0","0.2","true","0","0","0.8","full_practice","0","0.2","0","0.6","0","0.2","","","","","",""
"89","","bandit","63","151967","0.0-32.0-12.0","54250555","wem/bandit_single","A11W7R2O4RQSSS","pain","5","","74","J","1","","0","0","1","0","0.2","true","0","0","0.8","full_practice","0","0.2","0","0.6","0","0.2","","","","","",""
"61","","bandit","64","153818","0.0-32.0-13.0","54250555","wem/bandit_single","A11W7R2O4RQSSS","pain","5","","76","L","3","","0","0","1","0","0.2","true","0","0","0.8","full_practice","0","0.2","0","0.6","0","0.2","","","","","",""
"7","","bandit","65","155613","0.0-32.0-14.0","54250555","wem/bandit_single","A11W7R2O4RQSSS","pain","5","","75","K","2","","0","0","1","0","0.6","true","0","0","0.8","full_practice","0","0.2","0","0.6","0","0.2","","","","","",""
"88","","bandit","66","157470","0.0-32.0-15.0","54250555","wem/bandit_single","A11W7R2O4RQSSS","pain","5","","75","K","2","","0","1","0","0","0.6","true","0","0","0.8","full_practice","0","0.2","0","0.6","0","0.2","","","","","",""
"3","","bandit","67","159276","0.0-32.0-16.0","54250555","wem/bandit_single","A11W7R2O4RQSSS","pain","5","","72","H","0","img/none_selected.jpg","0","1","0","0","0.8","true","0","0","0.8","full_practice","0","0.2","0","0.6","0","0.2","","","","","",""
"1","","bandit","68","161103","0.0-32.0-17.0","54250555","wem/bandit_single","A11W7R2O4RQSSS","pain","5","","75","K","2","","0","1","0","0","0.6","true","0","0","0.8","full_practice","0","0.2","0","0.6","0","0.2","","","","","",""
"1","","bandit","69","162886","0.0-32.0-18.0","54250555","wem/bandit_single","A11W7R2O4RQSSS","pain","5","","75","K","2","","0","0","1","0","0.6","true","0","0","0.8","full_practice","0","0.2","0","0.6","0","0.2","","","","","",""
"1","","bandit","70","164682","0.0-32.0-19.0","54250555","wem/bandit_single","A11W7R2O4RQSSS","pain","5","","75","K","2","","0","0","1","0","0.6","true","0","0","0.8","full_practice","0","0.2","0","0.6","0","0.2","","","","","",""
"5110","","text","71","170082","0.0-33.0","54250555","wem/bandit_single","A11W7R2O4RQSSS","pain","5","32","","","","","","","","","","","","","","","","","","","","","","","","","",""
"940","","text","72","172042","0.0-34.0","54250555","wem/bandit_single","A11W7R2O4RQSSS","pain","5","32","","","","","","","","","","","","","","","","","","","","","","","","","",""
"2976","","text","73","175030","0.0-35.0","54250555","wem/bandit_single","A11W7R2O4RQSSS","pain","5","32","","","","","","","","","","","","","","","","","","","","","","","","","",""
"179","","text","74","175219","0.0-36.0","54250555","wem/bandit_single","A11W7R2O4RQSSS","pain","5","32","","","","","","","","","","","","","","","","","","","","","","","","","",""
"139","","text","75","175378","0.0-37.0","54250555","wem/bandit_single","A11W7R2O4RQSSS","pain","5","32","","","","","","","","","","","","","","","","","","","","","","","","","",""
"404","","bandit","76","177311","0.0-38.0-0.0","54250555","wem/bandit_single","A11W7R2O4RQSSS","pain","5","","75","K","2","","0","0","1","","0.04962883862","false","1","","0.4657241486","main_expt","","0.1478184891","","0.04962883862","","0.3811303016","","","","","",""
"5","","bandit","77","179096","0.0-39.0-0.0","54250555","wem/bandit_single","A11W7R2O4RQSSS","pain","5","","74","J","1","","0","0","1","","0.2081060842","false","2","","0.4660849779","main_expt","","0.2081060842","","0.03569255153","","0.350111504","","","","","",""
"66","","bandit","78","180947","0.0-40.0-0.0","54250555","wem/bandit_single","A11W7R2O4RQSSS","pain","5","","72","H","0","img/none_selected.jpg","0","1","0","","0.4687539887","false","3","","0.4687539887","main_expt","","0.1722167697","","0.02901958263","","0.3436486883","","","","","",""
"60","","bandit","79","182794","0.0-41.0-0.0","54250555","wem/bandit_single","A11W7R2O4RQSSS","pain","5","","76","L","3","","0","0","1","","0.3419997506","false","4","","0.48401473","main_expt","","0.1424145416","","0.04894390993","","0.3419997506","","","","","",""
"18","","bandit","80","184599","0.0-42.0-0.0","54250555","wem/bandit_single","A11W7R2O4RQSSS","pain","5","","76","L","3","","0","0","1","","0.3692180445","false","5","","0.4755123677","main_expt","","0.1446667298","","0.04206610475","","0.3692180445","","","","","",""
"30","","bandit","81","186401","0.0-43.0-0.0","54250555","wem/bandit_single","A11W7R2O4RQSSS","pain","5","","76","L","3","","0","0","1","","0.3602257359","false","6","","0.4802482158","main_expt","","0.1447199692","","0.04292771587","","0.3602257359","","","","","",""
"86","","bandit","82","188283","0.0-44.0-0.0","54250555","wem/bandit_single","A11W7R2O4RQSSS","pain","5","","72","H","0","img/none_selected.jpg","0","0","1","","0.4780438684","false","7","","0.4780438684","main_expt","","0.1001258446","","0.06035830385","","0.3568498895","","","","","",""
"83","","bandit","83","190148","0.0-45.0-0.0","54250555","wem/bandit_single","A11W7R2O4RQSSS","pain","5","","75","K","2","","0","1","0","","0.09727842944","false","8","","0.4575173044","main_expt","","0.1244671667","","0.09727842944","","0.294604339","","","","","",""
"101","","bandit","84","192016","0.0-46.0-0.0","54250555","wem/bandit_single","A11W7R2O4RQSSS","pain","5","","72","H","0","img/none_selected.jpg","0","0","1","","0.4525933246","false","9","","0.4525933246","main_expt","","0.1293804987","","0.07952196982","","0.3802768622","","","","","",""
"95","","bandit","85","193878","0.0-47.0-0.0","54250555","wem/bandit_single","A11W7R2O4RQSSS","pain","5","","76","L","3","","0","1","0","","0.3530595227","false","10","","0.4476408152","main_expt","","0.1606810952","","0.1049852556","","0.3530595227","","","","","",""
"145","","bandit","86","195829","0.0-48.0-0.0","54250555","wem/bandit_single","A11W7R2O4RQSSS","pain","5","","75","K","2","","0","0","1","","0.1118692116","false","11","","0.4484644352","main_expt","","0.1585385462","","0.1118692116","","0.358648576","","","","","",""
"25","","bandit","87","197624","0.0-49.0-0.0","54250555","wem/bandit_single","A11W7R2O4RQSSS","pain","5","","74","J","1","","0","1","0","","0.1492634201","false","12","","0.4466341879","main_expt","","0.1492634201","","0.1270372311","","0.3382469396","","","","","",""
"48","","bandit","88","199441","0.0-50.0-0.0","54250555","wem/bandit_single","A11W7R2O4RQSSS","pain","5","","74","J","1","","0","0","1","","0.1106465011","false","13","","0.4642511008","main_expt","","0.1106465011","","0.1278892577","","0.3092021245","","","","","",""
"120","","bandit","89","201328","0.0-51.0-0.0","54250555","wem/bandit_single","A11W7R2O4RQSSS","pain","5","","74","J","1","","0","0","1","","0.1232346967","false","14","","0.4615970843","main_expt","","0.1232346967","","0.1024725346","","0.3532484784","","","","","",""
"31","","bandit","90","203131","0.0-52.0-0.0","54250555","wem/bandit_single","A11W7R2O4RQSSS","pain","5","","72","H","0","img/none_selected.jpg","0","1","0","","0.4692442536","false","15","","0.4692442536","main_expt","","0.1323340596","","0.1234109619","","0.3371384495","","","","","",""
"5","","bandit","91","204907","0.0-53.0-0.0","54250555","wem/bandit_single","A11W7R2O4RQSSS","pain","5","","72","H","0","img/none_selected.jpg","0","1","0","","0.4755425263","false","16","","0.4755425263","main_expt","","0.1410223318","","0.1360550169","","0.3282622062","","","","","",""
"48","","bandit","92","206734","0.0-54.0-0.0","54250555","wem/bandit_single","A11W7R2O4RQSSS","pain","5","","72","H","0","img/none_selected.jpg","0","1","0","","0.4828633911","false","17","","0.4828633911","main_expt","","0.1498636582","","0.1070219664","","0.3032164303","","","","","",""
"27","","bandit","93","208548","0.0-55.0-0.0","54250555","wem/bandit_single","A11W7R2O4RQSSS","pain","5","","72","H","0","img/none_selected.jpg","0","0","1","","0.4784959143","false","18","","0.4784959143","main_expt","","0.1132842199","","0.09318331203","","0.2834034058","","","","","",""
"90","","bandit","94","210411","0.0-56.0-0.0","54250555","wem/bandit_single","A11W7R2O4RQSSS","pain","5","","72","H","0","img/none_selected.jpg","0","0","1","","0.4645747316","false","19","","0.4645747316","main_expt","","0.08554013857","","0.08644374764","","0.376157017","","","","","",""
"18","","bandit","95","212215","0.0-57.0-0.0","54250555","wem/bandit_single","A11W7R2O4RQSSS","pain","5","","76","L","3","","0","1","0","","0.3718288413","false","20","","0.4441513352","main_expt","","0.1176407844","","0.1066513301","","0.3718288413","","","","","",""
"118","","bandit","96","214112","0.0-58.0-0.0","54250555","wem/bandit_single","A11W7R2O4RQSSS","pain","5","","75","K","2","","0","0","1","","0.1143532382","false","21","","0.4281495132","main_expt","","0.09701455477","","0.1143532382","","0.3755251961","","","","","",""
"104","","bandit","97","215991","0.0-59.0-0.0","54250555","wem/bandit_single","A11W7R2O4RQSSS","pain","5","","75","K","2","","0","0","1","","0.111858438","false","22","","0.4374563715","main_expt","","0.08683592795","","0.111858438","","0.3536603278","","","","","",""
"105","","bandit","98","217898","0.0-60.0-0.0","54250555","wem/bandit_single","A11W7R2O4RQSSS","pain","5","","76","L","3","","0","1","0","","0.3908816919","false","23","","0.4408316507","main_expt","","0.1062952262","","0.09088087914","","0.3908816919","","","","","",""
"66","","bandit","99","219736","0.0-61.0-0.0","54250555","wem/bandit_single","A11W7R2O4RQSSS","pain","5","","76","L","3","","0","0","1","","0.3639752867","false","24","","0.4249736282","main_expt","","0.1320295984","","0.1045917755","","0.3639752867","","","","","",""
"21","","bandit","100","221526","0.0-62.0-0.0","54250555","wem/bandit_single","A11W7R2O4RQSSS","pain","5","","74","J","1","","0","0","1","","0.18562956","false","25","","0.4542404639","main_expt","","0.18562956","","0.107118439","","0.3569796848","","","","","",""
"43","","bandit","101","223335","0.0-63.0-0.0","54250555","wem/bandit_single","A11W7R2O4RQSSS","pain","5","","76","L","3","","0","1","0","","0.3466804264","false","26","","0.4707756245","main_expt","","0.1589772959","","0.08847958778","","0.3466804264","","","","","",""
"66","","bandit","102","225172","0.0-64.0-0.0","54250555","wem/bandit_single","A11W7R2O4RQSSS","pain","5","","75","K","2","","0","0","1","","0.105958259","false","27","","0.4492807888","main_expt","","0.1361305173","","0.105958259","","0.3487144915","","","","","",""
"20","","bandit","103","226974","0.0-65.0-0.0","54250555","wem/bandit_single","A11W7R2O4RQSSS","pain","5","","75","K","2","","0","0","1","","0.09976229861","false","28","","0.4630254912","main_expt","","0.1517112547","","0.09976229861","","0.31872733","","","","","",""
"1288","","bandit","104","230048","0.0-66.0-0.0","54250555","wem/bandit_single","A11W7R2O4RQSSS","pain","5","","76","L","3","","0","0","1","","0.3351256986","false","29","","0.4582460064","main_expt","","0.1207272987","","0.1117783291","","0.3351256986","","","","","",""
"45","","bandit","105","231865","0.0-67.0-0.0","54250555","wem/bandit_single","A11W7R2O4RQSSS","pain","5","","72","H","0","img/none_selected.jpg","0","0","1","","0.44398484","false","30","","0.44398484","main_expt","","0.06619286558","","0.104708879","","0.3165147827","","","","","",""
"65","","bandit","106","233707","0.0-68.0-0.0","54250555","wem/bandit_single","A11W7R2O4RQSSS","pain","5","","72","H","0","img/none_selected.jpg","0","0","1","","0.4662875842","false","31","","0.4662875842","main_expt","","0.08172424971","","0.1168740313","","0.3587164307","","","","","",""
"61","","bandit","107","235554","0.0-69.0-0.0","54250555","wem/bandit_single","A11W7R2O4RQSSS","pain","5","","72","H","0","img/none_selected.jpg","0","0","1","","0.4823207571","false","32","","0.4823207571","main_expt","","0.1118972321","","0.1193100679","","0.384091524","","","","","",""
"1","","bandit","108","237336","0.0-70.0-0.0","54250555","wem/bandit_single","A11W7R2O4RQSSS","pain","5","","74","J","1","","0","0","1","","0.07764728595","false","33","","0.4887640326","main_expt","","0.07764728595","","0.1160378653","","0.3410562849","","","","","",""
"55","","bandit","109","239187","0.0-71.0-0.0","54250555","wem/bandit_single","A11W7R2O4RQSSS","pain","5","","72","H","0","img/none_selected.jpg","0","0","1","","0.4871413525","false","34","","0.4871413525","main_expt","","0.1021677232","","0.1240203414","","0.3772037995","","","","","",""
"70","","bandit","110","241033","0.0-72.0-0.0","54250555","wem/bandit_single","A11W7R2O4RQSSS","pain","5","","76","L","3","","0","0","1","","0.3601610849","false","35","","0.472467875","main_expt","","0.09263198197","","0.1568527985","","0.3601610849","","","","","",""
"84","","bandit","111","242899","0.0-73.0-0.0","54250555","wem/bandit_single","A11W7R2O4RQSSS","pain","5","","75","K","2","","0","1","0","","0.1887398002","false","36","","0.4801988656","main_expt","","0.1395706987","","0.1887398002","","0.3199141994","","","","","",""
"46","","bandit","112","244716","0.0-74.0-0.0","54250555","wem/bandit_single","A11W7R2O4RQSSS","pain","5","","75","K","2","","0","0","1","","0.1567271146","false","37","","0.4658101737","main_expt","","0.1166343238","","0.1567271146","","0.3022128767","","","","","",""
"23","","bandit","113","246516","0.0-75.0-0.0","54250555","wem/bandit_single","A11W7R2O4RQSSS","pain","5","","72","H","0","img/none_selected.jpg","0","0","1","","0.4725237643","false","38","","0.4725237643","main_expt","","0.1344783462","","0.1213003185","","0.220841548","","","","","",""
"137","","bandit","114","248443","0.0-76.0-0.0","54250555","wem/bandit_single","A11W7R2O4RQSSS","pain","5","","75","K","2","","0","1","0","","0.1129188575","false","39","","0.4863678522","main_expt","","0.1132701409","","0.1129188575","","0.2273815274","","","","","",""
"2","","bandit","115","250220","0.0-77.0-0.0","54250555","wem/bandit_single","A11W7R2O4RQSSS","pain","5","","76","L","3","","0","1","0","","0.2216047912","false","40","","0.4756100127","main_expt","","0.1269330716","","0.1490040727","","0.2216047912","","","","","",""
"64","","bandit","116","252067","0.0-78.0-0.0","54250555","wem/bandit_single","A11W7R2O4RQSSS","pain","5","","75","K","2","","0","0","1","","0.20555416","false","41","","0.4644843691","main_expt","","0.1043764639","","0.20555416","","0.1790357129","","","","","",""
"102","","bandit","117","253977","0.0-79.0-0.0","54250555","wem/bandit_single","A11W7R2O4RQSSS","pain","5","","75","K","2","","0","0","1","","0.2458082757","false","42","","0.4595487669","main_expt","","0.123259557","","0.2458082757","","0.1124402831","","","","","",""
"84","","bandit","118","255840","0.0-80.0-0.0","54250555","wem/bandit_single","A11W7R2O4RQSSS","pain","5","","74","J","1","","0","0","1","","0.1523094635","false","43","","0.4598563523","main_expt","","0.1523094635","","0.1980967925","","0.1309909921","","","","","",""
"80","","bandit","119","257692","0.0-81.0-0.0","54250555","wem/bandit_single","A11W7R2O4RQSSS","pain","5","","75","K","2","","0","0","1","","0.2011817551","false","44","","0.4444935065","main_expt","","0.1438901127","","0.2011817551","","0.1620245532","","","","","",""
"20","","bandit","120","259482","0.0-82.0-0.0","54250555","wem/bandit_single","A11W7R2O4RQSSS","pain","5","","72","H","0","img/none_selected.jpg","0","0","1","","0.4201454787","false","45","","0.4201454787","main_expt","","0.1381896233","","0.1908172103","","0.1962154431","","","","","",""
"253","","bandit","121","261508","0.0-83.0-0.0","54250555","wem/bandit_single","A11W7R2O4RQSSS","pain","5","","75","K","2","","0","0","1","","0.1682898959","false","46","","0.4420567968","main_expt","","0.08118013389","","0.1682898959","","0.1548021256","","","","","",""
"4","","bandit","122","263291","0.0-84.0-0.0","54250555","wem/bandit_single","A11W7R2O4RQSSS","pain","5","","72","H","0","img/none_selected.jpg","0","1","0","","0.4454115659","false","47","","0.4454115659","main_expt","","0.08279503272","","0.114950809","","0.155425446","","","","","",""
"111","","bandit","123","265189","0.0-85.0-0.0","54250555","wem/bandit_single","A11W7R2O4RQSSS","pain","5","","76","L","3","","0","0","1","","0.2368850053","false","48","","0.4409121906","main_expt","","0.09757227309","","0.1231508501","","0.2368850053","","","","","",""
"71","","bandit","124","267035","0.0-86.0-0.0","54250555","wem/bandit_single","A11W7R2O4RQSSS","pain","5","","75","K","2","","0","0","1","","0.1264715503","false","49","","0.4640555105","main_expt","","0.1407466139","","0.1264715503","","0.1712995484","","","","","",""
"47","","bandit","125","268866","0.0-87.0-0.0","54250555","wem/bandit_single","A11W7R2O4RQSSS","pain","5","","75","K","2","","0","0","1","","0.1119267987","false","50","","0.4619625264","main_expt","","0.1128896644","","0.1119267987","","0.2371897999","","","","","",""
"54","","bandit","126","270716","0.0-88.0-0.0","54250555","wem/bandit_single","A11W7R2O4RQSSS","pain","5","","72","H","0","img/none_selected.jpg","0","0","1","","0.4686499241","false","51","","0.4686499241","main_expt","","0.1292206793","","0.1192285775","","0.2520952739","","","","","",""
"52","","bandit","127","272537","0.0-89.0-0.0","54250555","wem/bandit_single","A11W7R2O4RQSSS","pain","5","","76","L","3","","0","0","1","","0.2201249325","false","52","","0.4721244997","main_expt","","0.117204758","","0.1536714506","","0.2201249325","","","","","",""
"32","","bandit","128","274353","0.0-90.0-0.0","54250555","wem/bandit_single","A11W7R2O4RQSSS","pain","5","","72","H","0","img/none_selected.jpg","0","1","0","","0.4776765754","false","53","","0.4776765754","main_expt","","0.1180232867","","0.1817289366","","0.2019083534","","","","","",""
"71","","bandit","129","276216","0.0-91.0-0.0","54250555","wem/bandit_single","A11W7R2O4RQSSS","pain","5","","76","L","3","","0","0","1","","0.2133100918","false","54","","0.4788042678","main_expt","","0.09503139185","","0.1664376657","","0.2133100918","","","","","",""
"109","","bandit","130","278117","0.0-92.0-0.0","54250555","wem/bandit_single","A11W7R2O4RQSSS","pain","5","","74","J","1","","0","1","0","","0.1238025275","false","55","","0.4852168201","main_expt","","0.1238025275","","0.1219288973","","0.2210295122","","","","","",""
"40","","bandit","131","279942","0.0-93.0-0.0","54250555","wem/bandit_single","A11W7R2O4RQSSS","pain","5","","74","J","1","","0","0","1","","0.1544257673","false","56","","0.4860946669","main_expt","","0.1544257673","","0.1392062569","","0.1728424853","","","","","",""
"398","","bandit","132","282115","0.0-94.0-0.0","54250555","wem/bandit_single","A11W7R2O4RQSSS","pain","5","","75","K","2","","0","0","1","","0.2060247316","false","57","","0.4859962979","main_expt","","0.1492478473","","0.2060247316","","0.2301797189","","","","","",""
"45","","bandit","133","283948","0.0-95.0-0.0","54250555","wem/bandit_single","A11W7R2O4RQSSS","pain","5","","74","J","1","","0","0","1","","0.1392181034","false","58","","0.4751013025","main_expt","","0.1392181034","","0.1723567799","","0.2820892606","","","","","",""
"94","","bandit","134","285815","0.0-96.0-0.0","54250555","wem/bandit_single","A11W7R2O4RQSSS","pain","5","","76","L","3","","0","1","0","","0.308641684","false","59","","0.4816883425","main_expt","","0.1854998728","","0.16345501","","0.308641684","","","","","",""
"73","","bandit","135","287666","0.0-97.0-0.0","54250555","wem/bandit_single","A11W7R2O4RQSSS","pain","5","","72","H","0","img/none_selected.jpg","0","0","1","","0.4846541976","false","60","","0.4846541976","main_expt","","0.1306651225","","0.1552759559","","0.3012287428","","","","","",""
"14","","bandit","136","289454","0.0-98.0-0.0","54250555","wem/bandit_single","A11W7R2O4RQSSS","pain","5","","74","J","1","","0","1","0","","0.1567024934","false","61","","0.4848840061","main_expt","","0.1567024934","","0.1652193455","","0.263166603","","","","","",""
"27","","bandit","137","291274","0.0-99.0-0.0","54250555","wem/bandit_single","A11W7R2O4RQSSS","pain","5","","75","K","2","","0","0","1","","0.1813222976","false","62","","0.4856292504","main_expt","","0.1622246099","","0.1813222976","","0.2428038775","","","","","",""
"6","","bandit","138","293078","0.0-100.0-0.0","54250555","wem/bandit_single","A11W7R2O4RQSSS","pain","5","","75","K","2","","0","0","1","","0.1727004114","false","63","","0.4865153319","main_expt","","0.2196770705","","0.1727004114","","0.2843805899","","","","","",""
"260","","bandit","139","295155","0.0-101.0-0.0","54250555","wem/bandit_single","A11W7R2O4RQSSS","pain","5","","75","K","2","","0","0","1","","0.2105999223","false","64","","0.4874146034","main_expt","","0.218319606","","0.2105999223","","0.2895992306","","","","","",""
"57","","bandit","140","296995","0.0-102.0-0.0","54250555","wem/bandit_single","A11W7R2O4RQSSS","pain","5","","75","K","2","","0","0","1","","0.240225816","false","65","","0.4781609215","main_expt","","0.2278721313","","0.240225816","","0.3847688","","","","","",""
"3","","bandit","141","298771","0.0-103.0-0.0","54250555","wem/bandit_single","A11W7R2O4RQSSS","pain","5","","75","K","2","","0","0","1","","0.2924754864","false","66","","0.4848714892","main_expt","","0.1599393353","","0.2924754864","","0.4083751038","","","","","",""
"4","","bandit","142","300554","0.0-104.0-0.0","54250555","wem/bandit_single","A11W7R2O4RQSSS","pain","5","","74","J","1","","0","0","1","","0.1647045883","false","67","","0.4872204599","main_expt","","0.1647045883","","0.2363072125","","0.4036944211","","","","","",""
"38","","bandit","143","302360","0.0-105.0-0.0","54250555","wem/bandit_single","A11W7R2O4RQSSS","pain","5","","74","J","1","","0","0","1","","0.1442333851","false","68","","0.4749956953","main_expt","","0.1442333851","","0.264359064","","0.3910329043","","","","","",""
"31","","bandit","144","304184","0.0-106.0-0.0","54250555","wem/bandit_single","A11W7R2O4RQSSS","pain","5","","75","K","2","","0","0","1","","0.2755227552","false","69","","0.4776093432","main_expt","","0.1757685765","","0.2755227552","","0.3438989047","","","","","",""
"10","","bandit","145","305964","0.0-107.0-0.0","54250555","wem/bandit_single","A11W7R2O4RQSSS","pain","5","","72","H","0","img/none_selected.jpg","0","1","0","","0.4550183311","false","70","","0.4550183311","main_expt","","0.1995177274","","0.2978365432","","0.3282106587","","","","","",""
"68","","bandit","146","307803","0.0-108.0-0.0","54250555","wem/bandit_single","A11W7R2O4RQSSS","pain","5","","75","K","2","","0","0","1","","0.2788476436","false","71","","0.4466984445","main_expt","","0.2429348876","","0.2788476436","","0.3085852942","","","","","",""
"25","","bandit","147","309616","0.0-109.0-0.0","54250555","wem/bandit_single","A11W7R2O4RQSSS","pain","5","","75","K","2","","0","0","1","","0.2983184618","false","72","","0.453817204","main_expt","","0.2134703404","","0.2983184618","","0.317066931","","","","","",""
"2","","bandit","148","311398","0.0-110.0-0.0","54250555","wem/bandit_single","A11W7R2O4RQSSS","pain","5","","74","J","1","","0","0","1","","0.2779115064","false","73","","0.4421557619","main_expt","","0.2779115064","","0.3235064893","","0.3118309255","","","","","",""
"78","","bandit","149","313253","0.0-111.0-0.0","54250555","wem/bandit_single","A11W7R2O4RQSSS","pain","5","","74","J","1","","0","1","0","","0.2696493969","false","74","","0.4340536998","main_expt","","0.2696493969","","0.2605282151","","0.3442292265","","","","","",""
"1","","bandit","150","315047","0.0-112.0-0.0","54250555","wem/bandit_single","A11W7R2O4RQSSS","pain","5","","74","J","1","","0","1","0","","0.2929582525","false","75","","0.4148912722","main_expt","","0.2929582525","","0.3081503464","","0.3392290825","","","","","",""
"2","","bandit","151","316831","0.0-113.0-0.0","54250555","wem/bandit_single","A11W7R2O4RQSSS","pain","5","","74","J","1","","0","0","1","","0.2925997362","false","76","","0.4049452856","main_expt","","0.2925997362","","0.3793773342","","0.3019050266","","","","","",""
"18","","bandit","152","318629","0.0-114.0-0.0","54250555","wem/bandit_single","A11W7R2O4RQSSS","pain","5","","75","K","2","","0","1","0","","0.4108459626","false","77","","0.3804311168","main_expt","","0.2402419665","","0.4108459626","","0.3346778491","","","","","",""
"72","","bandit","153","320476","0.0-115.0-0.0","54250555","wem/bandit_single","A11W7R2O4RQSSS","pain","5","","72","H","0","img/none_selected.jpg","0","0","1","","0.4076768351","false","78","","0.4076768351","main_expt","","0.2662288132","","0.432197644","","0.2858281516","","","","","",""
"3","","bandit","154","322269","0.0-116.0-0.0","54250555","wem/bandit_single","A11W7R2O4RQSSS","pain","5","","75","K","2","","0","0","1","","0.4681634707","false","79","","0.4322729224","main_expt","","0.2946750364","","0.4681634707","","0.2601805687","","","","","",""
"65","","bandit","155","324131","0.0-117.0-0.0","54250555","wem/bandit_single","A11W7R2O4RQSSS","pain","5","","72","H","0","img/none_selected.jpg","0","1","0","","0.4344903628","false","80","","0.4344903628","main_expt","","0.3142603933","","0.4487514359","","0.2494540003","","","","","",""
"16","","bandit","156","325941","0.0-118.0-0.0","54250555","wem/bandit_single","A11W7R2O4RQSSS","pain","5","","75","K","2","","0","0","1","","0.4278748425","false","81","","0.4128510282","main_expt","","0.3045476359","","0.4278748425","","0.2029748002","","","","","",""
"38","","bandit","157","327771","0.0-119.0-0.0","54250555","wem/bandit_single","A11W7R2O4RQSSS","pain","5","","72","H","0","img/none_selected.jpg","0","0","1","","0.3473788204","false","82","","0.3473788204","main_expt","","0.2481672469","","0.3873338363","","0.1459008349","","","","","",""
"90","","bandit","158","329631","0.0-120.0-0.0","54250555","wem/bandit_single","A11W7R2O4RQSSS","pain","5","","72","H","0","img/none_selected.jpg","0","1","0","","0.3964685929","false","83","","0.3964685929","main_expt","","0.2366474468","","0.3676955993","","0.1792892234","","","","","",""
"101","","bandit","159","331515","0.0-121.0-0.0","54250555","wem/bandit_single","A11W7R2O4RQSSS","pain","5","","72","H","0","img/none_selected.jpg","0","1","0","","0.4058457219","false","84","","0.4058457219","main_expt","","0.2327145127","","0.3494013457","","0.1384159538","","","","","",""
"226","","bandit","160","333530","0.0-122.0-0.0","54250555","wem/bandit_single","A11W7R2O4RQSSS","pain","5","","74","J","1","","0","0","1","","0.2276425053","false","85","","0.419702676","main_expt","","0.2276425053","","0.3484693071","","0.1569521301","","","","","",""
"31","","bandit","161","335334","0.0-123.0-0.0","54250555","wem/bandit_single","A11W7R2O4RQSSS","pain","5","","74","J","1","","0","0","1","","0.1932648708","false","86","","0.3584641731","main_expt","","0.1932648708","","0.3738623358","","0.2111509195","","","","","",""
"37","","bandit","162","337148","0.0-124.0-0.0","54250555","wem/bandit_single","A11W7R2O4RQSSS","pain","5","","72","H","0","img/none_selected.jpg","0","1","0","","0.3362954576","false","87","","0.3362954576","main_expt","","0.1554886006","","0.3635865115","","0.1855749087","","","","","",""
"80","","bandit","163","339003","0.0-125.0-0.0","54250555","wem/bandit_single","A11W7R2O4RQSSS","pain","5","","72","H","0","img/none_selected.jpg","0","0","1","","0.3495778317","false","88","","0.3495778317","main_expt","","0.1288388744","","0.28993028","","0.1260067519","","","","","",""
"57","","bandit","164","340840","0.0-126.0-0.0","54250555","wem/bandit_single","A11W7R2O4RQSSS","pain","5","","72","H","0","img/none_selected.jpg","0","0","1","","0.3337998134","false","89","","0.3337998134","main_expt","","0.1672252434","","0.2529053562","","0.1930097593","","","","","",""
"118","","bandit","165","342748","0.0-127.0-0.0","54250555","wem/bandit_single","A11W7R2O4RQSSS","pain","5","","72","H","0","img/none_selected.jpg","0","0","1","","0.3254710898","false","90","","0.3254710898","main_expt","","0.1379373657","","0.2239223254","","0.2016869017","","","","","",""
"60","","bandit","166","344585","0.0-128.0-0.0","54250555","wem/bandit_single","A11W7R2O4RQSSS","pain","5","","72","H","0","img/none_selected.jpg","0","0","1","","0.3248617863","false","91","","0.3248617863","main_expt","","0.1296834551","","0.1874521573","","0.2283296651","","","","","",""
"41","","bandit","167","346414","0.0-129.0-0.0","54250555","wem/bandit_single","A11W7R2O4RQSSS","pain","5","","72","H","0","img/none_selected.jpg","0","1","0","","0.3290731597","false","92","","0.3290731597","main_expt","","0.1601432093","","0.1464907128","","0.2253008126","","","","","",""
"125","","bandit","168","348310","0.0-130.0-0.0","54250555","wem/bandit_single","A11W7R2O4RQSSS","pain","5","","72","H","0","img/none_selected.jpg","0","0","1","","0.2947126164","false","93","","0.2947126164","main_expt","","0.1976873148","","0.1817498408","","0.1826671142","","","","","",""
"11","","bandit","169","350102","0.0-131.0-0.0","54250555","wem/bandit_single","A11W7R2O4RQSSS","pain","5","","72","H","0","img/none_selected.jpg","0","0","1","","0.2762739163","false","94","","0.2762739163","main_expt","","0.2296862911","","0.1967130988","","0.1650727581","","","","","",""
"9","","bandit","170","351894","0.0-132.0-0.0","54250555","wem/bandit_single","A11W7R2O4RQSSS","pain","5","","72","H","0","img/none_selected.jpg","0","0","1","","0.3184689772","false","95","","0.3184689772","main_expt","","0.1990842867","","0.2294656294","","0.1971582392","","","","","",""
"51","","bandit","171","353729","0.0-133.0-0.0","54250555","wem/bandit_single","A11W7R2O4RQSSS","pain","5","","75","K","2","","0","0","1","","0.2966343553","false","96","","0.281027734","main_expt","","0.258496532","","0.2966343553","","0.1791402521","","","","","",""
"16","","bandit","172","355522","0.0-134.0-0.0","54250555","wem/bandit_single","A11W7R2O4RQSSS","pain","5","","75","K","2","","0","0","1","","0.3346257274","false","97","","0.2474299406","main_expt","","0.2766566169","","0.3346257274","","0.1516442175","","","","","",""
"77","","bandit","173","357383","0.0-135.0-0.0","54250555","wem/bandit_single","A11W7R2O4RQSSS","pain","5","","72","H","0","img/none_selected.jpg","0","0","1","","0.2217126022","false","98","","0.2217126022","main_expt","","0.2377114848","","0.3139493976","","0.2200018313","","","","","",""
"88","","bandit","174","359256","0.0-136.0-0.0","54250555","wem/bandit_single","A11W7R2O4RQSSS","pain","5","","75","K","2","","0","0","1","","0.2478490566","false","99","","0.2677278576","main_expt","","0.3124158187","","0.2478490566","","0.2752547205","","","","","",""
"118","","bandit","175","361170","0.0-137.0-0.0","54250555","wem/bandit_single","A11W7R2O4RQSSS","pain","5","","72","H","0","img/none_selected.jpg","0","1","0","","0.3271916833","false","100","","0.3271916833","main_expt","","0.2059987679","","0.2602221343","","0.252850905","","","","","",""
"64","","bandit","176","363008","0.0-138.0-0.0","54250555","wem/bandit_single","A11W7R2O4RQSSS","pain","5","","75","K","2","","0","1","0","","0.2584762291","false","101","","0.3066156257","main_expt","","0.1758265216","","0.2584762291","","0.1867047362","","","","","",""
"82","","bandit","177","364863","0.0-139.0-0.0","54250555","wem/bandit_single","A11W7R2O4RQSSS","pain","5","","72","H","0","img/none_selected.jpg","0","1","0","","0.3260250896","false","102","","0.3260250896","main_expt","","0.2262322791","","0.282093771","","0.1175578895","","","","","",""
"89","","bandit","178","366722","0.0-140.0-0.0","54250555","wem/bandit_single","A11W7R2O4RQSSS","pain","5","","72","H","0","img/none_selected.jpg","0","0","1","","0.3731136732","false","103","","0.3731136732","main_expt","","0.2018281434","","0.2725256196","","0.09132094505","","","","","",""
"37","","bandit","179","368540","0.0-141.0-0.0","54250555","wem/bandit_single","A11W7R2O4RQSSS","pain","5","","75","K","2","","0","0","1","","0.2243623384","false","104","","0.3941656488","main_expt","","0.1447482012","","0.2243623384","","0.1422553795","","","","","",""
"0","","bandit","180","370347","0.0-142.0-0.0","54250555","wem/bandit_single","A11W7R2O4RQSSS","pain","5","","72","H","0","img/none_selected.jpg","0","1","0","","0.4030151573","false","105","","0.4030151573","main_expt","","0.2104813725","","0.2403200944","","0.1390697773","","","","","",""
"112","","bandit","181","372236","0.0-143.0-0.0","54250555","wem/bandit_single","A11W7R2O4RQSSS","pain","5","","72","H","0","img/none_selected.jpg","0","0","1","","0.3715193073","false","106","","0.3715193073","main_expt","","0.2492378957","","0.2332798071","","0.1155807694","","","","","",""
"119","","bandit","182","374148","0.0-144.0-0.0","54250555","wem/bandit_single","A11W7R2O4RQSSS","pain","5","","72","H","0","img/none_selected.jpg","0","1","0","","0.3837270358","false","107","","0.3837270358","main_expt","","0.217404121","","0.181620067","","0.105728532","","","","","",""
"33","","bandit","183","375983","0.0-145.0-0.0","54250555","wem/bandit_single","A11W7R2O4RQSSS","pain","5","","75","K","2","","0","0","1","","0.2173069915","false","108","","0.3908875135","main_expt","","0.2142202377","","0.2173069915","","0.08831090648","","","","","",""
"49","","bandit","184","377806","0.0-146.0-0.0","54250555","wem/bandit_single","A11W7R2O4RQSSS","pain","5","","76","L","3","","0","0","1","","0.1043724426","false","109","","0.3774052568","main_expt","","0.2683226389","","0.226697077","","0.1043724426","","","","","",""
"141","","bandit","185","379729","0.0-147.0-0.0","54250555","wem/bandit_single","A11W7R2O4RQSSS","pain","5","","72","H","0","img/none_selected.jpg","0","1","0","","0.3601275089","false","110","","0.3601275089","main_expt","","0.2619142817","","0.2695419639","","0.07530108238","","","","","",""
"1","","bandit","186","381505","0.0-148.0-0.0","54250555","wem/bandit_single","A11W7R2O4RQSSS","pain","5","","76","L","3","","0","0","1","","0.05159845725","false","111","","0.3880855357","main_expt","","0.2754039507","","0.2635727161","","0.05159845725","","","","","",""
"37","","bandit","187","383330","0.0-149.0-0.0","54250555","wem/bandit_single","A11W7R2O4RQSSS","pain","5","","75","K","2","","0","0","1","","0.3202716687","false","112","","0.3864248384","main_expt","","0.2721436228","","0.3202716687","","0.08116028731","","","","","",""
"3","","bandit","188","385127","0.0-150.0-0.0","54250555","wem/bandit_single","A11W7R2O4RQSSS","pain","5","","74","J","1","","0","0","1","","0.2598768298","false","113","","0.339569604","main_expt","","0.2598768298","","0.3546461764","","0.08538759299","","","","","",""
"9","","bandit","189","386915","0.0-151.0-0.0","54250555","wem/bandit_single","A11W7R2O4RQSSS","pain","5","","75","K","2","","0","0","1","","0.3339806629","false","114","","0.3612744832","main_expt","","0.2271708717","","0.3339806629","","0.106551095","","","","","",""
"13","","bandit","190","388715","0.0-152.0-0.0","54250555","wem/bandit_single","A11W7R2O4RQSSS","pain","5","","76","L","3","","0","0","1","","0.1120532439","false","115","","0.3616298021","main_expt","","0.2382373761","","0.3175163572","","0.1120532439","","","","","",""
"68","","bandit","191","390565","0.0-153.0-0.0","54250555","wem/bandit_single","A11W7R2O4RQSSS","pain","5","","76","L","3","","0","1","0","","0.07206247825","false","116","","0.3886586702","main_expt","","0.2092397162","","0.3626291523","","0.07206247825","","","","","",""
"54","","bandit","192","392427","0.0-154.0-0.0","54250555","wem/bandit_single","A11W7R2O4RQSSS","pain","5","","76","L","3","","0","0","1","","0.05990892348","false","117","","0.3837198657","main_expt","","0.1790603663","","0.4005972513","","0.05990892348","","","","","",""
"26","","bandit","193","394249","0.0-155.0-0.0","54250555","wem/bandit_single","A11W7R2O4RQSSS","pain","5","","76","L","3","","0","0","1","","0.07349038746","false","118","","0.3831944796","main_expt","","0.2515048449","","0.3994725347","","0.07349038746","","","","","",""
"105","","bandit","194","396130","0.0-156.0-0.0","54250555","wem/bandit_single","A11W7R2O4RQSSS","pain","5","","74","J","1","","0","0","1","","0.2591845625","false","119","","0.3200080389","main_expt","","0.2591845625","","0.3690387214","","0.0880416307","","","","","",""
"81","","bandit","195","397998","0.0-157.0-0.0","54250555","wem/bandit_single","A11W7R2O4RQSSS","pain","5","","72","H","0","img/none_selected.jpg","0","0","1","","0.3498825307","false","120","","0.3498825307","main_expt","","0.2719994365","","0.3553033444","","0.08832912692","","","","","",""
"6","","bandit","196","399787","0.0-158.0-0.0","54250555","wem/bandit_single","A11W7R2O4RQSSS","pain","5","","76","L","3","","0","0","1","","0.08322673311","false","121","","0.3150568547","main_expt","","0.2511552987","","0.3558993888","","0.08322673311","","","","","",""
"68","","bandit","197","401654","0.0-159.0-0.0","54250555","wem/bandit_single","A11W7R2O4RQSSS","pain","5","","76","L","3","","0","0","1","","0.1027924146","false","122","","0.332296042","main_expt","","0.246059836","","0.3539125929","","0.1027924146","","","","","",""
"97","","bandit","198","403562","0.0-160.0-0.0","54250555","wem/bandit_single","A11W7R2O4RQSSS","pain","5","","72","H","0","img/none_selected.jpg","0","0","1","","0.3023892254","false","123","","0.3023892254","main_expt","","0.201637063","","0.2756210624","","0.1112730508","","","","","",""
"93","","bandit","199","405430","0.0-161.0-0.0","54250555","wem/bandit_single","A11W7R2O4RQSSS","pain","5","","72","H","0","img/none_selected.jpg","0","0","1","","0.2971441903","false","124","","0.2971441903","main_expt","","0.2424225803","","0.2924451827","","0.1401536705","","","","","",""
"47","","bandit","200","407261","0.0-162.0-0.0","54250555","wem/bandit_single","A11W7R2O4RQSSS","pain","5","","74","J","1","","0","0","1","","0.2663511033","false","125","","0.2989687221","main_expt","","0.2663511033","","0.3283550958","","0.170676821","","","","","",""
"18","","bandit","201","409064","0.0-163.0-0.0","54250555","wem/bandit_single","A11W7R2O4RQSSS","pain","5","","72","H","0","img/none_selected.jpg","0","0","1","","0.3470717071","false","126","","0.3470717071","main_expt","","0.2214557307","","0.3561713316","","0.2239131839","","","","","",""
"64","","bandit","202","410925","0.0-164.0-0.0","54250555","wem/bandit_single","A11W7R2O4RQSSS","pain","5","","72","H","0","img/none_selected.jpg","0","0","1","","0.3399927284","false","127","","0.3399927284","main_expt","","0.2274120533","","0.3093512765","","0.1828765327","","","","","",""
"87","","bandit","203","412802","0.0-165.0-0.0","54250555","wem/bandit_single","A11W7R2O4RQSSS","pain","5","","75","K","2","","0","0","1","","0.3682433617","false","128","","0.3039142281","main_expt","","0.2035603578","","0.3682433617","","0.2182936746","","","","","",""
"1","","bandit","204","414579","0.0-166.0-0.0","54250555","wem/bandit_single","A11W7R2O4RQSSS","pain","5","","74","J","1","","0","1","0","","0.1571118888","false","129","","0.331948561","main_expt","","0.1571118888","","0.3485983391","","0.2206976306","","","","","",""
"68","","bandit","205","416454","0.0-167.0-0.0","54250555","wem/bandit_single","A11W7R2O4RQSSS","pain","5","","72","H","0","img/none_selected.jpg","0","1","0","","0.3512730473","false","130","","0.3512730473","main_expt","","0.08617346002","","0.3907345736","","0.1657145536","","","","","",""
"82","","bandit","206","418332","0.0-168.0-0.0","54250555","wem/bandit_single","A11W7R2O4RQSSS","pain","5","","72","H","0","img/none_selected.jpg","0","0","1","","0.3617370935","false","131","","0.3617370935","main_expt","","0.1196539686","","0.3697977754","","0.2555784817","","","","","",""
"66","","bandit","207","420182","0.0-169.0-0.0","54250555","wem/bandit_single","A11W7R2O4RQSSS","pain","5","","75","K","2","","0","0","1","","0.3916621277","false","132","","0.3520165756","main_expt","","0.1111227042","","0.3916621277","","0.287060772","","","","","",""
"177","","bandit","208","422137","0.0-170.0-0.0","54250555","wem/bandit_single","A11W7R2O4RQSSS","pain","5","","75","K","2","","0","1","0","","0.3437671512","false","133","","0.3863989014","main_expt","","0.1223368092","","0.3437671512","","0.238965149","","","","","",""
"80","","bandit","209","424019","0.0-171.0-0.0","54250555","wem/bandit_single","A11W7R2O4RQSSS","pain","5","","72","H","0","img/none_selected.jpg","0","0","1","","0.3391859262","false","134","","0.3391859262","main_expt","","0.1001486166","","0.3636108046","","0.2457001749","","","","","",""
"148","","bandit","210","425941","0.0-172.0-0.0","54250555","wem/bandit_single","A11W7R2O4RQSSS","pain","5","","72","H","0","img/none_selected.jpg","0","0","1","","0.3700101905","false","135","","0.3700101905","main_expt","","0.1179747861","","0.3251377881","","0.2499382958","","","","","",""
"85","","bandit","211","427804","0.0-173.0-0.0","54250555","wem/bandit_single","A11W7R2O4RQSSS","pain","5","","72","H","0","img/none_selected.jpg","0","1","0","","0.3002558999","false","136","","0.3002558999","main_expt","","0.1167775935","","0.3838305716","","0.2553087313","","","","","",""
"11","","bandit","212","429604","0.0-174.0-0.0","54250555","wem/bandit_single","A11W7R2O4RQSSS","pain","5","","72","H","0","img/none_selected.jpg","0","0","1","","0.3242357935","false","137","","0.3242357935","main_expt","","0.1459170178","","0.374624825","","0.2517181947","","","","","",""
"141","","bandit","213","431540","0.0-175.0-0.0","54250555","wem/bandit_single","A11W7R2O4RQSSS","pain","5","","72","H","0","img/none_selected.jpg","0","1","0","","0.3413485239","false","138","","0.3413485239","main_expt","","0.1403776257","","0.36903936","","0.2531469116","","","","","",""
"98","","bandit","214","433420","0.0-176.0-0.0","54250555","wem/bandit_single","A11W7R2O4RQSSS","pain","5","","72","H","0","img/none_selected.jpg","0","1","0","","0.3172825342","false","139","","0.3172825342","main_expt","","0.1647502834","","0.3757762965","","0.2810662396","","","","","",""
"146","","bandit","215","435341","0.0-177.0-0.0","54250555","wem/bandit_single","A11W7R2O4RQSSS","pain","5","","72","H","0","img/none_selected.jpg","0","0","1","","0.3683668128","false","140","","0.3683668128","main_expt","","0.2135508935","","0.3240643918","","0.2226737135","","","","","",""
"113","","bandit","216","437230","0.0-178.0-0.0","54250555","wem/bandit_single","A11W7R2O4RQSSS","pain","5","","72","H","0","img/none_selected.jpg","0","0","1","","0.2976824498","false","141","","0.2976824498","main_expt","","0.2286669107","","0.342151626","","0.2330331678","","","","","",""
"88","","bandit","217","439100","0.0-179.0-0.0","54250555","wem/bandit_single","A11W7R2O4RQSSS","pain","5","","72","H","0","img/none_selected.jpg","0","1","0","","0.3424177608","false","142","","0.3424177608","main_expt","","0.1870561284","","0.3576151309","","0.1833347363","","","","","",""
"4","","bandit","218","440883","0.0-180.0-0.0","54250555","wem/bandit_single","A11W7R2O4RQSSS","pain","5","","75","K","2","","0","1","0","","0.3075624404","false","143","","0.3367953268","main_expt","","0.220851353","","0.3075624404","","0.2063127673","","","","","",""
"46","","bandit","219","442733","0.0-181.0-0.0","54250555","wem/bandit_single","A11W7R2O4RQSSS","pain","5","","75","K","2","","0","1","0","","0.3666812205","false","144","","0.3446852995","main_expt","","0.1581776843","","0.3666812205","","0.24054226","","","","","",""
"39","","bandit","220","444561","0.0-182.0-0.0","54250555","wem/bandit_single","A11W7R2O4RQSSS","pain","5","","75","K","2","","0","1","0","","0.373264243","false","145","","0.3569090532","main_expt","","0.1562309797","","0.373264243","","0.3397881996","","","","","",""
"87","","bandit","221","446436","0.0-183.0-0.0","54250555","wem/bandit_single","A11W7R2O4RQSSS","pain","5","","75","K","2","","0","0","1","","0.3588440804","false","146","","0.3546691234","main_expt","","0.201277092","","0.3588440804","","0.334771558","","","","","",""
"91","","bandit","222","448308","0.0-184.0-0.0","54250555","wem/bandit_single","A11W7R2O4RQSSS","pain","5","","74","J","1","","0","0","1","","0.2014254916","false","147","","0.3346193534","main_expt","","0.2014254916","","0.3848898601","","0.3135854179","","","","","",""
"30","","bandit","223","450122","0.0-185.0-0.0","54250555","wem/bandit_single","A11W7R2O4RQSSS","pain","5","","76","L","3","","0","0","1","","0.2601716543","false","148","","0.3481099765","main_expt","","0.1783642851","","0.4049875018","","0.2601716543","","","","","",""
"27","","bandit","224","451971","0.0-186.0-0.0","54250555","wem/bandit_single","A11W7R2O4RQSSS","pain","5","","72","H","0","img/none_selected.jpg","0","0","1","","0.3473239498","false","149","","0.3473239498","main_expt","","0.2394621943","","0.3644303146","","0.2449203511","","","","","",""
"52","","bandit","225","453806","0.0-187.0-0.0","54250555","wem/bandit_single","A11W7R2O4RQSSS","pain","5","","75","K","2","","0","0","1","","0.3820895465","false","150","","0.3457177179","main_expt","","0.2009439561","","0.3820895465","","0.2679682766","","","","","",""
"36","","bandit","226","455638","0.0-188.0-0.0","54250555","wem/bandit_single","A11W7R2O4RQSSS","pain","5","","72","H","0","img/none_selected.jpg","0","1","0","","0.3131990842","false","151","","0.3131990842","main_expt","","0.1783838281","","0.3715335383","","0.2811524043","","","","","",""
"9","","bandit","227","457425","0.0-189.0-0.0","54250555","wem/bandit_single","A11W7R2O4RQSSS","pain","5","","76","L","3","","0","1","0","","0.2320671432","false","152","","0.2632978047","main_expt","","0.2357029213","","0.3270427106","","0.2320671432","","","","","",""
"9","","bandit","228","459233","0.0-190.0-0.0","54250555","wem/bandit_single","A11W7R2O4RQSSS","pain","5","","74","J","1","","0","0","1","","0.1701289497","false","153","","0.2782579121","main_expt","","0.1701289497","","0.3117301263","","0.2655606304","","","","","",""
"83","","bandit","229","461099","0.0-191.0-0.0","54250555","wem/bandit_single","A11W7R2O4RQSSS","pain","5","","76","L","3","","0","0","1","","0.3485425359","false","154","","0.2212449789","main_expt","","0.1613436629","","0.2860829053","","0.3485425359","","","","","",""
"28","","bandit","230","462908","0.0-192.0-0.0","54250555","wem/bandit_single","A11W7R2O4RQSSS","pain","5","","74","J","1","","0","0","1","","0.1419994917","false","155","","0.1944586175","main_expt","","0.1419994917","","0.2412247214","","0.3302543019","","","","","",""
"190","","bandit","231","464873","0.0-193.0-0.0","54250555","wem/bandit_single","A11W7R2O4RQSSS","pain","5","","74","J","1","","0","0","1","","0.2076402971","false","156","","0.2035424954","main_expt","","0.2076402971","","0.2505935016","","0.2696600886","","","","","",""
"65","","bandit","232","466734","0.0-194.0-0.0","54250555","wem/bandit_single","A11W7R2O4RQSSS","pain","5","","72","H","0","img/none_selected.jpg","0","0","1","","0.2039725598","false","157","","0.2039725598","main_expt","","0.2253974945","","0.2677381881","","0.3095791192","","","","","",""
"120","","bandit","233","468649","0.0-195.0-0.0","54250555","wem/bandit_single","A11W7R2O4RQSSS","pain","5","","72","H","0","img/none_selected.jpg","0","0","1","","0.1610126092","false","158","","0.1610126092","main_expt","","0.3173726248","","0.228073272","","0.3427908005","","","","","",""
"22","","bandit","234","470502","0.0-196.0-0.0","54250555","wem/bandit_single","A11W7R2O4RQSSS","pain","5","","76","L","3","","0","1","0","","0.3459652535","false","159","","0.2244023171","main_expt","","0.2929560982","","0.2181731157","","0.3459652535","","","","","",""
"39","","bandit","235","472320","0.0-197.0-0.0","54250555","wem/bandit_single","A11W7R2O4RQSSS","pain","5","","75","K","2","","0","1","0","","0.2483475363","false","160","","0.2550463449","main_expt","","0.2599130114","","0.2483475363","","0.3277363444","","","","","",""
"8","","bandit","236","474119","0.0-198.0-0.0","54250555","wem/bandit_single","A11W7R2O4RQSSS","pain","5","","75","K","2","","0","0","1","","0.2287268475","false","161","","0.1988840894","main_expt","","0.3006759107","","0.2287268475","","0.3043896987","","","","","",""
"71","","bandit","237","475993","0.0-199.0-0.0","54250555","wem/bandit_single","A11W7R2O4RQSSS","pain","5","","75","K","2","","0","0","1","","0.2118340618","false","162","","0.3208820199","main_expt","","0.3359074288","","0.2118340618","","0.3013302692","","","","","",""
"34","","bandit","238","477834","0.0-200.0-0.0","54250555","wem/bandit_single","A11W7R2O4RQSSS","pain","5","","76","L","3","","0","0","1","","0.3359404133","false","163","","0.3416291965","main_expt","","0.3248254093","","0.2467500447","","0.3359404133","","","","","",""
"36","","bandit","239","479661","0.0-201.0-0.0","54250555","wem/bandit_single","A11W7R2O4RQSSS","pain","5","","76","L","3","","0","0","1","","0.3449747326","false","164","","0.3531125991","main_expt","","0.2480447101","","0.2745506496","","0.3449747326","","","","","",""
"82","","bandit","240","481529","0.0-202.0-0.0","54250555","wem/bandit_single","A11W7R2O4RQSSS","pain","5","","75","K","2","","0","0","1","","0.2893970703","false","165","","0.3329293945","main_expt","","0.2291527929","","0.2893970703","","0.3388680014","","","","","",""
"17","","bandit","241","483328","0.0-203.0-0.0","54250555","wem/bandit_single","A11W7R2O4RQSSS","pain","5","","72","H","0","img/none_selected.jpg","0","1","0","","0.368824295","false","166","","0.368824295","main_expt","","0.2408823094","","0.326956194","","0.3565097084","","","","","",""
"69","","bandit","242","485200","0.0-204.0-0.0","54250555","wem/bandit_single","A11W7R2O4RQSSS","pain","5","","76","L","3","","0","0","1","","0.3807311224","false","167","","0.3528049135","main_expt","","0.1852653973","","0.2562538154","","0.3807311224","","","","","",""
"20","","bandit","243","487015","0.0-205.0-0.0","54250555","wem/bandit_single","A11W7R2O4RQSSS","pain","5","","76","L","3","","0","0","1","","0.4157533759","false","168","","0.3530437727","main_expt","","0.1123614246","","0.259707785","","0.4157533759","","","","","",""
"83","","bandit","244","488877","0.0-206.0-0.0","54250555","wem/bandit_single","A11W7R2O4RQSSS","pain","5","","75","K","2","","0","0","1","","0.305903145","false","169","","0.3619584092","main_expt","","0.1289140747","","0.305903145","","0.3990846218","","","","","",""
"80","","bandit","245","490732","0.0-207.0-0.0","54250555","wem/bandit_single","A11W7R2O4RQSSS","pain","5","","74","J","1","","0","0","1","","0.1082073398","false","170","","0.3851568221","main_expt","","0.1082073398","","0.2780458482","","0.3840903594","","","","","",""
"153","","bandit","246","492663","0.0-208.0-0.0","54250555","wem/bandit_single","A11W7R2O4RQSSS","pain","5","","76","L","3","","0","0","1","","0.4279034191","false","171","","0.369821393","main_expt","","0.09560917383","","0.2754425626","","0.4279034191","","","","","",""
"8","","bandit","247","494465","0.0-209.0-0.0","54250555","wem/bandit_single","A11W7R2O4RQSSS","pain","5","","74","J","1","","0","0","1","","0.09002122866","false","172","","0.3238500873","main_expt","","0.09002122866","","0.2801866594","","0.4277210969","","","","","",""
"180","","bandit","248","496426","0.0-210.0-0.0","54250555","wem/bandit_single","A11W7R2O4RQSSS","pain","5","","74","J","1","","0","0","1","","0.06359212806","false","173","","0.371178543","main_expt","","0.06359212806","","0.2903169923","","0.4177409887","","","","","",""
"5","","bandit","249","498243","0.0-211.0-0.0","54250555","wem/bandit_single","A11W7R2O4RQSSS","pain","5","","75","K","2","","0","1","0","","0.3135769273","false","174","","0.364968973","main_expt","","0.07897407323","","0.3135769273","","0.4149019111","","","","","",""
"169","","bandit","250","500232","0.0-212.0-0.0","54250555","wem/bandit_single","A11W7R2O4RQSSS","pain","5","","74","J","1","","0","0","1","","0.05374651045","false","175","","0.4172857806","main_expt","","0.05374651045","","0.3205535054","","0.3890834012","","","","","",""
"135","","bandit","251","502152","0.0-213.0-0.0","54250555","wem/bandit_single","A11W7R2O4RQSSS","pain","5","","74","J","1","","0","0","1","","0.05298342689","false","176","","0.3931137538","main_expt","","0.05298342689","","0.3548310205","","0.3775492635","","","","","",""
"39","","bandit","252","503978","0.0-214.0-0.0","54250555","wem/bandit_single","A11W7R2O4RQSSS","pain","5","","76","L","3","","0","0","1","","0.2763311933","false","177","","0.4118750583","main_expt","","0.04117570961","","0.3374760958","","0.2763311933","","","","","",""
"47","","bandit","253","505802","0.0-215.0-0.0","54250555","wem/bandit_single","A11W7R2O4RQSSS","pain","5","","75","K","2","","0","0","1","","0.3045899674","false","178","","0.4019835374","main_expt","","0.0682688674","","0.3045899674","","0.2117274321","","","","","",""
"18","","bandit","254","507632","0.0-216.0-0.0","54250555","wem/bandit_single","A11W7R2O4RQSSS","pain","5","","75","K","2","","0","0","1","","0.2701203387","false","179","","0.3943962464","main_expt","","0.0699035784","","0.2701203387","","0.2071796451","","","","","",""
"26","","bandit","255","509470","0.0-217.0-0.0","54250555","wem/bandit_single","A11W7R2O4RQSSS","pain","5","","74","J","1","","0","0","1","","0.08066818268","false","180","","0.3879360396","main_expt","","0.08066818268","","0.3010541938","","0.2237333922","","","","","",""
"73","","bandit","256","511328","0.0-218.0-0.0","54250555","wem/bandit_single","A11W7R2O4RQSSS","pain","5","","74","J","1","","0","0","1","","0.06418194011","false","181","","0.3516035239","main_expt","","0.06418194011","","0.2685782119","","0.1462221579","","","","","",""
"110","","bandit","257","513215","0.0-219.0-0.0","54250555","wem/bandit_single","A11W7R2O4RQSSS","pain","5","","72","H","0","img/none_selected.jpg","0","1","0","","0.3544849886","false","182","","0.3544849886","main_expt","","0.05948248489","","0.2333395507","","0.1745001591","","","","","",""
"7","","bandit","258","514999","0.0-220.0-0.0","54250555","wem/bandit_single","A11W7R2O4RQSSS","pain","5","","74","J","1","","0","0","1","","0.04249263759","false","183","","0.3239224462","main_expt","","0.04249263759","","0.1817222791","","0.1840457003","","","","","",""
"81","","bandit","259","516860","0.0-221.0-0.0","54250555","wem/bandit_single","A11W7R2O4RQSSS","pain","5","","72","H","0","img/none_selected.jpg","0","1","0","","0.3437575642","false","184","","0.3437575642","main_expt","","0.05174265856","","0.1946528514","","0.1684271963","","","","","",""
"47","","bandit","260","518683","0.0-222.0-0.0","54250555","wem/bandit_single","A11W7R2O4RQSSS","pain","5","","75","K","2","","0","0","1","","0.1998780622","false","185","","0.3584643827","main_expt","","0.04700335152","","0.1998780622","","0.1820742113","","","","","",""
"13","","bandit","261","520479","0.0-223.0-0.0","54250555","wem/bandit_single","A11W7R2O4RQSSS","pain","5","","72","H","0","img/none_selected.jpg","0","0","1","","0.3968797112","false","186","","0.3968797112","main_expt","","0.0651928762","","0.2674223733","","0.2156320388","","","","","",""
"147","","bandit","262","522421","0.0-224.0-0.0","54250555","wem/bandit_single","A11W7R2O4RQSSS","pain","5","","72","H","0","img/none_selected.jpg","0","1","0","","0.3851297664","false","187","","0.3851297664","main_expt","","0.1006801651","","0.2625155344","","0.2805416817","","","","","",""
"80","","bandit","263","524342","0.0-225.0-0.0","54250555","wem/bandit_single","A11W7R2O4RQSSS","pain","5","","72","H","0","img/none_selected.jpg","0","0","1","","0.3861445831","false","188","","0.3861445831","main_expt","","0.1650650448","","0.2428845682","","0.255869765","","","","","",""
"93","","bandit","264","526219","0.0-226.0-0.0","54250555","wem/bandit_single","A11W7R2O4RQSSS","pain","5","","74","J","1","","0","0","1","","0.1545550266","false","189","","0.3904601473","main_expt","","0.1545550266","","0.2017656849","","0.1757761595","","","","","",""
"202","","bandit","265","528198","0.0-227.0-0.0","54250555","wem/bandit_single","A11W7R2O4RQSSS","pain","5","","72","H","0","img/none_selected.jpg","0","0","1","","0.430863334","false","190","","0.430863334","main_expt","","0.187471884","","0.2163316772","","0.1346649685","","","","","",""
"87","","bandit","266","530092","0.0-228.0-0.0","54250555","wem/bandit_single","A11W7R2O4RQSSS","pain","5","","75","K","2","","0","0","1","","0.2055350187","false","191","","0.4113524325","main_expt","","0.1611513775","","0.2055350187","","0.1132332922","","","","","",""
"10","","bandit","267","531897","0.0-229.0-0.0","54250555","wem/bandit_single","A11W7R2O4RQSSS","pain","5","","75","K","2","","0","0","1","","0.1895719249","false","192","","0.4039805352","main_expt","","0.1777959463","","0.1895719249","","0.1208943264","","","","","",""
"79","","bandit","268","533755","0.0-230.0-0.0","54250555","wem/bandit_single","A11W7R2O4RQSSS","pain","5","","74","J","1","","0","0","1","","0.1871499601","false","193","","0.4245567291","main_expt","","0.1871499601","","0.1748526562","","0.1939792015","","","","","",""
"48","","bandit","269","535596","0.0-231.0-0.0","54250555","wem/bandit_single","A11W7R2O4RQSSS","pain","5","","76","L","3","","0","0","1","","0.16637132","false","194","","0.3947968319","main_expt","","0.1876497678","","0.1474168317","","0.16637132","","","","","",""
"234","","bandit","270","537604","0.0-232.0-0.0","54250555","wem/bandit_single","A11W7R2O4RQSSS","pain","5","","74","J","1","","0","0","1","","0.1091892437","false","195","","0.4142863389","main_expt","","0.1091892437","","0.192031623","","0.1730885183","","","","","",""
"54","","bandit","271","539450","0.0-233.0-0.0","54250555","wem/bandit_single","A11W7R2O4RQSSS","pain","5","","74","J","1","","0","0","1","","0.1617114059","false","196","","0.4233691667","main_expt","","0.1617114059","","0.2058404012","","0.215114198","","","","","",""
"61","","bandit","272","541299","0.0-234.0-0.0","54250555","wem/bandit_single","A11W7R2O4RQSSS","pain","5","","75","K","2","","0","1","0","","0.2424759238","false","197","","0.3910113043","main_expt","","0.1704243662","","0.2424759238","","0.2080771369","","","","","",""
"38","","bandit","273","543117","0.0-235.0-0.0","54250555","wem/bandit_single","A11W7R2O4RQSSS","pain","5","","75","K","2","","0","0","1","","0.2209877853","false","198","","0.4036427912","main_expt","","0.1547158464","","0.2209877853","","0.2349601263","","","","","",""
"123","","bandit","274","545024","0.0-236.0-0.0","54250555","wem/bandit_single","A11W7R2O4RQSSS","pain","5","","72","H","0","img/none_selected.jpg","0","0","1","","0.4211573591","false","199","","0.4211573591","main_expt","","0.1871633293","","0.2167038869","","0.2603506135","","","","","",""
"8","","bandit","275","546814","0.0-237.0-0.0","54250555","wem/bandit_single","A11W7R2O4RQSSS","pain","5","","72","H","0","img/none_selected.jpg","0","0","1","","0.4279321675","false","200","","0.4279321675","main_expt","","0.2044595191","","0.1923465651","","0.3238520586","","","","","",""
"9","","bandit","276","548606","0.0-238.0-0.0","54250555","wem/bandit_single","A11W7R2O4RQSSS","pain","5","","72","H","0","img/none_selected.jpg","0","0","1","","0.4164542871","false","201","","0.4164542871","main_expt","","0.2260370877","","0.2292217674","","0.3006478669","","","","","",""
"57","","bandit","277","550457","0.0-239.0-0.0","54250555","wem/bandit_single","A11W7R2O4RQSSS","pain","5","","75","K","2","","0","0","1","","0.2458551357","false","202","","0.4304584766","main_expt","","0.2543806879","","0.2458551357","","0.2728804465","","","","","",""
"68","","bandit","278","552314","0.0-240.0-0.0","54250555","wem/bandit_single","A11W7R2O4RQSSS","pain","5","","75","K","2","","0","1","0","","0.2388066436","false","203","","0.4301844238","main_expt","","0.248330882","","0.2388066436","","0.3070028205","","","","","",""
"28","","bandit","279","554127","0.0-241.0-0.0","54250555","wem/bandit_single","A11W7R2O4RQSSS","pain","5","","72","H","0","img/none_selected.jpg","0","0","1","","0.3900297032","false","204","","0.3900297032","main_expt","","0.272777159","","0.2087278664","","0.2937269753","","","","","",""
"5","","bandit","280","555931","0.0-242.0-0.0","54250555","wem/bandit_single","A11W7R2O4RQSSS","pain","5","","75","K","2","","0","0","1","","0.1498191458","false","205","","0.3928583167","main_expt","","0.3434557908","","0.1498191458","","0.2378968556","","","","","",""
"39","","bandit","281","557748","0.0-243.0-0.0","54250555","wem/bandit_single","A11W7R2O4RQSSS","pain","5","","75","K","2","","0","0","1","","0.1173401749","false","206","","0.4066069638","main_expt","","0.3670462125","","0.1173401749","","0.2621799838","","","","","",""
"49","","bandit","282","559597","0.0-244.0-0.0","54250555","wem/bandit_single","A11W7R2O4RQSSS","pain","5","","75","K","2","","0","0","1","","0.131911627","false","207","","0.3973448409","main_expt","","0.3762900352","","0.131911627","","0.2751860601","","","","","",""
"9","","bandit","283","561397","0.0-245.0-0.0","54250555","wem/bandit_single","A11W7R2O4RQSSS","pain","5","","74","J","1","","0","1","0","","0.3619644859","false","208","","0.4149937731","main_expt","","0.3619644859","","0.121614138","","0.2449975294","","","","","",""
"23","","bandit","284","563196","0.0-246.0-0.0","54250555","wem/bandit_single","A11W7R2O4RQSSS","pain","5","","72","H","0","img/none_selected.jpg","0","1","0","","0.4174336027","false","209","","0.4174336027","main_expt","","0.3487947413","","0.1301565943","","0.2260792918","","","","","",""
"115","","bandit","285","565093","0.0-247.0-0.0","54250555","wem/bandit_single","A11W7R2O4RQSSS","pain","5","","75","K","2","","0","0","1","","0.09603783024","false","210","","0.3969791934","main_expt","","0.3019817091","","0.09603783024","","0.2506868781","","","","","",""
"117","","bandit","286","567017","0.0-248.0-0.0","54250555","wem/bandit_single","A11W7R2O4RQSSS","pain","5","","76","L","3","","0","0","1","","0.2364470615","false","211","","0.4109689779","main_expt","","0.3322841588","","0.09853312819","","0.2364470615","","","","","",""
"176","","bandit","287","568996","0.0-249.0-0.0","54250555","wem/bandit_single","A11W7R2O4RQSSS","pain","5","","74","J","1","","0","0","1","","0.3257981887","false","212","","0.3870841375","main_expt","","0.3257981887","","0.08497623984","","0.2097336517","","","","","",""
"18","","bandit","288","570794","0.0-250.0-0.0","54250555","wem/bandit_single","A11W7R2O4RQSSS","pain","5","","72","H","0","img/none_selected.jpg","0","0","1","","0.3702451026","false","213","","0.3702451026","main_expt","","0.299150427","","0.0690536233","","0.223293056","","","","","",""
"102","","bandit","289","572677","0.0-251.0-0.0","54250555","wem/bandit_single","A11W7R2O4RQSSS","pain","5","","76","L","3","","0","0","1","","0.2797804449","false","214","","0.4052473305","main_expt","","0.2841516905","","0.05607702273","","0.2797804449","","","","","",""
"109","","bandit","290","574601","0.0-252.0-0.0","54250555","wem/bandit_single","A11W7R2O4RQSSS","pain","5","","76","L","3","","0","1","0","","0.3307304153","false","215","","0.4003088938","main_expt","","0.2421432752","","0.0612243178","","0.3307304153","","","","","",""
"27","","bandit","291","576442","0.0-253.0-0.0","54250555","wem/bandit_single","A11W7R2O4RQSSS","pain","5","","74","J","1","","0","0","1","","0.1705338946","false","216","","0.4087675299","main_expt","","0.1705338946","","0.03010565971","","0.3341057131","","","","","",""
"20","","bandit","292","578246","0.0-254.0-0.0","54250555","wem/bandit_single","A11W7R2O4RQSSS","pain","5","","74","J","1","","0","0","1","","0.219014384","false","217","","0.3947963157","main_expt","","0.219014384","","0.05034411961","","0.3086359365","","","","","",""
"7","","bandit","293","580056","0.0-255.0-0.0","54250555","wem/bandit_single","A11W7R2O4RQSSS","pain","5","","76","L","3","","0","1","0","","0.370061562","false","218","","0.4200256015","main_expt","","0.2135739311","","0.03278593655","","0.370061562","","","","","",""
"45","","bandit","294","581922","0.0-256.0-0.0","54250555","wem/bandit_single","A11W7R2O4RQSSS","pain","5","","72","H","0","img/none_selected.jpg","0","0","1","","0.3845181055","false","219","","0.3845181055","main_expt","","0.1719688778","","0.02968551415","","0.3425962001","","","","","",""
"141","","bandit","295","583874","0.0-257.0-0.0","54250555","wem/bandit_single","A11W7R2O4RQSSS","pain","5","","72","H","0","img/none_selected.jpg","0","1","0","","0.3200105211","false","220","","0.3200105211","main_expt","","0.1017501311","","0.03392365282","","0.3200162658","","","","","",""
"21","","bandit","296","585672","0.0-258.0-0.0","54250555","wem/bandit_single","A11W7R2O4RQSSS","pain","5","","75","K","2","","0","0","1","","0.03139192041","false","221","","0.297673658","main_expt","","0.1121412156","","0.03139192041","","0.3209906652","","","","","",""
"110","","bandit","297","587569","0.0-259.0-0.0","54250555","wem/bandit_single","A11W7R2O4RQSSS","pain","5","","75","K","2","","0","0","1","","0.02842311261","false","222","","0.2963768597","main_expt","","0.1091313961","","0.02842311261","","0.3013890172","","","","","",""
"181","","bandit","298","589528","0.0-260.0-0.0","54250555","wem/bandit_single","A11W7R2O4RQSSS","pain","5","","72","H","0","img/none_selected.jpg","0","0","1","","0.2927297303","false","223","","0.2927297303","main_expt","","0.09983876589","","0.0287580325","","0.2614115174","","","","","",""
"32","","bandit","299","591339","0.0-261.0-0.0","54250555","wem/bandit_single","A11W7R2O4RQSSS","pain","5","","75","K","2","","0","1","0","","0.02300930076","false","224","","0.2751498343","main_expt","","0.1018501693","","0.02300930076","","0.2490141009","","","","","",""
"61","","bandit","300","593181","0.0-262.0-0.0","54250555","wem/bandit_single","A11W7R2O4RQSSS","pain","5","","72","H","0","img/none_selected.jpg","0","1","0","","0.2377617529","false","225","","0.2377617529","main_expt","","0.1222407881","","0.02989568437","","0.263459589","","","","","",""
"87","","bandit","301","595051","0.0-263.0-0.0","54250555","wem/bandit_single","A11W7R2O4RQSSS","pain","5","","75","K","2","","0","0","1","","0.04233903912","false","226","","0.2137681397","main_expt","","0.1332846515","","0.04233903912","","0.2828917593","","","","","",""
"142","","bandit","302","596980","0.0-264.0-0.0","54250555","wem/bandit_single","A11W7R2O4RQSSS","pain","5","","72","H","0","img/none_selected.jpg","0","1","0","","0.1830623781","false","227","","0.1830623781","main_expt","","0.1606351014","","0.0317259717","","0.2635957152","","","","","",""
"11","","bandit","303","598802","0.0-265.0-0.0","54250555","wem/bandit_single","A11W7R2O4RQSSS","pain","5","","76","L","3","","0","1","0","","0.259674247","false","228","","0.1665925442","main_expt","","0.1292420082","","0.04253553249","","0.259674247","","","","","",""
"16","","bandit","304","600598","0.0-266.0-0.0","54250555","wem/bandit_single","A11W7R2O4RQSSS","pain","5","","74","J","1","","0","0","1","","0.1281284096","false","229","","0.2136718414","main_expt","","0.1281284096","","0.06761640147","","0.2737318667","","","","","",""
"124","","bandit","305","602519","0.0-267.0-0.0","54250555","wem/bandit_single","A11W7R2O4RQSSS","pain","5","","72","H","0","img/none_selected.jpg","0","0","1","","0.2435987791","false","230","","0.2435987791","main_expt","","0.0791291566","","0.08572380951","","0.3195589589","","","","","",""
"35","","bandit","306","604361","0.0-268.0-0.0","54250555","wem/bandit_single","A11W7R2O4RQSSS","pain","5","","75","K","2","","0","0","1","","0.07272236896","false","231","","0.2566168121","main_expt","","0.10920453","","0.07272236896","","0.3304270948","","","","","",""
"105","","bandit","307","606258","0.0-269.0-0.0","54250555","wem/bandit_single","A11W7R2O4RQSSS","pain","5","","72","H","0","img/none_selected.jpg","0","0","1","","0.2152843379","false","232","","0.2152843379","main_expt","","0.167261158","","0.0735724775","","0.2806951239","","","","","",""
"140","","bandit","308","608178","0.0-270.0-0.0","54250555","wem/bandit_single","A11W7R2O4RQSSS","pain","5","","76","L","3","","0","1","0","","0.3115261247","false","233","","0.2361400262","main_expt","","0.1078973024","","0.06465645962","","0.3115261247","","","","","",""
"157","","bandit","309","610138","0.0-271.0-0.0","54250555","wem/bandit_single","A11W7R2O4RQSSS","pain","5","","72","H","0","img/none_selected.jpg","0","1","0","","0.2575526348","false","234","","0.2575526348","main_expt","","0.2366146445","","0.04279198238","","0.3001083946","","","","","",""
"37","","bandit","310","611957","0.0-272.0-0.0","54250555","wem/bandit_single","A11W7R2O4RQSSS","pain","5","","75","K","2","","0","1","0","","0.06672803397","false","235","","0.2828430508","main_expt","","0.2393051992","","0.06672803397","","0.2768541542","","","","","",""
"37","","bandit","311","613796","0.0-273.0-0.0","54250555","wem/bandit_single","A11W7R2O4RQSSS","pain","5","","72","H","0","img/none_selected.jpg","0","0","1","","0.2860482958","false","236","","0.2860482958","main_expt","","0.2976693115","","0.07100342573","","0.332362789","","","","","",""
"102","","bandit","312","615727","0.0-274.0-0.0","54250555","wem/bandit_single","A11W7R2O4RQSSS","pain","5","","76","L","3","","0","0","1","","0.3408832027","false","237","","0.2783023894","main_expt","","0.2674299269","","0.03680589181","","0.3408832027","","","","","",""
"38","","bandit","313","617547","0.0-275.0-0.0","54250555","wem/bandit_single","A11W7R2O4RQSSS","pain","5","","74","J","1","","0","0","1","","0.2647207175","false","238","","0.2644861187","main_expt","","0.2647207175","","0.02733344458","","0.362117859","","","","","",""
"62","","bandit","314","619391","0.0-276.0-0.0","54250555","wem/bandit_single","A11W7R2O4RQSSS","pain","5","","75","K","2","","0","0","1","","0.01831396817","false","239","","0.3186717024","main_expt","","0.1936342125","","0.01831396817","","0.3574250999","","","","","",""
"44","","bandit","315","621215","0.0-277.0-0.0","54250555","wem/bandit_single","A11W7R2O4RQSSS","pain","5","","74","J","1","","0","1","0","","0.2382432393","false","240","","0.3360375491","main_expt","","0.2382432393","","0.01383764992","","0.290436356","","","","","",""
"137","","bandit","316","623147","0.0-278.0-0.0","54250555","wem/bandit_single","A11W7R2O4RQSSS","pain","5","","72","H","0","img/none_selected.jpg","0","1","0","","0.3386213473","false","241","","0.3386213473","main_expt","","0.2984572788","","0.0277662638","","0.3414967811","","","","","",""
"77","","bandit","317","625007","0.0-279.0-0.0","54250555","wem/bandit_single","A11W7R2O4RQSSS","pain","5","","72","H","0","img/none_selected.jpg","0","0","1","","0.3523037021","false","242","","0.3523037021","main_expt","","0.2927867707","","0.04064120638","","0.3778608287","","","","","",""
"28","","bandit","318","626818","0.0-280.0-0.0","54250555","wem/bandit_single","A11W7R2O4RQSSS","pain","5","","72","H","0","img/none_selected.jpg","0","1","0","","0.360543067","false","243","","0.360543067","main_expt","","0.2870713985","","0.04640587852","","0.3552630766","","","","","",""
"57","","bandit","319","628668","0.0-281.0-0.0","54250555","wem/bandit_single","A11W7R2O4RQSSS","pain","5","","75","K","2","","0","0","1","","0.06567084485","false","244","","0.3728786331","main_expt","","0.2882437102","","0.06567084485","","0.3538674815","","","","","",""
"3","","bandit","320","630468","0.0-282.0-0.0","54250555","wem/bandit_single","A11W7R2O4RQSSS","pain","5","","75","K","2","","0","0","1","","0.1069305933","false","245","","0.3736501537","main_expt","","0.3125457984","","0.1069305933","","0.3592745223","","","","","",""
"15","","bandit","321","632262","0.0-283.0-0.0","54250555","wem/bandit_single","A11W7R2O4RQSSS","pain","5","","76","L","3","","0","0","1","","0.3784559109","false","246","","0.3880614915","main_expt","","0.2949331023","","0.07318543846","","0.3784559109","","","","","",""
"0","","bandit","322","634044","0.0-284.0-0.0","54250555","wem/bandit_single","A11W7R2O4RQSSS","pain","5","","76","L","3","","0","0","1","","0.3871101473","false","247","","0.3906355486","main_expt","","0.3557375168","","0.06866628372","","0.3871101473","","","","","",""
"119","","bandit","323","635944","0.0-285.0-0.0","54250555","wem/bandit_single","A11W7R2O4RQSSS","pain","5","","76","L","3","","0","0","1","","0.366594806","false","248","","0.3713177951","main_expt","","0.3190142928","","0.06101724449","","0.366594806","","","","","",""
"63","","bandit","324","637790","0.0-286.0-0.0","54250555","wem/bandit_single","A11W7R2O4RQSSS","pain","5","","76","L","3","","0","1","0","","0.35265903","false","249","","0.2887643678","main_expt","","0.2946857214","","0.07132197128","","0.35265903","","","","","",""
"77","","bandit","325","639682","0.0-287.0-0.0","54250555","wem/bandit_single","A11W7R2O4RQSSS","pain","5","","76","L","3","","0","0","1","","0.3725690128","false","250","","0.3503459773","main_expt","","0.285145352","","0.04991986053","","0.3725690128","","","","","",""
"202","","bandit","326","641695","0.0-288.0-0.0","54250555","wem/bandit_single","A11W7R2O4RQSSS","pain","5","","75","K","2","","0","0","1","","0.087584861","false","251","","0.3900307368","main_expt","","0.2572530626","","0.087584861","","0.3516217444","","","","","",""
"3","","bandit","327","643486","0.0-289.0-0.0","54250555","wem/bandit_single","A11W7R2O4RQSSS","pain","5","","72","H","0","img/none_selected.jpg","0","0","1","","0.3998204568","false","252","","0.3998204568","main_expt","","0.206609756","","0.1089760904","","0.3478664427","","","","","",""
"108","","bandit","328","645381","0.0-290.0-0.0","54250555","wem/bandit_single","A11W7R2O4RQSSS","pain","5","","76","L","3","","0","0","1","","0.2845216812","false","253","","0.4062214202","main_expt","","0.2526850855","","0.1389783028","","0.2845216812","","","","","",""
"34","","bandit","329","647214","0.0-291.0-0.0","54250555","wem/bandit_single","A11W7R2O4RQSSS","pain","5","","75","K","2","","0","0","1","","0.1438582992","false","254","","0.434330363","main_expt","","0.2143143283","","0.1438582992","","0.3395138109","","","","","",""
"121","","bandit","330","649130","0.0-292.0-0.0","54250555","wem/bandit_single","A11W7R2O4RQSSS","pain","5","","76","L","3","","0","0","1","","0.284072963","false","255","","0.463361135","main_expt","","0.2330346229","","0.1341592381","","0.284072963","","","","","",""
"63","","bandit","331","651018","0.0-293.0-0.0","54250555","wem/bandit_single","A11W7R2O4RQSSS","pain","5","","76","L","3","","0","0","1","","0.2791977035","false","256","","0.4513325925","main_expt","","0.1707848091","","0.1539827047","","0.2791977035","","","","","",""
"121","","bandit","332","652939","0.0-294.0-0.0","54250555","wem/bandit_single","A11W7R2O4RQSSS","pain","5","","76","L","3","","0","0","1","","0.2827618753","false","257","","0.4493477618","main_expt","","0.204762461","","0.1067893116","","0.2827618753","","","","","",""
"167","","bandit","333","654957","0.0-295.0-0.0","54250555","wem/bandit_single","A11W7R2O4RQSSS","pain","5","","76","L","3","","0","0","1","","0.2367173663","false","258","","0.4586876348","main_expt","","0.1678630312","","0.05021154971","","0.2367173663","","","","","",""
"96","","bandit","334","656869","0.0-296.0-0.0","54250555","wem/bandit_single","A11W7R2O4RQSSS","pain","5","","75","K","2","","0","0","1","","0.04357518244","false","259","","0.45931789","main_expt","","0.1739170557","","0.04357518244","","0.2715647874","","","","","",""
"75","","bandit","335","658742","0.0-297.0-0.0","54250555","wem/bandit_single","A11W7R2O4RQSSS","pain","5","","74","J","1","","0","0","1","","0.1848885371","false","260","","0.4583289396","main_expt","","0.1848885371","","0.05606835832","","0.2310951927","","","","","",""
"232","","bandit","336","660765","0.0-298.0-0.0","54250555","wem/bandit_single","A11W7R2O4RQSSS","pain","5","","74","J","1","","0","0","1","","0.2258440324","false","261","","0.4470277171","main_expt","","0.2258440324","","0.05035703518","","0.2297288133","","","","","",""
"137","","bandit","337","662703","0.0-299.0-0.0","54250555","wem/bandit_single","A11W7R2O4RQSSS","pain","5","","76","L","3","","0","0","1","","0.2072969611","false","262","","0.457772586","main_expt","","0.2167220908","","0.04352905051","","0.2072969611","","","","","",""
"4","","bandit","338","664504","0.0-300.0-0.0","54250555","wem/bandit_single","A11W7R2O4RQSSS","pain","5","","75","K","2","","0","0","1","","0.0373968872","false","263","","0.417694616","main_expt","","0.2118780444","","0.0373968872","","0.2427077321","","","","","",""
"48","","bandit","339","666336","0.0-301.0-0.0","54250555","wem/bandit_single","A11W7R2O4RQSSS","pain","5","","76","L","3","","0","0","1","","0.3052561595","false","264","","0.4214939516","main_expt","","0.1870566281","","0.04440415955","","0.3052561595","","","","","",""
"50","","bandit","340","668165","0.0-302.0-0.0","54250555","wem/bandit_single","A11W7R2O4RQSSS","pain","5","","76","L","3","","0","1","0","","0.3000319327","false","265","","0.413465883","main_expt","","0.1706127143","","0.0139225964","","0.3000319327","","","","","",""
"72","","bandit","341","670035","0.0-303.0-0.0","54250555","wem/bandit_single","A11W7R2O4RQSSS","pain","5","","74","J","1","","0","1","0","","0.1693140566","false","266","","0.4116424673","main_expt","","0.1693140566","","0.01259799349","","0.3134404232","","","","","",""
"59","","bandit","342","671880","0.0-304.0-0.0","54250555","wem/bandit_single","A11W7R2O4RQSSS","pain","5","","76","L","3","","0","1","0","","0.3066387991","false","267","","0.3863145418","main_expt","","0.1753800763","","0.00740451457","","0.3066387991","","","","","",""
"15","","bandit","343","673680","0.0-305.0-0.0","54250555","wem/bandit_single","A11W7R2O4RQSSS","pain","5","","75","K","2","","0","0","1","","0.004693585052","false","268","","0.4265221664","main_expt","","0.1918786918","","0.004693585052","","0.3058482798","","","","","",""
"71","","bandit","344","675545","0.0-306.0-0.0","54250555","wem/bandit_single","A11W7R2O4RQSSS","pain","5","","74","J","1","","0","1","0","","0.1999989265","false","269","","0.4515898034","main_expt","","0.1999989265","","0.004824061053","","0.2523051309","","","","","",""
"38","","bandit","345","677386","0.0-307.0-0.0","54250555","wem/bandit_single","A11W7R2O4RQSSS","pain","5","","76","L","3","","0","1","0","","0.2663701485","false","270","","0.4467147125","main_expt","","0.2211747839","","0.006174480496","","0.2663701485","","","","","",""
"143","","bandit","346","679327","0.0-308.0-0.0","54250555","wem/bandit_single","A11W7R2O4RQSSS","pain","5","","75","K","2","","0","0","1","","0.00832103917","false","271","","0.4582909467","main_expt","","0.2404792593","","0.00832103917","","0.2485798686","","","","","",""
"16","","bandit","347","681126","0.0-309.0-0.0","54250555","wem/bandit_single","A11W7R2O4RQSSS","pain","5","","74","J","1","","0","1","0","","0.2558589782","false","272","","0.4709209778","main_expt","","0.2558589782","","0.00728594366","","0.2345495347","","","","","",""
"147","","bandit","348","683093","0.0-310.0-0.0","54250555","wem/bandit_single","A11W7R2O4RQSSS","pain","5","","75","K","2","","0","0","1","","0.01114453755","false","273","","0.4660917397","main_expt","","0.1700432942","","0.01114453755","","0.2137032991","","","","","",""
"158","","bandit","349","685044","0.0-311.0-0.0","54250555","wem/bandit_single","A11W7R2O4RQSSS","pain","5","","75","K","2","","0","0","1","","0.01390500062","false","274","","0.4639522763","main_expt","","0.2452429789","","0.01390500062","","0.2108512091","","","","","",""
"7","","bandit","350","686857","0.0-312.0-0.0","54250555","wem/bandit_single","A11W7R2O4RQSSS","pain","5","","72","H","0","img/none_selected.jpg","0","0","1","","0.4559735555","false","275","","0.4559735555","main_expt","","0.2540496776","","0.01307999715","","0.1817434844","","","","","",""
"168","","bandit","351","688820","0.0-313.0-0.0","54250555","wem/bandit_single","A11W7R2O4RQSSS","pain","5","","76","L","3","","0","0","1","","0.2037179719","false","276","","0.4246507461","main_expt","","0.2816965905","","0.01650166306","","0.2037179719","","","","","",""
"135","","bandit","352","690759","0.0-314.0-0.0","54250555","wem/bandit_single","A11W7R2O4RQSSS","pain","5","","75","K","2","","0","1","0","","0.02228120093","false","277","","0.4061878557","main_expt","","0.2757967379","","0.02228120093","","0.211691867","","","","","",""
"31","","bandit","353","692582","0.0-315.0-0.0","54250555","wem/bandit_single","A11W7R2O4RQSSS","pain","5","","72","H","0","img/none_selected.jpg","0","1","0","","0.4185559707","false","278","","0.4185559707","main_expt","","0.3233086266","","0.01609054627","","0.1725584367","","","","","",""
"237","","bandit","354","694625","0.0-316.0-0.0","54250555","wem/bandit_single","A11W7R2O4RQSSS","pain","5","","74","J","1","","0","0","1","","0.3447853064","false","279","","0.4048416859","main_expt","","0.3447853064","","0.03276024715","","0.1976152383","","","","","",""
"39","","bandit","355","696456","0.0-317.0-0.0","54250555","wem/bandit_single","A11W7R2O4RQSSS","pain","5","","76","L","3","","0","0","1","","0.2245419331","false","280","","0.3930733378","main_expt","","0.2944080033","","0.045813934","","0.2245419331","","","","","",""
"86","","bandit","356","698350","0.0-318.0-0.0","54250555","wem/bandit_single","A11W7R2O4RQSSS","pain","5","","74","J","1","","0","0","1","","0.3455536282","false","281","","0.3722539572","main_expt","","0.3455536282","","0.07680660156","","0.2649095144","","","","","",""
"141","","bandit","357","700309","0.0-319.0-0.0","54250555","wem/bandit_single","A11W7R2O4RQSSS","pain","5","","74","J","1","","0","0","1","","0.3002636441","false","282","","0.392640689","main_expt","","0.3002636441","","0.08989395926","","0.2440542309","","","","","",""
"30","","bandit","358","702124","0.0-320.0-0.0","54250555","wem/bandit_single","A11W7R2O4RQSSS","pain","5","","74","J","1","","0","0","1","","0.2433385189","false","283","","0.3657249804","main_expt","","0.2433385189","","0.1096048843","","0.3074658718","","","","","",""
"43","","bandit","359","703952","0.0-321.0-0.0","54250555","wem/bandit_single","A11W7R2O4RQSSS","pain","5","","76","L","3","","0","1","0","","0.3224089974","false","284","","0.3625644972","main_expt","","0.2108667552","","0.1082817284","","0.3224089974","","","","","",""
"108","","bandit","360","705850","0.0-322.0-0.0","54250555","wem/bandit_single","A11W7R2O4RQSSS","pain","5","","75","K","2","","0","0","1","","0.1629804938","false","285","","0.3054288932","main_expt","","0.2340218901","","0.1629804938","","0.3022873968","","","","","",""
"129","","bandit","361","707765","0.0-323.0-0.0","54250555","wem/bandit_single","A11W7R2O4RQSSS","pain","5","","74","J","1","","0","0","1","","0.2499238339","false","286","","0.3391155559","main_expt","","0.2499238339","","0.1852598429","","0.2889410052","","","","","",""
"180","","bandit","362","709729","0.0-324.0-0.0","54250555","wem/bandit_single","A11W7R2O4RQSSS","pain","5","","72","H","0","img/none_selected.jpg","0","0","1","","0.3328791194","false","287","","0.3328791194","main_expt","","0.2334780882","","0.2065414002","","0.3151816804","","","","","",""
"150","","bandit","363","711667","0.0-325.0-0.0","54250555","wem/bandit_single","A11W7R2O4RQSSS","pain","5","","75","K","2","","0","0","1","","0.1811366591","false","288","","0.3011075564","main_expt","","0.2784320663","","0.1811366591","","0.3489654206","","","","","",""
"52","","bandit","364","713515","0.0-326.0-0.0","54250555","wem/bandit_single","A11W7R2O4RQSSS","pain","5","","75","K","2","","0","0","1","","0.1202209304","false","289","","0.3326814497","main_expt","","0.2751214951","","0.1202209304","","0.3673528387","","","","","",""
"14","","bandit","365","715311","0.0-327.0-0.0","54250555","wem/bandit_single","A11W7R2O4RQSSS","pain","5","","74","J","1","","0","1","0","","0.304381699","false","290","","0.3289320066","main_expt","","0.304381699","","0.1453470377","","0.3156989172","","","","","",""
"33","","bandit","366","717130","0.0-328.0-0.0","54250555","wem/bandit_single","A11W7R2O4RQSSS","pain","5","","75","K","2","","0","0","1","","0.1477070836","false","291","","0.3074380044","main_expt","","0.2447169523","","0.1477070836","","0.3731423443","","","","","",""
"39","","bandit","367","718957","0.0-329.0-0.0","54250555","wem/bandit_single","A11W7R2O4RQSSS","pain","5","","76","L","3","","0","0","1","","0.3819638953","false","292","","0.247625386","main_expt","","0.2422140582","","0.1442574827","","0.3819638953","","","","","",""
"20","","bandit","368","720764","0.0-330.0-0.0","54250555","wem/bandit_single","A11W7R2O4RQSSS","pain","5","","74","J","1","","0","0","1","","0.1480972705","false","293","","0.2438381571","main_expt","","0.1480972705","","0.1219757373","","0.3709780048","","","","","",""
"146","","bandit","369","722692","0.0-331.0-0.0","54250555","wem/bandit_single","A11W7R2O4RQSSS","pain","5","","72","H","0","img/none_selected.jpg","0","0","1","","0.2772308066","false","294","","0.2772308066","main_expt","","0.1338078997","","0.149249144","","0.4013541824","","","","","",""
"80","","bandit","370","724560","0.0-332.0-0.0","54250555","wem/bandit_single","A11W7R2O4RQSSS","pain","5","","76","L","3","","0","0","1","","0.4203470877","false","295","","0.2386370059","main_expt","","0.1452417655","","0.1066825056","","0.4203470877","","","","","",""
"76","","bandit","371","726431","0.0-333.0-0.0","54250555","wem/bandit_single","A11W7R2O4RQSSS","pain","5","","72","H","0","img/none_selected.jpg","0","0","1","","0.2322267342","false","296","","0.2322267342","main_expt","","0.12995508","","0.06692503618","","0.4006598815","","","","","",""
"163","","bandit","372","728427","0.0-334.0-0.0","54250555","wem/bandit_single","A11W7R2O4RQSSS","pain","5","","76","L","3","","0","0","1","","0.4189250697","false","297","","0.2930795043","main_expt","","0.1079814357","","0.08806334149","","0.4189250697","","","","","",""
"152","","bandit","373","730403","0.0-335.0-0.0","54250555","wem/bandit_single","A11W7R2O4RQSSS","pain","5","","72","H","0","img/none_selected.jpg","0","0","1","","0.3168190842","false","298","","0.3168190842","main_expt","","0.08396844466","","0.0708541643","","0.4204303011","","","","","",""
