"rt","responses","trial_type","trial_index","time_elapsed","internal_node_id","subjID","study","MID","cond","drift","key_press","respCharCode","respKey","respChoiceNum","respChoice","gems","bombs","no_reward","GemPrChosen","BombPrChosen","practice","trial_counter","WinPr_0","LosePr_0","trial_label","WinPr_1","LosePr_1","WinPr_2","LosePr_2","WinPr_3","LosePr_3","Q0","Q1","Q2","gender","age","ethnicity"
"36796","{""Q0"":""A3HTLXAPOBCVVO""}","survey-text","0","36809","0.0-0.0","55646196","wem/bandit_single","A3HTLXAPOBCVVO","pain","8","","","","","","","","","","","","","","","","","","","","","","","","","","",""
"2510","","text","1","40328","0.0-1.0","55646196","wem/bandit_single","A3HTLXAPOBCVVO","pain","8","32","","","","","","","","","","","","","","","","","","","","","","","","","",""
"8522","","text","2","48852","0.0-2.0","55646196","wem/bandit_single","A3HTLXAPOBCVVO","pain","8","32","","","","","","","","","","","","","","","","","","","","","","","","","",""
"68704","","text","3","117563","0.0-3.0","55646196","wem/bandit_single","A3HTLXAPOBCVVO","pain","8","32","","","","","","","","","","","","","","","","","","","","","","","","","",""
"24883","","text","4","142458","0.0-4.0","55646196","wem/bandit_single","A3HTLXAPOBCVVO","pain","8","32","","","","","","","","","","","","","","","","","","","","","","","","","",""
"28499","","text","5","170958","0.0-5.0","55646196","wem/bandit_single","A3HTLXAPOBCVVO","pain","8","32","","","","","","","","","","","","","","","","","","","","","","","","","",""
"9873","","text","6","180835","0.0-6.0","55646196","wem/bandit_single","A3HTLXAPOBCVVO","pain","8","32","","","","","","","","","","","","","","","","","","","","","","","","","",""
"6833","","text","7","187669","0.0-7.0","55646196","wem/bandit_single","A3HTLXAPOBCVVO","pain","8","32","","","","","","","","","","","","","","","","","","","","","","","","","",""
"6862","","text","8","194533","0.0-8.0","55646196","wem/bandit_single","A3HTLXAPOBCVVO","pain","8","32","","","","","","","","","","","","","","","","","","","","","","","","","",""
"3250","","text","9","197784","0.0-9.0","55646196","wem/bandit_single","A3HTLXAPOBCVVO","pain","8","32","","","","","","","","","","","","","","","","","","","","","","","","","",""
"6550","","text","10","204338","0.0-10.0","55646196","wem/bandit_single","A3HTLXAPOBCVVO","pain","8","32","","","","","","","","","","","","","","","","","","","","","","","","","",""
"8091","","text","11","212430","0.0-11.0","55646196","wem/bandit_single","A3HTLXAPOBCVVO","pain","8","32","","","","","","","","","","","","","","","","","","","","","","","","","",""
"1674","","bandit","12","215620","0.0-12.0-0.0","55646196","wem/bandit_single","A3HTLXAPOBCVVO","pain","8","","74","J","0","img/none_selected_demo.jpg","0","0","1","0","0","true","0","0","0","","","","","","","","","","","","",""
"884","","bandit","13","218261","0.0-13.0-0.0","55646196","wem/bandit_single","A3HTLXAPOBCVVO","pain","8","","75","K","0","img/none_selected_demo.jpg","0","0","1","0","0","true","0","0","0","","","","","","","","","","","","",""
"3588","","text","14","222107","0.0-14.0","55646196","wem/bandit_single","A3HTLXAPOBCVVO","pain","8","32","","","","","","","","","","","","","","","","","","","","","","","","","",""
"6493","","text","15","228602","0.0-15.0","55646196","wem/bandit_single","A3HTLXAPOBCVVO","pain","8","32","","","","","","","","","","","","","","","","","","","","","","","","","",""
"4028","","text","16","232632","0.0-16.0","55646196","wem/bandit_single","A3HTLXAPOBCVVO","pain","8","32","","","","","","","","","","","","","","","","","","","","","","","","","",""
"6601","","text","17","239235","0.0-17.0","55646196","wem/bandit_single","A3HTLXAPOBCVVO","pain","8","32","","","","","","","","","","","","","","","","","","","","","","","","","",""
"2387","","bandit","18","243130","0.0-18.0-0.0","55646196","wem/bandit_single","A3HTLXAPOBCVVO","pain","8","","74","J","0","img/none_selected_demo.jpg","0","0","1","0","0.8","true","0","0","0.8","80_20_practice","0","0.2","","","","","","","","","",""
"617","","bandit","19","245505","0.0-18.0-1.0","55646196","wem/bandit_single","A3HTLXAPOBCVVO","pain","8","","75","K","1","","0","0","1","0","0.2","true","0","0","0.8","80_20_practice","0","0.2","","","","","","","","","",""
"290","","bandit","20","247569","0.0-18.0-2.0","55646196","wem/bandit_single","A3HTLXAPOBCVVO","pain","8","","75","K","1","","0","0","1","0","0.2","true","0","0","0.8","80_20_practice","0","0.2","","","","","","","","","",""
"1407","","bandit","21","250743","0.0-18.0-3.0","55646196","wem/bandit_single","A3HTLXAPOBCVVO","pain","8","","74","J","0","img/none_selected_demo.jpg","0","1","0","0","0.8","true","0","0","0.8","80_20_practice","0","0.2","","","","","","","","","",""
"667","","bandit","22","253169","0.0-18.0-4.0","55646196","wem/bandit_single","A3HTLXAPOBCVVO","pain","8","","74","J","0","img/none_selected_demo.jpg","0","1","0","0","0.8","true","0","0","0.8","80_20_practice","0","0.2","","","","","","","","","",""
"458","","bandit","23","255384","0.0-18.0-5.0","55646196","wem/bandit_single","A3HTLXAPOBCVVO","pain","8","","74","J","0","img/none_selected_demo.jpg","0","1","0","0","0.8","true","0","0","0.8","80_20_practice","0","0.2","","","","","","","","","",""
"199","","bandit","24","257341","0.0-18.0-6.0","55646196","wem/bandit_single","A3HTLXAPOBCVVO","pain","8","","74","J","0","img/none_selected_demo.jpg","0","1","0","0","0.8","true","0","0","0.8","80_20_practice","0","0.2","","","","","","","","","",""
"6697","","bandit","25","265795","0.0-18.0-7.0","55646196","wem/bandit_single","A3HTLXAPOBCVVO","pain","8","","74","J","0","img/none_selected_demo.jpg","0","1","0","0","0.8","true","0","0","0.8","80_20_practice","0","0.2","","","","","","","","","",""
"409","","bandit","26","267961","0.0-18.0-8.0","55646196","wem/bandit_single","A3HTLXAPOBCVVO","pain","8","","74","J","0","img/none_selected_demo.jpg","0","1","0","0","0.8","true","0","0","0.8","80_20_practice","0","0.2","","","","","","","","","",""
"155","","bandit","27","269885","0.0-18.0-9.0","55646196","wem/bandit_single","A3HTLXAPOBCVVO","pain","8","","74","J","0","img/none_selected_demo.jpg","0","0","1","0","0.8","true","0","0","0.8","80_20_practice","0","0.2","","","","","","","","","",""
"246","","bandit","28","271889","0.0-18.0-10.0","55646196","wem/bandit_single","A3HTLXAPOBCVVO","pain","8","","74","J","0","img/none_selected_demo.jpg","0","1","0","0","0.8","true","0","0","0.8","80_20_practice","0","0.2","","","","","","","","","",""
"1920","","bandit","29","275565","0.0-18.0-11.0","55646196","wem/bandit_single","A3HTLXAPOBCVVO","pain","8","","74","J","0","img/none_selected_demo.jpg","0","0","1","0","0.8","true","0","0","0.8","80_20_practice","0","0.2","","","","","","","","","",""
"277","","bandit","30","277606","0.0-18.0-12.0","55646196","wem/bandit_single","A3HTLXAPOBCVVO","pain","8","","74","J","0","img/none_selected_demo.jpg","0","1","0","0","0.8","true","0","0","0.8","80_20_practice","0","0.2","","","","","","","","","",""
"67","","bandit","31","279431","0.0-18.0-13.0","55646196","wem/bandit_single","A3HTLXAPOBCVVO","pain","8","","74","J","0","img/none_selected_demo.jpg","0","1","0","0","0.8","true","0","0","0.8","80_20_practice","0","0.2","","","","","","","","","",""
"871","","bandit","32","282083","0.0-18.0-14.0","55646196","wem/bandit_single","A3HTLXAPOBCVVO","pain","8","","74","J","0","img/none_selected_demo.jpg","0","1","0","0","0.8","true","0","0","0.8","80_20_practice","0","0.2","","","","","","","","","",""
"423","","bandit","33","284268","0.0-18.0-15.0","55646196","wem/bandit_single","A3HTLXAPOBCVVO","pain","8","","74","J","0","img/none_selected_demo.jpg","0","1","0","0","0.8","true","0","0","0.8","80_20_practice","0","0.2","","","","","","","","","",""
"119","","bandit","34","286145","0.0-18.0-16.0","55646196","wem/bandit_single","A3HTLXAPOBCVVO","pain","8","","74","J","0","img/none_selected_demo.jpg","0","0","1","0","0.8","true","0","0","0.8","80_20_practice","0","0.2","","","","","","","","","",""
"801","","bandit","35","288705","0.0-18.0-17.0","55646196","wem/bandit_single","A3HTLXAPOBCVVO","pain","8","","74","J","0","img/none_selected_demo.jpg","0","1","0","0","0.8","true","0","0","0.8","80_20_practice","0","0.2","","","","","","","","","",""
"146","","bandit","36","290609","0.0-18.0-18.0","55646196","wem/bandit_single","A3HTLXAPOBCVVO","pain","8","","74","J","0","img/none_selected_demo.jpg","0","0","1","0","0.8","true","0","0","0.8","80_20_practice","0","0.2","","","","","","","","","",""
"823","","bandit","37","293190","0.0-18.0-19.0","55646196","wem/bandit_single","A3HTLXAPOBCVVO","pain","8","","74","J","0","img/none_selected_demo.jpg","0","1","0","0","0.8","true","0","0","0.8","80_20_practice","0","0.2","","","","","","","","","",""
"10707","","text","38","304150","0.0-19.0","55646196","wem/bandit_single","A3HTLXAPOBCVVO","pain","8","32","","","","","","","","","","","","","","","","","","","","","","","","","",""
"1575","","bandit","39","307232","0.0-20.0-0.0","55646196","wem/bandit_single","A3HTLXAPOBCVVO","pain","8","","74","J","0","img/none_selected_demo.jpg","0","0","1","0","0","true","0","0","0","","0","0","","","","","","","","","",""
"11806","","text","40","319293","0.0-21.0","55646196","wem/bandit_single","A3HTLXAPOBCVVO","pain","8","32","","","","","","","","","","","","","","","","","","","","","","","","","",""
"4132","","text","41","323428","0.0-22.0","55646196","wem/bandit_single","A3HTLXAPOBCVVO","pain","8","32","","","","","","","","","","","","","","","","","","","","","","","","","",""
"3229","","text","42","326660","0.0-23.0","55646196","wem/bandit_single","A3HTLXAPOBCVVO","pain","8","32","","","","","","","","","","","","","","","","","","","","","","","","","",""
"2951","","text","43","329613","0.0-24.0","55646196","wem/bandit_single","A3HTLXAPOBCVVO","pain","8","32","","","","","","","","","","","","","","","","","","","","","","","","","",""
"11667","","text","44","341282","0.0-25.0","55646196","wem/bandit_single","A3HTLXAPOBCVVO","pain","8","32","","","","","","","","","","","","","","","","","","","","","","","","","",""
"8627","","text","45","349911","0.0-26.0","55646196","wem/bandit_single","A3HTLXAPOBCVVO","pain","8","32","","","","","","","","","","","","","","","","","","","","","","","","","",""
"5167","","text","46","355082","0.0-27.0","55646196","wem/bandit_single","A3HTLXAPOBCVVO","pain","8","32","","","","","","","","","","","","","","","","","","","","","","","","","",""
"3715","","text","47","358798","0.0-28.0","55646196","wem/bandit_single","A3HTLXAPOBCVVO","pain","8","32","","","","","","","","","","","","","","","","","","","","","","","","","",""
"5541","","text","48","364344","0.0-29.0","55646196","wem/bandit_single","A3HTLXAPOBCVVO","pain","8","32","","","","","","","","","","","","","","","","","","","","","","","","","",""
"2978","","text","49","367326","0.0-30.0","55646196","wem/bandit_single","A3HTLXAPOBCVVO","pain","8","32","","","","","","","","","","","","","","","","","","","","","","","","","",""
"2913","","text","50","370241","0.0-31.0","55646196","wem/bandit_single","A3HTLXAPOBCVVO","pain","8","32","","","","","","","","","","","","","","","","","","","","","","","","","",""
"2322","","bandit","51","374070","0.0-32.0-0.0","55646196","wem/bandit_single","A3HTLXAPOBCVVO","pain","8","","72","H","0","img/none_selected.jpg","0","1","0","0","0.8","true","0","0","0.8","full_practice","0","0.2","0","0.6","0","0.2","","","","","",""
"129","","bandit","52","375956","0.0-32.0-1.0","55646196","wem/bandit_single","A3HTLXAPOBCVVO","pain","8","","72","H","0","img/none_selected.jpg","0","1","0","0","0.8","true","0","0","0.8","full_practice","0","0.2","0","0.6","0","0.2","","","","","",""
"112","","bandit","53","377828","0.0-32.0-2.0","55646196","wem/bandit_single","A3HTLXAPOBCVVO","pain","8","","72","H","0","img/none_selected.jpg","0","1","0","0","0.8","true","0","0","0.8","full_practice","0","0.2","0","0.6","0","0.2","","","","","",""
"73","","bandit","54","379660","0.0-32.0-3.0","55646196","wem/bandit_single","A3HTLXAPOBCVVO","pain","8","","72","H","0","img/none_selected.jpg","0","1","0","0","0.8","true","0","0","0.8","full_practice","0","0.2","0","0.6","0","0.2","","","","","",""
"283","","bandit","55","381702","0.0-32.0-4.0","55646196","wem/bandit_single","A3HTLXAPOBCVVO","pain","8","","72","H","0","img/none_selected.jpg","0","1","0","0","0.8","true","0","0","0.8","full_practice","0","0.2","0","0.6","0","0.2","","","","","",""
"136","","bandit","56","383594","0.0-32.0-5.0","55646196","wem/bandit_single","A3HTLXAPOBCVVO","pain","8","","72","H","0","img/none_selected.jpg","0","1","0","0","0.8","true","0","0","0.8","full_practice","0","0.2","0","0.6","0","0.2","","","","","",""
"90","","bandit","57","385443","0.0-32.0-6.0","55646196","wem/bandit_single","A3HTLXAPOBCVVO","pain","8","","72","H","0","img/none_selected.jpg","0","1","0","0","0.8","true","0","0","0.8","full_practice","0","0.2","0","0.6","0","0.2","","","","","",""
"106","","bandit","58","387308","0.0-32.0-7.0","55646196","wem/bandit_single","A3HTLXAPOBCVVO","pain","8","","72","H","0","img/none_selected.jpg","0","1","0","0","0.8","true","0","0","0.8","full_practice","0","0.2","0","0.6","0","0.2","","","","","",""
"156","","bandit","59","389223","0.0-32.0-8.0","55646196","wem/bandit_single","A3HTLXAPOBCVVO","pain","8","","72","H","0","img/none_selected.jpg","0","0","1","0","0.8","true","0","0","0.8","full_practice","0","0.2","0","0.6","0","0.2","","","","","",""
"1356","","bandit","60","392340","0.0-32.0-9.0","55646196","wem/bandit_single","A3HTLXAPOBCVVO","pain","8","","72","H","0","img/none_selected.jpg","0","1","0","0","0.8","true","0","0","0.8","full_practice","0","0.2","0","0.6","0","0.2","","","","","",""
"379","","bandit","61","394485","0.0-32.0-10.0","55646196","wem/bandit_single","A3HTLXAPOBCVVO","pain","8","","72","H","0","img/none_selected.jpg","0","0","1","0","0.8","true","0","0","0.8","full_practice","0","0.2","0","0.6","0","0.2","","","","","",""
"462","","bandit","62","396711","0.0-32.0-11.0","55646196","wem/bandit_single","A3HTLXAPOBCVVO","pain","8","","72","H","0","img/none_selected.jpg","0","1","0","0","0.8","true","0","0","0.8","full_practice","0","0.2","0","0.6","0","0.2","","","","","",""
"542","","bandit","63","399024","0.0-32.0-12.0","55646196","wem/bandit_single","A3HTLXAPOBCVVO","pain","8","","72","H","0","img/none_selected.jpg","0","1","0","0","0.8","true","0","0","0.8","full_practice","0","0.2","0","0.6","0","0.2","","","","","",""
"364","","bandit","64","401148","0.0-32.0-13.0","55646196","wem/bandit_single","A3HTLXAPOBCVVO","pain","8","","72","H","0","img/none_selected.jpg","0","1","0","0","0.8","true","0","0","0.8","full_practice","0","0.2","0","0.6","0","0.2","","","","","",""
"1500","","bandit","65","404407","0.0-32.0-14.0","55646196","wem/bandit_single","A3HTLXAPOBCVVO","pain","8","","72","H","0","img/none_selected.jpg","0","1","0","0","0.8","true","0","0","0.8","full_practice","0","0.2","0","0.6","0","0.2","","","","","",""
"1073","","bandit","66","407238","0.0-32.0-15.0","55646196","wem/bandit_single","A3HTLXAPOBCVVO","pain","8","","72","H","0","img/none_selected.jpg","0","1","0","0","0.8","true","0","0","0.8","full_practice","0","0.2","0","0.6","0","0.2","","","","","",""
"496","","bandit","67","409495","0.0-32.0-16.0","55646196","wem/bandit_single","A3HTLXAPOBCVVO","pain","8","","72","H","0","img/none_selected.jpg","0","1","0","0","0.8","true","0","0","0.8","full_practice","0","0.2","0","0.6","0","0.2","","","","","",""
"1986","","bandit","68","413239","0.0-32.0-17.0","55646196","wem/bandit_single","A3HTLXAPOBCVVO","pain","8","","72","H","0","img/none_selected.jpg","0","1","0","0","0.8","true","0","0","0.8","full_practice","0","0.2","0","0.6","0","0.2","","","","","",""
"212","","bandit","69","415208","0.0-32.0-18.0","55646196","wem/bandit_single","A3HTLXAPOBCVVO","pain","8","","72","H","0","img/none_selected.jpg","0","1","0","0","0.8","true","0","0","0.8","full_practice","0","0.2","0","0.6","0","0.2","","","","","",""
"361","","bandit","70","417327","0.0-32.0-19.0","55646196","wem/bandit_single","A3HTLXAPOBCVVO","pain","8","","72","H","0","img/none_selected.jpg","0","1","0","0","0.8","true","0","0","0.8","full_practice","0","0.2","0","0.6","0","0.2","","","","","",""
"2801","","text","71","420385","0.0-33.0","55646196","wem/bandit_single","A3HTLXAPOBCVVO","pain","8","32","","","","","","","","","","","","","","","","","","","","","","","","","",""
"12986","","text","72","434377","0.0-34.0","55646196","wem/bandit_single","A3HTLXAPOBCVVO","pain","8","32","","","","","","","","","","","","","","","","","","","","","","","","","",""
"8804","","text","73","443186","0.0-35.0","55646196","wem/bandit_single","A3HTLXAPOBCVVO","pain","8","32","","","","","","","","","","","","","","","","","","","","","","","","","",""
"7927","","text","74","451117","0.0-36.0","55646196","wem/bandit_single","A3HTLXAPOBCVVO","pain","8","32","","","","","","","","","","","","","","","","","","","","","","","","","",""
"7283","","text","75","458404","0.0-37.0","55646196","wem/bandit_single","A3HTLXAPOBCVVO","pain","8","32","","","","","","","","","","","","","","","","","","","","","","","","","",""
"2854","","bandit","76","462767","0.0-38.0-0.0","55646196","wem/bandit_single","A3HTLXAPOBCVVO","pain","8","","72","H","0","img/none_selected.jpg","0","0","1","","0.4519399214","false","1","","0.4519399214","main_expt","","0.461186604","","0.2726752288","","0.2895646149","","","","","",""
"395","","bandit","77","464925","0.0-39.0-0.0","55646196","wem/bandit_single","A3HTLXAPOBCVVO","pain","8","","72","H","0","img/none_selected.jpg","0","1","0","","0.4414774062","false","2","","0.4414774062","main_expt","","0.4745384616","","0.2373300031","","0.3162770887","","","","","",""
"327","","bandit","78","467012","0.0-40.0-0.0","55646196","wem/bandit_single","A3HTLXAPOBCVVO","pain","8","","72","H","0","img/none_selected.jpg","0","1","0","","0.4248782664","false","3","","0.4248782664","main_expt","","0.476270309","","0.2268539811","","0.3445892231","","","","","",""
"349","","bandit","79","469120","0.0-41.0-0.0","55646196","wem/bandit_single","A3HTLXAPOBCVVO","pain","8","","72","H","0","img/none_selected.jpg","0","0","1","","0.3797460064","false","4","","0.3797460064","main_expt","","0.4750198572","","0.2312911009","","0.318720175","","","","","",""
"517","","bandit","80","471400","0.0-42.0-0.0","55646196","wem/bandit_single","A3HTLXAPOBCVVO","pain","8","","72","H","0","img/none_selected.jpg","0","0","1","","0.3747955817","false","5","","0.3747955817","main_expt","","0.4711191004","","0.1875260819","","0.2768356494","","","","","",""
"472","","bandit","81","473631","0.0-43.0-0.0","55646196","wem/bandit_single","A3HTLXAPOBCVVO","pain","8","","74","J","1","","0","0","1","","0.4561500297","false","6","","0.3434652127","main_expt","","0.4561500297","","0.190272436","","0.2660169375","","","","","",""
"353","","bandit","82","475746","0.0-44.0-0.0","55646196","wem/bandit_single","A3HTLXAPOBCVVO","pain","8","","74","J","1","","0","1","0","","0.4549462182","false","7","","0.3450192323","main_expt","","0.4549462182","","0.1912500229","","0.3364590491","","","","","",""
"351","","bandit","83","477858","0.0-45.0-0.0","55646196","wem/bandit_single","A3HTLXAPOBCVVO","pain","8","","74","J","1","","0","0","1","","0.4738433377","false","8","","0.3319287687","main_expt","","0.4738433377","","0.2317086102","","0.2814314702","","","","","",""
"273","","bandit","84","479890","0.0-46.0-0.0","55646196","wem/bandit_single","A3HTLXAPOBCVVO","pain","8","","74","J","1","","0","1","0","","0.4719526371","false","9","","0.3592879842","main_expt","","0.4719526371","","0.2732709622","","0.172204453","","","","","",""
"316","","bandit","85","481965","0.0-47.0-0.0","55646196","wem/bandit_single","A3HTLXAPOBCVVO","pain","8","","74","J","1","","0","0","1","","0.4102917743","false","10","","0.4119036765","main_expt","","0.4102917743","","0.2369361721","","0.1714760066","","","","","",""
"282","","bandit","86","484012","0.0-48.0-0.0","55646196","wem/bandit_single","A3HTLXAPOBCVVO","pain","8","","74","J","1","","0","1","0","","0.4247485268","false","11","","0.440335537","main_expt","","0.4247485268","","0.2428480584","","0.1477319919","","","","","",""
"206","","bandit","87","485977","0.0-49.0-0.0","55646196","wem/bandit_single","A3HTLXAPOBCVVO","pain","8","","74","J","1","","0","0","1","","0.3805001106","false","12","","0.4198069009","main_expt","","0.3805001106","","0.3127978045","","0.1195530135","","","","","",""
"409","","bandit","88","488145","0.0-50.0-0.0","55646196","wem/bandit_single","A3HTLXAPOBCVVO","pain","8","","74","J","1","","0","0","1","","0.3922463094","false","13","","0.4095272681","main_expt","","0.3922463094","","0.3411181312","","0.1097065617","","","","","",""
"654","","bandit","89","490557","0.0-51.0-0.0","55646196","wem/bandit_single","A3HTLXAPOBCVVO","pain","8","","74","J","1","","0","1","0","","0.3385893542","false","14","","0.4393311008","main_expt","","0.3385893542","","0.3547490374","","0.1146709003","","","","","",""
"851","","bandit","90","493183","0.0-52.0-0.0","55646196","wem/bandit_single","A3HTLXAPOBCVVO","pain","8","","75","K","2","","0","1","0","","0.3447780093","false","15","","0.4232641195","main_expt","","0.2580729479","","0.3447780093","","0.105598426","","","","","",""
"290","","bandit","91","495234","0.0-53.0-0.0","55646196","wem/bandit_single","A3HTLXAPOBCVVO","pain","8","","75","K","2","","0","1","0","","0.3451486401","false","16","","0.408879381","main_expt","","0.3126944558","","0.3451486401","","0.1085338479","","","","","",""
"107","","bandit","92","497100","0.0-54.0-0.0","55646196","wem/bandit_single","A3HTLXAPOBCVVO","pain","8","","75","K","2","","0","0","1","","0.3788599072","false","17","","0.376774317","main_expt","","0.3693960878","","0.3788599072","","0.1267686316","","","","","",""
"165","","bandit","93","499029","0.0-55.0-0.0","55646196","wem/bandit_single","A3HTLXAPOBCVVO","pain","8","","75","K","2","","0","1","0","","0.3977159439","false","18","","0.4245824949","main_expt","","0.3881723811","","0.3977159439","","0.2161611973","","","","","",""
"231","","bandit","94","501018","0.0-56.0-0.0","55646196","wem/bandit_single","A3HTLXAPOBCVVO","pain","8","","75","K","2","","0","0","1","","0.3885232362","false","19","","0.4391895307","main_expt","","0.3762380044","","0.3885232362","","0.2028493804","","","","","",""
"513","","bandit","95","503293","0.0-57.0-0.0","55646196","wem/bandit_single","A3HTLXAPOBCVVO","pain","8","","75","K","2","","0","0","1","","0.3985462001","false","20","","0.4621127774","main_expt","","0.3842023068","","0.3985462001","","0.2258994585","","","","","",""
"287","","bandit","96","505340","0.0-58.0-0.0","55646196","wem/bandit_single","A3HTLXAPOBCVVO","pain","8","","75","K","2","","0","0","1","","0.349749023","false","21","","0.4621164646","main_expt","","0.3509270449","","0.349749023","","0.1591174119","","","","","",""
"817","","bandit","97","507922","0.0-59.0-0.0","55646196","wem/bandit_single","A3HTLXAPOBCVVO","pain","8","","76","L","3","","0","0","1","","0.1526874152","false","22","","0.4347396303","main_expt","","0.3777441782","","0.3437713834","","0.1526874152","","","","","",""
"189","","bandit","98","509870","0.0-60.0-0.0","55646196","wem/bandit_single","A3HTLXAPOBCVVO","pain","8","","76","L","3","","0","0","1","","0.1461335862","false","23","","0.43496863","main_expt","","0.3799964268","","0.3608333873","","0.1461335862","","","","","",""
"848","","bandit","99","512481","0.0-61.0-0.0","55646196","wem/bandit_single","A3HTLXAPOBCVVO","pain","8","","74","J","1","","0","0","1","","0.4097073291","false","24","","0.43684491","main_expt","","0.4097073291","","0.3832767268","","0.194032511","","","","","",""
"219","","bandit","100","514463","0.0-62.0-0.0","55646196","wem/bandit_single","A3HTLXAPOBCVVO","pain","8","","74","J","1","","0","1","0","","0.4196977393","false","25","","0.3785768995","main_expt","","0.4196977393","","0.3839685871","","0.1913779305","","","","","",""
"146","","bandit","101","516388","0.0-63.0-0.0","55646196","wem/bandit_single","A3HTLXAPOBCVVO","pain","8","","74","J","1","","0","1","0","","0.3798545817","false","26","","0.3754964585","main_expt","","0.3798545817","","0.3871157951","","0.2830828826","","","","","",""
"527","","bandit","102","518677","0.0-64.0-0.0","55646196","wem/bandit_single","A3HTLXAPOBCVVO","pain","8","","74","J","1","","0","1","0","","0.3531061786","false","27","","0.3964499655","main_expt","","0.3531061786","","0.4093540125","","0.3268824087","","","","","",""
"292","","bandit","103","520729","0.0-65.0-0.0","55646196","wem/bandit_single","A3HTLXAPOBCVVO","pain","8","","74","J","1","","0","1","0","","0.3327392046","false","28","","0.4243602908","main_expt","","0.3327392046","","0.3781829904","","0.3092871108","","","","","",""
"180","","bandit","104","522668","0.0-66.0-0.0","55646196","wem/bandit_single","A3HTLXAPOBCVVO","pain","8","","74","J","1","","0","0","1","","0.2799969064","false","29","","0.4296462108","main_expt","","0.2799969064","","0.3633234486","","0.299803321","","","","","",""
"442","","bandit","105","524870","0.0-67.0-0.0","55646196","wem/bandit_single","A3HTLXAPOBCVVO","pain","8","","74","J","1","","0","0","1","","0.225268033","false","30","","0.4442153724","main_expt","","0.225268033","","0.395486831","","0.3318792252","","","","","",""
"1511","","bandit","106","528162","0.0-68.0-0.0","55646196","wem/bandit_single","A3HTLXAPOBCVVO","pain","8","","74","J","1","","0","0","1","","0.2195205817","false","31","","0.4425075274","main_expt","","0.2195205817","","0.353932484","","0.3274080626","","","","","",""
"278","","bandit","107","530198","0.0-69.0-0.0","55646196","wem/bandit_single","A3HTLXAPOBCVVO","pain","8","","74","J","1","","0","0","1","","0.2569702332","false","32","","0.4038806219","main_expt","","0.2569702332","","0.3902442546","","0.3233555863","","","","","",""
"54","","bandit","108","532011","0.0-70.0-0.0","55646196","wem/bandit_single","A3HTLXAPOBCVVO","pain","8","","72","H","0","img/none_selected.jpg","0","1","0","","0.4283701542","false","33","","0.4283701542","main_expt","","0.2914027765","","0.3727342875","","0.3836123675","","","","","",""
"758","","bandit","109","534529","0.0-71.0-0.0","55646196","wem/bandit_single","A3HTLXAPOBCVVO","pain","8","","72","H","0","img/none_selected.jpg","0","0","1","","0.4332078231","false","34","","0.4332078231","main_expt","","0.2667004126","","0.3940120807","","0.4200589335","","","","","",""
"489","","bandit","110","536780","0.0-72.0-0.0","55646196","wem/bandit_single","A3HTLXAPOBCVVO","pain","8","","72","H","0","img/none_selected.jpg","0","0","1","","0.3861361583","false","35","","0.3861361583","main_expt","","0.3112773703","","0.3682756201","","0.4280145355","","","","","",""
"2772","","bandit","111","541313","0.0-73.0-0.0","55646196","wem/bandit_single","A3HTLXAPOBCVVO","pain","8","","75","K","2","","0","0","1","","0.4136743311","false","36","","0.3176889815","main_expt","","0.3158013471","","0.4136743311","","0.3696194815","","","","","",""
"314","","bandit","112","543386","0.0-74.0-0.0","55646196","wem/bandit_single","A3HTLXAPOBCVVO","pain","8","","75","K","2","","0","1","0","","0.449594317","false","37","","0.3333355096","main_expt","","0.3348696363","","0.449594317","","0.3567242832","","","","","",""
"385","","bandit","113","545535","0.0-75.0-0.0","55646196","wem/bandit_single","A3HTLXAPOBCVVO","pain","8","","75","K","2","","0","0","1","","0.4427192246","false","38","","0.3613286773","main_expt","","0.2967031697","","0.4427192246","","0.3139752797","","","","","",""
"583","","bandit","114","547878","0.0-76.0-0.0","55646196","wem/bandit_single","A3HTLXAPOBCVVO","pain","8","","75","K","2","","0","1","0","","0.4375360897","false","39","","0.3354588101","main_expt","","0.2816090282","","0.4375360897","","0.2884672813","","","","","",""
"332","","bandit","115","549969","0.0-77.0-0.0","55646196","wem/bandit_single","A3HTLXAPOBCVVO","pain","8","","75","K","2","","0","0","1","","0.452648821","false","40","","0.4044898685","main_expt","","0.2900329111","","0.452648821","","0.3253538103","","","","","",""
"227","","bandit","116","551959","0.0-78.0-0.0","55646196","wem/bandit_single","A3HTLXAPOBCVVO","pain","8","","75","K","2","","0","1","0","","0.4689255384","false","41","","0.3615903795","main_expt","","0.3160732104","","0.4689255384","","0.2782289032","","","","","",""
"265","","bandit","117","553987","0.0-79.0-0.0","55646196","wem/bandit_single","A3HTLXAPOBCVVO","pain","8","","75","K","2","","0","0","1","","0.470096522","false","42","","0.3239257876","main_expt","","0.370849222","","0.470096522","","0.2378060085","","","","","",""
"269","","bandit","118","556022","0.0-80.0-0.0","55646196","wem/bandit_single","A3HTLXAPOBCVVO","pain","8","","75","K","2","","0","1","0","","0.4349244256","false","43","","0.2907144625","main_expt","","0.385301305","","0.4349244256","","0.2250536993","","","","","",""
"323","","bandit","119","558105","0.0-81.0-0.0","55646196","wem/bandit_single","A3HTLXAPOBCVVO","pain","8","","75","K","2","","0","1","0","","0.4316966947","false","44","","0.2937558929","main_expt","","0.416838688","","0.4316966947","","0.2132249492","","","","","",""
"239","","bandit","120","560108","0.0-82.0-0.0","55646196","wem/bandit_single","A3HTLXAPOBCVVO","pain","8","","75","K","2","","0","1","0","","0.4526201082","false","45","","0.3667346614","main_expt","","0.3927526088","","0.4526201082","","0.2669052982","","","","","",""
"338","","bandit","121","562206","0.0-83.0-0.0","55646196","wem/bandit_single","A3HTLXAPOBCVVO","pain","8","","75","K","2","","0","1","0","","0.4696962879","false","46","","0.4084803937","main_expt","","0.3789336214","","0.4696962879","","0.259601005","","","","","",""
"247","","bandit","122","564214","0.0-84.0-0.0","55646196","wem/bandit_single","A3HTLXAPOBCVVO","pain","8","","75","K","2","","0","0","1","","0.4591824552","false","47","","0.3956447052","main_expt","","0.3994803113","","0.4591824552","","0.2442503122","","","","","",""
"295","","bandit","123","566271","0.0-85.0-0.0","55646196","wem/bandit_single","A3HTLXAPOBCVVO","pain","8","","75","K","2","","0","0","1","","0.4548607847","false","48","","0.3859230678","main_expt","","0.3570668153","","0.4548607847","","0.2427668164","","","","","",""
"327","","bandit","124","568357","0.0-86.0-0.0","55646196","wem/bandit_single","A3HTLXAPOBCVVO","pain","8","","75","K","2","","0","1","0","","0.4625410341","false","49","","0.394993817","main_expt","","0.3500417472","","0.4625410341","","0.218731525","","","","","",""
"821","","bandit","125","570938","0.0-87.0-0.0","55646196","wem/bandit_single","A3HTLXAPOBCVVO","pain","8","","75","K","2","","0","0","1","","0.4620574215","false","50","","0.4358915385","main_expt","","0.3110114061","","0.4620574215","","0.2187604329","","","","","",""
"2685","","bandit","126","575385","0.0-88.0-0.0","55646196","wem/bandit_single","A3HTLXAPOBCVVO","pain","8","","76","L","3","","0","0","1","","0.2764450854","false","51","","0.4437026926","main_expt","","0.3165374422","","0.4573118055","","0.2764450854","","","","","",""
"323","","bandit","127","577474","0.0-89.0-0.0","55646196","wem/bandit_single","A3HTLXAPOBCVVO","pain","8","","76","L","3","","0","0","1","","0.2735561336","false","52","","0.4357441266","main_expt","","0.3212783944","","0.4577170033","","0.2735561336","","","","","",""
"184","","bandit","128","579416","0.0-90.0-0.0","55646196","wem/bandit_single","A3HTLXAPOBCVVO","pain","8","","76","L","3","","0","0","1","","0.2558353256","false","53","","0.3926545571","main_expt","","0.3079714244","","0.4599667981","","0.2558353256","","","","","",""
"367","","bandit","129","581546","0.0-91.0-0.0","55646196","wem/bandit_single","A3HTLXAPOBCVVO","pain","8","","74","J","1","","0","1","0","","0.3538619638","false","54","","0.3841940555","main_expt","","0.3538619638","","0.4598989899","","0.2856473895","","","","","",""
"251","","bandit","130","583556","0.0-92.0-0.0","55646196","wem/bandit_single","A3HTLXAPOBCVVO","pain","8","","74","J","1","","0","1","0","","0.3390258849","false","55","","0.3733442546","main_expt","","0.3390258849","","0.4371040197","","0.3110799389","","","","","",""
"156","","bandit","131","585473","0.0-93.0-0.0","55646196","wem/bandit_single","A3HTLXAPOBCVVO","pain","8","","74","J","1","","0","0","1","","0.3282580673","false","56","","0.3500738246","main_expt","","0.3282580673","","0.3889704242","","0.2862995849","","","","","",""
"256","","bandit","132","587489","0.0-94.0-0.0","55646196","wem/bandit_single","A3HTLXAPOBCVVO","pain","8","","74","J","1","","0","0","1","","0.3014999451","false","57","","0.3265916347","main_expt","","0.3014999451","","0.4089883961","","0.3029349154","","","","","",""
"301","","bandit","133","589571","0.0-95.0-0.0","55646196","wem/bandit_single","A3HTLXAPOBCVVO","pain","8","","74","J","1","","0","1","0","","0.2895525025","false","58","","0.3203483638","main_expt","","0.2895525025","","0.3682078294","","0.282602966","","","","","",""
"305","","bandit","134","591638","0.0-96.0-0.0","55646196","wem/bandit_single","A3HTLXAPOBCVVO","pain","8","","74","J","1","","0","0","1","","0.2538740387","false","59","","0.258324817","main_expt","","0.2538740387","","0.426053772","","0.3271218703","","","","","",""
"261","","bandit","135","593661","0.0-97.0-0.0","55646196","wem/bandit_single","A3HTLXAPOBCVVO","pain","8","","74","J","1","","0","1","0","","0.2509640494","false","60","","0.2527557167","main_expt","","0.2509640494","","0.4175969639","","0.2978757068","","","","","",""
"343","","bandit","136","595765","0.0-98.0-0.0","55646196","wem/bandit_single","A3HTLXAPOBCVVO","pain","8","","74","J","1","","0","0","1","","0.1930295055","false","61","","0.2925705146","main_expt","","0.1930295055","","0.4124946444","","0.1922553384","","","","","",""
"1175","","bandit","137","598702","0.0-99.0-0.0","55646196","wem/bandit_single","A3HTLXAPOBCVVO","pain","8","","74","J","1","","0","0","1","","0.1259826115","false","62","","0.310648962","main_expt","","0.1259826115","","0.4077217862","","0.1408400783","","","","","",""
"157","","bandit","138","600620","0.0-100.0-0.0","55646196","wem/bandit_single","A3HTLXAPOBCVVO","pain","8","","72","H","0","img/none_selected.jpg","0","0","1","","0.3175489896","false","63","","0.3175489896","main_expt","","0.1388804293","","0.4258821936","","0.1779610645","","","","","",""
"252","","bandit","139","602631","0.0-101.0-0.0","55646196","wem/bandit_single","A3HTLXAPOBCVVO","pain","8","","72","H","0","img/none_selected.jpg","0","0","1","","0.2756852574","false","64","","0.2756852574","main_expt","","0.1412297375","","0.4314195329","","0.1733040919","","","","","",""
"172","","bandit","140","604565","0.0-102.0-0.0","55646196","wem/bandit_single","A3HTLXAPOBCVVO","pain","8","","72","H","0","img/none_selected.jpg","0","0","1","","0.2798966648","false","65","","0.2798966648","main_expt","","0.07856201072","","0.4174082156","","0.1669650696","","","","","",""
"795","","bandit","141","607121","0.0-103.0-0.0","55646196","wem/bandit_single","A3HTLXAPOBCVVO","pain","8","","74","J","1","","0","0","1","","0.04493535693","false","66","","0.2440426105","main_expt","","0.04493535693","","0.4396479182","","0.1439674443","","","","","",""
"410","","bandit","142","609296","0.0-104.0-0.0","55646196","wem/bandit_single","A3HTLXAPOBCVVO","pain","8","","74","J","1","","0","0","1","","0.06268984171","false","67","","0.2630461485","main_expt","","0.06268984171","","0.4080198752","","0.1892066175","","","","","",""
"698","","bandit","143","611755","0.0-105.0-0.0","55646196","wem/bandit_single","A3HTLXAPOBCVVO","pain","8","","75","K","2","","0","0","1","","0.4137299856","false","68","","0.2456224984","main_expt","","0.0976634122","","0.4137299856","","0.1994174399","","","","","",""
"486","","bandit","144","614004","0.0-106.0-0.0","55646196","wem/bandit_single","A3HTLXAPOBCVVO","pain","8","","75","K","2","","0","1","0","","0.3938947582","false","69","","0.328759159","main_expt","","0.1303859095","","0.3938947582","","0.1624567358","","","","","",""
"334","","bandit","145","616101","0.0-107.0-0.0","55646196","wem/bandit_single","A3HTLXAPOBCVVO","pain","8","","75","K","2","","0","1","0","","0.3876621225","false","70","","0.3063762308","main_expt","","0.09159795462","","0.3876621225","","0.203142037","","","","","",""
"245","","bandit","146","618108","0.0-108.0-0.0","55646196","wem/bandit_single","A3HTLXAPOBCVVO","pain","8","","75","K","2","","0","1","0","","0.3788053019","false","71","","0.3509026903","main_expt","","0.07422050438","","0.3788053019","","0.218187973","","","","","",""
"183","","bandit","147","620055","0.0-109.0-0.0","55646196","wem/bandit_single","A3HTLXAPOBCVVO","pain","8","","75","K","2","","0","1","0","","0.3632611749","false","72","","0.3695940198","main_expt","","0.05420033029","","0.3632611749","","0.2357875668","","","","","",""
"244","","bandit","148","622064","0.0-110.0-0.0","55646196","wem/bandit_single","A3HTLXAPOBCVVO","pain","8","","75","K","2","","0","0","1","","0.3121818875","false","73","","0.3532210052","main_expt","","0.04794676006","","0.3121818875","","0.1951490082","","","","","",""
"625","","bandit","149","624450","0.0-111.0-0.0","55646196","wem/bandit_single","A3HTLXAPOBCVVO","pain","8","","75","K","2","","0","1","0","","0.3385624816","false","74","","0.3780170277","main_expt","","0.03645121522","","0.3385624816","","0.208621177","","","","","",""
"303","","bandit","150","626513","0.0-112.0-0.0","55646196","wem/bandit_single","A3HTLXAPOBCVVO","pain","8","","75","K","2","","0","1","0","","0.3393964734","false","75","","0.3141643986","main_expt","","0.04346784694","","0.3393964734","","0.2016482668","","","","","",""
"299","","bandit","151","628573","0.0-113.0-0.0","55646196","wem/bandit_single","A3HTLXAPOBCVVO","pain","8","","75","K","2","","0","0","1","","0.3489067358","false","76","","0.3520496016","main_expt","","0.05697420644","","0.3489067358","","0.2495615647","","","","","",""
"242","","bandit","152","630575","0.0-114.0-0.0","55646196","wem/bandit_single","A3HTLXAPOBCVVO","pain","8","","75","K","2","","0","1","0","","0.3502211764","false","77","","0.2628688268","main_expt","","0.05831686642","","0.3502211764","","0.2225386599","","","","","",""
"304","","bandit","153","632640","0.0-115.0-0.0","55646196","wem/bandit_single","A3HTLXAPOBCVVO","pain","8","","75","K","2","","0","0","1","","0.2979424841","false","78","","0.2856335909","main_expt","","0.0396837938","","0.2979424841","","0.2525784454","","","","","",""
"154","","bandit","154","634555","0.0-116.0-0.0","55646196","wem/bandit_single","A3HTLXAPOBCVVO","pain","8","","75","K","2","","0","0","1","","0.2779986596","false","79","","0.3052483479","main_expt","","0.03651397352","","0.2779986596","","0.2691825077","","","","","",""
"787","","bandit","155","637103","0.0-117.0-0.0","55646196","wem/bandit_single","A3HTLXAPOBCVVO","pain","8","","75","K","2","","0","0","1","","0.2681941829","false","80","","0.2809417262","main_expt","","0.0570793957","","0.2681941829","","0.2749696362","","","","","",""
"1238","","bandit","156","640102","0.0-118.0-0.0","55646196","wem/bandit_single","A3HTLXAPOBCVVO","pain","8","","74","J","1","","0","0","1","","0.05597964966","false","81","","0.2639407754","main_expt","","0.05597964966","","0.2536714586","","0.291945729","","","","","",""
"161","","bandit","157","642024","0.0-119.0-0.0","55646196","wem/bandit_single","A3HTLXAPOBCVVO","pain","8","","74","J","1","","0","0","1","","0.0589745046","false","82","","0.3352417475","main_expt","","0.0589745046","","0.1904528106","","0.2804178179","","","","","",""
"258","","bandit","158","644043","0.0-120.0-0.0","55646196","wem/bandit_single","A3HTLXAPOBCVVO","pain","8","","74","J","1","","0","0","1","","0.04461225985","false","83","","0.3246721101","main_expt","","0.04461225985","","0.2497062266","","0.2253075454","","","","","",""
"364","","bandit","159","646175","0.0-121.0-0.0","55646196","wem/bandit_single","A3HTLXAPOBCVVO","pain","8","","72","H","0","img/none_selected.jpg","0","1","0","","0.3082112656","false","84","","0.3082112656","main_expt","","0.04600221485","","0.2960017758","","0.2475548924","","","","","",""
"210","","bandit","160","648145","0.0-122.0-0.0","55646196","wem/bandit_single","A3HTLXAPOBCVVO","pain","8","","72","H","0","img/none_selected.jpg","0","0","1","","0.2733186338","false","85","","0.2733186338","main_expt","","0.04782026086","","0.2677312645","","0.2443994903","","","","","",""
"171","","bandit","161","650084","0.0-123.0-0.0","55646196","wem/bandit_single","A3HTLXAPOBCVVO","pain","8","","72","H","0","img/none_selected.jpg","0","1","0","","0.2595222796","false","86","","0.2595222796","main_expt","","0.05551660222","","0.2764415163","","0.2112262296","","","","","",""
"345","","bandit","162","652191","0.0-124.0-0.0","55646196","wem/bandit_single","A3HTLXAPOBCVVO","pain","8","","72","H","0","img/none_selected.jpg","0","0","1","","0.2256999028","false","87","","0.2256999028","main_expt","","0.04708869331","","0.324022149","","0.2188998383","","","","","",""
"663","","bandit","163","654621","0.0-125.0-0.0","55646196","wem/bandit_single","A3HTLXAPOBCVVO","pain","8","","72","H","0","img/none_selected.jpg","0","1","0","","0.1990670624","false","88","","0.1990670624","main_expt","","0.02844544313","","0.3109963835","","0.2197891412","","","","","",""
"170","","bandit","164","656556","0.0-126.0-0.0","55646196","wem/bandit_single","A3HTLXAPOBCVVO","pain","8","","72","H","0","img/none_selected.jpg","0","1","0","","0.2125628639","false","89","","0.2125628639","main_expt","","0.02947982339","","0.324941543","","0.1264972534","","","","","",""
"214","","bandit","165","658547","0.0-127.0-0.0","55646196","wem/bandit_single","A3HTLXAPOBCVVO","pain","8","","72","H","0","img/none_selected.jpg","0","0","1","","0.2335475446","false","90","","0.2335475446","main_expt","","0.01544371513","","0.3309337967","","0.09492746395","","","","","",""
"923","","bandit","166","661232","0.0-128.0-0.0","55646196","wem/bandit_single","A3HTLXAPOBCVVO","pain","8","","76","L","3","","0","0","1","","0.0779798764","false","91","","0.2803997126","main_expt","","0.02662688154","","0.2419508287","","0.0779798764","","","","","",""
"228","","bandit","167","663221","0.0-129.0-0.0","55646196","wem/bandit_single","A3HTLXAPOBCVVO","pain","8","","76","L","3","","0","0","1","","0.1178574791","false","92","","0.2771315147","main_expt","","0.03471523835","","0.2040869203","","0.1178574791","","","","","",""
"331","","bandit","168","665318","0.0-130.0-0.0","55646196","wem/bandit_single","A3HTLXAPOBCVVO","pain","8","","76","L","3","","0","0","1","","0.1199697814","false","93","","0.3069544445","main_expt","","0.0252433293","","0.1936143615","","0.1199697814","","","","","",""
"293","","bandit","169","667371","0.0-131.0-0.0","55646196","wem/bandit_single","A3HTLXAPOBCVVO","pain","8","","72","H","0","img/none_selected.jpg","0","1","0","","0.2585327286","false","94","","0.2585327286","main_expt","","0.02873343753","","0.2296452841","","0.1351842626","","","","","",""
"274","","bandit","170","669406","0.0-132.0-0.0","55646196","wem/bandit_single","A3HTLXAPOBCVVO","pain","8","","72","H","0","img/none_selected.jpg","0","0","1","","0.2043747222","false","95","","0.2043747222","main_expt","","0.03754278977","","0.3009770616","","0.1229387465","","","","","",""
"181","","bandit","171","671352","0.0-133.0-0.0","55646196","wem/bandit_single","A3HTLXAPOBCVVO","pain","8","","72","H","0","img/none_selected.jpg","0","0","1","","0.2149370614","false","96","","0.2149370614","main_expt","","0.02045008397","","0.3664634414","","0.1341504272","","","","","",""
"159","","bandit","172","673275","0.0-134.0-0.0","55646196","wem/bandit_single","A3HTLXAPOBCVVO","pain","8","","72","H","0","img/none_selected.jpg","0","0","1","","0.1294523689","false","97","","0.1294523689","main_expt","","0.01282395838","","0.3476641925","","0.08646330057","","","","","",""
"618","","bandit","173","675658","0.0-135.0-0.0","55646196","wem/bandit_single","A3HTLXAPOBCVVO","pain","8","","74","J","1","","0","0","1","","0.02206163243","false","98","","0.1653870254","main_expt","","0.02206163243","","0.3885632826","","0.07731746448","","","","","",""
"278","","bandit","174","677695","0.0-136.0-0.0","55646196","wem/bandit_single","A3HTLXAPOBCVVO","pain","8","","74","J","1","","0","0","1","","0.03016500256","false","99","","0.187235433","main_expt","","0.03016500256","","0.3222143249","","0.05048608161","","","","","",""
"219","","bandit","175","679678","0.0-137.0-0.0","55646196","wem/bandit_single","A3HTLXAPOBCVVO","pain","8","","74","J","1","","0","1","0","","0.03237578522","false","100","","0.1583251777","main_expt","","0.03237578522","","0.3386714995","","0.03970728334","","","","","",""
"375","","bandit","176","681818","0.0-138.0-0.0","55646196","wem/bandit_single","A3HTLXAPOBCVVO","pain","8","","74","J","1","","0","0","1","","0.03241037075","false","101","","0.1337381207","main_expt","","0.03241037075","","0.3131396166","","0.02108340439","","","","","",""
"246","","bandit","177","683827","0.0-139.0-0.0","55646196","wem/bandit_single","A3HTLXAPOBCVVO","pain","8","","74","J","1","","0","0","1","","0.06000215667","false","102","","0.1163639012","main_expt","","0.06000215667","","0.3417288757","","0.05244648731","","","","","",""
"212","","bandit","178","685801","0.0-140.0-0.0","55646196","wem/bandit_single","A3HTLXAPOBCVVO","pain","8","","75","K","2","","0","1","0","","0.3582654759","false","103","","0.1118657557","main_expt","","0.08726741307","","0.3582654759","","0.04574159302","","","","","",""
"157","","bandit","179","687718","0.0-141.0-0.0","55646196","wem/bandit_single","A3HTLXAPOBCVVO","pain","8","","75","K","2","","0","0","1","","0.3409136392","false","104","","0.1501499683","main_expt","","0.1067467257","","0.3409136392","","0.05033190662","","","","","",""
"147","","bandit","180","689632","0.0-142.0-0.0","55646196","wem/bandit_single","A3HTLXAPOBCVVO","pain","8","","75","K","2","","0","1","0","","0.3532992837","false","105","","0.1354733374","main_expt","","0.1004566838","","0.3532992837","","0.1076128494","","","","","",""
"402","","bandit","181","691803","0.0-143.0-0.0","55646196","wem/bandit_single","A3HTLXAPOBCVVO","pain","8","","75","K","2","","0","0","1","","0.335683565","false","106","","0.1727398631","main_expt","","0.1055318719","","0.335683565","","0.06740855405","","","","","",""
"446","","bandit","182","694011","0.0-144.0-0.0","55646196","wem/bandit_single","A3HTLXAPOBCVVO","pain","8","","75","K","2","","0","1","0","","0.3924059951","false","107","","0.1474174257","main_expt","","0.1236328269","","0.3924059951","","0.06658027063","","","","","",""
"470","","bandit","183","696243","0.0-145.0-0.0","55646196","wem/bandit_single","A3HTLXAPOBCVVO","pain","8","","75","K","2","","0","0","1","","0.3626054341","false","108","","0.1683059408","main_expt","","0.1301170461","","0.3626054341","","0.0777756245","","","","","",""
"1040","","bandit","184","699045","0.0-146.0-0.0","55646196","wem/bandit_single","A3HTLXAPOBCVVO","pain","8","","75","K","2","","0","0","1","","0.3806857721","false","109","","0.1972223025","main_expt","","0.1507941036","","0.3806857721","","0.1117823495","","","","","",""
"57","","bandit","185","700863","0.0-147.0-0.0","55646196","wem/bandit_single","A3HTLXAPOBCVVO","pain","8","","75","K","2","","0","1","0","","0.3452619283","false","110","","0.2085186414","main_expt","","0.1647590848","","0.3452619283","","0.08710900622","","","","","",""
"553","","bandit","186","703178","0.0-148.0-0.0","55646196","wem/bandit_single","A3HTLXAPOBCVVO","pain","8","","75","K","2","","0","0","1","","0.3653509784","false","111","","0.1811180602","main_expt","","0.1574612326","","0.3653509784","","0.107183683","","","","","",""
"536","","bandit","187","705474","0.0-149.0-0.0","55646196","wem/bandit_single","A3HTLXAPOBCVVO","pain","8","","74","J","1","","0","0","1","","0.1406493921","false","112","","0.222295219","main_expt","","0.1406493921","","0.3435522482","","0.1099425133","","","","","",""
"166","","bandit","188","707404","0.0-150.0-0.0","55646196","wem/bandit_single","A3HTLXAPOBCVVO","pain","8","","74","J","1","","0","0","1","","0.1367300214","false","113","","0.254178783","main_expt","","0.1367300214","","0.3424956272","","0.1457634924","","","","","",""
"121","","bandit","189","709290","0.0-151.0-0.0","55646196","wem/bandit_single","A3HTLXAPOBCVVO","pain","8","","74","J","1","","0","0","1","","0.1534665218","false","114","","0.2315882939","main_expt","","0.1534665218","","0.3353894863","","0.09824844824","","","","","",""
"917","","bandit","190","711968","0.0-152.0-0.0","55646196","wem/bandit_single","A3HTLXAPOBCVVO","pain","8","","72","H","0","img/none_selected.jpg","0","0","1","","0.2079629003","false","115","","0.2079629003","main_expt","","0.1890238391","","0.3965113255","","0.07202874502","","","","","",""
"312","","bandit","191","714042","0.0-153.0-0.0","55646196","wem/bandit_single","A3HTLXAPOBCVVO","pain","8","","72","H","0","img/none_selected.jpg","0","1","0","","0.2117584369","false","116","","0.2117584369","main_expt","","0.1480670238","","0.3889101716","","0.08386797302","","","","","",""
"312","","bandit","192","716115","0.0-154.0-0.0","55646196","wem/bandit_single","A3HTLXAPOBCVVO","pain","8","","72","H","0","img/none_selected.jpg","0","0","1","","0.1897465023","false","117","","0.1897465023","main_expt","","0.1450369027","","0.412290601","","0.1223406282","","","","","",""
"349","","bandit","193","718227","0.0-155.0-0.0","55646196","wem/bandit_single","A3HTLXAPOBCVVO","pain","8","","72","H","0","img/none_selected.jpg","0","0","1","","0.2162179109","false","118","","0.2162179109","main_expt","","0.1525061225","","0.4090296977","","0.1131974311","","","","","",""
"201","","bandit","194","720193","0.0-156.0-0.0","55646196","wem/bandit_single","A3HTLXAPOBCVVO","pain","8","","72","H","0","img/none_selected.jpg","0","0","1","","0.1954464435","false","119","","0.1954464435","main_expt","","0.1327940691","","0.3900906375","","0.1214903214","","","","","",""
"231","","bandit","195","722192","0.0-157.0-0.0","55646196","wem/bandit_single","A3HTLXAPOBCVVO","pain","8","","72","H","0","img/none_selected.jpg","0","1","0","","0.2433439763","false","120","","0.2433439763","main_expt","","0.1517026744","","0.3722828095","","0.1379734046","","","","","",""
"283","","bandit","196","724249","0.0-158.0-0.0","55646196","wem/bandit_single","A3HTLXAPOBCVVO","pain","8","","72","H","0","img/none_selected.jpg","0","1","0","","0.2093375247","false","121","","0.2093375247","main_expt","","0.09770447215","","0.3593952677","","0.1537473387","","","","","",""
"303","","bandit","197","726321","0.0-159.0-0.0","55646196","wem/bandit_single","A3HTLXAPOBCVVO","pain","8","","72","H","0","img/none_selected.jpg","0","0","1","","0.2030857612","false","122","","0.2030857612","main_expt","","0.1084092314","","0.3670381393","","0.1654199468","","","","","",""
"334","","bandit","198","728415","0.0-160.0-0.0","55646196","wem/bandit_single","A3HTLXAPOBCVVO","pain","8","","72","H","0","img/none_selected.jpg","0","0","1","","0.1810532848","false","123","","0.1810532848","main_expt","","0.1828660492","","0.3587286137","","0.1908187881","","","","","",""
"857","","bandit","199","731033","0.0-161.0-0.0","55646196","wem/bandit_single","A3HTLXAPOBCVVO","pain","8","","74","J","1","","0","1","0","","0.1743556658","false","124","","0.1582229448","main_expt","","0.1743556658","","0.3492740793","","0.2229551501","","","","","",""
"148","","bandit","200","732943","0.0-162.0-0.0","55646196","wem/bandit_single","A3HTLXAPOBCVVO","pain","8","","74","J","1","","0","0","1","","0.2091647646","false","125","","0.1223239468","main_expt","","0.2091647646","","0.3031262708","","0.2354127912","","","","","",""
"228","","bandit","201","734992","0.0-163.0-0.0","55646196","wem/bandit_single","A3HTLXAPOBCVVO","pain","8","","74","J","1","","0","0","1","","0.2089783764","false","126","","0.08912034734","main_expt","","0.2089783764","","0.3272336491","","0.25119817","","","","","",""
"244","","bandit","202","737000","0.0-164.0-0.0","55646196","wem/bandit_single","A3HTLXAPOBCVVO","pain","8","","74","J","1","","0","0","1","","0.21334071","false","127","","0.05948163","main_expt","","0.21334071","","0.3153677968","","0.2312690923","","","","","",""
"659","","bandit","203","739421","0.0-165.0-0.0","55646196","wem/bandit_single","A3HTLXAPOBCVVO","pain","8","","75","K","2","","0","0","1","","0.3317710332","false","128","","0.06525821595","main_expt","","0.1916283041","","0.3317710332","","0.2741150261","","","","","",""
"195","","bandit","204","741384","0.0-166.0-0.0","55646196","wem/bandit_single","A3HTLXAPOBCVVO","pain","8","","75","K","2","","0","0","1","","0.3818586719","false","129","","0.04677418535","main_expt","","0.1810604207","","0.3818586719","","0.2804264122","","","","","",""
"252","","bandit","205","743400","0.0-167.0-0.0","55646196","wem/bandit_single","A3HTLXAPOBCVVO","pain","8","","75","K","2","","0","0","1","","0.3778611376","false","130","","0.04931785787","main_expt","","0.1492319935","","0.3778611376","","0.2746384559","","","","","",""
"159","","bandit","206","745332","0.0-168.0-0.0","55646196","wem/bandit_single","A3HTLXAPOBCVVO","pain","8","","75","K","2","","0","1","0","","0.3745485054","false","131","","0.03231589458","main_expt","","0.129351286","","0.3745485054","","0.3052944487","","","","","",""
"345","","bandit","207","747438","0.0-169.0-0.0","55646196","wem/bandit_single","A3HTLXAPOBCVVO","pain","8","","75","K","2","","0","0","1","","0.3901944836","false","132","","0.0374336399","main_expt","","0.1020216346","","0.3901944836","","0.2871604017","","","","","",""
"582","","bandit","208","749786","0.0-170.0-0.0","55646196","wem/bandit_single","A3HTLXAPOBCVVO","pain","8","","75","K","2","","0","0","1","","0.3245875462","false","133","","0.04583961862","main_expt","","0.1100395313","","0.3245875462","","0.2262434135","","","","","",""
"38","","bandit","209","751588","0.0-171.0-0.0","55646196","wem/bandit_single","A3HTLXAPOBCVVO","pain","8","","75","K","2","","0","0","1","","0.2794858075","false","134","","0.04150300199","main_expt","","0.1078381017","","0.2794858075","","0.2020687113","","","","","",""
"875","","bandit","210","754227","0.0-172.0-0.0","55646196","wem/bandit_single","A3HTLXAPOBCVVO","pain","8","","76","L","3","","0","0","1","","0.2168620662","false","135","","0.04663842542","main_expt","","0.1093486249","","0.2867414221","","0.2168620662","","","","","",""
"140","","bandit","211","756129","0.0-173.0-0.0","55646196","wem/bandit_single","A3HTLXAPOBCVVO","pain","8","","76","L","3","","0","1","0","","0.151139006","false","136","","0.06291357963","main_expt","","0.1246456113","","0.2388941587","","0.151139006","","","","","",""
"342","","bandit","212","758231","0.0-174.0-0.0","55646196","wem/bandit_single","A3HTLXAPOBCVVO","pain","8","","76","L","3","","0","1","0","","0.1452995234","false","137","","0.0848669819","main_expt","","0.1167447495","","0.2301747732","","0.1452995234","","","","","",""
"151","","bandit","213","760146","0.0-175.0-0.0","55646196","wem/bandit_single","A3HTLXAPOBCVVO","pain","8","","76","L","3","","0","0","1","","0.1599176777","false","138","","0.1250360552","main_expt","","0.1357570265","","0.2344721482","","0.1599176777","","","","","",""
"177","","bandit","214","762088","0.0-176.0-0.0","55646196","wem/bandit_single","A3HTLXAPOBCVVO","pain","8","","76","L","3","","0","0","1","","0.1704699841","false","139","","0.122190115","main_expt","","0.1616689495","","0.2351335283","","0.1704699841","","","","","",""
"89","","bandit","215","763938","0.0-177.0-0.0","55646196","wem/bandit_single","A3HTLXAPOBCVVO","pain","8","","76","L","3","","0","0","1","","0.1142956015","false","140","","0.08666030548","main_expt","","0.1979747013","","0.2876903143","","0.1142956015","","","","","",""
"301","","bandit","216","766002","0.0-178.0-0.0","55646196","wem/bandit_single","A3HTLXAPOBCVVO","pain","8","","75","K","2","","0","0","1","","0.2865732071","false","141","","0.09967801986","main_expt","","0.1708965128","","0.2865732071","","0.1206890816","","","","","",""
"1389","","bandit","217","769161","0.0-179.0-0.0","55646196","wem/bandit_single","A3HTLXAPOBCVVO","pain","8","","72","H","0","img/none_selected.jpg","0","0","1","","0.1125289611","false","142","","0.1125289611","main_expt","","0.204481367","","0.248943806","","0.1324259923","","","","","",""
"319","","bandit","218","771243","0.0-180.0-0.0","55646196","wem/bandit_single","A3HTLXAPOBCVVO","pain","8","","72","H","0","img/none_selected.jpg","0","0","1","","0.1467602081","false","143","","0.1467602081","main_expt","","0.1861099789","","0.2839045407","","0.09892217097","","","","","",""
"95","","bandit","219","773099","0.0-181.0-0.0","55646196","wem/bandit_single","A3HTLXAPOBCVVO","pain","8","","72","H","0","img/none_selected.jpg","0","0","1","","0.1467522766","false","144","","0.1467522766","main_expt","","0.1956465744","","0.3150250783","","0.1577744197","","","","","",""
"78","","bandit","220","774940","0.0-182.0-0.0","55646196","wem/bandit_single","A3HTLXAPOBCVVO","pain","8","","74","J","1","","0","0","1","","0.2622876922","false","145","","0.118212248","main_expt","","0.2622876922","","0.3090395899","","0.1392006829","","","","","",""
"233","","bandit","221","776937","0.0-183.0-0.0","55646196","wem/bandit_single","A3HTLXAPOBCVVO","pain","8","","74","J","1","","0","0","1","","0.304745079","false","146","","0.1089879874","main_expt","","0.304745079","","0.3122039877","","0.1262993523","","","","","",""
"955","","bandit","222","779688","0.0-184.0-0.0","55646196","wem/bandit_single","A3HTLXAPOBCVVO","pain","8","","74","J","1","","0","1","0","","0.2888799162","false","147","","0.1200469816","main_expt","","0.2888799162","","0.2959619691","","0.1970652478","","","","","",""
"239","","bandit","223","781701","0.0-185.0-0.0","55646196","wem/bandit_single","A3HTLXAPOBCVVO","pain","8","","74","J","1","","0","0","1","","0.2290209364","false","148","","0.1276189258","main_expt","","0.2290209364","","0.2395536641","","0.2502259542","","","","","",""
"115","","bandit","224","783586","0.0-186.0-0.0","55646196","wem/bandit_single","A3HTLXAPOBCVVO","pain","8","","74","J","1","","0","0","1","","0.1626908122","false","149","","0.1280703092","main_expt","","0.1626908122","","0.2650868272","","0.264890558","","","","","",""
"155","","bandit","225","785505","0.0-187.0-0.0","55646196","wem/bandit_single","A3HTLXAPOBCVVO","pain","8","","74","J","1","","0","0","1","","0.1958031623","false","150","","0.1260403861","main_expt","","0.1958031623","","0.2986082654","","0.2458403893","","","","","",""
"335","","bandit","226","787604","0.0-188.0-0.0","55646196","wem/bandit_single","A3HTLXAPOBCVVO","pain","8","","75","K","2","","0","0","1","","0.2843767109","false","151","","0.1472493067","main_expt","","0.2110526716","","0.2843767109","","0.3021038309","","","","","",""
"91","","bandit","227","789458","0.0-189.0-0.0","55646196","wem/bandit_single","A3HTLXAPOBCVVO","pain","8","","75","K","2","","0","0","1","","0.2910803031","false","152","","0.1256460397","main_expt","","0.239542308","","0.2910803031","","0.2863751765","","","","","",""
"103","","bandit","228","791337","0.0-190.0-0.0","55646196","wem/bandit_single","A3HTLXAPOBCVVO","pain","8","","75","K","2","","0","1","0","","0.2910028656","false","153","","0.1567097088","main_expt","","0.2781725502","","0.2910028656","","0.250244768","","","","","",""
"161","","bandit","229","793258","0.0-191.0-0.0","55646196","wem/bandit_single","A3HTLXAPOBCVVO","pain","8","","75","K","2","","0","0","1","","0.2845613835","false","154","","0.1473662378","main_expt","","0.228047793","","0.2845613835","","0.2127808211","","","","","",""
"122","","bandit","230","795149","0.0-192.0-0.0","55646196","wem/bandit_single","A3HTLXAPOBCVVO","pain","8","","75","K","2","","0","0","1","","0.2707345723","false","155","","0.1466549972","main_expt","","0.2683949018","","0.2707345723","","0.205053704","","","","","",""
"158","","bandit","231","797078","0.0-193.0-0.0","55646196","wem/bandit_single","A3HTLXAPOBCVVO","pain","8","","75","K","2","","0","0","1","","0.3156720475","false","156","","0.1127453184","main_expt","","0.3192141369","","0.3156720475","","0.1648482415","","","","","",""
"99","","bandit","232","798940","0.0-194.0-0.0","55646196","wem/bandit_single","A3HTLXAPOBCVVO","pain","8","","76","L","3","","0","0","1","","0.1888047422","false","157","","0.1577506677","main_expt","","0.3402823895","","0.3101066834","","0.1888047422","","","","","",""
"43","","bandit","233","800746","0.0-195.0-0.0","55646196","wem/bandit_single","A3HTLXAPOBCVVO","pain","8","","76","L","3","","0","0","1","","0.1759444775","false","158","","0.177177298","main_expt","","0.2944958958","","0.3236654942","","0.1759444775","","","","","",""
"92","","bandit","234","802603","0.0-196.0-0.0","55646196","wem/bandit_single","A3HTLXAPOBCVVO","pain","8","","76","L","3","","0","0","1","","0.2066832709","false","159","","0.1693510486","main_expt","","0.3007248388","","0.2735657487","","0.2066832709","","","","","",""
"286","","bandit","235","804651","0.0-197.0-0.0","55646196","wem/bandit_single","A3HTLXAPOBCVVO","pain","8","","76","L","3","","0","0","1","","0.2570817279","false","160","","0.1230292859","main_expt","","0.3179332055","","0.2384912546","","0.2570817279","","","","","",""
"414","","bandit","236","806827","0.0-198.0-0.0","55646196","wem/bandit_single","A3HTLXAPOBCVVO","pain","8","","72","H","0","img/none_selected.jpg","0","0","1","","0.07903667538","false","161","","0.07903667538","main_expt","","0.2506164635","","0.2615252743","","0.2244749933","","","","","",""
"968","","bandit","237","809558","0.0-199.0-0.0","55646196","wem/bandit_single","A3HTLXAPOBCVVO","pain","8","","72","H","0","img/none_selected.jpg","0","0","1","","0.1136507332","false","162","","0.1136507332","main_expt","","0.2858836385","","0.2187643747","","0.23263707","","","","","",""
"188","","bandit","238","811523","0.0-200.0-0.0","55646196","wem/bandit_single","A3HTLXAPOBCVVO","pain","8","","72","H","0","img/none_selected.jpg","0","0","1","","0.1137116213","false","163","","0.1137116213","main_expt","","0.2848163613","","0.1909081127","","0.2287127565","","","","","",""
"256","","bandit","239","813542","0.0-201.0-0.0","55646196","wem/bandit_single","A3HTLXAPOBCVVO","pain","8","","72","H","0","img/none_selected.jpg","0","0","1","","0.1254102563","false","164","","0.1254102563","main_expt","","0.2688566635","","0.1808716434","","0.2303253206","","","","","",""
"665","","bandit","240","815971","0.0-202.0-0.0","55646196","wem/bandit_single","A3HTLXAPOBCVVO","pain","8","","74","J","1","","0","0","1","","0.2921202554","false","165","","0.1216805934","main_expt","","0.2921202554","","0.2118073572","","0.2771057403","","","","","",""
"116","","bandit","241","817854","0.0-203.0-0.0","55646196","wem/bandit_single","A3HTLXAPOBCVVO","pain","8","","74","J","1","","0","0","1","","0.3143591269","false","166","","0.1291529517","main_expt","","0.3143591269","","0.2410554973","","0.2371810998","","","","","",""
"189","","bandit","242","819805","0.0-204.0-0.0","55646196","wem/bandit_single","A3HTLXAPOBCVVO","pain","8","","74","J","1","","0","1","0","","0.2892924204","false","167","","0.1535345887","main_expt","","0.2892924204","","0.2574005288","","0.2349122652","","","","","",""
"104","","bandit","243","821676","0.0-205.0-0.0","55646196","wem/bandit_single","A3HTLXAPOBCVVO","pain","8","","74","J","1","","0","0","1","","0.2786305655","false","168","","0.1435034989","main_expt","","0.2786305655","","0.2729884233","","0.1959020284","","","","","",""
"100","","bandit","244","823538","0.0-206.0-0.0","55646196","wem/bandit_single","A3HTLXAPOBCVVO","pain","8","","74","J","1","","0","0","1","","0.246803054","false","169","","0.1957458285","main_expt","","0.246803054","","0.2625821735","","0.1899859579","","","","","",""
"591","","bandit","245","825894","0.0-207.0-0.0","55646196","wem/bandit_single","A3HTLXAPOBCVVO","pain","8","","74","J","1","","0","0","1","","0.2375021307","false","170","","0.1308867566","main_expt","","0.2375021307","","0.3100542845","","0.2213833812","","","","","",""
"133","","bandit","246","827804","0.0-208.0-0.0","55646196","wem/bandit_single","A3HTLXAPOBCVVO","pain","8","","74","J","1","","0","0","1","","0.2965678991","false","171","","0.1422271972","main_expt","","0.2965678991","","0.3083945368","","0.1589997081","","","","","",""
"128","","bandit","247","829696","0.0-209.0-0.0","55646196","wem/bandit_single","A3HTLXAPOBCVVO","pain","8","","75","K","2","","0","1","0","","0.3929186772","false","172","","0.1541925874","main_expt","","0.2696718616","","0.3929186772","","0.1669714507","","","","","",""
"256","","bandit","248","831728","0.0-210.0-0.0","55646196","wem/bandit_single","A3HTLXAPOBCVVO","pain","8","","75","K","2","","0","1","0","","0.4107736206","false","173","","0.1416394444","main_expt","","0.2576521005","","0.4107736206","","0.1699847696","","","","","",""
"195","","bandit","249","833685","0.0-211.0-0.0","55646196","wem/bandit_single","A3HTLXAPOBCVVO","pain","8","","75","K","2","","0","1","0","","0.4267170337","false","174","","0.1207830423","main_expt","","0.2839516933","","0.4267170337","","0.202136981","","","","","",""
"220","","bandit","250","835667","0.0-212.0-0.0","55646196","wem/bandit_single","A3HTLXAPOBCVVO","pain","8","","75","K","2","","0","1","0","","0.420504823","false","175","","0.1636312712","main_expt","","0.2932452363","","0.420504823","","0.1863880777","","","","","",""
"153","","bandit","251","837580","0.0-213.0-0.0","55646196","wem/bandit_single","A3HTLXAPOBCVVO","pain","8","","75","K","2","","0","1","0","","0.3956962169","false","176","","0.186569684","main_expt","","0.3118313574","","0.3956962169","","0.1426909825","","","","","",""
"179","","bandit","252","839534","0.0-214.0-0.0","55646196","wem/bandit_single","A3HTLXAPOBCVVO","pain","8","","75","K","2","","0","0","1","","0.3834761318","false","177","","0.1089038478","main_expt","","0.3378695823","","0.3834761318","","0.1335645184","","","","","",""
"321","","bandit","253","841643","0.0-215.0-0.0","55646196","wem/bandit_single","A3HTLXAPOBCVVO","pain","8","","75","K","2","","0","0","1","","0.4167112469","false","178","","0.08465244813","main_expt","","0.3234122319","","0.4167112469","","0.09719791569","","","","","",""
"287","","bandit","254","843694","0.0-216.0-0.0","55646196","wem/bandit_single","A3HTLXAPOBCVVO","pain","8","","75","K","2","","0","1","0","","0.4370197561","false","179","","0.1015747644","main_expt","","0.3281528324","","0.4370197561","","0.07123289457","","","","","",""
"322","","bandit","255","845807","0.0-217.0-0.0","55646196","wem/bandit_single","A3HTLXAPOBCVVO","pain","8","","75","K","2","","0","0","1","","0.3776598584","false","180","","0.1277953302","main_expt","","0.340497037","","0.3776598584","","0.05555663239","","","","","",""
"494","","bandit","256","848070","0.0-218.0-0.0","55646196","wem/bandit_single","A3HTLXAPOBCVVO","pain","8","","75","K","2","","0","1","0","","0.3636519722","false","181","","0.1854921141","main_expt","","0.3007371283","","0.3636519722","","0.04396828199","","","","","",""
"292","","bandit","257","850128","0.0-219.0-0.0","55646196","wem/bandit_single","A3HTLXAPOBCVVO","pain","8","","75","K","2","","0","0","1","","0.3246411676","false","182","","0.2273529654","main_expt","","0.3190136055","","0.3246411676","","0.02691259782","","","","","",""
"382","","bandit","258","852276","0.0-220.0-0.0","55646196","wem/bandit_single","A3HTLXAPOBCVVO","pain","8","","75","K","2","","0","1","0","","0.3187018958","false","183","","0.2600234541","main_expt","","0.322323442","","0.3187018958","","0.04807599522","","","","","",""
"287","","bandit","259","854326","0.0-221.0-0.0","55646196","wem/bandit_single","A3HTLXAPOBCVVO","pain","8","","75","K","2","","0","0","1","","0.3497063737","false","184","","0.2689652485","main_expt","","0.3086696071","","0.3497063737","","0.05076165442","","","","","",""
"345","","bandit","260","856433","0.0-222.0-0.0","55646196","wem/bandit_single","A3HTLXAPOBCVVO","pain","8","","75","K","2","","0","1","0","","0.3334532315","false","185","","0.2646203852","main_expt","","0.3146814862","","0.3334532315","","0.1128087831","","","","","",""
"305","","bandit","261","858503","0.0-223.0-0.0","55646196","wem/bandit_single","A3HTLXAPOBCVVO","pain","8","","75","K","2","","0","1","0","","0.3511592443","false","186","","0.2038557162","main_expt","","0.3353274036","","0.3511592443","","0.1592260056","","","","","",""
"296","","bandit","262","860565","0.0-224.0-0.0","55646196","wem/bandit_single","A3HTLXAPOBCVVO","pain","8","","75","K","2","","0","0","1","","0.3758503369","false","187","","0.2643634763","main_expt","","0.331036234","","0.3758503369","","0.2195828404","","","","","",""
"565","","bandit","263","862897","0.0-225.0-0.0","55646196","wem/bandit_single","A3HTLXAPOBCVVO","pain","8","","75","K","2","","0","1","0","","0.3951098987","false","188","","0.2137054787","main_expt","","0.3061178756","","0.3951098987","","0.214856838","","","","","",""
"339","","bandit","264","865055","0.0-226.0-0.0","55646196","wem/bandit_single","A3HTLXAPOBCVVO","pain","8","","75","K","2","","0","1","0","","0.3766733461","false","189","","0.2349639762","main_expt","","0.3455914038","","0.3766733461","","0.2103369464","","","","","",""
"301","","bandit","265","867118","0.0-227.0-0.0","55646196","wem/bandit_single","A3HTLXAPOBCVVO","pain","8","","75","K","2","","0","0","1","","0.3974997784","false","190","","0.2067261929","main_expt","","0.3734842368","","0.3974997784","","0.1932940482","","","","","",""
"540","","bandit","266","869427","0.0-228.0-0.0","55646196","wem/bandit_single","A3HTLXAPOBCVVO","pain","8","","75","K","2","","0","1","0","","0.4174686418","false","191","","0.275245882","main_expt","","0.3648323685","","0.4174686418","","0.2285646161","","","","","",""
"270","","bandit","267","871460","0.0-229.0-0.0","55646196","wem/bandit_single","A3HTLXAPOBCVVO","pain","8","","75","K","2","","0","0","1","","0.3963748123","false","192","","0.306220044","main_expt","","0.3339781981","","0.3963748123","","0.2589031043","","","","","",""
"296","","bandit","268","873523","0.0-230.0-0.0","55646196","wem/bandit_single","A3HTLXAPOBCVVO","pain","8","","75","K","2","","0","1","0","","0.3921748604","false","193","","0.3035773814","main_expt","","0.3342714415","","0.3921748604","","0.2195537535","","","","","",""
"274","","bandit","269","875565","0.0-231.0-0.0","55646196","wem/bandit_single","A3HTLXAPOBCVVO","pain","8","","75","K","2","","0","0","1","","0.3580841109","false","194","","0.2510827831","main_expt","","0.3241295504","","0.3580841109","","0.2027550427","","","","","",""
"294","","bandit","270","877623","0.0-232.0-0.0","55646196","wem/bandit_single","A3HTLXAPOBCVVO","pain","8","","75","K","2","","0","0","1","","0.3508589263","false","195","","0.2455858858","main_expt","","0.3116310431","","0.3508589263","","0.1862287394","","","","","",""
"149","","bandit","271","879563","0.0-233.0-0.0","55646196","wem/bandit_single","A3HTLXAPOBCVVO","pain","8","","75","K","2","","0","0","1","","0.3580593089","false","196","","0.2514601016","main_expt","","0.3757707762","","0.3580593089","","0.1892299528","","","","","",""
"202","","bandit","272","881526","0.0-234.0-0.0","55646196","wem/bandit_single","A3HTLXAPOBCVVO","pain","8","","74","J","1","","0","1","0","","0.3510132286","false","197","","0.2735270373","main_expt","","0.3510132286","","0.325214339","","0.2217707201","","","","","",""
"127","","bandit","273","883426","0.0-235.0-0.0","55646196","wem/bandit_single","A3HTLXAPOBCVVO","pain","8","","74","J","1","","0","1","0","","0.3775824693","false","198","","0.1856542716","main_expt","","0.3775824693","","0.3214736551","","0.2622368769","","","","","",""
"149","","bandit","274","885342","0.0-236.0-0.0","55646196","wem/bandit_single","A3HTLXAPOBCVVO","pain","8","","74","J","1","","0","0","1","","0.3591355879","false","199","","0.1439471636","main_expt","","0.3591355879","","0.3134841864","","0.2566369559","","","","","",""
"647","","bandit","275","887754","0.0-237.0-0.0","55646196","wem/bandit_single","A3HTLXAPOBCVVO","pain","8","","74","J","1","","0","1","0","","0.4329566742","false","200","","0.1920673188","main_expt","","0.4329566742","","0.3484934822","","0.2405232655","","","","","",""
"415","","bandit","276","889938","0.0-238.0-0.0","55646196","wem/bandit_single","A3HTLXAPOBCVVO","pain","8","","74","J","1","","0","0","1","","0.4316294991","false","201","","0.2139557707","main_expt","","0.4316294991","","0.3509587021","","0.191632201","","","","","",""
"301","","bandit","277","892014","0.0-239.0-0.0","55646196","wem/bandit_single","A3HTLXAPOBCVVO","pain","8","","74","J","1","","0","1","0","","0.4446061493","false","202","","0.2411081829","main_expt","","0.4446061493","","0.3472711197","","0.1860277461","","","","","",""
"275","","bandit","278","894061","0.0-240.0-0.0","55646196","wem/bandit_single","A3HTLXAPOBCVVO","pain","8","","74","J","1","","0","0","1","","0.4350640844","false","203","","0.2229679022","main_expt","","0.4350640844","","0.3501901851","","0.1959395152","","","","","",""
"276","","bandit","279","896108","0.0-241.0-0.0","55646196","wem/bandit_single","A3HTLXAPOBCVVO","pain","8","","74","J","1","","0","1","0","","0.4511953558","false","204","","0.2094072873","main_expt","","0.4511953558","","0.4021923856","","0.1909798814","","","","","",""
"403","","bandit","280","898277","0.0-242.0-0.0","55646196","wem/bandit_single","A3HTLXAPOBCVVO","pain","8","","74","J","1","","0","1","0","","0.4444608137","false","205","","0.2061243076","main_expt","","0.4444608137","","0.4103624794","","0.1952925147","","","","","",""
"212","","bandit","281","900260","0.0-243.0-0.0","55646196","wem/bandit_single","A3HTLXAPOBCVVO","pain","8","","74","J","1","","0","0","1","","0.4174874576","false","206","","0.1830656651","main_expt","","0.4174874576","","0.3884407208","","0.2333477628","","","","","",""
"328","","bandit","282","902352","0.0-244.0-0.0","55646196","wem/bandit_single","A3HTLXAPOBCVVO","pain","8","","74","J","1","","0","0","1","","0.4473837798","false","207","","0.1806213093","main_expt","","0.4473837798","","0.4205181933","","0.2366383375","","","","","",""
"435","","bandit","283","904557","0.0-245.0-0.0","55646196","wem/bandit_single","A3HTLXAPOBCVVO","pain","8","","75","K","2","","0","0","1","","0.39705837","false","208","","0.1547428587","main_expt","","0.4423282801","","0.39705837","","0.2588239296","","","","","",""
"48","","bandit","284","906395","0.0-246.0-0.0","55646196","wem/bandit_single","A3HTLXAPOBCVVO","pain","8","","75","K","2","","0","1","0","","0.3763678409","false","209","","0.1633509089","main_expt","","0.4495798672","","0.3763678409","","0.2109346514","","","","","",""
"195","","bandit","285","908358","0.0-247.0-0.0","55646196","wem/bandit_single","A3HTLXAPOBCVVO","pain","8","","75","K","2","","0","1","0","","0.329669689","false","210","","0.194224154","main_expt","","0.4604116181","","0.329669689","","0.2352346414","","","","","",""
"174","","bandit","286","910303","0.0-248.0-0.0","55646196","wem/bandit_single","A3HTLXAPOBCVVO","pain","8","","75","K","2","","0","0","1","","0.3234151823","false","211","","0.1428536625","main_expt","","0.4515605979","","0.3234151823","","0.1919095989","","","","","",""
"192","","bandit","287","912257","0.0-249.0-0.0","55646196","wem/bandit_single","A3HTLXAPOBCVVO","pain","8","","75","K","2","","0","0","1","","0.346289724","false","212","","0.1876263767","main_expt","","0.3796359761","","0.346289724","","0.2511997366","","","","","",""
"104","","bandit","288","914124","0.0-250.0-0.0","55646196","wem/bandit_single","A3HTLXAPOBCVVO","pain","8","","75","K","2","","0","0","1","","0.3579646626","false","213","","0.1767426991","main_expt","","0.4098311692","","0.3579646626","","0.2247602752","","","","","",""
"872","","bandit","289","916760","0.0-251.0-0.0","55646196","wem/bandit_single","A3HTLXAPOBCVVO","pain","8","","76","L","3","","0","0","1","","0.2078026042","false","214","","0.1997003326","main_expt","","0.3758430492","","0.3871938136","","0.2078026042","","","","","",""
"302","","bandit","290","918827","0.0-252.0-0.0","55646196","wem/bandit_single","A3HTLXAPOBCVVO","pain","8","","76","L","3","","0","1","0","","0.2000367883","false","215","","0.1753208105","main_expt","","0.3391734167","","0.4072701047","","0.2000367883","","","","","",""
"247","","bandit","291","920837","0.0-253.0-0.0","55646196","wem/bandit_single","A3HTLXAPOBCVVO","pain","8","","76","L","3","","0","1","0","","0.1850279066","false","216","","0.1526073348","main_expt","","0.3292806148","","0.4139997029","","0.1850279066","","","","","",""
"220","","bandit","292","922823","0.0-254.0-0.0","55646196","wem/bandit_single","A3HTLXAPOBCVVO","pain","8","","76","L","3","","0","0","1","","0.1862329662","false","217","","0.1885901152","main_expt","","0.3672552775","","0.4058129166","","0.1862329662","","","","","",""
"253","","bandit","293","924838","0.0-255.0-0.0","55646196","wem/bandit_single","A3HTLXAPOBCVVO","pain","8","","76","L","3","","0","0","1","","0.2076422808","false","218","","0.2068683321","main_expt","","0.3540988412","","0.3831507141","","0.2076422808","","","","","",""
"126","","bandit","294","926731","0.0-256.0-0.0","55646196","wem/bandit_single","A3HTLXAPOBCVVO","pain","8","","76","L","3","","0","0","1","","0.1693095695","false","219","","0.1830460615","main_expt","","0.3705907093","","0.3975704748","","0.1693095695","","","","","",""
"149","","bandit","295","928654","0.0-257.0-0.0","55646196","wem/bandit_single","A3HTLXAPOBCVVO","pain","8","","76","L","3","","0","0","1","","0.1643321708","false","220","","0.1510464272","main_expt","","0.4071767116","","0.420208779","","0.1643321708","","","","","",""
"382","","bandit","296","930801","0.0-258.0-0.0","55646196","wem/bandit_single","A3HTLXAPOBCVVO","pain","8","","72","H","0","img/none_selected.jpg","0","0","1","","0.1195154075","false","221","","0.1195154075","main_expt","","0.4000591573","","0.4277126104","","0.1755642267","","","","","",""
"204","","bandit","297","932772","0.0-259.0-0.0","55646196","wem/bandit_single","A3HTLXAPOBCVVO","pain","8","","72","H","0","img/none_selected.jpg","0","0","1","","0.1322821073","false","222","","0.1322821073","main_expt","","0.4257242725","","0.4098861052","","0.2047466037","","","","","",""
"405","","bandit","298","934948","0.0-260.0-0.0","55646196","wem/bandit_single","A3HTLXAPOBCVVO","pain","8","","72","H","0","img/none_selected.jpg","0","0","1","","0.1634864242","false","223","","0.1634864242","main_expt","","0.4084538547","","0.3865692481","","0.1261696039","","","","","",""
"142","","bandit","299","936856","0.0-261.0-0.0","55646196","wem/bandit_single","A3HTLXAPOBCVVO","pain","8","","72","H","0","img/none_selected.jpg","0","0","1","","0.1927622759","false","224","","0.1927622759","main_expt","","0.3756333804","","0.3942994903","","0.1671605087","","","","","",""
"375","","bandit","300","939009","0.0-262.0-0.0","55646196","wem/bandit_single","A3HTLXAPOBCVVO","pain","8","","74","J","1","","0","0","1","","0.3977261909","false","225","","0.1949177646","main_expt","","0.3977261909","","0.3444994861","","0.1498322393","","","","","",""
"704","","bandit","301","941490","0.0-263.0-0.0","55646196","wem/bandit_single","A3HTLXAPOBCVVO","pain","8","","74","J","1","","0","1","0","","0.3876796808","false","226","","0.1675301724","main_expt","","0.3876796808","","0.4042132592","","0.106170416","","","","","",""
"72","","bandit","302","943326","0.0-264.0-0.0","55646196","wem/bandit_single","A3HTLXAPOBCVVO","pain","8","","74","J","1","","0","1","0","","0.3213858912","false","227","","0.163375113","main_expt","","0.3213858912","","0.3906229402","","0.0897934899","","","","","",""
"203","","bandit","303","945303","0.0-265.0-0.0","55646196","wem/bandit_single","A3HTLXAPOBCVVO","pain","8","","74","J","1","","0","0","1","","0.3331191915","false","228","","0.195474145","main_expt","","0.3331191915","","0.3417164876","","0.09443294629","","","","","",""
"775","","bandit","304","947843","0.0-266.0-0.0","55646196","wem/bandit_single","A3HTLXAPOBCVVO","pain","8","","74","J","1","","0","0","1","","0.308496805","false","229","","0.2410354958","main_expt","","0.308496805","","0.3222205624","","0.0848669953","","","","","",""
"427","","bandit","305","950033","0.0-267.0-0.0","55646196","wem/bandit_single","A3HTLXAPOBCVVO","pain","8","","74","J","1","","0","1","0","","0.2734654059","false","230","","0.2567648542","main_expt","","0.2734654059","","0.3442672336","","0.0701458292","","","","","",""
"238","","bandit","306","952046","0.0-268.0-0.0","55646196","wem/bandit_single","A3HTLXAPOBCVVO","pain","8","","74","J","1","","0","0","1","","0.292212981","false","231","","0.2304241664","main_expt","","0.292212981","","0.3164459362","","0.1251282835","","","","","",""
"118","","bandit","307","953967","0.0-269.0-0.0","55646196","wem/bandit_single","A3HTLXAPOBCVVO","pain","8","","74","J","1","","0","1","0","","0.2516656152","false","232","","0.2264886823","main_expt","","0.2516656152","","0.3396906789","","0.1124912266","","","","","",""
"268","","bandit","308","955996","0.0-270.0-0.0","55646196","wem/bandit_single","A3HTLXAPOBCVVO","pain","8","","74","J","1","","0","0","1","","0.2563877418","false","233","","0.1892320941","main_expt","","0.2563877418","","0.3008540409","","0.1535494164","","","","","",""
"108","","bandit","309","957872","0.0-271.0-0.0","55646196","wem/bandit_single","A3HTLXAPOBCVVO","pain","8","","74","J","1","","0","0","1","","0.283882603","false","234","","0.1556895318","main_expt","","0.283882603","","0.2767988229","","0.1389628654","","","","","",""
"213","","bandit","310","959865","0.0-272.0-0.0","55646196","wem/bandit_single","A3HTLXAPOBCVVO","pain","8","","74","J","1","","0","0","1","","0.2758852766","false","235","","0.1976044491","main_expt","","0.2758852766","","0.2507781603","","0.1680793718","","","","","",""
"259","","bandit","311","961889","0.0-273.0-0.0","55646196","wem/bandit_single","A3HTLXAPOBCVVO","pain","8","","75","K","2","","0","0","1","","0.3091667607","false","236","","0.1468950029","main_expt","","0.2434452049","","0.3091667607","","0.2037097706","","","","","",""
"147","","bandit","312","963800","0.0-274.0-0.0","55646196","wem/bandit_single","A3HTLXAPOBCVVO","pain","8","","75","K","2","","0","0","1","","0.2883211118","false","237","","0.1365515699","main_expt","","0.2405517979","","0.2883211118","","0.1897176974","","","","","",""
"198","","bandit","313","965768","0.0-275.0-0.0","55646196","wem/bandit_single","A3HTLXAPOBCVVO","pain","8","","75","K","2","","0","0","1","","0.2756444762","false","238","","0.1527077476","main_expt","","0.2260832521","","0.2756444762","","0.2317710791","","","","","",""
"123","","bandit","314","967658","0.0-276.0-0.0","55646196","wem/bandit_single","A3HTLXAPOBCVVO","pain","8","","75","K","2","","0","0","1","","0.3061346513","false","239","","0.1315224722","main_expt","","0.2061693665","","0.3061346513","","0.2206906913","","","","","",""
"418","","bandit","315","969842","0.0-277.0-0.0","55646196","wem/bandit_single","A3HTLXAPOBCVVO","pain","8","","76","L","3","","0","0","1","","0.2155283076","false","240","","0.1398926963","main_expt","","0.2203195159","","0.3274201615","","0.2155283076","","","","","",""
"24","","bandit","316","971633","0.0-278.0-0.0","55646196","wem/bandit_single","A3HTLXAPOBCVVO","pain","8","","76","L","3","","0","0","1","","0.2386015387","false","241","","0.1698873683","main_expt","","0.2230507071","","0.2838770346","","0.2386015387","","","","","",""
"748","","bandit","317","974151","0.0-279.0-0.0","55646196","wem/bandit_single","A3HTLXAPOBCVVO","pain","8","","76","L","3","","0","0","1","","0.2178179326","false","242","","0.1693915972","main_expt","","0.1834748297","","0.261873528","","0.2178179326","","","","","",""
"110","","bandit","318","976027","0.0-280.0-0.0","55646196","wem/bandit_single","A3HTLXAPOBCVVO","pain","8","","76","L","3","","0","0","1","","0.2209910316","false","243","","0.2011280514","main_expt","","0.1450766806","","0.2346518895","","0.2209910316","","","","","",""
"410","","bandit","319","978201","0.0-281.0-0.0","55646196","wem/bandit_single","A3HTLXAPOBCVVO","pain","8","","72","H","0","img/none_selected.jpg","0","0","1","","0.283074141","false","244","","0.283074141","main_expt","","0.1407015906","","0.2253303202","","0.2202366047","","","","","",""
"137","","bandit","320","980111","0.0-282.0-0.0","55646196","wem/bandit_single","A3HTLXAPOBCVVO","pain","8","","72","H","0","img/none_selected.jpg","0","0","1","","0.2960363525","false","245","","0.2960363525","main_expt","","0.1386250556","","0.2379184421","","0.2369425358","","","","","",""
"504","","bandit","321","982389","0.0-283.0-0.0","55646196","wem/bandit_single","A3HTLXAPOBCVVO","pain","8","","72","H","0","img/none_selected.jpg","0","0","1","","0.2985154159","false","246","","0.2985154159","main_expt","","0.1561911267","","0.1704118475","","0.2437218948","","","","","",""
"182","","bandit","322","984338","0.0-284.0-0.0","55646196","wem/bandit_single","A3HTLXAPOBCVVO","pain","8","","72","H","0","img/none_selected.jpg","0","0","1","","0.3159682012","false","247","","0.3159682012","main_expt","","0.251644506","","0.1520093858","","0.2573167276","","","","","",""
"207","","bandit","323","986319","0.0-285.0-0.0","55646196","wem/bandit_single","A3HTLXAPOBCVVO","pain","8","","72","H","0","img/none_selected.jpg","0","1","0","","0.2937445921","false","248","","0.2937445921","main_expt","","0.2541276422","","0.1246217458","","0.255349996","","","","","",""
"307","","bandit","324","988413","0.0-286.0-0.0","55646196","wem/bandit_single","A3HTLXAPOBCVVO","pain","8","","72","H","0","img/none_selected.jpg","0","0","1","","0.2794909668","false","249","","0.2794909668","main_expt","","0.1924412691","","0.1525969556","","0.2866877344","","","","","",""
"150","","bandit","325","990333","0.0-287.0-0.0","55646196","wem/bandit_single","A3HTLXAPOBCVVO","pain","8","","72","H","0","img/none_selected.jpg","0","0","1","","0.2327966623","false","250","","0.2327966623","main_expt","","0.1397358892","","0.1500628479","","0.2330780591","","","","","",""
"136","","bandit","326","992238","0.0-288.0-0.0","55646196","wem/bandit_single","A3HTLXAPOBCVVO","pain","8","","72","H","0","img/none_selected.jpg","0","0","1","","0.2595602212","false","251","","0.2595602212","main_expt","","0.1362233376","","0.1141396938","","0.2580196572","","","","","",""
"159","","bandit","327","994166","0.0-289.0-0.0","55646196","wem/bandit_single","A3HTLXAPOBCVVO","pain","8","","74","J","1","","0","0","1","","0.1796418735","false","252","","0.2715763176","main_expt","","0.1796418735","","0.1476089834","","0.2003146692","","","","","",""
"283","","bandit","328","996220","0.0-290.0-0.0","55646196","wem/bandit_single","A3HTLXAPOBCVVO","pain","8","","74","J","1","","0","0","1","","0.1833608075","false","253","","0.3146654463","main_expt","","0.1833608075","","0.175183139","","0.1651092288","","","","","",""
"322","","bandit","329","998305","0.0-291.0-0.0","55646196","wem/bandit_single","A3HTLXAPOBCVVO","pain","8","","74","J","1","","0","1","0","","0.1983034343","false","254","","0.3037610447","main_expt","","0.1983034343","","0.1916323123","","0.1413675546","","","","","",""
"253","","bandit","330","1000325","0.0-292.0-0.0","55646196","wem/bandit_single","A3HTLXAPOBCVVO","pain","8","","74","J","1","","0","1","0","","0.2286544637","false","255","","0.287825992","main_expt","","0.2286544637","","0.1888714334","","0.1801919014","","","","","",""
"649","","bandit","331","1002747","0.0-293.0-0.0","55646196","wem/bandit_single","A3HTLXAPOBCVVO","pain","8","","74","J","1","","0","0","1","","0.2502735072","false","256","","0.2673332977","main_expt","","0.2502735072","","0.2338577058","","0.1883387327","","","","","",""
"278","","bandit","332","1004794","0.0-294.0-0.0","55646196","wem/bandit_single","A3HTLXAPOBCVVO","pain","8","","74","J","1","","0","0","1","","0.2657937058","false","257","","0.2867614738","main_expt","","0.2657937058","","0.2235288738","","0.1757220287","","","","","",""
"132","","bandit","333","1006693","0.0-295.0-0.0","55646196","wem/bandit_single","A3HTLXAPOBCVVO","pain","8","","74","J","1","","0","1","0","","0.2326681124","false","258","","0.2432485896","main_expt","","0.2326681124","","0.2256298632","","0.1817694486","","","","","",""
"447","","bandit","334","1008909","0.0-296.0-0.0","55646196","wem/bandit_single","A3HTLXAPOBCVVO","pain","8","","74","J","1","","0","0","1","","0.2128848171","false","259","","0.2433124215","main_expt","","0.2128848171","","0.229367941","","0.1938363466","","","","","",""
"185","","bandit","335","1010861","0.0-297.0-0.0","55646196","wem/bandit_single","A3HTLXAPOBCVVO","pain","8","","74","J","1","","0","0","1","","0.261065439","false","260","","0.202057327","main_expt","","0.261065439","","0.2585863351","","0.2129025296","","","","","",""
"662","","bandit","336","1013289","0.0-298.0-0.0","55646196","wem/bandit_single","A3HTLXAPOBCVVO","pain","8","","74","J","1","","0","0","1","","0.2693274395","false","261","","0.163702413","main_expt","","0.2693274395","","0.2748644017","","0.1931457884","","","","","",""
"758","","bandit","337","1015812","0.0-299.0-0.0","55646196","wem/bandit_single","A3HTLXAPOBCVVO","pain","8","","75","K","2","","0","1","0","","0.288340978","false","262","","0.1317961998","main_expt","","0.3386888623","","0.288340978","","0.183306516","","","","","",""
"122","","bandit","338","1017699","0.0-300.0-0.0","55646196","wem/bandit_single","A3HTLXAPOBCVVO","pain","8","","75","K","2","","0","0","1","","0.3151532186","false","263","","0.09680570831","main_expt","","0.3645909238","","0.3151532186","","0.1293037787","","","","","",""
"481","","bandit","339","1019949","0.0-301.0-0.0","55646196","wem/bandit_single","A3HTLXAPOBCVVO","pain","8","","75","K","2","","0","0","1","","0.2931268787","false","264","","0.08846786375","main_expt","","0.3437159196","","0.2931268787","","0.1386072774","","","","","",""
"996","","bandit","340","1022732","0.0-302.0-0.0","55646196","wem/bandit_single","A3HTLXAPOBCVVO","pain","8","","75","K","2","","0","1","0","","0.3131275506","false","265","","0.08556864258","main_expt","","0.3644358952","","0.3131275506","","0.1511252148","","","","","",""
"434","","bandit","341","1024935","0.0-303.0-0.0","55646196","wem/bandit_single","A3HTLXAPOBCVVO","pain","8","","75","K","2","","0","0","1","","0.336523231","false","266","","0.0706515048","main_expt","","0.3904852039","","0.336523231","","0.2186772706","","","","","",""
"111","","bandit","342","1026812","0.0-304.0-0.0","55646196","wem/bandit_single","A3HTLXAPOBCVVO","pain","8","","75","K","2","","0","1","0","","0.2850369317","false","267","","0.0747424838","main_expt","","0.3896615427","","0.2850369317","","0.2625163009","","","","","",""
"46","","bandit","343","1028623","0.0-305.0-0.0","55646196","wem/bandit_single","A3HTLXAPOBCVVO","pain","8","","75","K","2","","0","1","0","","0.3163307124","false","268","","0.112617448","main_expt","","0.4017278216","","0.3163307124","","0.3140442454","","","","","",""
"279","","bandit","344","1030668","0.0-306.0-0.0","55646196","wem/bandit_single","A3HTLXAPOBCVVO","pain","8","","75","K","2","","0","0","1","","0.2956683275","false","269","","0.1406639307","main_expt","","0.370996795","","0.2956683275","","0.3069084364","","","","","",""
"811","","bandit","345","1033242","0.0-307.0-0.0","55646196","wem/bandit_single","A3HTLXAPOBCVVO","pain","8","","75","K","2","","0","0","1","","0.3574655381","false","270","","0.1398727949","main_expt","","0.4255483526","","0.3574655381","","0.2814908846","","","","","",""
"310","","bandit","346","1035324","0.0-308.0-0.0","55646196","wem/bandit_single","A3HTLXAPOBCVVO","pain","8","","75","K","2","","0","0","1","","0.3969117111","false","271","","0.1430486157","main_expt","","0.3948114384","","0.3969117111","","0.3060786573","","","","","",""
"86","","bandit","347","1037182","0.0-309.0-0.0","55646196","wem/bandit_single","A3HTLXAPOBCVVO","pain","8","","76","L","3","","0","0","1","","0.3555003363","false","272","","0.1872928851","main_expt","","0.3713372483","","0.3938657786","","0.3555003363","","","","","",""
"186","","bandit","348","1039150","0.0-310.0-0.0","55646196","wem/bandit_single","A3HTLXAPOBCVVO","pain","8","","76","L","3","","0","0","1","","0.3980140183","false","273","","0.1769074474","main_expt","","0.3650537767","","0.3903330825","","0.3980140183","","","","","",""
"217","","bandit","349","1041135","0.0-311.0-0.0","55646196","wem/bandit_single","A3HTLXAPOBCVVO","pain","8","","76","L","3","","0","1","0","","0.4077181827","false","274","","0.1820324592","main_expt","","0.3414565802","","0.4236793781","","0.4077181827","","","","","",""
"31","","bandit","350","1042930","0.0-312.0-0.0","55646196","wem/bandit_single","A3HTLXAPOBCVVO","pain","8","","76","L","3","","0","1","0","","0.4142369189","false","275","","0.1923133529","main_expt","","0.3027622838","","0.4320968281","","0.4142369189","","","","","",""
"45","","bandit","351","1044744","0.0-313.0-0.0","55646196","wem/bandit_single","A3HTLXAPOBCVVO","pain","8","","76","L","3","","0","1","0","","0.4250096067","false","276","","0.1917589367","main_expt","","0.3125082267","","0.4017915655","","0.4250096067","","","","","",""
"6","","bandit","352","1046518","0.0-314.0-0.0","55646196","wem/bandit_single","A3HTLXAPOBCVVO","pain","8","","76","L","3","","0","1","0","","0.4378988515","false","277","","0.1667093518","main_expt","","0.348890663","","0.3548215972","","0.4378988515","","","","","",""
"619","","bandit","353","1048909","0.0-315.0-0.0","55646196","wem/bandit_single","A3HTLXAPOBCVVO","pain","8","","76","L","3","","0","1","0","","0.4323676568","false","278","","0.1695638059","main_expt","","0.3341457036","","0.3683165275","","0.4323676568","","","","","",""
"72","","bandit","354","1050757","0.0-316.0-0.0","55646196","wem/bandit_single","A3HTLXAPOBCVVO","pain","8","","76","L","3","","0","0","1","","0.4391545144","false","279","","0.1696283439","main_expt","","0.2341959149","","0.3750953637","","0.4391545144","","","","","",""
"850","","bandit","355","1053386","0.0-317.0-0.0","55646196","wem/bandit_single","A3HTLXAPOBCVVO","pain","8","","76","L","3","","0","1","0","","0.4467207207","false","280","","0.09227733008","main_expt","","0.1839622844","","0.3557095414","","0.4467207207","","","","","",""
"605","","bandit","356","1055755","0.0-318.0-0.0","55646196","wem/bandit_single","A3HTLXAPOBCVVO","pain","8","","76","L","3","","0","0","1","","0.3922333676","false","281","","0.08059064446","main_expt","","0.1303375237","","0.374333358","","0.3922333676","","","","","",""
"266","","bandit","357","1057794","0.0-319.0-0.0","55646196","wem/bandit_single","A3HTLXAPOBCVVO","pain","8","","76","L","3","","0","0","1","","0.4243132136","false","282","","0.06236597977","main_expt","","0.07449941097","","0.3786855632","","0.4243132136","","","","","",""
"134","","bandit","358","1059697","0.0-320.0-0.0","55646196","wem/bandit_single","A3HTLXAPOBCVVO","pain","8","","76","L","3","","0","1","0","","0.4187362854","false","283","","0.07782340279","main_expt","","0.08783129911","","0.437514669","","0.4187362854","","","","","",""
"229","","bandit","359","1061696","0.0-321.0-0.0","55646196","wem/bandit_single","A3HTLXAPOBCVVO","pain","8","","76","L","3","","0","1","0","","0.422543139","false","284","","0.07564660971","main_expt","","0.08228152097","","0.410198323","","0.422543139","","","","","",""
"128","","bandit","360","1063598","0.0-322.0-0.0","55646196","wem/bandit_single","A3HTLXAPOBCVVO","pain","8","","76","L","3","","0","1","0","","0.434302279","false","285","","0.08237135124","main_expt","","0.09246744832","","0.3777139522","","0.434302279","","","","","",""
"281","","bandit","361","1065655","0.0-323.0-0.0","55646196","wem/bandit_single","A3HTLXAPOBCVVO","pain","8","","76","L","3","","0","1","0","","0.4094725029","false","286","","0.05670298638","main_expt","","0.08394792075","","0.3841171753","","0.4094725029","","","","","",""
"311","","bandit","362","1067732","0.0-324.0-0.0","55646196","wem/bandit_single","A3HTLXAPOBCVVO","pain","8","","76","L","3","","0","0","1","","0.3778080042","false","287","","0.06647452785","main_expt","","0.1021913287","","0.3641862554","","0.3778080042","","","","","",""
"329","","bandit","363","1069826","0.0-325.0-0.0","55646196","wem/bandit_single","A3HTLXAPOBCVVO","pain","8","","76","L","3","","0","0","1","","0.3671495563","false","288","","0.04859701272","main_expt","","0.1188664616","","0.3192590496","","0.3671495563","","","","","",""
"176","","bandit","364","1071790","0.0-326.0-0.0","55646196","wem/bandit_single","A3HTLXAPOBCVVO","pain","8","","76","L","3","","0","1","0","","0.3622055636","false","289","","0.04246321062","main_expt","","0.1050513492","","0.3384054944","","0.3622055636","","","","","",""
"365","","bandit","365","1073932","0.0-327.0-0.0","55646196","wem/bandit_single","A3HTLXAPOBCVVO","pain","8","","76","L","3","","0","0","1","","0.3616647964","false","290","","0.08307379137","main_expt","","0.1304324694","","0.329366118","","0.3616647964","","","","","",""
"171","","bandit","366","1075868","0.0-328.0-0.0","55646196","wem/bandit_single","A3HTLXAPOBCVVO","pain","8","","76","L","3","","0","0","1","","0.3521760992","false","291","","0.09664054691","main_expt","","0.09707891459","","0.38061917","","0.3521760992","","","","","",""
"1241","","bandit","367","1078892","0.0-329.0-0.0","55646196","wem/bandit_single","A3HTLXAPOBCVVO","pain","8","","72","H","0","img/none_selected.jpg","0","0","1","","0.1089287446","false","292","","0.1089287446","main_expt","","0.1166693976","","0.3703624541","","0.3062989856","","","","","",""
"261","","bandit","368","1080922","0.0-330.0-0.0","55646196","wem/bandit_single","A3HTLXAPOBCVVO","pain","8","","72","H","0","img/none_selected.jpg","0","0","1","","0.1426967363","false","293","","0.1426967363","main_expt","","0.1448282665","","0.3554666564","","0.2594623792","","","","","",""
"134","","bandit","369","1082833","0.0-331.0-0.0","55646196","wem/bandit_single","A3HTLXAPOBCVVO","pain","8","","72","H","0","img/none_selected.jpg","0","0","1","","0.08295656842","false","294","","0.08295656842","main_expt","","0.1486412875","","0.3976604504","","0.2666401727","","","","","",""
"164","","bandit","370","1084780","0.0-332.0-0.0","55646196","wem/bandit_single","A3HTLXAPOBCVVO","pain","8","","72","H","0","img/none_selected.jpg","0","0","1","","0.07441347029","false","295","","0.07441347029","main_expt","","0.1266024918","","0.3567340825","","0.2160621863","","","","","",""
"90","","bandit","371","1086645","0.0-333.0-0.0","55646196","wem/bandit_single","A3HTLXAPOBCVVO","pain","8","","72","H","0","img/none_selected.jpg","0","0","1","","0.08167080543","false","296","","0.08167080543","main_expt","","0.1499702932","","0.3802278382","","0.1924669582","","","","","",""
"397","","bandit","372","1088815","0.0-334.0-0.0","55646196","wem/bandit_single","A3HTLXAPOBCVVO","pain","8","","74","J","1","","0","0","1","","0.1124444021","false","297","","0.06721412472","main_expt","","0.1124444021","","0.3764104085","","0.2572135825","","","","","",""
"51","","bandit","373","1090635","0.0-335.0-0.0","55646196","wem/bandit_single","A3HTLXAPOBCVVO","pain","8","","74","J","1","","0","0","1","","0.122133656","false","298","","0.1106754059","main_expt","","0.122133656","","0.3801851674","","0.2660288188","","","","","",""
