"rt","responses","trial_type","trial_index","time_elapsed","internal_node_id","subjID","study","MID","cond","drift","key_press","respCharCode","respKey","respChoiceNum","respChoice","gems","bombs","no_reward","GemPrChosen","BombPrChosen","practice","trial_counter","WinPr_0","LosePr_0","trial_label","WinPr_1","LosePr_1","WinPr_2","LosePr_2","WinPr_3","LosePr_3","Q0","Q1","Q2","gender","age","ethnicity"
"7623","{""Q0"":""A115UFR6VA6OM1""}","survey-text","0","7634","0.0-0.0","55768395","wem/bandit_single","A115UFR6VA6OM1","pain","8","","","","","","","","","","","","","","","","","","","","","","","","","","",""
"2142","","text","1","10786","0.0-1.0","55768395","wem/bandit_single","A115UFR6VA6OM1","pain","8","32","","","","","","","","","","","","","","","","","","","","","","","","","",""
"2761","","text","2","13551","0.0-2.0","55768395","wem/bandit_single","A115UFR6VA6OM1","pain","8","32","","","","","","","","","","","","","","","","","","","","","","","","","",""
"11219","","text","3","24773","0.0-3.0","55768395","wem/bandit_single","A115UFR6VA6OM1","pain","8","32","","","","","","","","","","","","","","","","","","","","","","","","","",""
"6002","","text","4","30778","0.0-4.0","55768395","wem/bandit_single","A115UFR6VA6OM1","pain","8","32","","","","","","","","","","","","","","","","","","","","","","","","","",""
"10143","","text","5","40924","0.0-5.0","55768395","wem/bandit_single","A115UFR6VA6OM1","pain","8","32","","","","","","","","","","","","","","","","","","","","","","","","","",""
"6801","","text","6","47728","0.0-6.0","55768395","wem/bandit_single","A115UFR6VA6OM1","pain","8","32","","","","","","","","","","","","","","","","","","","","","","","","","",""
"5210","","text","7","52940","0.0-7.0","55768395","wem/bandit_single","A115UFR6VA6OM1","pain","8","32","","","","","","","","","","","","","","","","","","","","","","","","","",""
"4280","","text","8","57224","0.0-8.0","55768395","wem/bandit_single","A115UFR6VA6OM1","pain","8","32","","","","","","","","","","","","","","","","","","","","","","","","","",""
"3735","","text","9","60962","0.0-9.0","55768395","wem/bandit_single","A115UFR6VA6OM1","pain","8","32","","","","","","","","","","","","","","","","","","","","","","","","","",""
"24477","","text","10","85441","0.0-10.0","55768395","wem/bandit_single","A115UFR6VA6OM1","pain","8","32","","","","","","","","","","","","","","","","","","","","","","","","","",""
"10581","","text","11","96025","0.0-11.0","55768395","wem/bandit_single","A115UFR6VA6OM1","pain","8","32","","","","","","","","","","","","","","","","","","","","","","","","","",""
"6932","","bandit","12","104475","0.0-12.0-0.0","55768395","wem/bandit_single","A115UFR6VA6OM1","pain","8","","74","J","0","img/none_selected_demo.jpg","0","0","1","0","0","true","0","0","0","","","","","","","","","","","","",""
"1615","","bandit","13","107851","0.0-13.0-0.0","55768395","wem/bandit_single","A115UFR6VA6OM1","pain","8","","75","K","0","img/none_selected_demo.jpg","0","0","1","0","0","true","0","0","0","","","","","","","","","","","","",""
"3159","","text","14","111264","0.0-14.0","55768395","wem/bandit_single","A115UFR6VA6OM1","pain","8","32","","","","","","","","","","","","","","","","","","","","","","","","","",""
"3148","","text","15","114414","0.0-15.0","55768395","wem/bandit_single","A115UFR6VA6OM1","pain","8","32","","","","","","","","","","","","","","","","","","","","","","","","","",""
"3661","","text","16","118078","0.0-16.0","55768395","wem/bandit_single","A115UFR6VA6OM1","pain","8","32","","","","","","","","","","","","","","","","","","","","","","","","","",""
"4118","","text","17","122199","0.0-17.0","55768395","wem/bandit_single","A115UFR6VA6OM1","pain","8","32","","","","","","","","","","","","","","","","","","","","","","","","","",""
"3103","","bandit","18","126810","0.0-18.0-0.0","55768395","wem/bandit_single","A115UFR6VA6OM1","pain","8","","74","J","0","img/none_selected_demo.jpg","0","1","0","0","0.8","true","0","0","0.8","80_20_practice","0","0.2","","","","","","","","","",""
"551","","bandit","19","129123","0.0-18.0-1.0","55768395","wem/bandit_single","A115UFR6VA6OM1","pain","8","","75","K","1","","0","0","1","0","0.2","true","0","0","0.8","80_20_practice","0","0.2","","","","","","","","","",""
"3864","","bandit","20","134750","0.0-18.0-2.0","55768395","wem/bandit_single","A115UFR6VA6OM1","pain","8","","74","J","0","img/none_selected_demo.jpg","0","1","0","0","0.8","true","0","0","0.8","80_20_practice","0","0.2","","","","","","","","","",""
"766","","bandit","21","137278","0.0-18.0-3.0","55768395","wem/bandit_single","A115UFR6VA6OM1","pain","8","","75","K","1","","0","0","1","0","0.2","true","0","0","0.8","80_20_practice","0","0.2","","","","","","","","","",""
"8648","","bandit","22","147689","0.0-18.0-4.0","55768395","wem/bandit_single","A115UFR6VA6OM1","pain","8","","74","J","0","img/none_selected_demo.jpg","0","1","0","0","0.8","true","0","0","0.8","80_20_practice","0","0.2","","","","","","","","","",""
"1029","","bandit","23","150482","0.0-18.0-5.0","55768395","wem/bandit_single","A115UFR6VA6OM1","pain","8","","75","K","1","","0","1","0","0","0.2","true","0","0","0.8","80_20_practice","0","0.2","","","","","","","","","",""
"1686","","bandit","24","153925","0.0-18.0-6.0","55768395","wem/bandit_single","A115UFR6VA6OM1","pain","8","","74","J","0","img/none_selected_demo.jpg","0","0","1","0","0.8","true","0","0","0.8","80_20_practice","0","0.2","","","","","","","","","",""
"631","","bandit","25","156318","0.0-18.0-7.0","55768395","wem/bandit_single","A115UFR6VA6OM1","pain","8","","75","K","1","","0","0","1","0","0.2","true","0","0","0.8","80_20_practice","0","0.2","","","","","","","","","",""
"425","","bandit","26","158502","0.0-18.0-8.0","55768395","wem/bandit_single","A115UFR6VA6OM1","pain","8","","74","J","0","img/none_selected_demo.jpg","0","1","0","0","0.8","true","0","0","0.8","80_20_practice","0","0.2","","","","","","","","","",""
"494","","bandit","27","160753","0.0-18.0-9.0","55768395","wem/bandit_single","A115UFR6VA6OM1","pain","8","","75","K","1","","0","0","1","0","0.2","true","0","0","0.8","80_20_practice","0","0.2","","","","","","","","","",""
"373","","bandit","28","162888","0.0-18.0-10.0","55768395","wem/bandit_single","A115UFR6VA6OM1","pain","8","","74","J","0","img/none_selected_demo.jpg","0","0","1","0","0.8","true","0","0","0.8","80_20_practice","0","0.2","","","","","","","","","",""
"252","","bandit","29","164901","0.0-18.0-11.0","55768395","wem/bandit_single","A115UFR6VA6OM1","pain","8","","75","K","1","","0","1","0","0","0.2","true","0","0","0.8","80_20_practice","0","0.2","","","","","","","","","",""
"490","","bandit","30","167153","0.0-18.0-12.0","55768395","wem/bandit_single","A115UFR6VA6OM1","pain","8","","74","J","0","img/none_selected_demo.jpg","0","1","0","0","0.8","true","0","0","0.8","80_20_practice","0","0.2","","","","","","","","","",""
"302","","bandit","31","169216","0.0-18.0-13.0","55768395","wem/bandit_single","A115UFR6VA6OM1","pain","8","","75","K","1","","0","0","1","0","0.2","true","0","0","0.8","80_20_practice","0","0.2","","","","","","","","","",""
"706","","bandit","32","171682","0.0-18.0-14.0","55768395","wem/bandit_single","A115UFR6VA6OM1","pain","8","","74","J","0","img/none_selected_demo.jpg","0","1","0","0","0.8","true","0","0","0.8","80_20_practice","0","0.2","","","","","","","","","",""
"292","","bandit","33","173740","0.0-18.0-15.0","55768395","wem/bandit_single","A115UFR6VA6OM1","pain","8","","75","K","1","","0","0","1","0","0.2","true","0","0","0.8","80_20_practice","0","0.2","","","","","","","","","",""
"181","","bandit","34","175684","0.0-18.0-16.0","55768395","wem/bandit_single","A115UFR6VA6OM1","pain","8","","74","J","0","img/none_selected_demo.jpg","0","0","1","0","0.8","true","0","0","0.8","80_20_practice","0","0.2","","","","","","","","","",""
"123","","bandit","35","177570","0.0-18.0-17.0","55768395","wem/bandit_single","A115UFR6VA6OM1","pain","8","","75","K","1","","0","0","1","0","0.2","true","0","0","0.8","80_20_practice","0","0.2","","","","","","","","","",""
"176","","bandit","36","179511","0.0-18.0-18.0","55768395","wem/bandit_single","A115UFR6VA6OM1","pain","8","","74","J","0","img/none_selected_demo.jpg","0","1","0","0","0.8","true","0","0","0.8","80_20_practice","0","0.2","","","","","","","","","",""
"201","","bandit","37","181472","0.0-18.0-19.0","55768395","wem/bandit_single","A115UFR6VA6OM1","pain","8","","75","K","1","","0","0","1","0","0.2","true","0","0","0.8","80_20_practice","0","0.2","","","","","","","","","",""
"4863","","text","38","186590","0.0-19.0","55768395","wem/bandit_single","A115UFR6VA6OM1","pain","8","32","","","","","","","","","","","","","","","","","","","","","","","","","",""
"4473","","bandit","39","192574","0.0-20.0-0.0","55768395","wem/bandit_single","A115UFR6VA6OM1","pain","8","","74","J","0","img/none_selected_demo.jpg","0","0","1","0","0","true","0","0","0","","0","0","","","","","","","","","",""
"7989","","text","40","200820","0.0-21.0","55768395","wem/bandit_single","A115UFR6VA6OM1","pain","8","32","","","","","","","","","","","","","","","","","","","","","","","","","",""
"3674","","text","41","204498","0.0-22.0","55768395","wem/bandit_single","A115UFR6VA6OM1","pain","8","32","","","","","","","","","","","","","","","","","","","","","","","","","",""
"3905","","text","42","208407","0.0-23.0","55768395","wem/bandit_single","A115UFR6VA6OM1","pain","8","32","","","","","","","","","","","","","","","","","","","","","","","","","",""
"4044","","text","43","212457","0.0-24.0","55768395","wem/bandit_single","A115UFR6VA6OM1","pain","8","32","","","","","","","","","","","","","","","","","","","","","","","","","",""
"10759","","text","44","223220","0.0-25.0","55768395","wem/bandit_single","A115UFR6VA6OM1","pain","8","32","","","","","","","","","","","","","","","","","","","","","","","","","",""
"3850","","text","45","227074","0.0-26.0","55768395","wem/bandit_single","A115UFR6VA6OM1","pain","8","32","","","","","","","","","","","","","","","","","","","","","","","","","",""
"5043","","text","46","232123","0.0-27.0","55768395","wem/bandit_single","A115UFR6VA6OM1","pain","8","32","","","","","","","","","","","","","","","","","","","","","","","","","",""
"3658","","text","47","235785","0.0-28.0","55768395","wem/bandit_single","A115UFR6VA6OM1","pain","8","32","","","","","","","","","","","","","","","","","","","","","","","","","",""
"4706","","text","48","240497","0.0-29.0","55768395","wem/bandit_single","A115UFR6VA6OM1","pain","8","32","","","","","","","","","","","","","","","","","","","","","","","","","",""
"2766","","text","49","243267","0.0-30.0","55768395","wem/bandit_single","A115UFR6VA6OM1","pain","8","32","","","","","","","","","","","","","","","","","","","","","","","","","",""
"5087","","text","50","248358","0.0-31.0","55768395","wem/bandit_single","A115UFR6VA6OM1","pain","8","32","","","","","","","","","","","","","","","","","","","","","","","","","",""
"1243","","bandit","51","251110","0.0-32.0-0.0","55768395","wem/bandit_single","A115UFR6VA6OM1","pain","8","","72","H","0","img/none_selected.jpg","0","1","0","0","0.8","true","0","0","0.8","full_practice","0","0.2","0","0.6","0","0.2","","","","","",""
"968","","bandit","52","253839","0.0-32.0-1.0","55768395","wem/bandit_single","A115UFR6VA6OM1","pain","8","","74","J","1","","0","0","1","0","0.2","true","0","0","0.8","full_practice","0","0.2","0","0.6","0","0.2","","","","","",""
"294","","bandit","53","255901","0.0-32.0-2.0","55768395","wem/bandit_single","A115UFR6VA6OM1","pain","8","","75","K","2","","0","1","0","0","0.6","true","0","0","0.8","full_practice","0","0.2","0","0.6","0","0.2","","","","","",""
"1173","","bandit","54","258836","0.0-32.0-3.0","55768395","wem/bandit_single","A115UFR6VA6OM1","pain","8","","76","L","3","","0","1","0","0","0.2","true","0","0","0.8","full_practice","0","0.2","0","0.6","0","0.2","","","","","",""
"881","","bandit","55","261483","0.0-32.0-4.0","55768395","wem/bandit_single","A115UFR6VA6OM1","pain","8","","72","H","0","img/none_selected.jpg","0","1","0","0","0.8","true","0","0","0.8","full_practice","0","0.2","0","0.6","0","0.2","","","","","",""
"226","","bandit","56","263471","0.0-32.0-5.0","55768395","wem/bandit_single","A115UFR6VA6OM1","pain","8","","74","J","1","","0","0","1","0","0.2","true","0","0","0.8","full_practice","0","0.2","0","0.6","0","0.2","","","","","",""
"198","","bandit","57","265430","0.0-32.0-6.0","55768395","wem/bandit_single","A115UFR6VA6OM1","pain","8","","75","K","2","","0","1","0","0","0.6","true","0","0","0.8","full_practice","0","0.2","0","0.6","0","0.2","","","","","",""
"175","","bandit","58","267366","0.0-32.0-7.0","55768395","wem/bandit_single","A115UFR6VA6OM1","pain","8","","76","L","3","","0","1","0","0","0.2","true","0","0","0.8","full_practice","0","0.2","0","0.6","0","0.2","","","","","",""
"570","","bandit","59","269698","0.0-32.0-8.0","55768395","wem/bandit_single","A115UFR6VA6OM1","pain","8","","72","H","0","img/none_selected.jpg","0","1","0","0","0.8","true","0","0","0.8","full_practice","0","0.2","0","0.6","0","0.2","","","","","",""
"193","","bandit","60","271654","0.0-32.0-9.0","55768395","wem/bandit_single","A115UFR6VA6OM1","pain","8","","74","J","1","","0","0","1","0","0.2","true","0","0","0.8","full_practice","0","0.2","0","0.6","0","0.2","","","","","",""
"254","","bandit","61","273672","0.0-32.0-10.0","55768395","wem/bandit_single","A115UFR6VA6OM1","pain","8","","75","K","2","","0","0","1","0","0.6","true","0","0","0.8","full_practice","0","0.2","0","0.6","0","0.2","","","","","",""
"194","","bandit","62","275630","0.0-32.0-11.0","55768395","wem/bandit_single","A115UFR6VA6OM1","pain","8","","76","L","3","","0","0","1","0","0.2","true","0","0","0.8","full_practice","0","0.2","0","0.6","0","0.2","","","","","",""
"250","","bandit","63","277646","0.0-32.0-12.0","55768395","wem/bandit_single","A115UFR6VA6OM1","pain","8","","72","H","0","img/none_selected.jpg","0","1","0","0","0.8","true","0","0","0.8","full_practice","0","0.2","0","0.6","0","0.2","","","","","",""
"123","","bandit","64","279533","0.0-32.0-13.0","55768395","wem/bandit_single","A115UFR6VA6OM1","pain","8","","74","J","1","","0","0","1","0","0.2","true","0","0","0.8","full_practice","0","0.2","0","0.6","0","0.2","","","","","",""
"106","","bandit","65","281397","0.0-32.0-14.0","55768395","wem/bandit_single","A115UFR6VA6OM1","pain","8","","75","K","2","","0","1","0","0","0.6","true","0","0","0.8","full_practice","0","0.2","0","0.6","0","0.2","","","","","",""
"166","","bandit","66","283327","0.0-32.0-15.0","55768395","wem/bandit_single","A115UFR6VA6OM1","pain","8","","76","L","3","","0","0","1","0","0.2","true","0","0","0.8","full_practice","0","0.2","0","0.6","0","0.2","","","","","",""
"389","","bandit","67","285478","0.0-32.0-16.0","55768395","wem/bandit_single","A115UFR6VA6OM1","pain","8","","72","H","0","img/none_selected.jpg","0","1","0","0","0.8","true","0","0","0.8","full_practice","0","0.2","0","0.6","0","0.2","","","","","",""
"104","","bandit","68","287348","0.0-32.0-17.0","55768395","wem/bandit_single","A115UFR6VA6OM1","pain","8","","74","J","1","","0","0","1","0","0.2","true","0","0","0.8","full_practice","0","0.2","0","0.6","0","0.2","","","","","",""
"174","","bandit","69","289289","0.0-32.0-18.0","55768395","wem/bandit_single","A115UFR6VA6OM1","pain","8","","75","K","2","","0","1","0","0","0.6","true","0","0","0.8","full_practice","0","0.2","0","0.6","0","0.2","","","","","",""
"166","","bandit","70","291221","0.0-32.0-19.0","55768395","wem/bandit_single","A115UFR6VA6OM1","pain","8","","76","L","3","","0","0","1","0","0.2","true","0","0","0.8","full_practice","0","0.2","0","0.6","0","0.2","","","","","",""
"3468","","text","71","294956","0.0-33.0","55768395","wem/bandit_single","A115UFR6VA6OM1","pain","8","32","","","","","","","","","","","","","","","","","","","","","","","","","",""
"9411","","text","72","305379","0.0-34.0","55768395","wem/bandit_single","A115UFR6VA6OM1","pain","8","32","","","","","","","","","","","","","","","","","","","","","","","","","",""
"4921","","text","73","310309","0.0-35.0","55768395","wem/bandit_single","A115UFR6VA6OM1","pain","8","32","","","","","","","","","","","","","","","","","","","","","","","","","",""
"5067","","text","74","315381","0.0-36.0","55768395","wem/bandit_single","A115UFR6VA6OM1","pain","8","32","","","","","","","","","","","","","","","","","","","","","","","","","",""
"7600","","text","75","322987","0.0-37.0","55768395","wem/bandit_single","A115UFR6VA6OM1","pain","8","32","","","","","","","","","","","","","","","","","","","","","","","","","",""
"1606","","bandit","76","326108","0.0-38.0-0.0","55768395","wem/bandit_single","A115UFR6VA6OM1","pain","8","","72","H","0","img/none_selected.jpg","0","0","1","","0.2726752288","false","1","","0.2726752288","main_expt","","0.461186604","","0.2895646149","","0.4519399214","","","","","",""
"332","","bandit","77","328202","0.0-39.0-0.0","55768395","wem/bandit_single","A115UFR6VA6OM1","pain","8","","74","J","1","","0","0","1","","0.4745384616","false","2","","0.2373300031","main_expt","","0.4745384616","","0.3162770887","","0.4414774062","","","","","",""
"523","","bandit","78","330491","0.0-40.0-0.0","55768395","wem/bandit_single","A115UFR6VA6OM1","pain","8","","75","K","2","","0","0","1","","0.3445892231","false","3","","0.2268539811","main_expt","","0.476270309","","0.3445892231","","0.4248782664","","","","","",""
"156","","bandit","79","332410","0.0-41.0-0.0","55768395","wem/bandit_single","A115UFR6VA6OM1","pain","8","","76","L","3","","0","1","0","","0.3797460064","false","4","","0.2312911009","main_expt","","0.4750198572","","0.318720175","","0.3797460064","","","","","",""
"395","","bandit","80","334567","0.0-42.0-0.0","55768395","wem/bandit_single","A115UFR6VA6OM1","pain","8","","76","L","3","","0","1","0","","0.3747955817","false","5","","0.1875260819","main_expt","","0.4711191004","","0.2768356494","","0.3747955817","","","","","",""
"410","","bandit","81","336740","0.0-43.0-0.0","55768395","wem/bandit_single","A115UFR6VA6OM1","pain","8","","76","L","3","","0","0","1","","0.3434652127","false","6","","0.190272436","main_expt","","0.4561500297","","0.2660169375","","0.3434652127","","","","","",""
"735","","bandit","82","339239","0.0-44.0-0.0","55768395","wem/bandit_single","A115UFR6VA6OM1","pain","8","","72","H","0","img/none_selected.jpg","0","0","1","","0.1912500229","false","7","","0.1912500229","main_expt","","0.4549462182","","0.3364590491","","0.3450192323","","","","","",""
"259","","bandit","83","341269","0.0-45.0-0.0","55768395","wem/bandit_single","A115UFR6VA6OM1","pain","8","","75","K","2","","0","0","1","","0.2814314702","false","8","","0.2317086102","main_expt","","0.4738433377","","0.2814314702","","0.3319287687","","","","","",""
"160","","bandit","84","343190","0.0-46.0-0.0","55768395","wem/bandit_single","A115UFR6VA6OM1","pain","8","","74","J","1","","0","0","1","","0.4719526371","false","9","","0.2732709622","main_expt","","0.4719526371","","0.172204453","","0.3592879842","","","","","",""
"258","","bandit","85","345211","0.0-47.0-0.0","55768395","wem/bandit_single","A115UFR6VA6OM1","pain","8","","76","L","3","","0","1","0","","0.4119036765","false","10","","0.2369361721","main_expt","","0.4102917743","","0.1714760066","","0.4119036765","","","","","",""
"242","","bandit","86","347219","0.0-48.0-0.0","55768395","wem/bandit_single","A115UFR6VA6OM1","pain","8","","76","L","3","","0","1","0","","0.440335537","false","11","","0.2428480584","main_expt","","0.4247485268","","0.1477319919","","0.440335537","","","","","",""
"175","","bandit","87","349159","0.0-49.0-0.0","55768395","wem/bandit_single","A115UFR6VA6OM1","pain","8","","76","L","3","","0","1","0","","0.4198069009","false","12","","0.3127978045","main_expt","","0.3805001106","","0.1195530135","","0.4198069009","","","","","",""
"341","","bandit","88","351268","0.0-50.0-0.0","55768395","wem/bandit_single","A115UFR6VA6OM1","pain","8","","76","L","3","","0","0","1","","0.4095272681","false","13","","0.3411181312","main_expt","","0.3922463094","","0.1097065617","","0.4095272681","","","","","",""
"652","","bandit","89","353684","0.0-51.0-0.0","55768395","wem/bandit_single","A115UFR6VA6OM1","pain","8","","72","H","0","img/none_selected.jpg","0","0","1","","0.3547490374","false","14","","0.3547490374","main_expt","","0.3385893542","","0.1146709003","","0.4393311008","","","","","",""
"220","","bandit","90","355667","0.0-52.0-0.0","55768395","wem/bandit_single","A115UFR6VA6OM1","pain","8","","75","K","2","","0","0","1","","0.105598426","false","15","","0.3447780093","main_expt","","0.2580729479","","0.105598426","","0.4232641195","","","","","",""
"217","","bandit","91","357656","0.0-53.0-0.0","55768395","wem/bandit_single","A115UFR6VA6OM1","pain","8","","74","J","1","","0","0","1","","0.3126944558","false","16","","0.3451486401","main_expt","","0.3126944558","","0.1085338479","","0.408879381","","","","","",""
"479","","bandit","92","359897","0.0-54.0-0.0","55768395","wem/bandit_single","A115UFR6VA6OM1","pain","8","","76","L","3","","0","0","1","","0.376774317","false","17","","0.3788599072","main_expt","","0.3693960878","","0.1267686316","","0.376774317","","","","","",""
"602","","bandit","93","362262","0.0-55.0-0.0","55768395","wem/bandit_single","A115UFR6VA6OM1","pain","8","","72","H","0","img/none_selected.jpg","0","0","1","","0.3977159439","false","18","","0.3977159439","main_expt","","0.3881723811","","0.2161611973","","0.4245824949","","","","","",""
"182","","bandit","94","364208","0.0-56.0-0.0","55768395","wem/bandit_single","A115UFR6VA6OM1","pain","8","","74","J","1","","0","1","0","","0.3762380044","false","19","","0.3885232362","main_expt","","0.3762380044","","0.2028493804","","0.4391895307","","","","","",""
"280","","bandit","95","366257","0.0-57.0-0.0","55768395","wem/bandit_single","A115UFR6VA6OM1","pain","8","","74","J","1","","0","0","1","","0.3842023068","false","20","","0.3985462001","main_expt","","0.3842023068","","0.2258994585","","0.4621127774","","","","","",""
"324","","bandit","96","368346","0.0-58.0-0.0","55768395","wem/bandit_single","A115UFR6VA6OM1","pain","8","","74","J","1","","0","1","0","","0.3509270449","false","21","","0.349749023","main_expt","","0.3509270449","","0.1591174119","","0.4621164646","","","","","",""
"264","","bandit","97","370378","0.0-59.0-0.0","55768395","wem/bandit_single","A115UFR6VA6OM1","pain","8","","74","J","1","","0","0","1","","0.3777441782","false","22","","0.3437713834","main_expt","","0.3777441782","","0.1526874152","","0.4347396303","","","","","",""
"451","","bandit","98","372592","0.0-60.0-0.0","55768395","wem/bandit_single","A115UFR6VA6OM1","pain","8","","74","J","1","","0","1","0","","0.3799964268","false","23","","0.3608333873","main_expt","","0.3799964268","","0.1461335862","","0.43496863","","","","","",""
"567","","bandit","99","374928","0.0-61.0-0.0","55768395","wem/bandit_single","A115UFR6VA6OM1","pain","8","","74","J","1","","0","0","1","","0.4097073291","false","24","","0.3832767268","main_expt","","0.4097073291","","0.194032511","","0.43684491","","","","","",""
"135","","bandit","100","376832","0.0-62.0-0.0","55768395","wem/bandit_single","A115UFR6VA6OM1","pain","8","","74","J","1","","0","1","0","","0.4196977393","false","25","","0.3839685871","main_expt","","0.4196977393","","0.1913779305","","0.3785768995","","","","","",""
"333","","bandit","101","378930","0.0-63.0-0.0","55768395","wem/bandit_single","A115UFR6VA6OM1","pain","8","","74","J","1","","0","0","1","","0.3798545817","false","26","","0.3871157951","main_expt","","0.3798545817","","0.2830828826","","0.3754964585","","","","","",""
"130","","bandit","102","380821","0.0-64.0-0.0","55768395","wem/bandit_single","A115UFR6VA6OM1","pain","8","","74","J","1","","0","0","1","","0.3531061786","false","27","","0.4093540125","main_expt","","0.3531061786","","0.3268824087","","0.3964499655","","","","","",""
"244","","bandit","103","382833","0.0-65.0-0.0","55768395","wem/bandit_single","A115UFR6VA6OM1","pain","8","","75","K","2","","0","0","1","","0.3092871108","false","28","","0.3781829904","main_expt","","0.3327392046","","0.3092871108","","0.4243602908","","","","","",""
"155","","bandit","104","384751","0.0-66.0-0.0","55768395","wem/bandit_single","A115UFR6VA6OM1","pain","8","","76","L","3","","0","1","0","","0.4296462108","false","29","","0.3633234486","main_expt","","0.2799969064","","0.299803321","","0.4296462108","","","","","",""
"146","","bandit","105","386663","0.0-67.0-0.0","55768395","wem/bandit_single","A115UFR6VA6OM1","pain","8","","76","L","3","","0","0","1","","0.4442153724","false","30","","0.395486831","main_expt","","0.225268033","","0.3318792252","","0.4442153724","","","","","",""
"200","","bandit","106","388627","0.0-68.0-0.0","55768395","wem/bandit_single","A115UFR6VA6OM1","pain","8","","76","L","3","","0","0","1","","0.4425075274","false","31","","0.353932484","main_expt","","0.2195205817","","0.3274080626","","0.4425075274","","","","","",""
"209","","bandit","107","390604","0.0-69.0-0.0","55768395","wem/bandit_single","A115UFR6VA6OM1","pain","8","","74","J","1","","0","1","0","","0.2569702332","false","32","","0.3902442546","main_expt","","0.2569702332","","0.3233555863","","0.4038806219","","","","","",""
"395","","bandit","108","392763","0.0-70.0-0.0","55768395","wem/bandit_single","A115UFR6VA6OM1","pain","8","","74","J","1","","0","0","1","","0.2914027765","false","33","","0.3727342875","main_expt","","0.2914027765","","0.3836123675","","0.4283701542","","","","","",""
"177","","bandit","109","394702","0.0-71.0-0.0","55768395","wem/bandit_single","A115UFR6VA6OM1","pain","8","","74","J","1","","0","0","1","","0.2667004126","false","34","","0.3940120807","main_expt","","0.2667004126","","0.4200589335","","0.4332078231","","","","","",""
"173","","bandit","110","396638","0.0-72.0-0.0","55768395","wem/bandit_single","A115UFR6VA6OM1","pain","8","","72","H","0","img/none_selected.jpg","0","1","0","","0.3682756201","false","35","","0.3682756201","main_expt","","0.3112773703","","0.4280145355","","0.3861361583","","","","","",""
"158","","bandit","111","398559","0.0-73.0-0.0","55768395","wem/bandit_single","A115UFR6VA6OM1","pain","8","","72","H","0","img/none_selected.jpg","0","0","1","","0.4136743311","false","36","","0.4136743311","main_expt","","0.3158013471","","0.3696194815","","0.3176889815","","","","","",""
"104","","bandit","112","400430","0.0-74.0-0.0","55768395","wem/bandit_single","A115UFR6VA6OM1","pain","8","","72","H","0","img/none_selected.jpg","0","0","1","","0.449594317","false","37","","0.449594317","main_expt","","0.3348696363","","0.3567242832","","0.3333355096","","","","","",""
"361","","bandit","113","402559","0.0-75.0-0.0","55768395","wem/bandit_single","A115UFR6VA6OM1","pain","8","","75","K","2","","0","0","1","","0.3139752797","false","38","","0.4427192246","main_expt","","0.2967031697","","0.3139752797","","0.3613286773","","","","","",""
"138","","bandit","114","404466","0.0-76.0-0.0","55768395","wem/bandit_single","A115UFR6VA6OM1","pain","8","","74","J","1","","0","1","0","","0.2816090282","false","39","","0.4375360897","main_expt","","0.2816090282","","0.2884672813","","0.3354588101","","","","","",""
"183","","bandit","115","406415","0.0-77.0-0.0","55768395","wem/bandit_single","A115UFR6VA6OM1","pain","8","","74","J","1","","0","0","1","","0.2900329111","false","40","","0.452648821","main_expt","","0.2900329111","","0.3253538103","","0.4044898685","","","","","",""
"121","","bandit","116","408312","0.0-78.0-0.0","55768395","wem/bandit_single","A115UFR6VA6OM1","pain","8","","74","J","1","","0","0","1","","0.3160732104","false","41","","0.4689255384","main_expt","","0.3160732104","","0.2782289032","","0.3615903795","","","","","",""
"148","","bandit","117","410229","0.0-79.0-0.0","55768395","wem/bandit_single","A115UFR6VA6OM1","pain","8","","74","J","1","","0","0","1","","0.370849222","false","42","","0.470096522","main_expt","","0.370849222","","0.2378060085","","0.3239257876","","","","","",""
"50","","bandit","118","412046","0.0-80.0-0.0","55768395","wem/bandit_single","A115UFR6VA6OM1","pain","8","","76","L","3","","0","0","1","","0.2907144625","false","43","","0.4349244256","main_expt","","0.385301305","","0.2250536993","","0.2907144625","","","","","",""
"138","","bandit","119","413951","0.0-81.0-0.0","55768395","wem/bandit_single","A115UFR6VA6OM1","pain","8","","76","L","3","","0","0","1","","0.2937558929","false","44","","0.4316966947","main_expt","","0.416838688","","0.2132249492","","0.2937558929","","","","","",""
"109","","bandit","120","415825","0.0-82.0-0.0","55768395","wem/bandit_single","A115UFR6VA6OM1","pain","8","","75","K","2","","0","0","1","","0.2669052982","false","45","","0.4526201082","main_expt","","0.3927526088","","0.2669052982","","0.3667346614","","","","","",""
"185","","bandit","121","417780","0.0-83.0-0.0","55768395","wem/bandit_single","A115UFR6VA6OM1","pain","8","","72","H","0","img/none_selected.jpg","0","1","0","","0.4696962879","false","46","","0.4696962879","main_expt","","0.3789336214","","0.259601005","","0.4084803937","","","","","",""
"86","","bandit","122","419640","0.0-84.0-0.0","55768395","wem/bandit_single","A115UFR6VA6OM1","pain","8","","72","H","0","img/none_selected.jpg","0","0","1","","0.4591824552","false","47","","0.4591824552","main_expt","","0.3994803113","","0.2442503122","","0.3956447052","","","","","",""
"162","","bandit","123","421566","0.0-85.0-0.0","55768395","wem/bandit_single","A115UFR6VA6OM1","pain","8","","72","H","0","img/none_selected.jpg","0","1","0","","0.4548607847","false","48","","0.4548607847","main_expt","","0.3570668153","","0.2427668164","","0.3859230678","","","","","",""
"1107","","bandit","124","424439","0.0-86.0-0.0","55768395","wem/bandit_single","A115UFR6VA6OM1","pain","8","","72","H","0","img/none_selected.jpg","0","1","0","","0.4625410341","false","49","","0.4625410341","main_expt","","0.3500417472","","0.218731525","","0.394993817","","","","","",""
"300","","bandit","125","426506","0.0-87.0-0.0","55768395","wem/bandit_single","A115UFR6VA6OM1","pain","8","","72","H","0","img/none_selected.jpg","0","0","1","","0.4620574215","false","50","","0.4620574215","main_expt","","0.3110114061","","0.2187604329","","0.4358915385","","","","","",""
"244","","bandit","126","428525","0.0-88.0-0.0","55768395","wem/bandit_single","A115UFR6VA6OM1","pain","8","","74","J","1","","0","1","0","","0.3165374422","false","51","","0.4573118055","main_expt","","0.3165374422","","0.2764450854","","0.4437026926","","","","","",""
"100","","bandit","127","430400","0.0-89.0-0.0","55768395","wem/bandit_single","A115UFR6VA6OM1","pain","8","","74","J","1","","0","0","1","","0.3212783944","false","52","","0.4577170033","main_expt","","0.3212783944","","0.2735561336","","0.4357441266","","","","","",""
"70","","bandit","128","432244","0.0-90.0-0.0","55768395","wem/bandit_single","A115UFR6VA6OM1","pain","8","","74","J","1","","0","1","0","","0.3079714244","false","53","","0.4599667981","main_expt","","0.3079714244","","0.2558353256","","0.3926545571","","","","","",""
"274","","bandit","129","434284","0.0-91.0-0.0","55768395","wem/bandit_single","A115UFR6VA6OM1","pain","8","","74","J","1","","0","1","0","","0.3538619638","false","54","","0.4598989899","main_expt","","0.3538619638","","0.2856473895","","0.3841940555","","","","","",""
"116","","bandit","130","436167","0.0-92.0-0.0","55768395","wem/bandit_single","A115UFR6VA6OM1","pain","8","","74","J","1","","0","0","1","","0.3390258849","false","55","","0.4371040197","main_expt","","0.3390258849","","0.3110799389","","0.3733442546","","","","","",""
"84","","bandit","131","438017","0.0-93.0-0.0","55768395","wem/bandit_single","A115UFR6VA6OM1","pain","8","","74","J","1","","0","1","0","","0.3282580673","false","56","","0.3889704242","main_expt","","0.3282580673","","0.2862995849","","0.3500738246","","","","","",""
"286","","bandit","132","440072","0.0-94.0-0.0","55768395","wem/bandit_single","A115UFR6VA6OM1","pain","8","","74","J","1","","0","1","0","","0.3014999451","false","57","","0.4089883961","main_expt","","0.3014999451","","0.3029349154","","0.3265916347","","","","","",""
"138","","bandit","133","441977","0.0-95.0-0.0","55768395","wem/bandit_single","A115UFR6VA6OM1","pain","8","","74","J","1","","0","0","1","","0.2895525025","false","58","","0.3682078294","main_expt","","0.2895525025","","0.282602966","","0.3203483638","","","","","",""
"74","","bandit","134","443824","0.0-96.0-0.0","55768395","wem/bandit_single","A115UFR6VA6OM1","pain","8","","74","J","1","","0","0","1","","0.2538740387","false","59","","0.426053772","main_expt","","0.2538740387","","0.3271218703","","0.258324817","","","","","",""
"265","","bandit","135","445857","0.0-97.0-0.0","55768395","wem/bandit_single","A115UFR6VA6OM1","pain","8","","76","L","3","","0","1","0","","0.2527557167","false","60","","0.4175969639","main_expt","","0.2509640494","","0.2978757068","","0.2527557167","","","","","",""
"104","","bandit","136","447729","0.0-98.0-0.0","55768395","wem/bandit_single","A115UFR6VA6OM1","pain","8","","76","L","3","","0","0","1","","0.2925705146","false","61","","0.4124946444","main_expt","","0.1930295055","","0.1922553384","","0.2925705146","","","","","",""
"58","","bandit","137","449556","0.0-99.0-0.0","55768395","wem/bandit_single","A115UFR6VA6OM1","pain","8","","76","L","3","","0","0","1","","0.310648962","false","62","","0.4077217862","main_expt","","0.1259826115","","0.1408400783","","0.310648962","","","","","",""
"785","","bandit","138","452114","0.0-100.0-0.0","55768395","wem/bandit_single","A115UFR6VA6OM1","pain","8","","75","K","2","","0","0","1","","0.1779610645","false","63","","0.4258821936","main_expt","","0.1388804293","","0.1779610645","","0.3175489896","","","","","",""
"314","","bandit","139","454196","0.0-101.0-0.0","55768395","wem/bandit_single","A115UFR6VA6OM1","pain","8","","72","H","0","img/none_selected.jpg","0","0","1","","0.4314195329","false","64","","0.4314195329","main_expt","","0.1412297375","","0.1733040919","","0.2756852574","","","","","",""
"411","","bandit","140","456380","0.0-102.0-0.0","55768395","wem/bandit_single","A115UFR6VA6OM1","pain","8","","72","H","0","img/none_selected.jpg","0","1","0","","0.4174082156","false","65","","0.4174082156","main_expt","","0.07856201072","","0.1669650696","","0.2798966648","","","","","",""
"257","","bandit","141","458404","0.0-103.0-0.0","55768395","wem/bandit_single","A115UFR6VA6OM1","pain","8","","72","H","0","img/none_selected.jpg","0","0","1","","0.4396479182","false","66","","0.4396479182","main_expt","","0.04493535693","","0.1439674443","","0.2440426105","","","","","",""
"244","","bandit","142","460420","0.0-104.0-0.0","55768395","wem/bandit_single","A115UFR6VA6OM1","pain","8","","72","H","0","img/none_selected.jpg","0","1","0","","0.4080198752","false","67","","0.4080198752","main_expt","","0.06268984171","","0.1892066175","","0.2630461485","","","","","",""
"247","","bandit","143","462437","0.0-105.0-0.0","55768395","wem/bandit_single","A115UFR6VA6OM1","pain","8","","74","J","1","","0","0","1","","0.0976634122","false","68","","0.4137299856","main_expt","","0.0976634122","","0.1994174399","","0.2456224984","","","","","",""
"133","","bandit","144","464345","0.0-106.0-0.0","55768395","wem/bandit_single","A115UFR6VA6OM1","pain","8","","72","H","0","img/none_selected.jpg","0","0","1","","0.3938947582","false","69","","0.3938947582","main_expt","","0.1303859095","","0.1624567358","","0.328759159","","","","","",""
"1105","","bandit","145","467222","0.0-107.0-0.0","55768395","wem/bandit_single","A115UFR6VA6OM1","pain","8","","75","K","2","","0","0","1","","0.203142037","false","70","","0.3876621225","main_expt","","0.09159795462","","0.203142037","","0.3063762308","","","","","",""
"180","","bandit","146","469177","0.0-108.0-0.0","55768395","wem/bandit_single","A115UFR6VA6OM1","pain","8","","74","J","1","","0","0","1","","0.07422050438","false","71","","0.3788053019","main_expt","","0.07422050438","","0.218187973","","0.3509026903","","","","","",""
"105","","bandit","147","471057","0.0-109.0-0.0","55768395","wem/bandit_single","A115UFR6VA6OM1","pain","8","","74","J","1","","0","0","1","","0.05420033029","false","72","","0.3632611749","main_expt","","0.05420033029","","0.2357875668","","0.3695940198","","","","","",""
"153","","bandit","148","472980","0.0-110.0-0.0","55768395","wem/bandit_single","A115UFR6VA6OM1","pain","8","","74","J","1","","0","0","1","","0.04794676006","false","73","","0.3121818875","main_expt","","0.04794676006","","0.1951490082","","0.3532210052","","","","","",""
"95","","bandit","149","474843","0.0-111.0-0.0","55768395","wem/bandit_single","A115UFR6VA6OM1","pain","8","","72","H","0","img/none_selected.jpg","0","0","1","","0.3385624816","false","74","","0.3385624816","main_expt","","0.03645121522","","0.208621177","","0.3780170277","","","","","",""
"252","","bandit","150","476867","0.0-112.0-0.0","55768395","wem/bandit_single","A115UFR6VA6OM1","pain","8","","76","L","3","","0","0","1","","0.3141643986","false","75","","0.3393964734","main_expt","","0.04346784694","","0.2016482668","","0.3141643986","","","","","",""
"126","","bandit","151","478762","0.0-113.0-0.0","55768395","wem/bandit_single","A115UFR6VA6OM1","pain","8","","76","L","3","","0","0","1","","0.3520496016","false","76","","0.3489067358","main_expt","","0.05697420644","","0.2495615647","","0.3520496016","","","","","",""
"157","","bandit","152","480688","0.0-114.0-0.0","55768395","wem/bandit_single","A115UFR6VA6OM1","pain","8","","76","L","3","","0","1","0","","0.2628688268","false","77","","0.3502211764","main_expt","","0.05831686642","","0.2225386599","","0.2628688268","","","","","",""
"205","","bandit","153","482658","0.0-115.0-0.0","55768395","wem/bandit_single","A115UFR6VA6OM1","pain","8","","76","L","3","","0","0","1","","0.2856335909","false","78","","0.2979424841","main_expt","","0.0396837938","","0.2525784454","","0.2856335909","","","","","",""
"154","","bandit","154","484584","0.0-116.0-0.0","55768395","wem/bandit_single","A115UFR6VA6OM1","pain","8","","76","L","3","","0","0","1","","0.3052483479","false","79","","0.2779986596","main_expt","","0.03651397352","","0.2691825077","","0.3052483479","","","","","",""
"89","","bandit","155","486442","0.0-117.0-0.0","55768395","wem/bandit_single","A115UFR6VA6OM1","pain","8","","75","K","2","","0","0","1","","0.2749696362","false","80","","0.2681941829","main_expt","","0.0570793957","","0.2749696362","","0.2809417262","","","","","",""
"87","","bandit","156","488297","0.0-118.0-0.0","55768395","wem/bandit_single","A115UFR6VA6OM1","pain","8","","75","K","2","","0","0","1","","0.291945729","false","81","","0.2536714586","main_expt","","0.05597964966","","0.291945729","","0.2639407754","","","","","",""
"182","","bandit","157","490249","0.0-119.0-0.0","55768395","wem/bandit_single","A115UFR6VA6OM1","pain","8","","74","J","1","","0","0","1","","0.0589745046","false","82","","0.1904528106","main_expt","","0.0589745046","","0.2804178179","","0.3352417475","","","","","",""
"225","","bandit","158","492247","0.0-120.0-0.0","55768395","wem/bandit_single","A115UFR6VA6OM1","pain","8","","74","J","1","","0","0","1","","0.04461225985","false","83","","0.2497062266","main_expt","","0.04461225985","","0.2253075454","","0.3246721101","","","","","",""
"161","","bandit","159","494178","0.0-121.0-0.0","55768395","wem/bandit_single","A115UFR6VA6OM1","pain","8","","74","J","1","","0","0","1","","0.04600221485","false","84","","0.2960017758","main_expt","","0.04600221485","","0.2475548924","","0.3082112656","","","","","",""
"875","","bandit","160","496825","0.0-122.0-0.0","55768395","wem/bandit_single","A115UFR6VA6OM1","pain","8","","72","H","0","img/none_selected.jpg","0","0","1","","0.2677312645","false","85","","0.2677312645","main_expt","","0.04782026086","","0.2443994903","","0.2733186338","","","","","",""
"179","","bandit","161","498776","0.0-123.0-0.0","55768395","wem/bandit_single","A115UFR6VA6OM1","pain","8","","72","H","0","img/none_selected.jpg","0","0","1","","0.2764415163","false","86","","0.2764415163","main_expt","","0.05551660222","","0.2112262296","","0.2595222796","","","","","",""
"237","","bandit","162","500785","0.0-124.0-0.0","55768395","wem/bandit_single","A115UFR6VA6OM1","pain","8","","72","H","0","img/none_selected.jpg","0","1","0","","0.324022149","false","87","","0.324022149","main_expt","","0.04708869331","","0.2188998383","","0.2256999028","","","","","",""
"216","","bandit","163","502768","0.0-125.0-0.0","55768395","wem/bandit_single","A115UFR6VA6OM1","pain","8","","72","H","0","img/none_selected.jpg","0","1","0","","0.3109963835","false","88","","0.3109963835","main_expt","","0.02844544313","","0.2197891412","","0.1990670624","","","","","",""
"319","","bandit","164","504857","0.0-126.0-0.0","55768395","wem/bandit_single","A115UFR6VA6OM1","pain","8","","72","H","0","img/none_selected.jpg","0","0","1","","0.324941543","false","89","","0.324941543","main_expt","","0.02947982339","","0.1264972534","","0.2125628639","","","","","",""
"176","","bandit","165","506809","0.0-127.0-0.0","55768395","wem/bandit_single","A115UFR6VA6OM1","pain","8","","72","H","0","img/none_selected.jpg","0","0","1","","0.3309337967","false","90","","0.3309337967","main_expt","","0.01544371513","","0.09492746395","","0.2335475446","","","","","",""
"757","","bandit","166","509339","0.0-128.0-0.0","55768395","wem/bandit_single","A115UFR6VA6OM1","pain","8","","74","J","1","","0","0","1","","0.02662688154","false","91","","0.2419508287","main_expt","","0.02662688154","","0.0779798764","","0.2803997126","","","","","",""
"198","","bandit","167","511308","0.0-129.0-0.0","55768395","wem/bandit_single","A115UFR6VA6OM1","pain","8","","74","J","1","","0","0","1","","0.03471523835","false","92","","0.2040869203","main_expt","","0.03471523835","","0.1178574791","","0.2771315147","","","","","",""
"165","","bandit","168","513250","0.0-130.0-0.0","55768395","wem/bandit_single","A115UFR6VA6OM1","pain","8","","74","J","1","","0","0","1","","0.0252433293","false","93","","0.1936143615","main_expt","","0.0252433293","","0.1199697814","","0.3069544445","","","","","",""
"210","","bandit","169","515233","0.0-131.0-0.0","55768395","wem/bandit_single","A115UFR6VA6OM1","pain","8","","74","J","1","","0","1","0","","0.02873343753","false","94","","0.2296452841","main_expt","","0.02873343753","","0.1351842626","","0.2585327286","","","","","",""
"357","","bandit","170","517354","0.0-132.0-0.0","55768395","wem/bandit_single","A115UFR6VA6OM1","pain","8","","74","J","1","","0","0","1","","0.03754278977","false","95","","0.3009770616","main_expt","","0.03754278977","","0.1229387465","","0.2043747222","","","","","",""
"126","","bandit","171","519250","0.0-133.0-0.0","55768395","wem/bandit_single","A115UFR6VA6OM1","pain","8","","74","J","1","","0","0","1","","0.02045008397","false","96","","0.3664634414","main_expt","","0.02045008397","","0.1341504272","","0.2149370614","","","","","",""
"129","","bandit","172","521151","0.0-134.0-0.0","55768395","wem/bandit_single","A115UFR6VA6OM1","pain","8","","76","L","3","","0","0","1","","0.1294523689","false","97","","0.3476641925","main_expt","","0.01282395838","","0.08646330057","","0.1294523689","","","","","",""
"125","","bandit","173","523051","0.0-135.0-0.0","55768395","wem/bandit_single","A115UFR6VA6OM1","pain","8","","76","L","3","","0","0","1","","0.1653870254","false","98","","0.3885632826","main_expt","","0.02206163243","","0.07731746448","","0.1653870254","","","","","",""
"789","","bandit","174","525616","0.0-136.0-0.0","55768395","wem/bandit_single","A115UFR6VA6OM1","pain","8","","76","L","3","","0","0","1","","0.187235433","false","99","","0.3222143249","main_expt","","0.03016500256","","0.05048608161","","0.187235433","","","","","",""
"933","","bandit","175","528325","0.0-137.0-0.0","55768395","wem/bandit_single","A115UFR6VA6OM1","pain","8","","72","H","0","img/none_selected.jpg","0","0","1","","0.3386714995","false","100","","0.3386714995","main_expt","","0.03237578522","","0.03970728334","","0.1583251777","","","","","",""
"321","","bandit","176","530416","0.0-138.0-0.0","55768395","wem/bandit_single","A115UFR6VA6OM1","pain","8","","72","H","0","img/none_selected.jpg","0","0","1","","0.3131396166","false","101","","0.3131396166","main_expt","","0.03241037075","","0.02108340439","","0.1337381207","","","","","",""
"121","","bandit","177","532318","0.0-139.0-0.0","55768395","wem/bandit_single","A115UFR6VA6OM1","pain","8","","74","J","1","","0","0","1","","0.06000215667","false","102","","0.3417288757","main_expt","","0.06000215667","","0.05244648731","","0.1163639012","","","","","",""
"131","","bandit","178","534222","0.0-140.0-0.0","55768395","wem/bandit_single","A115UFR6VA6OM1","pain","8","","74","J","1","","0","0","1","","0.08726741307","false","103","","0.3582654759","main_expt","","0.08726741307","","0.04574159302","","0.1118657557","","","","","",""
"201","","bandit","179","536203","0.0-141.0-0.0","55768395","wem/bandit_single","A115UFR6VA6OM1","pain","8","","74","J","1","","0","1","0","","0.1067467257","false","104","","0.3409136392","main_expt","","0.1067467257","","0.05033190662","","0.1501499683","","","","","",""
"273","","bandit","180","538243","0.0-142.0-0.0","55768395","wem/bandit_single","A115UFR6VA6OM1","pain","8","","74","J","1","","0","0","1","","0.1004566838","false","105","","0.3532992837","main_expt","","0.1004566838","","0.1076128494","","0.1354733374","","","","","",""
"202","","bandit","181","540217","0.0-143.0-0.0","55768395","wem/bandit_single","A115UFR6VA6OM1","pain","8","","74","J","1","","0","0","1","","0.1055318719","false","106","","0.335683565","main_expt","","0.1055318719","","0.06740855405","","0.1727398631","","","","","",""
"171","","bandit","182","542160","0.0-144.0-0.0","55768395","wem/bandit_single","A115UFR6VA6OM1","pain","8","","72","H","0","img/none_selected.jpg","0","1","0","","0.3924059951","false","107","","0.3924059951","main_expt","","0.1236328269","","0.06658027063","","0.1474174257","","","","","",""
"377","","bandit","183","544309","0.0-145.0-0.0","55768395","wem/bandit_single","A115UFR6VA6OM1","pain","8","","72","H","0","img/none_selected.jpg","0","1","0","","0.3626054341","false","108","","0.3626054341","main_expt","","0.1301170461","","0.0777756245","","0.1683059408","","","","","",""
"306","","bandit","184","546381","0.0-146.0-0.0","55768395","wem/bandit_single","A115UFR6VA6OM1","pain","8","","72","H","0","img/none_selected.jpg","0","0","1","","0.3806857721","false","109","","0.3806857721","main_expt","","0.1507941036","","0.1117823495","","0.1972223025","","","","","",""
"586","","bandit","185","548740","0.0-147.0-0.0","55768395","wem/bandit_single","A115UFR6VA6OM1","pain","8","","76","L","3","","0","0","1","","0.2085186414","false","110","","0.3452619283","main_expt","","0.1647590848","","0.08710900622","","0.2085186414","","","","","",""
"249","","bandit","186","550765","0.0-148.0-0.0","55768395","wem/bandit_single","A115UFR6VA6OM1","pain","8","","76","L","3","","0","0","1","","0.1811180602","false","111","","0.3653509784","main_expt","","0.1574612326","","0.107183683","","0.1811180602","","","","","",""
"316","","bandit","187","552854","0.0-149.0-0.0","55768395","wem/bandit_single","A115UFR6VA6OM1","pain","8","","76","L","3","","0","0","1","","0.222295219","false","112","","0.3435522482","main_expt","","0.1406493921","","0.1099425133","","0.222295219","","","","","",""
"284","","bandit","188","554909","0.0-150.0-0.0","55768395","wem/bandit_single","A115UFR6VA6OM1","pain","8","","74","J","1","","0","0","1","","0.1367300214","false","113","","0.3424956272","main_expt","","0.1367300214","","0.1457634924","","0.254178783","","","","","",""
"423","","bandit","189","557109","0.0-151.0-0.0","55768395","wem/bandit_single","A115UFR6VA6OM1","pain","8","","74","J","1","","0","0","1","","0.1534665218","false","114","","0.3353894863","main_expt","","0.1534665218","","0.09824844824","","0.2315882939","","","","","",""
"217","","bandit","190","559101","0.0-152.0-0.0","55768395","wem/bandit_single","A115UFR6VA6OM1","pain","8","","74","J","1","","0","0","1","","0.1890238391","false","115","","0.3965113255","main_expt","","0.1890238391","","0.07202874502","","0.2079629003","","","","","",""
"182","","bandit","191","561056","0.0-153.0-0.0","55768395","wem/bandit_single","A115UFR6VA6OM1","pain","8","","72","H","0","img/none_selected.jpg","0","0","1","","0.3889101716","false","116","","0.3889101716","main_expt","","0.1480670238","","0.08386797302","","0.2117584369","","","","","",""
"105","","bandit","192","562937","0.0-154.0-0.0","55768395","wem/bandit_single","A115UFR6VA6OM1","pain","8","","72","H","0","img/none_selected.jpg","0","0","1","","0.412290601","false","117","","0.412290601","main_expt","","0.1450369027","","0.1223406282","","0.1897465023","","","","","",""
"194","","bandit","193","564906","0.0-155.0-0.0","55768395","wem/bandit_single","A115UFR6VA6OM1","pain","8","","72","H","0","img/none_selected.jpg","0","0","1","","0.4090296977","false","118","","0.4090296977","main_expt","","0.1525061225","","0.1131974311","","0.2162179109","","","","","",""
"136","","bandit","194","566826","0.0-156.0-0.0","55768395","wem/bandit_single","A115UFR6VA6OM1","pain","8","","74","J","1","","0","0","1","","0.1327940691","false","119","","0.3900906375","main_expt","","0.1327940691","","0.1214903214","","0.1954464435","","","","","",""
"130","","bandit","195","568734","0.0-157.0-0.0","55768395","wem/bandit_single","A115UFR6VA6OM1","pain","8","","74","J","1","","0","0","1","","0.1517026744","false","120","","0.3722828095","main_expt","","0.1517026744","","0.1379734046","","0.2433439763","","","","","",""
"186","","bandit","196","570696","0.0-158.0-0.0","55768395","wem/bandit_single","A115UFR6VA6OM1","pain","8","","75","K","2","","0","0","1","","0.1537473387","false","121","","0.3593952677","main_expt","","0.09770447215","","0.1537473387","","0.2093375247","","","","","",""
"261","","bandit","197","572730","0.0-159.0-0.0","55768395","wem/bandit_single","A115UFR6VA6OM1","pain","8","","75","K","2","","0","0","1","","0.1654199468","false","122","","0.3670381393","main_expt","","0.1084092314","","0.1654199468","","0.2030857612","","","","","",""
"167","","bandit","198","574669","0.0-160.0-0.0","55768395","wem/bandit_single","A115UFR6VA6OM1","pain","8","","74","J","1","","0","0","1","","0.1828660492","false","123","","0.3587286137","main_expt","","0.1828660492","","0.1908187881","","0.1810532848","","","","","",""
"246","","bandit","199","576693","0.0-161.0-0.0","55768395","wem/bandit_single","A115UFR6VA6OM1","pain","8","","74","J","1","","0","0","1","","0.1743556658","false","124","","0.3492740793","main_expt","","0.1743556658","","0.2229551501","","0.1582229448","","","","","",""
"129","","bandit","200","578597","0.0-162.0-0.0","55768395","wem/bandit_single","A115UFR6VA6OM1","pain","8","","74","J","1","","0","0","1","","0.2091647646","false","125","","0.3031262708","main_expt","","0.2091647646","","0.2354127912","","0.1223239468","","","","","",""
"125","","bandit","201","580498","0.0-163.0-0.0","55768395","wem/bandit_single","A115UFR6VA6OM1","pain","8","","74","J","1","","0","0","1","","0.2089783764","false","126","","0.3272336491","main_expt","","0.2089783764","","0.25119817","","0.08912034734","","","","","",""
"117","","bandit","202","582389","0.0-164.0-0.0","55768395","wem/bandit_single","A115UFR6VA6OM1","pain","8","","74","J","1","","0","0","1","","0.21334071","false","127","","0.3153677968","main_expt","","0.21334071","","0.2312690923","","0.05948163","","","","","",""
"246","","bandit","203","584409","0.0-165.0-0.0","55768395","wem/bandit_single","A115UFR6VA6OM1","pain","8","","76","L","3","","0","0","1","","0.06525821595","false","128","","0.3317710332","main_expt","","0.1916283041","","0.2741150261","","0.06525821595","","","","","",""
"86","","bandit","204","586275","0.0-166.0-0.0","55768395","wem/bandit_single","A115UFR6VA6OM1","pain","8","","76","L","3","","0","1","0","","0.04677418535","false","129","","0.3818586719","main_expt","","0.1810604207","","0.2804264122","","0.04677418535","","","","","",""
"206","","bandit","205","588251","0.0-167.0-0.0","55768395","wem/bandit_single","A115UFR6VA6OM1","pain","8","","76","L","3","","0","0","1","","0.04931785787","false","130","","0.3778611376","main_expt","","0.1492319935","","0.2746384559","","0.04931785787","","","","","",""
"244","","bandit","206","590270","0.0-168.0-0.0","55768395","wem/bandit_single","A115UFR6VA6OM1","pain","8","","76","L","3","","0","0","1","","0.03231589458","false","131","","0.3745485054","main_expt","","0.129351286","","0.3052944487","","0.03231589458","","","","","",""
"153","","bandit","207","592186","0.0-169.0-0.0","55768395","wem/bandit_single","A115UFR6VA6OM1","pain","8","","76","L","3","","0","0","1","","0.0374336399","false","132","","0.3901944836","main_expt","","0.1020216346","","0.2871604017","","0.0374336399","","","","","",""
"179","","bandit","208","594141","0.0-170.0-0.0","55768395","wem/bandit_single","A115UFR6VA6OM1","pain","8","","72","H","0","img/none_selected.jpg","0","0","1","","0.3245875462","false","133","","0.3245875462","main_expt","","0.1100395313","","0.2262434135","","0.04583961862","","","","","",""
"104","","bandit","209","596021","0.0-171.0-0.0","55768395","wem/bandit_single","A115UFR6VA6OM1","pain","8","","72","H","0","img/none_selected.jpg","0","1","0","","0.2794858075","false","134","","0.2794858075","main_expt","","0.1078381017","","0.2020687113","","0.04150300199","","","","","",""
"266","","bandit","210","598057","0.0-172.0-0.0","55768395","wem/bandit_single","A115UFR6VA6OM1","pain","8","","72","H","0","img/none_selected.jpg","0","0","1","","0.2867414221","false","135","","0.2867414221","main_expt","","0.1093486249","","0.2168620662","","0.04663842542","","","","","",""
"217","","bandit","211","600046","0.0-173.0-0.0","55768395","wem/bandit_single","A115UFR6VA6OM1","pain","8","","72","H","0","img/none_selected.jpg","0","0","1","","0.2388941587","false","136","","0.2388941587","main_expt","","0.1246456113","","0.151139006","","0.06291357963","","","","","",""
"240","","bandit","212","602061","0.0-174.0-0.0","55768395","wem/bandit_single","A115UFR6VA6OM1","pain","8","","74","J","1","","0","0","1","","0.1167447495","false","137","","0.2301747732","main_expt","","0.1167447495","","0.1452995234","","0.0848669819","","","","","",""
"165","","bandit","213","603997","0.0-175.0-0.0","55768395","wem/bandit_single","A115UFR6VA6OM1","pain","8","","74","J","1","","0","0","1","","0.1357570265","false","138","","0.2344721482","main_expt","","0.1357570265","","0.1599176777","","0.1250360552","","","","","",""
"89","","bandit","214","605861","0.0-176.0-0.0","55768395","wem/bandit_single","A115UFR6VA6OM1","pain","8","","74","J","1","","0","1","0","","0.1616689495","false","139","","0.2351335283","main_expt","","0.1616689495","","0.1704699841","","0.122190115","","","","","",""
"427","","bandit","215","608067","0.0-177.0-0.0","55768395","wem/bandit_single","A115UFR6VA6OM1","pain","8","","74","J","1","","0","0","1","","0.1979747013","false","140","","0.2876903143","main_expt","","0.1979747013","","0.1142956015","","0.08666030548","","","","","",""
"193","","bandit","216","610036","0.0-178.0-0.0","55768395","wem/bandit_single","A115UFR6VA6OM1","pain","8","","74","J","1","","0","0","1","","0.1708965128","false","141","","0.2865732071","main_expt","","0.1708965128","","0.1206890816","","0.09967801986","","","","","",""
"126","","bandit","217","611931","0.0-179.0-0.0","55768395","wem/bandit_single","A115UFR6VA6OM1","pain","8","","74","J","1","","0","0","1","","0.204481367","false","142","","0.248943806","main_expt","","0.204481367","","0.1324259923","","0.1125289611","","","","","",""
"210","","bandit","218","613918","0.0-180.0-0.0","55768395","wem/bandit_single","A115UFR6VA6OM1","pain","8","","74","J","1","","0","0","1","","0.1861099789","false","143","","0.2839045407","main_expt","","0.1861099789","","0.09892217097","","0.1467602081","","","","","",""
"143","","bandit","219","615828","0.0-181.0-0.0","55768395","wem/bandit_single","A115UFR6VA6OM1","pain","8","","76","L","3","","0","1","0","","0.1467522766","false","144","","0.3150250783","main_expt","","0.1956465744","","0.1577744197","","0.1467522766","","","","","",""
"195","","bandit","220","617797","0.0-182.0-0.0","55768395","wem/bandit_single","A115UFR6VA6OM1","pain","8","","76","L","3","","0","0","1","","0.118212248","false","145","","0.3090395899","main_expt","","0.2622876922","","0.1392006829","","0.118212248","","","","","",""
"193","","bandit","221","619772","0.0-183.0-0.0","55768395","wem/bandit_single","A115UFR6VA6OM1","pain","8","","76","L","3","","0","0","1","","0.1089879874","false","146","","0.3122039877","main_expt","","0.304745079","","0.1262993523","","0.1089879874","","","","","",""
"135","","bandit","222","621684","0.0-184.0-0.0","55768395","wem/bandit_single","A115UFR6VA6OM1","pain","8","","76","L","3","","0","0","1","","0.1200469816","false","147","","0.2959619691","main_expt","","0.2888799162","","0.1970652478","","0.1200469816","","","","","",""
"85","","bandit","223","623544","0.0-185.0-0.0","55768395","wem/bandit_single","A115UFR6VA6OM1","pain","8","","76","L","3","","0","0","1","","0.1276189258","false","148","","0.2395536641","main_expt","","0.2290209364","","0.2502259542","","0.1276189258","","","","","",""
"83","","bandit","224","625402","0.0-186.0-0.0","55768395","wem/bandit_single","A115UFR6VA6OM1","pain","8","","75","K","2","","0","0","1","","0.264890558","false","149","","0.2650868272","main_expt","","0.1626908122","","0.264890558","","0.1280703092","","","","","",""
"153","","bandit","225","627334","0.0-187.0-0.0","55768395","wem/bandit_single","A115UFR6VA6OM1","pain","8","","75","K","2","","0","0","1","","0.2458403893","false","150","","0.2986082654","main_expt","","0.1958031623","","0.2458403893","","0.1260403861","","","","","",""
"182","","bandit","226","629279","0.0-188.0-0.0","55768395","wem/bandit_single","A115UFR6VA6OM1","pain","8","","72","H","0","img/none_selected.jpg","0","0","1","","0.2843767109","false","151","","0.2843767109","main_expt","","0.2110526716","","0.3021038309","","0.1472493067","","","","","",""
"169","","bandit","227","631213","0.0-189.0-0.0","55768395","wem/bandit_single","A115UFR6VA6OM1","pain","8","","72","H","0","img/none_selected.jpg","0","0","1","","0.2910803031","false","152","","0.2910803031","main_expt","","0.239542308","","0.2863751765","","0.1256460397","","","","","",""
"179","","bandit","228","633166","0.0-190.0-0.0","55768395","wem/bandit_single","A115UFR6VA6OM1","pain","8","","72","H","0","img/none_selected.jpg","0","1","0","","0.2910028656","false","153","","0.2910028656","main_expt","","0.2781725502","","0.250244768","","0.1567097088","","","","","",""
"407","","bandit","229","635337","0.0-191.0-0.0","55768395","wem/bandit_single","A115UFR6VA6OM1","pain","8","","72","H","0","img/none_selected.jpg","0","0","1","","0.2845613835","false","154","","0.2845613835","main_expt","","0.228047793","","0.2127808211","","0.1473662378","","","","","",""
"107","","bandit","230","637211","0.0-192.0-0.0","55768395","wem/bandit_single","A115UFR6VA6OM1","pain","8","","72","H","0","img/none_selected.jpg","0","0","1","","0.2707345723","false","155","","0.2707345723","main_expt","","0.2683949018","","0.205053704","","0.1466549972","","","","","",""
"159","","bandit","231","639133","0.0-193.0-0.0","55768395","wem/bandit_single","A115UFR6VA6OM1","pain","8","","72","H","0","img/none_selected.jpg","0","0","1","","0.3156720475","false","156","","0.3156720475","main_expt","","0.3192141369","","0.1648482415","","0.1127453184","","","","","",""
"299","","bandit","232","641198","0.0-194.0-0.0","55768395","wem/bandit_single","A115UFR6VA6OM1","pain","8","","74","J","1","","0","1","0","","0.3402823895","false","157","","0.3101066834","main_expt","","0.3402823895","","0.1888047422","","0.1577506677","","","","","",""
"106","","bandit","233","643076","0.0-195.0-0.0","55768395","wem/bandit_single","A115UFR6VA6OM1","pain","8","","74","J","1","","0","0","1","","0.2944958958","false","158","","0.3236654942","main_expt","","0.2944958958","","0.1759444775","","0.177177298","","","","","",""
"98","","bandit","234","644953","0.0-196.0-0.0","55768395","wem/bandit_single","A115UFR6VA6OM1","pain","8","","74","J","1","","0","0","1","","0.3007248388","false","159","","0.2735657487","main_expt","","0.3007248388","","0.2066832709","","0.1693510486","","","","","",""
"131","","bandit","235","646870","0.0-197.0-0.0","55768395","wem/bandit_single","A115UFR6VA6OM1","pain","8","","74","J","1","","0","1","0","","0.3179332055","false","160","","0.2384912546","main_expt","","0.3179332055","","0.2570817279","","0.1230292859","","","","","",""
"119","","bandit","236","648766","0.0-198.0-0.0","55768395","wem/bandit_single","A115UFR6VA6OM1","pain","8","","74","J","1","","0","1","0","","0.2506164635","false","161","","0.2615252743","main_expt","","0.2506164635","","0.2244749933","","0.07903667538","","","","","",""
"302","","bandit","237","650841","0.0-199.0-0.0","55768395","wem/bandit_single","A115UFR6VA6OM1","pain","8","","74","J","1","","0","0","1","","0.2858836385","false","162","","0.2187643747","main_expt","","0.2858836385","","0.23263707","","0.1136507332","","","","","",""
"135","","bandit","238","652752","0.0-200.0-0.0","55768395","wem/bandit_single","A115UFR6VA6OM1","pain","8","","74","J","1","","0","0","1","","0.2848163613","false","163","","0.1909081127","main_expt","","0.2848163613","","0.2287127565","","0.1137116213","","","","","",""
"271","","bandit","239","654801","0.0-201.0-0.0","55768395","wem/bandit_single","A115UFR6VA6OM1","pain","8","","74","J","1","","0","0","1","","0.2688566635","false","164","","0.1808716434","main_expt","","0.2688566635","","0.2303253206","","0.1254102563","","","","","",""
"151","","bandit","240","656727","0.0-202.0-0.0","55768395","wem/bandit_single","A115UFR6VA6OM1","pain","8","","74","J","1","","0","1","0","","0.2921202554","false","165","","0.2118073572","main_expt","","0.2921202554","","0.2771057403","","0.1216805934","","","","","",""
"353","","bandit","241","658854","0.0-203.0-0.0","55768395","wem/bandit_single","A115UFR6VA6OM1","pain","8","","74","J","1","","0","0","1","","0.3143591269","false","166","","0.2410554973","main_expt","","0.3143591269","","0.2371810998","","0.1291529517","","","","","",""
"128","","bandit","242","660757","0.0-204.0-0.0","55768395","wem/bandit_single","A115UFR6VA6OM1","pain","8","","74","J","1","","0","0","1","","0.2892924204","false","167","","0.2574005288","main_expt","","0.2892924204","","0.2349122652","","0.1535345887","","","","","",""
"464","","bandit","243","663003","0.0-205.0-0.0","55768395","wem/bandit_single","A115UFR6VA6OM1","pain","8","","74","J","1","","0","0","1","","0.2786305655","false","168","","0.2729884233","main_expt","","0.2786305655","","0.1959020284","","0.1435034989","","","","","",""
"129","","bandit","244","664913","0.0-206.0-0.0","55768395","wem/bandit_single","A115UFR6VA6OM1","pain","8","","74","J","1","","0","0","1","","0.246803054","false","169","","0.2625821735","main_expt","","0.246803054","","0.1899859579","","0.1957458285","","","","","",""
"149","","bandit","245","666836","0.0-207.0-0.0","55768395","wem/bandit_single","A115UFR6VA6OM1","pain","8","","74","J","1","","0","0","1","","0.2375021307","false","170","","0.3100542845","main_expt","","0.2375021307","","0.2213833812","","0.1308867566","","","","","",""
"14","","bandit","246","668619","0.0-208.0-0.0","55768395","wem/bandit_single","A115UFR6VA6OM1","pain","8","","74","J","1","","0","0","1","","0.2965678991","false","171","","0.3083945368","main_expt","","0.2965678991","","0.1589997081","","0.1422271972","","","","","",""
"279","","bandit","247","670677","0.0-209.0-0.0","55768395","wem/bandit_single","A115UFR6VA6OM1","pain","8","","76","L","3","","0","1","0","","0.1541925874","false","172","","0.3929186772","main_expt","","0.2696718616","","0.1669714507","","0.1541925874","","","","","",""
"128","","bandit","248","672579","0.0-210.0-0.0","55768395","wem/bandit_single","A115UFR6VA6OM1","pain","8","","76","L","3","","0","0","1","","0.1416394444","false","173","","0.4107736206","main_expt","","0.2576521005","","0.1699847696","","0.1416394444","","","","","",""
"176","","bandit","249","674526","0.0-211.0-0.0","55768395","wem/bandit_single","A115UFR6VA6OM1","pain","8","","76","L","3","","0","0","1","","0.1207830423","false","174","","0.4267170337","main_expt","","0.2839516933","","0.202136981","","0.1207830423","","","","","",""
"107","","bandit","250","676410","0.0-212.0-0.0","55768395","wem/bandit_single","A115UFR6VA6OM1","pain","8","","76","L","3","","0","0","1","","0.1636312712","false","175","","0.420504823","main_expt","","0.2932452363","","0.1863880777","","0.1636312712","","","","","",""
"127","","bandit","251","678314","0.0-213.0-0.0","55768395","wem/bandit_single","A115UFR6VA6OM1","pain","8","","76","L","3","","0","0","1","","0.186569684","false","176","","0.3956962169","main_expt","","0.3118313574","","0.1426909825","","0.186569684","","","","","",""
"677","","bandit","252","680768","0.0-214.0-0.0","55768395","wem/bandit_single","A115UFR6VA6OM1","pain","8","","76","L","3","","0","0","1","","0.1089038478","false","177","","0.3834761318","main_expt","","0.3378695823","","0.1335645184","","0.1089038478","","","","","",""
"479","","bandit","253","683024","0.0-215.0-0.0","55768395","wem/bandit_single","A115UFR6VA6OM1","pain","8","","72","H","0","img/none_selected.jpg","0","1","0","","0.4167112469","false","178","","0.4167112469","main_expt","","0.3234122319","","0.09719791569","","0.08465244813","","","","","",""
"175","","bandit","254","684976","0.0-216.0-0.0","55768395","wem/bandit_single","A115UFR6VA6OM1","pain","8","","72","H","0","img/none_selected.jpg","0","0","1","","0.4370197561","false","179","","0.4370197561","main_expt","","0.3281528324","","0.07123289457","","0.1015747644","","","","","",""
"222","","bandit","255","686977","0.0-217.0-0.0","55768395","wem/bandit_single","A115UFR6VA6OM1","pain","8","","72","H","0","img/none_selected.jpg","0","1","0","","0.3776598584","false","180","","0.3776598584","main_expt","","0.340497037","","0.05555663239","","0.1277953302","","","","","",""
"53","","bandit","256","688802","0.0-218.0-0.0","55768395","wem/bandit_single","A115UFR6VA6OM1","pain","8","","72","H","0","img/none_selected.jpg","0","0","1","","0.3636519722","false","181","","0.3636519722","main_expt","","0.3007371283","","0.04396828199","","0.1854921141","","","","","",""
"159","","bandit","257","690744","0.0-219.0-0.0","55768395","wem/bandit_single","A115UFR6VA6OM1","pain","8","","72","H","0","img/none_selected.jpg","0","1","0","","0.3246411676","false","182","","0.3246411676","main_expt","","0.3190136055","","0.02691259782","","0.2273529654","","","","","",""
"195","","bandit","258","692707","0.0-220.0-0.0","55768395","wem/bandit_single","A115UFR6VA6OM1","pain","8","","72","H","0","img/none_selected.jpg","0","0","1","","0.3187018958","false","183","","0.3187018958","main_expt","","0.322323442","","0.04807599522","","0.2600234541","","","","","",""
"187","","bandit","259","694662","0.0-221.0-0.0","55768395","wem/bandit_single","A115UFR6VA6OM1","pain","8","","72","H","0","img/none_selected.jpg","0","0","1","","0.3497063737","false","184","","0.3497063737","main_expt","","0.3086696071","","0.05076165442","","0.2689652485","","","","","",""
"222","","bandit","260","696664","0.0-222.0-0.0","55768395","wem/bandit_single","A115UFR6VA6OM1","pain","8","","72","H","0","img/none_selected.jpg","0","1","0","","0.3334532315","false","185","","0.3334532315","main_expt","","0.3146814862","","0.1128087831","","0.2646203852","","","","","",""
"105","","bandit","261","698546","0.0-223.0-0.0","55768395","wem/bandit_single","A115UFR6VA6OM1","pain","8","","72","H","0","img/none_selected.jpg","0","0","1","","0.3511592443","false","186","","0.3511592443","main_expt","","0.3353274036","","0.1592260056","","0.2038557162","","","","","",""
"134","","bandit","262","700457","0.0-224.0-0.0","55768395","wem/bandit_single","A115UFR6VA6OM1","pain","8","","72","H","0","img/none_selected.jpg","0","1","0","","0.3758503369","false","187","","0.3758503369","main_expt","","0.331036234","","0.2195828404","","0.2643634763","","","","","",""
"135","","bandit","263","702365","0.0-225.0-0.0","55768395","wem/bandit_single","A115UFR6VA6OM1","pain","8","","72","H","0","img/none_selected.jpg","0","0","1","","0.3951098987","false","188","","0.3951098987","main_expt","","0.3061178756","","0.214856838","","0.2137054787","","","","","",""
"119","","bandit","264","704259","0.0-226.0-0.0","55768395","wem/bandit_single","A115UFR6VA6OM1","pain","8","","72","H","0","img/none_selected.jpg","0","0","1","","0.3766733461","false","189","","0.3766733461","main_expt","","0.3455914038","","0.2103369464","","0.2349639762","","","","","",""
"107","","bandit","265","706146","0.0-227.0-0.0","55768395","wem/bandit_single","A115UFR6VA6OM1","pain","8","","72","H","0","img/none_selected.jpg","0","0","1","","0.3974997784","false","190","","0.3974997784","main_expt","","0.3734842368","","0.1932940482","","0.2067261929","","","","","",""
"104","","bandit","266","708028","0.0-228.0-0.0","55768395","wem/bandit_single","A115UFR6VA6OM1","pain","8","","72","H","0","img/none_selected.jpg","0","1","0","","0.4174686418","false","191","","0.4174686418","main_expt","","0.3648323685","","0.2285646161","","0.275245882","","","","","",""
"194","","bandit","267","709998","0.0-229.0-0.0","55768395","wem/bandit_single","A115UFR6VA6OM1","pain","8","","72","H","0","img/none_selected.jpg","0","0","1","","0.3963748123","false","192","","0.3963748123","main_expt","","0.3339781981","","0.2589031043","","0.306220044","","","","","",""
"116","","bandit","268","711892","0.0-230.0-0.0","55768395","wem/bandit_single","A115UFR6VA6OM1","pain","8","","72","H","0","img/none_selected.jpg","0","0","1","","0.3921748604","false","193","","0.3921748604","main_expt","","0.3342714415","","0.2195537535","","0.3035773814","","","","","",""
"107","","bandit","269","713775","0.0-231.0-0.0","55768395","wem/bandit_single","A115UFR6VA6OM1","pain","8","","72","H","0","img/none_selected.jpg","0","0","1","","0.3580841109","false","194","","0.3580841109","main_expt","","0.3241295504","","0.2027550427","","0.2510827831","","","","","",""
"97","","bandit","270","715648","0.0-232.0-0.0","55768395","wem/bandit_single","A115UFR6VA6OM1","pain","8","","72","H","0","img/none_selected.jpg","0","1","0","","0.3508589263","false","195","","0.3508589263","main_expt","","0.3116310431","","0.1862287394","","0.2455858858","","","","","",""
"249","","bandit","271","717676","0.0-233.0-0.0","55768395","wem/bandit_single","A115UFR6VA6OM1","pain","8","","72","H","0","img/none_selected.jpg","0","0","1","","0.3580593089","false","196","","0.3580593089","main_expt","","0.3757707762","","0.1892299528","","0.2514601016","","","","","",""
"16","","bandit","272","719486","0.0-234.0-0.0","55768395","wem/bandit_single","A115UFR6VA6OM1","pain","8","","72","H","0","img/none_selected.jpg","0","0","1","","0.325214339","false","197","","0.325214339","main_expt","","0.3510132286","","0.2217707201","","0.2735270373","","","","","",""
"176","","bandit","273","721441","0.0-235.0-0.0","55768395","wem/bandit_single","A115UFR6VA6OM1","pain","8","","74","J","1","","0","1","0","","0.3775824693","false","198","","0.3214736551","main_expt","","0.3775824693","","0.2622368769","","0.1856542716","","","","","",""
"118","","bandit","274","723333","0.0-236.0-0.0","55768395","wem/bandit_single","A115UFR6VA6OM1","pain","8","","74","J","1","","0","1","0","","0.3591355879","false","199","","0.3134841864","main_expt","","0.3591355879","","0.2566369559","","0.1439471636","","","","","",""
"75","","bandit","275","725186","0.0-237.0-0.0","55768395","wem/bandit_single","A115UFR6VA6OM1","pain","8","","74","J","1","","0","0","1","","0.4329566742","false","200","","0.3484934822","main_expt","","0.4329566742","","0.2405232655","","0.1920673188","","","","","",""
"108","","bandit","276","727067","0.0-238.0-0.0","55768395","wem/bandit_single","A115UFR6VA6OM1","pain","8","","74","J","1","","0","0","1","","0.4316294991","false","201","","0.3509587021","main_expt","","0.4316294991","","0.191632201","","0.2139557707","","","","","",""
"76","","bandit","277","728926","0.0-239.0-0.0","55768395","wem/bandit_single","A115UFR6VA6OM1","pain","8","","74","J","1","","0","1","0","","0.4446061493","false","202","","0.3472711197","main_expt","","0.4446061493","","0.1860277461","","0.2411081829","","","","","",""
"323","","bandit","278","731016","0.0-240.0-0.0","55768395","wem/bandit_single","A115UFR6VA6OM1","pain","8","","74","J","1","","0","1","0","","0.4350640844","false","203","","0.3501901851","main_expt","","0.4350640844","","0.1959395152","","0.2229679022","","","","","",""
"98","","bandit","279","732888","0.0-241.0-0.0","55768395","wem/bandit_single","A115UFR6VA6OM1","pain","8","","74","J","1","","0","0","1","","0.4511953558","false","204","","0.4021923856","main_expt","","0.4511953558","","0.1909798814","","0.2094072873","","","","","",""
"37","","bandit","280","734699","0.0-242.0-0.0","55768395","wem/bandit_single","A115UFR6VA6OM1","pain","8","","74","J","1","","0","1","0","","0.4444608137","false","205","","0.4103624794","main_expt","","0.4444608137","","0.1952925147","","0.2061243076","","","","","",""
"74","","bandit","281","736548","0.0-243.0-0.0","55768395","wem/bandit_single","A115UFR6VA6OM1","pain","8","","74","J","1","","0","1","0","","0.4174874576","false","206","","0.3884407208","main_expt","","0.4174874576","","0.2333477628","","0.1830656651","","","","","",""
"74","","bandit","282","738398","0.0-244.0-0.0","55768395","wem/bandit_single","A115UFR6VA6OM1","pain","8","","74","J","1","","0","0","1","","0.4473837798","false","207","","0.4205181933","main_expt","","0.4473837798","","0.2366383375","","0.1806213093","","","","","",""
"173","","bandit","283","740350","0.0-245.0-0.0","55768395","wem/bandit_single","A115UFR6VA6OM1","pain","8","","74","J","1","","0","1","0","","0.4423282801","false","208","","0.39705837","main_expt","","0.4423282801","","0.2588239296","","0.1547428587","","","","","",""
"142","","bandit","284","742266","0.0-246.0-0.0","55768395","wem/bandit_single","A115UFR6VA6OM1","pain","8","","74","J","1","","0","1","0","","0.4495798672","false","209","","0.3763678409","main_expt","","0.4495798672","","0.2109346514","","0.1633509089","","","","","",""
"55","","bandit","285","744101","0.0-247.0-0.0","55768395","wem/bandit_single","A115UFR6VA6OM1","pain","8","","74","J","1","","0","0","1","","0.4604116181","false","210","","0.329669689","main_expt","","0.4604116181","","0.2352346414","","0.194224154","","","","","",""
"64","","bandit","286","745943","0.0-248.0-0.0","55768395","wem/bandit_single","A115UFR6VA6OM1","pain","8","","74","J","1","","0","1","0","","0.4515605979","false","211","","0.3234151823","main_expt","","0.4515605979","","0.1919095989","","0.1428536625","","","","","",""
"100","","bandit","287","747819","0.0-249.0-0.0","55768395","wem/bandit_single","A115UFR6VA6OM1","pain","8","","74","J","1","","0","0","1","","0.3796359761","false","212","","0.346289724","main_expt","","0.3796359761","","0.2511997366","","0.1876263767","","","","","",""
"177","","bandit","288","749775","0.0-250.0-0.0","55768395","wem/bandit_single","A115UFR6VA6OM1","pain","8","","74","J","1","","0","0","1","","0.4098311692","false","213","","0.3579646626","main_expt","","0.4098311692","","0.2247602752","","0.1767426991","","","","","",""
"68","","bandit","289","751623","0.0-251.0-0.0","55768395","wem/bandit_single","A115UFR6VA6OM1","pain","8","","74","J","1","","0","0","1","","0.3758430492","false","214","","0.3871938136","main_expt","","0.3758430492","","0.2078026042","","0.1997003326","","","","","",""
"108","","bandit","290","753509","0.0-252.0-0.0","55768395","wem/bandit_single","A115UFR6VA6OM1","pain","8","","74","J","1","","0","1","0","","0.3391734167","false","215","","0.4072701047","main_expt","","0.3391734167","","0.2000367883","","0.1753208105","","","","","",""
"90","","bandit","291","755376","0.0-253.0-0.0","55768395","wem/bandit_single","A115UFR6VA6OM1","pain","8","","74","J","1","","0","0","1","","0.3292806148","false","216","","0.4139997029","main_expt","","0.3292806148","","0.1850279066","","0.1526073348","","","","","",""
"76","","bandit","292","757229","0.0-254.0-0.0","55768395","wem/bandit_single","A115UFR6VA6OM1","pain","8","","74","J","1","","0","0","1","","0.3672552775","false","217","","0.4058129166","main_expt","","0.3672552775","","0.1862329662","","0.1885901152","","","","","",""
"137","","bandit","293","759146","0.0-255.0-0.0","55768395","wem/bandit_single","A115UFR6VA6OM1","pain","8","","74","J","1","","0","0","1","","0.3540988412","false","218","","0.3831507141","main_expt","","0.3540988412","","0.2076422808","","0.2068683321","","","","","",""
"77","","bandit","294","760988","0.0-256.0-0.0","55768395","wem/bandit_single","A115UFR6VA6OM1","pain","8","","74","J","1","","0","0","1","","0.3705907093","false","219","","0.3975704748","main_expt","","0.3705907093","","0.1693095695","","0.1830460615","","","","","",""
"108","","bandit","295","762878","0.0-257.0-0.0","55768395","wem/bandit_single","A115UFR6VA6OM1","pain","8","","76","L","3","","0","0","1","","0.1510464272","false","220","","0.420208779","main_expt","","0.4071767116","","0.1643321708","","0.1510464272","","","","","",""
"57","","bandit","296","764716","0.0-258.0-0.0","55768395","wem/bandit_single","A115UFR6VA6OM1","pain","8","","76","L","3","","0","0","1","","0.1195154075","false","221","","0.4277126104","main_expt","","0.4000591573","","0.1755642267","","0.1195154075","","","","","",""
"50","","bandit","297","766539","0.0-259.0-0.0","55768395","wem/bandit_single","A115UFR6VA6OM1","pain","8","","76","L","3","","0","1","0","","0.1322821073","false","222","","0.4098861052","main_expt","","0.4257242725","","0.2047466037","","0.1322821073","","","","","",""
"55","","bandit","298","768368","0.0-260.0-0.0","55768395","wem/bandit_single","A115UFR6VA6OM1","pain","8","","76","L","3","","0","0","1","","0.1634864242","false","223","","0.3865692481","main_expt","","0.4084538547","","0.1261696039","","0.1634864242","","","","","",""
"60","","bandit","299","770213","0.0-261.0-0.0","55768395","wem/bandit_single","A115UFR6VA6OM1","pain","8","","76","L","3","","0","1","0","","0.1927622759","false","224","","0.3942994903","main_expt","","0.3756333804","","0.1671605087","","0.1927622759","","","","","",""
"91","","bandit","300","772081","0.0-262.0-0.0","55768395","wem/bandit_single","A115UFR6VA6OM1","pain","8","","76","L","3","","0","0","1","","0.1949177646","false","225","","0.3444994861","main_expt","","0.3977261909","","0.1498322393","","0.1949177646","","","","","",""
"53","","bandit","301","773914","0.0-263.0-0.0","55768395","wem/bandit_single","A115UFR6VA6OM1","pain","8","","76","L","3","","0","1","0","","0.1675301724","false","226","","0.4042132592","main_expt","","0.3876796808","","0.106170416","","0.1675301724","","","","","",""
"69","","bandit","302","775757","0.0-264.0-0.0","55768395","wem/bandit_single","A115UFR6VA6OM1","pain","8","","76","L","3","","0","0","1","","0.163375113","false","227","","0.3906229402","main_expt","","0.3213858912","","0.0897934899","","0.163375113","","","","","",""
"668","","bandit","303","778208","0.0-265.0-0.0","55768395","wem/bandit_single","A115UFR6VA6OM1","pain","8","","76","L","3","","0","0","1","","0.195474145","false","228","","0.3417164876","main_expt","","0.3331191915","","0.09443294629","","0.195474145","","","","","",""
"91","","bandit","304","780064","0.0-266.0-0.0","55768395","wem/bandit_single","A115UFR6VA6OM1","pain","8","","76","L","3","","0","0","1","","0.2410354958","false","229","","0.3222205624","main_expt","","0.308496805","","0.0848669953","","0.2410354958","","","","","",""
"122","","bandit","305","781966","0.0-267.0-0.0","55768395","wem/bandit_single","A115UFR6VA6OM1","pain","8","","76","L","3","","0","0","1","","0.2567648542","false","230","","0.3442672336","main_expt","","0.2734654059","","0.0701458292","","0.2567648542","","","","","",""
"236","","bandit","306","783982","0.0-268.0-0.0","55768395","wem/bandit_single","A115UFR6VA6OM1","pain","8","","72","H","0","img/none_selected.jpg","0","0","1","","0.3164459362","false","231","","0.3164459362","main_expt","","0.292212981","","0.1251282835","","0.2304241664","","","","","",""
"80","","bandit","307","785845","0.0-269.0-0.0","55768395","wem/bandit_single","A115UFR6VA6OM1","pain","8","","72","H","0","img/none_selected.jpg","0","1","0","","0.3396906789","false","232","","0.3396906789","main_expt","","0.2516656152","","0.1124912266","","0.2264886823","","","","","",""
"119","","bandit","308","787740","0.0-270.0-0.0","55768395","wem/bandit_single","A115UFR6VA6OM1","pain","8","","72","H","0","img/none_selected.jpg","0","1","0","","0.3008540409","false","233","","0.3008540409","main_expt","","0.2563877418","","0.1535494164","","0.1892320941","","","","","",""
"161","","bandit","309","789677","0.0-271.0-0.0","55768395","wem/bandit_single","A115UFR6VA6OM1","pain","8","","72","H","0","img/none_selected.jpg","0","1","0","","0.2767988229","false","234","","0.2767988229","main_expt","","0.283882603","","0.1389628654","","0.1556895318","","","","","",""
"96","","bandit","310","791554","0.0-272.0-0.0","55768395","wem/bandit_single","A115UFR6VA6OM1","pain","8","","72","H","0","img/none_selected.jpg","0","0","1","","0.2507781603","false","235","","0.2507781603","main_expt","","0.2758852766","","0.1680793718","","0.1976044491","","","","","",""
"347","","bandit","311","793667","0.0-273.0-0.0","55768395","wem/bandit_single","A115UFR6VA6OM1","pain","8","","72","H","0","img/none_selected.jpg","0","0","1","","0.3091667607","false","236","","0.3091667607","main_expt","","0.2434452049","","0.2037097706","","0.1468950029","","","","","",""
"166","","bandit","312","795619","0.0-274.0-0.0","55768395","wem/bandit_single","A115UFR6VA6OM1","pain","8","","72","H","0","img/none_selected.jpg","0","0","1","","0.2883211118","false","237","","0.2883211118","main_expt","","0.2405517979","","0.1897176974","","0.1365515699","","","","","",""
"161","","bandit","313","797553","0.0-275.0-0.0","55768395","wem/bandit_single","A115UFR6VA6OM1","pain","8","","72","H","0","img/none_selected.jpg","0","0","1","","0.2756444762","false","238","","0.2756444762","main_expt","","0.2260832521","","0.2317710791","","0.1527077476","","","","","",""
"179","","bandit","314","799512","0.0-276.0-0.0","55768395","wem/bandit_single","A115UFR6VA6OM1","pain","8","","72","H","0","img/none_selected.jpg","0","1","0","","0.3061346513","false","239","","0.3061346513","main_expt","","0.2061693665","","0.2206906913","","0.1315224722","","","","","",""
"111","","bandit","315","801401","0.0-277.0-0.0","55768395","wem/bandit_single","A115UFR6VA6OM1","pain","8","","72","H","0","img/none_selected.jpg","0","0","1","","0.3274201615","false","240","","0.3274201615","main_expt","","0.2203195159","","0.2155283076","","0.1398926963","","","","","",""
"154","","bandit","316","803335","0.0-278.0-0.0","55768395","wem/bandit_single","A115UFR6VA6OM1","pain","8","","74","J","1","","0","0","1","","0.2230507071","false","241","","0.2838770346","main_expt","","0.2230507071","","0.2386015387","","0.1698873683","","","","","",""
"55","","bandit","317","805168","0.0-279.0-0.0","55768395","wem/bandit_single","A115UFR6VA6OM1","pain","8","","74","J","1","","0","0","1","","0.1834748297","false","242","","0.261873528","main_expt","","0.1834748297","","0.2178179326","","0.1693915972","","","","","",""
"102","","bandit","318","807051","0.0-280.0-0.0","55768395","wem/bandit_single","A115UFR6VA6OM1","pain","8","","74","J","1","","0","0","1","","0.1450766806","false","243","","0.2346518895","main_expt","","0.1450766806","","0.2209910316","","0.2011280514","","","","","",""
"128","","bandit","319","808960","0.0-281.0-0.0","55768395","wem/bandit_single","A115UFR6VA6OM1","pain","8","","74","J","1","","0","1","0","","0.1407015906","false","244","","0.2253303202","main_expt","","0.1407015906","","0.2202366047","","0.283074141","","","","","",""
"63","","bandit","320","810805","0.0-282.0-0.0","55768395","wem/bandit_single","A115UFR6VA6OM1","pain","8","","74","J","1","","0","0","1","","0.1386250556","false","245","","0.2379184421","main_expt","","0.1386250556","","0.2369425358","","0.2960363525","","","","","",""
"118","","bandit","321","812704","0.0-283.0-0.0","55768395","wem/bandit_single","A115UFR6VA6OM1","pain","8","","74","J","1","","0","0","1","","0.1561911267","false","246","","0.1704118475","main_expt","","0.1561911267","","0.2437218948","","0.2985154159","","","","","",""
"101","","bandit","322","814576","0.0-284.0-0.0","55768395","wem/bandit_single","A115UFR6VA6OM1","pain","8","","74","J","1","","0","0","1","","0.251644506","false","247","","0.1520093858","main_expt","","0.251644506","","0.2573167276","","0.3159682012","","","","","",""
"283","","bandit","323","816641","0.0-285.0-0.0","55768395","wem/bandit_single","A115UFR6VA6OM1","pain","8","","74","J","1","","0","0","1","","0.2541276422","false","248","","0.1246217458","main_expt","","0.2541276422","","0.255349996","","0.2937445921","","","","","",""
"58","","bandit","324","818476","0.0-286.0-0.0","55768395","wem/bandit_single","A115UFR6VA6OM1","pain","8","","74","J","1","","0","0","1","","0.1924412691","false","249","","0.1525969556","main_expt","","0.1924412691","","0.2866877344","","0.2794909668","","","","","",""
"97","","bandit","325","820355","0.0-287.0-0.0","55768395","wem/bandit_single","A115UFR6VA6OM1","pain","8","","74","J","1","","0","0","1","","0.1397358892","false","250","","0.1500628479","main_expt","","0.1397358892","","0.2330780591","","0.2327966623","","","","","",""
"129","","bandit","326","822270","0.0-288.0-0.0","55768395","wem/bandit_single","A115UFR6VA6OM1","pain","8","","74","J","1","","0","0","1","","0.1362233376","false","251","","0.1141396938","main_expt","","0.1362233376","","0.2580196572","","0.2595602212","","","","","",""
"90","","bandit","327","824141","0.0-289.0-0.0","55768395","wem/bandit_single","A115UFR6VA6OM1","pain","8","","74","J","1","","0","0","1","","0.1796418735","false","252","","0.1476089834","main_expt","","0.1796418735","","0.2003146692","","0.2715763176","","","","","",""
"122","","bandit","328","826045","0.0-290.0-0.0","55768395","wem/bandit_single","A115UFR6VA6OM1","pain","8","","72","H","0","img/none_selected.jpg","0","0","1","","0.175183139","false","253","","0.175183139","main_expt","","0.1833608075","","0.1651092288","","0.3146654463","","","","","",""
"101","","bandit","329","827922","0.0-291.0-0.0","55768395","wem/bandit_single","A115UFR6VA6OM1","pain","8","","72","H","0","img/none_selected.jpg","0","0","1","","0.1916323123","false","254","","0.1916323123","main_expt","","0.1983034343","","0.1413675546","","0.3037610447","","","","","",""
"71","","bandit","330","829776","0.0-292.0-0.0","55768395","wem/bandit_single","A115UFR6VA6OM1","pain","8","","72","H","0","img/none_selected.jpg","0","0","1","","0.1888714334","false","255","","0.1888714334","main_expt","","0.2286544637","","0.1801919014","","0.287825992","","","","","",""
"71","","bandit","331","831634","0.0-293.0-0.0","55768395","wem/bandit_single","A115UFR6VA6OM1","pain","8","","72","H","0","img/none_selected.jpg","0","0","1","","0.2338577058","false","256","","0.2338577058","main_expt","","0.2502735072","","0.1883387327","","0.2673332977","","","","","",""
"956","","bandit","332","834360","0.0-294.0-0.0","55768395","wem/bandit_single","A115UFR6VA6OM1","pain","8","","72","H","0","img/none_selected.jpg","0","0","1","","0.2235288738","false","257","","0.2235288738","main_expt","","0.2657937058","","0.1757220287","","0.2867614738","","","","","",""
"99","","bandit","333","836240","0.0-295.0-0.0","55768395","wem/bandit_single","A115UFR6VA6OM1","pain","8","","72","H","0","img/none_selected.jpg","0","0","1","","0.2256298632","false","258","","0.2256298632","main_expt","","0.2326681124","","0.1817694486","","0.2432485896","","","","","",""
"131","","bandit","334","838143","0.0-296.0-0.0","55768395","wem/bandit_single","A115UFR6VA6OM1","pain","8","","72","H","0","img/none_selected.jpg","0","0","1","","0.229367941","false","259","","0.229367941","main_expt","","0.2128848171","","0.1938363466","","0.2433124215","","","","","",""
"131","","bandit","335","840055","0.0-297.0-0.0","55768395","wem/bandit_single","A115UFR6VA6OM1","pain","8","","72","H","0","img/none_selected.jpg","0","0","1","","0.2585863351","false","260","","0.2585863351","main_expt","","0.261065439","","0.2129025296","","0.202057327","","","","","",""
"377","","bandit","336","842213","0.0-298.0-0.0","55768395","wem/bandit_single","A115UFR6VA6OM1","pain","8","","72","H","0","img/none_selected.jpg","0","0","1","","0.2748644017","false","261","","0.2748644017","main_expt","","0.2693274395","","0.1931457884","","0.163702413","","","","","",""
"144","","bandit","337","844146","0.0-299.0-0.0","55768395","wem/bandit_single","A115UFR6VA6OM1","pain","8","","72","H","0","img/none_selected.jpg","0","0","1","","0.288340978","false","262","","0.288340978","main_expt","","0.3386888623","","0.183306516","","0.1317961998","","","","","",""
"205","","bandit","338","846134","0.0-300.0-0.0","55768395","wem/bandit_single","A115UFR6VA6OM1","pain","8","","74","J","1","","0","0","1","","0.3645909238","false","263","","0.3151532186","main_expt","","0.3645909238","","0.1293037787","","0.09680570831","","","","","",""
"91","","bandit","339","848004","0.0-301.0-0.0","55768395","wem/bandit_single","A115UFR6VA6OM1","pain","8","","74","J","1","","0","0","1","","0.3437159196","false","264","","0.2931268787","main_expt","","0.3437159196","","0.1386072774","","0.08846786375","","","","","",""
"115","","bandit","340","849904","0.0-302.0-0.0","55768395","wem/bandit_single","A115UFR6VA6OM1","pain","8","","74","J","1","","0","1","0","","0.3644358952","false","265","","0.3131275506","main_expt","","0.3644358952","","0.1511252148","","0.08556864258","","","","","",""
"98","","bandit","341","851768","0.0-303.0-0.0","55768395","wem/bandit_single","A115UFR6VA6OM1","pain","8","","74","J","1","","0","1","0","","0.3904852039","false","266","","0.336523231","main_expt","","0.3904852039","","0.2186772706","","0.0706515048","","","","","",""
"28","","bandit","342","853571","0.0-304.0-0.0","55768395","wem/bandit_single","A115UFR6VA6OM1","pain","8","","74","J","1","","0","0","1","","0.3896615427","false","267","","0.2850369317","main_expt","","0.3896615427","","0.2625163009","","0.0747424838","","","","","",""
"250","","bandit","343","855611","0.0-305.0-0.0","55768395","wem/bandit_single","A115UFR6VA6OM1","pain","8","","74","J","1","","0","0","1","","0.4017278216","false","268","","0.3163307124","main_expt","","0.4017278216","","0.3140442454","","0.112617448","","","","","",""
"165","","bandit","344","857558","0.0-306.0-0.0","55768395","wem/bandit_single","A115UFR6VA6OM1","pain","8","","74","J","1","","0","0","1","","0.370996795","false","269","","0.2956683275","main_expt","","0.370996795","","0.3069084364","","0.1406639307","","","","","",""
"232","","bandit","345","859573","0.0-307.0-0.0","55768395","wem/bandit_single","A115UFR6VA6OM1","pain","8","","74","J","1","","0","1","0","","0.4255483526","false","270","","0.3574655381","main_expt","","0.4255483526","","0.2814908846","","0.1398727949","","","","","",""
"238","","bandit","346","861583","0.0-308.0-0.0","55768395","wem/bandit_single","A115UFR6VA6OM1","pain","8","","74","J","1","","0","0","1","","0.3948114384","false","271","","0.3969117111","main_expt","","0.3948114384","","0.3060786573","","0.1430486157","","","","","",""
"771","","bandit","347","864133","0.0-309.0-0.0","55768395","wem/bandit_single","A115UFR6VA6OM1","pain","8","","74","J","1","","0","0","1","","0.3713372483","false","272","","0.3938657786","main_expt","","0.3713372483","","0.3555003363","","0.1872928851","","","","","",""
"1232","","bandit","348","867145","0.0-310.0-0.0","55768395","wem/bandit_single","A115UFR6VA6OM1","pain","8","","76","L","3","","0","0","1","","0.1769074474","false","273","","0.3903330825","main_expt","","0.3650537767","","0.3980140183","","0.1769074474","","","","","",""
"100","","bandit","349","869025","0.0-311.0-0.0","55768395","wem/bandit_single","A115UFR6VA6OM1","pain","8","","76","L","3","","0","0","1","","0.1820324592","false","274","","0.4236793781","main_expt","","0.3414565802","","0.4077181827","","0.1820324592","","","","","",""
"1115","","bandit","350","871924","0.0-312.0-0.0","55768395","wem/bandit_single","A115UFR6VA6OM1","pain","8","","76","L","3","","0","0","1","","0.1923133529","false","275","","0.4320968281","main_expt","","0.3027622838","","0.4142369189","","0.1923133529","","","","","",""
"244","","bandit","351","873945","0.0-313.0-0.0","55768395","wem/bandit_single","A115UFR6VA6OM1","pain","8","","76","L","3","","0","1","0","","0.1917589367","false","276","","0.4017915655","main_expt","","0.3125082267","","0.4250096067","","0.1917589367","","","","","",""
"116","","bandit","352","875835","0.0-314.0-0.0","55768395","wem/bandit_single","A115UFR6VA6OM1","pain","8","","76","L","3","","0","0","1","","0.1667093518","false","277","","0.3548215972","main_expt","","0.348890663","","0.4378988515","","0.1667093518","","","","","",""
"130","","bandit","353","877730","0.0-315.0-0.0","55768395","wem/bandit_single","A115UFR6VA6OM1","pain","8","","76","L","3","","0","0","1","","0.1695638059","false","278","","0.3683165275","main_expt","","0.3341457036","","0.4323676568","","0.1695638059","","","","","",""
"135","","bandit","354","879634","0.0-316.0-0.0","55768395","wem/bandit_single","A115UFR6VA6OM1","pain","8","","76","L","3","","0","0","1","","0.1696283439","false","279","","0.3750953637","main_expt","","0.2341959149","","0.4391545144","","0.1696283439","","","","","",""
"89","","bandit","355","881506","0.0-317.0-0.0","55768395","wem/bandit_single","A115UFR6VA6OM1","pain","8","","76","L","3","","0","0","1","","0.09227733008","false","280","","0.3557095414","main_expt","","0.1839622844","","0.4467207207","","0.09227733008","","","","","",""
"114","","bandit","356","883401","0.0-318.0-0.0","55768395","wem/bandit_single","A115UFR6VA6OM1","pain","8","","76","L","3","","0","0","1","","0.08059064446","false","281","","0.374333358","main_expt","","0.1303375237","","0.3922333676","","0.08059064446","","","","","",""
"124","","bandit","357","885311","0.0-319.0-0.0","55768395","wem/bandit_single","A115UFR6VA6OM1","pain","8","","74","J","1","","0","0","1","","0.07449941097","false","282","","0.3786855632","main_expt","","0.07449941097","","0.4243132136","","0.06236597977","","","","","",""
"114","","bandit","358","887205","0.0-320.0-0.0","55768395","wem/bandit_single","A115UFR6VA6OM1","pain","8","","74","J","1","","0","0","1","","0.08783129911","false","283","","0.437514669","main_expt","","0.08783129911","","0.4187362854","","0.07782340279","","","","","",""
"332","","bandit","359","889319","0.0-321.0-0.0","55768395","wem/bandit_single","A115UFR6VA6OM1","pain","8","","74","J","1","","0","0","1","","0.08228152097","false","284","","0.410198323","main_expt","","0.08228152097","","0.422543139","","0.07564660971","","","","","",""
"215","","bandit","360","891303","0.0-322.0-0.0","55768395","wem/bandit_single","A115UFR6VA6OM1","pain","8","","74","J","1","","0","0","1","","0.09246744832","false","285","","0.3777139522","main_expt","","0.09246744832","","0.434302279","","0.08237135124","","","","","",""
"106","","bandit","361","893194","0.0-323.0-0.0","55768395","wem/bandit_single","A115UFR6VA6OM1","pain","8","","74","J","1","","0","0","1","","0.08394792075","false","286","","0.3841171753","main_expt","","0.08394792075","","0.4094725029","","0.05670298638","","","","","",""
"112","","bandit","362","895075","0.0-324.0-0.0","55768395","wem/bandit_single","A115UFR6VA6OM1","pain","8","","74","J","1","","0","0","1","","0.1021913287","false","287","","0.3641862554","main_expt","","0.1021913287","","0.3778080042","","0.06647452785","","","","","",""
"149","","bandit","363","897004","0.0-325.0-0.0","55768395","wem/bandit_single","A115UFR6VA6OM1","pain","8","","72","H","0","img/none_selected.jpg","0","0","1","","0.3192590496","false","288","","0.3192590496","main_expt","","0.1188664616","","0.3671495563","","0.04859701272","","","","","",""
"47","","bandit","364","898830","0.0-326.0-0.0","55768395","wem/bandit_single","A115UFR6VA6OM1","pain","8","","72","H","0","img/none_selected.jpg","0","1","0","","0.3384054944","false","289","","0.3384054944","main_expt","","0.1050513492","","0.3622055636","","0.04246321062","","","","","",""
"48","","bandit","365","900656","0.0-327.0-0.0","55768395","wem/bandit_single","A115UFR6VA6OM1","pain","8","","72","H","0","img/none_selected.jpg","0","0","1","","0.329366118","false","290","","0.329366118","main_expt","","0.1304324694","","0.3616647964","","0.08307379137","","","","","",""
"649","","bandit","366","903075","0.0-328.0-0.0","55768395","wem/bandit_single","A115UFR6VA6OM1","pain","8","","72","H","0","img/none_selected.jpg","0","1","0","","0.38061917","false","291","","0.38061917","main_expt","","0.09707891459","","0.3521760992","","0.09664054691","","","","","",""
"255","","bandit","367","905110","0.0-329.0-0.0","55768395","wem/bandit_single","A115UFR6VA6OM1","pain","8","","72","H","0","img/none_selected.jpg","0","1","0","","0.3703624541","false","292","","0.3703624541","main_expt","","0.1166693976","","0.3062989856","","0.1089287446","","","","","",""
"84","","bandit","368","906961","0.0-330.0-0.0","55768395","wem/bandit_single","A115UFR6VA6OM1","pain","8","","72","H","0","img/none_selected.jpg","0","0","1","","0.3554666564","false","293","","0.3554666564","main_expt","","0.1448282665","","0.2594623792","","0.1426967363","","","","","",""
"173","","bandit","369","908919","0.0-331.0-0.0","55768395","wem/bandit_single","A115UFR6VA6OM1","pain","8","","72","H","0","img/none_selected.jpg","0","1","0","","0.3976604504","false","294","","0.3976604504","main_expt","","0.1486412875","","0.2666401727","","0.08295656842","","","","","",""
"344","","bandit","370","911041","0.0-332.0-0.0","55768395","wem/bandit_single","A115UFR6VA6OM1","pain","8","","72","H","0","img/none_selected.jpg","0","1","0","","0.3567340825","false","295","","0.3567340825","main_expt","","0.1266024918","","0.2160621863","","0.07441347029","","","","","",""
"368","","bandit","371","913191","0.0-333.0-0.0","55768395","wem/bandit_single","A115UFR6VA6OM1","pain","8","","72","H","0","img/none_selected.jpg","0","0","1","","0.3802278382","false","296","","0.3802278382","main_expt","","0.1499702932","","0.1924669582","","0.08167080543","","","","","",""
"594","","bandit","372","915571","0.0-334.0-0.0","55768395","wem/bandit_single","A115UFR6VA6OM1","pain","8","","72","H","0","img/none_selected.jpg","0","0","1","","0.3764104085","false","297","","0.3764104085","main_expt","","0.1124444021","","0.2572135825","","0.06721412472","","","","","",""
