"rt","responses","trial_type","trial_index","time_elapsed","internal_node_id","subjID","study","MID","cond","drift","key_press","respCharCode","respKey","respChoiceNum","respChoice","gems","bombs","no_reward","GemPrChosen","BombPrChosen","practice","trial_counter","WinPr_0","LosePr_0","trial_label","WinPr_1","LosePr_1","WinPr_2","LosePr_2","WinPr_3","LosePr_3","Q0","Q1","Q2","gender","age","ethnicity"
"39565","{""Q0"":""A18G2CLYSTENK""}","survey-text","0","39565","0.0-0.0","55945880","wem/bandit_single","A18G2CLYSTENK","pain","6","","","","","","","","","","","","","","","","","","","","","","","","","","",""
"1937","","text","1","42522","0.0-1.0","55945880","wem/bandit_single","A18G2CLYSTENK","pain","6","32","","","","","","","","","","","","","","","","","","","","","","","","","",""
"5644","","text","2","48176","0.0-2.0","55945880","wem/bandit_single","A18G2CLYSTENK","pain","6","32","","","","","","","","","","","","","","","","","","","","","","","","","",""
"23010","","text","3","71186","0.0-3.0","55945880","wem/bandit_single","A18G2CLYSTENK","pain","6","32","","","","","","","","","","","","","","","","","","","","","","","","","",""
"18477","","text","4","89663","0.0-4.0","55945880","wem/bandit_single","A18G2CLYSTENK","pain","6","32","","","","","","","","","","","","","","","","","","","","","","","","","",""
"5737","","text","5","95400","0.0-5.0","55945880","wem/bandit_single","A18G2CLYSTENK","pain","6","32","","","","","","","","","","","","","","","","","","","","","","","","","",""
"17244","","text","6","112644","0.0-6.0","55945880","wem/bandit_single","A18G2CLYSTENK","pain","6","32","","","","","","","","","","","","","","","","","","","","","","","","","",""
"1886","","text","7","114530","0.0-7.0","55945880","wem/bandit_single","A18G2CLYSTENK","pain","6","32","","","","","","","","","","","","","","","","","","","","","","","","","",""
"1504","","text","8","116034","0.0-8.0","55945880","wem/bandit_single","A18G2CLYSTENK","pain","6","32","","","","","","","","","","","","","","","","","","","","","","","","","",""
"1999","","text","9","118043","0.0-9.0","55945880","wem/bandit_single","A18G2CLYSTENK","pain","6","32","","","","","","","","","","","","","","","","","","","","","","","","","",""
"4878","","text","10","122921","0.0-10.0","55945880","wem/bandit_single","A18G2CLYSTENK","pain","6","32","","","","","","","","","","","","","","","","","","","","","","","","","",""
"1963","","text","11","124884","0.0-11.0","55945880","wem/bandit_single","A18G2CLYSTENK","pain","6","32","","","","","","","","","","","","","","","","","","","","","","","","","",""
"1315","","bandit","12","127731","0.0-12.0-0.0","55945880","wem/bandit_single","A18G2CLYSTENK","pain","6","","74","J","0","img/none_selected_demo.jpg","0","0","1","0","0","true","0","0","0","","","","","","","","","","","","",""
"1733","","bandit","13","131233","0.0-13.0-0.0","55945880","wem/bandit_single","A18G2CLYSTENK","pain","6","","75","K","0","img/none_selected_demo.jpg","0","0","1","0","0","true","0","0","0","","","","","","","","","","","","",""
"3596","","text","14","135089","0.0-14.0","55945880","wem/bandit_single","A18G2CLYSTENK","pain","6","32","","","","","","","","","","","","","","","","","","","","","","","","","",""
"1224","","text","15","136313","0.0-15.0","55945880","wem/bandit_single","A18G2CLYSTENK","pain","6","32","","","","","","","","","","","","","","","","","","","","","","","","","",""
"2286","","text","16","138599","0.0-16.0","55945880","wem/bandit_single","A18G2CLYSTENK","pain","6","32","","","","","","","","","","","","","","","","","","","","","","","","","",""
"3840","","text","17","142439","0.0-17.0","55945880","wem/bandit_single","A18G2CLYSTENK","pain","6","32","","","","","","","","","","","","","","","","","","","","","","","","","",""
"1316","","bandit","18","145276","0.0-18.0-0.0","55945880","wem/bandit_single","A18G2CLYSTENK","pain","6","","74","J","0","img/none_selected_demo.jpg","0","1","0","0","0.8","true","0","0","0.8","80_20_practice","0","0.2","","","","","","","","","",""
"1460","","bandit","19","148510","0.0-18.0-1.0","55945880","wem/bandit_single","A18G2CLYSTENK","pain","6","","74","J","0","img/none_selected_demo.jpg","0","1","0","0","0.8","true","0","0","0.8","80_20_practice","0","0.2","","","","","","","","","",""
"370","","bandit","20","150650","0.0-18.0-2.0","55945880","wem/bandit_single","A18G2CLYSTENK","pain","6","","74","J","0","img/none_selected_demo.jpg","0","1","0","0","0.8","true","0","0","0.8","80_20_practice","0","0.2","","","","","","","","","",""
"796","","bandit","21","153218","0.0-18.0-3.0","55945880","wem/bandit_single","A18G2CLYSTENK","pain","6","","74","J","0","img/none_selected_demo.jpg","0","1","0","0","0.8","true","0","0","0.8","80_20_practice","0","0.2","","","","","","","","","",""
"10","","bandit","22","155000","0.0-18.0-4.0","55945880","wem/bandit_single","A18G2CLYSTENK","pain","6","","75","K","1","","0","0","1","0","0.2","true","0","0","0.8","80_20_practice","0","0.2","","","","","","","","","",""
"366","","bandit","23","157143","0.0-18.0-5.0","55945880","wem/bandit_single","A18G2CLYSTENK","pain","6","","74","J","0","img/none_selected_demo.jpg","0","0","1","0","0.8","true","0","0","0.8","80_20_practice","0","0.2","","","","","","","","","",""
"230","","bandit","24","159143","0.0-18.0-6.0","55945880","wem/bandit_single","A18G2CLYSTENK","pain","6","","74","J","0","img/none_selected_demo.jpg","0","1","0","0","0.8","true","0","0","0.8","80_20_practice","0","0.2","","","","","","","","","",""
"280","","bandit","25","161193","0.0-18.0-7.0","55945880","wem/bandit_single","A18G2CLYSTENK","pain","6","","74","J","0","img/none_selected_demo.jpg","0","1","0","0","0.8","true","0","0","0.8","80_20_practice","0","0.2","","","","","","","","","",""
"280","","bandit","26","163243","0.0-18.0-8.0","55945880","wem/bandit_single","A18G2CLYSTENK","pain","6","","74","J","0","img/none_selected_demo.jpg","0","1","0","0","0.8","true","0","0","0.8","80_20_practice","0","0.2","","","","","","","","","",""
"220","","bandit","27","165233","0.0-18.0-9.0","55945880","wem/bandit_single","A18G2CLYSTENK","pain","6","","75","K","1","","0","0","1","0","0.2","true","0","0","0.8","80_20_practice","0","0.2","","","","","","","","","",""
"37","","bandit","28","167045","0.0-18.0-10.0","55945880","wem/bandit_single","A18G2CLYSTENK","pain","6","","74","J","0","img/none_selected_demo.jpg","0","1","0","0","0.8","true","0","0","0.8","80_20_practice","0","0.2","","","","","","","","","",""
"100","","bandit","29","168921","0.0-18.0-11.0","55945880","wem/bandit_single","A18G2CLYSTENK","pain","6","","74","J","0","img/none_selected_demo.jpg","0","1","0","0","0.8","true","0","0","0.8","80_20_practice","0","0.2","","","","","","","","","",""
"87","","bandit","30","170778","0.0-18.0-12.0","55945880","wem/bandit_single","A18G2CLYSTENK","pain","6","","74","J","0","img/none_selected_demo.jpg","0","1","0","0","0.8","true","0","0","0.8","80_20_practice","0","0.2","","","","","","","","","",""
"172","","bandit","31","172727","0.0-18.0-13.0","55945880","wem/bandit_single","A18G2CLYSTENK","pain","6","","74","J","0","img/none_selected_demo.jpg","0","1","0","0","0.8","true","0","0","0.8","80_20_practice","0","0.2","","","","","","","","","",""
"210","","bandit","32","174711","0.0-18.0-14.0","55945880","wem/bandit_single","A18G2CLYSTENK","pain","6","","74","J","0","img/none_selected_demo.jpg","0","1","0","0","0.8","true","0","0","0.8","80_20_practice","0","0.2","","","","","","","","","",""
"340","","bandit","33","176813","0.0-18.0-15.0","55945880","wem/bandit_single","A18G2CLYSTENK","pain","6","","74","J","0","img/none_selected_demo.jpg","0","1","0","0","0.8","true","0","0","0.8","80_20_practice","0","0.2","","","","","","","","","",""
"230","","bandit","34","178810","0.0-18.0-16.0","55945880","wem/bandit_single","A18G2CLYSTENK","pain","6","","75","K","1","","0","0","1","0","0.2","true","0","0","0.8","80_20_practice","0","0.2","","","","","","","","","",""
"0","","bandit","35","180593","0.0-18.0-17.0","55945880","wem/bandit_single","A18G2CLYSTENK","pain","6","","74","J","0","img/none_selected_demo.jpg","0","1","0","0","0.8","true","0","0","0.8","80_20_practice","0","0.2","","","","","","","","","",""
"152","","bandit","36","182523","0.0-18.0-18.0","55945880","wem/bandit_single","A18G2CLYSTENK","pain","6","","74","J","0","img/none_selected_demo.jpg","0","1","0","0","0.8","true","0","0","0.8","80_20_practice","0","0.2","","","","","","","","","",""
"102","","bandit","37","184392","0.0-18.0-19.0","55945880","wem/bandit_single","A18G2CLYSTENK","pain","6","","74","J","0","img/none_selected_demo.jpg","0","1","0","0","0.8","true","0","0","0.8","80_20_practice","0","0.2","","","","","","","","","",""
"6760","","text","38","191410","0.0-19.0","55945880","wem/bandit_single","A18G2CLYSTENK","pain","6","32","","","","","","","","","","","","","","","","","","","","","","","","","",""
"1120","","bandit","39","194061","0.0-20.0-0.0","55945880","wem/bandit_single","A18G2CLYSTENK","pain","6","","74","J","0","img/none_selected_demo.jpg","0","0","1","0","0","true","0","0","0","","0","0","","","","","","","","","",""
"7816","","text","40","202132","0.0-21.0","55945880","wem/bandit_single","A18G2CLYSTENK","pain","6","32","","","","","","","","","","","","","","","","","","","","","","","","","",""
"3046","","text","41","205178","0.0-22.0","55945880","wem/bandit_single","A18G2CLYSTENK","pain","6","32","","","","","","","","","","","","","","","","","","","","","","","","","",""
"2465","","text","42","207643","0.0-23.0","55945880","wem/bandit_single","A18G2CLYSTENK","pain","6","32","","","","","","","","","","","","","","","","","","","","","","","","","",""
"1870","","text","43","209513","0.0-24.0","55945880","wem/bandit_single","A18G2CLYSTENK","pain","6","32","","","","","","","","","","","","","","","","","","","","","","","","","",""
"10785","","text","44","220298","0.0-25.0","55945880","wem/bandit_single","A18G2CLYSTENK","pain","6","32","","","","","","","","","","","","","","","","","","","","","","","","","",""
"1972","","text","45","222270","0.0-26.0","55945880","wem/bandit_single","A18G2CLYSTENK","pain","6","32","","","","","","","","","","","","","","","","","","","","","","","","","",""
"3517","","text","46","225787","0.0-27.0","55945880","wem/bandit_single","A18G2CLYSTENK","pain","6","32","","","","","","","","","","","","","","","","","","","","","","","","","",""
"5613","","text","47","231400","0.0-28.0","55945880","wem/bandit_single","A18G2CLYSTENK","pain","6","32","","","","","","","","","","","","","","","","","","","","","","","","","",""
"4206","","text","48","235606","0.0-29.0","55945880","wem/bandit_single","A18G2CLYSTENK","pain","6","32","","","","","","","","","","","","","","","","","","","","","","","","","",""
"1136","","text","49","236742","0.0-30.0","55945880","wem/bandit_single","A18G2CLYSTENK","pain","6","32","","","","","","","","","","","","","","","","","","","","","","","","","",""
"4347","","text","50","241089","0.0-31.0","55945880","wem/bandit_single","A18G2CLYSTENK","pain","6","32","","","","","","","","","","","","","","","","","","","","","","","","","",""
"705","","bandit","51","243311","0.0-32.0-0.0","55945880","wem/bandit_single","A18G2CLYSTENK","pain","6","","72","H","0","img/none_selected.jpg","0","1","0","0","0.8","true","0","0","0.8","full_practice","0","0.2","0","0.6","0","0.2","","","","","",""
"46","","bandit","52","245128","0.0-32.0-1.0","55945880","wem/bandit_single","A18G2CLYSTENK","pain","6","","74","J","1","","0","0","1","0","0.2","true","0","0","0.8","full_practice","0","0.2","0","0.6","0","0.2","","","","","",""
"0","","bandit","53","246901","0.0-32.0-2.0","55945880","wem/bandit_single","A18G2CLYSTENK","pain","6","","72","H","0","img/none_selected.jpg","0","1","0","0","0.8","true","0","0","0.8","full_practice","0","0.2","0","0.6","0","0.2","","","","","",""
"10","","bandit","54","248678","0.0-32.0-3.0","55945880","wem/bandit_single","A18G2CLYSTENK","pain","6","","72","H","0","img/none_selected.jpg","0","1","0","0","0.8","true","0","0","0.8","full_practice","0","0.2","0","0.6","0","0.2","","","","","",""
"920","","bandit","55","251368","0.0-32.0-4.0","55945880","wem/bandit_single","A18G2CLYSTENK","pain","6","","72","H","0","img/none_selected.jpg","0","1","0","0","0.8","true","0","0","0.8","full_practice","0","0.2","0","0.6","0","0.2","","","","","",""
"536","","bandit","56","253668","0.0-32.0-5.0","55945880","wem/bandit_single","A18G2CLYSTENK","pain","6","","72","H","0","img/none_selected.jpg","0","1","0","0","0.8","true","0","0","0.8","full_practice","0","0.2","0","0.6","0","0.2","","","","","",""
"267","","bandit","57","255696","0.0-32.0-6.0","55945880","wem/bandit_single","A18G2CLYSTENK","pain","6","","72","H","0","img/none_selected.jpg","0","1","0","0","0.8","true","0","0","0.8","full_practice","0","0.2","0","0.6","0","0.2","","","","","",""
"140","","bandit","58","257601","0.0-32.0-7.0","55945880","wem/bandit_single","A18G2CLYSTENK","pain","6","","72","H","0","img/none_selected.jpg","0","1","0","0","0.8","true","0","0","0.8","full_practice","0","0.2","0","0.6","0","0.2","","","","","",""
"67","","bandit","59","259451","0.0-32.0-8.0","55945880","wem/bandit_single","A18G2CLYSTENK","pain","6","","72","H","0","img/none_selected.jpg","0","1","0","0","0.8","true","0","0","0.8","full_practice","0","0.2","0","0.6","0","0.2","","","","","",""
"28","","bandit","60","261250","0.0-32.0-9.0","55945880","wem/bandit_single","A18G2CLYSTENK","pain","6","","72","H","0","img/none_selected.jpg","0","0","1","0","0.8","true","0","0","0.8","full_practice","0","0.2","0","0.6","0","0.2","","","","","",""
"456","","bandit","61","263477","0.0-32.0-10.0","55945880","wem/bandit_single","A18G2CLYSTENK","pain","6","","75","K","2","","0","1","0","0","0.6","true","0","0","0.8","full_practice","0","0.2","0","0.6","0","0.2","","","","","",""
"129","","bandit","62","265384","0.0-32.0-11.0","55945880","wem/bandit_single","A18G2CLYSTENK","pain","6","","75","K","2","","0","0","1","0","0.6","true","0","0","0.8","full_practice","0","0.2","0","0.6","0","0.2","","","","","",""
"58","","bandit","63","267216","0.0-32.0-12.0","55945880","wem/bandit_single","A18G2CLYSTENK","pain","6","","76","L","3","","0","0","1","0","0.2","true","0","0","0.8","full_practice","0","0.2","0","0.6","0","0.2","","","","","",""
"77","","bandit","64","269067","0.0-32.0-13.0","55945880","wem/bandit_single","A18G2CLYSTENK","pain","6","","74","J","1","","0","0","1","0","0.2","true","0","0","0.8","full_practice","0","0.2","0","0.6","0","0.2","","","","","",""
"204","","bandit","65","271044","0.0-32.0-14.0","55945880","wem/bandit_single","A18G2CLYSTENK","pain","6","","75","K","2","","0","0","1","0","0.6","true","0","0","0.8","full_practice","0","0.2","0","0.6","0","0.2","","","","","",""
"70","","bandit","66","272885","0.0-32.0-15.0","55945880","wem/bandit_single","A18G2CLYSTENK","pain","6","","76","L","3","","0","0","1","0","0.2","true","0","0","0.8","full_practice","0","0.2","0","0.6","0","0.2","","","","","",""
"29","","bandit","67","274683","0.0-32.0-16.0","55945880","wem/bandit_single","A18G2CLYSTENK","pain","6","","72","H","0","img/none_selected.jpg","0","1","0","0","0.8","true","0","0","0.8","full_practice","0","0.2","0","0.6","0","0.2","","","","","",""
"70","","bandit","68","276527","0.0-32.0-17.0","55945880","wem/bandit_single","A18G2CLYSTENK","pain","6","","72","H","0","img/none_selected.jpg","0","1","0","0","0.8","true","0","0","0.8","full_practice","0","0.2","0","0.6","0","0.2","","","","","",""
"38","","bandit","69","278333","0.0-32.0-18.0","55945880","wem/bandit_single","A18G2CLYSTENK","pain","6","","72","H","0","img/none_selected.jpg","0","1","0","0","0.8","true","0","0","0.8","full_practice","0","0.2","0","0.6","0","0.2","","","","","",""
"63","","bandit","70","280167","0.0-32.0-19.0","55945880","wem/bandit_single","A18G2CLYSTENK","pain","6","","72","H","0","img/none_selected.jpg","0","1","0","0","0.8","true","0","0","0.8","full_practice","0","0.2","0","0.6","0","0.2","","","","","",""
"2838","","text","71","283265","0.0-33.0","55945880","wem/bandit_single","A18G2CLYSTENK","pain","6","32","","","","","","","","","","","","","","","","","","","","","","","","","",""
"12448","","text","72","296725","0.0-34.0","55945880","wem/bandit_single","A18G2CLYSTENK","pain","6","32","","","","","","","","","","","","","","","","","","","","","","","","","",""
"3678","","text","73","300403","0.0-35.0","55945880","wem/bandit_single","A18G2CLYSTENK","pain","6","32","","","","","","","","","","","","","","","","","","","","","","","","","",""
"5538","","text","74","305951","0.0-36.0","55945880","wem/bandit_single","A18G2CLYSTENK","pain","6","32","","","","","","","","","","","","","","","","","","","","","","","","","",""
"8989","","text","75","314950","0.0-37.0","55945880","wem/bandit_single","A18G2CLYSTENK","pain","6","32","","","","","","","","","","","","","","","","","","","","","","","","","",""
"794","","bandit","76","317266","0.0-38.0-0.0","55945880","wem/bandit_single","A18G2CLYSTENK","pain","6","","72","H","0","img/none_selected.jpg","0","0","1","","0.1142009487","false","1","","0.1142009487","main_expt","","0.3785571591","","0.1623639982","","0.1940838181","","","","","",""
"64","","bandit","77","319101","0.0-39.0-0.0","55945880","wem/bandit_single","A18G2CLYSTENK","pain","6","","75","K","2","","0","0","1","","0.1864124343","false","2","","0.09165924831","main_expt","","0.3894156921","","0.1864124343","","0.2410489397","","","","","",""
"47","","bandit","78","320928","0.0-40.0-0.0","55945880","wem/bandit_single","A18G2CLYSTENK","pain","6","","74","J","1","","0","1","0","","0.4125386255","false","3","","0.1174954382","main_expt","","0.4125386255","","0.1494323563","","0.2645422736","","","","","",""
"550","","bandit","79","323250","0.0-41.0-0.0","55945880","wem/bandit_single","A18G2CLYSTENK","pain","6","","74","J","1","","0","1","0","","0.3990363537","false","4","","0.1426329369","main_expt","","0.3990363537","","0.1266436655","","0.1984909652","","","","","",""
"276","","bandit","80","325296","0.0-42.0-0.0","55945880","wem/bandit_single","A18G2CLYSTENK","pain","6","","74","J","1","","0","0","1","","0.454435597","false","5","","0.1503595054","main_expt","","0.454435597","","0.1476492511","","0.1239860826","","","","","",""
"80","","bandit","81","327144","0.0-43.0-0.0","55945880","wem/bandit_single","A18G2CLYSTENK","pain","6","","76","L","3","","0","0","1","","0.06805906468","false","6","","0.1646450236","main_expt","","0.4583077461","","0.1525625276","","0.06805906468","","","","","",""
"61","","bandit","82","328968","0.0-44.0-0.0","55945880","wem/bandit_single","A18G2CLYSTENK","pain","6","","72","H","0","img/none_selected.jpg","0","0","1","","0.2031930874","false","7","","0.2031930874","main_expt","","0.4617786505","","0.1856713893","","0.05890971721","","","","","",""
"20","","bandit","83","330752","0.0-45.0-0.0","55945880","wem/bandit_single","A18G2CLYSTENK","pain","6","","74","J","1","","0","0","1","","0.475168559","false","8","","0.181996894","main_expt","","0.475168559","","0.2108076934","","0.0832196585","","","","","",""
"77","","bandit","84","332602","0.0-46.0-0.0","55945880","wem/bandit_single","A18G2CLYSTENK","pain","6","","75","K","2","","0","0","1","","0.1956497028","false","9","","0.1673845292","main_expt","","0.458325554","","0.1956497028","","0.1325638406","","","","","",""
"466","","bandit","85","334851","0.0-47.0-0.0","55945880","wem/bandit_single","A18G2CLYSTENK","pain","6","","74","J","1","","0","0","1","","0.4316924572","false","10","","0.2328473308","main_expt","","0.4316924572","","0.1582923175","","0.1196898321","","","","","",""
"23","","bandit","86","336638","0.0-48.0-0.0","55945880","wem/bandit_single","A18G2CLYSTENK","pain","6","","76","L","3","","0","1","0","","0.1103103944","false","11","","0.20589494","main_expt","","0.3756511011","","0.167734997","","0.1103103944","","","","","",""
"97","","bandit","87","338509","0.0-49.0-0.0","55945880","wem/bandit_single","A18G2CLYSTENK","pain","6","","76","L","3","","0","0","1","","0.06819125589","false","12","","0.2246944015","main_expt","","0.3549088727","","0.2150601968","","0.06819125589","","","","","",""
"240","","bandit","88","340520","0.0-50.0-0.0","55945880","wem/bandit_single","A18G2CLYSTENK","pain","6","","72","H","0","img/none_selected.jpg","0","1","0","","0.2613447163","false","13","","0.2613447163","main_expt","","0.3455803359","","0.252216208","","0.07076675629","","","","","",""
"104","","bandit","89","342402","0.0-51.0-0.0","55945880","wem/bandit_single","A18G2CLYSTENK","pain","6","","72","H","0","img/none_selected.jpg","0","0","1","","0.212655478","false","14","","0.212655478","main_expt","","0.3809937316","","0.2184022087","","0.09241451512","","","","","",""
"500","","bandit","90","344667","0.0-52.0-0.0","55945880","wem/bandit_single","A18G2CLYSTENK","pain","6","","76","L","3","","0","0","1","","0.07205700739","false","15","","0.1679070286","main_expt","","0.3479508526","","0.210005203","","0.07205700739","","","","","",""
"31","","bandit","91","346462","0.0-53.0-0.0","55945880","wem/bandit_single","A18G2CLYSTENK","pain","6","","74","J","1","","0","0","1","","0.3287514515","false","16","","0.1774383452","main_expt","","0.3287514515","","0.2402495983","","0.04760190598","","","","","",""
"62","","bandit","92","348301","0.0-54.0-0.0","55945880","wem/bandit_single","A18G2CLYSTENK","pain","6","","75","K","2","","0","0","1","","0.2766196603","false","17","","0.1562672395","main_expt","","0.4008698656","","0.2766196603","","0.03958098904","","","","","",""
"187","","bandit","93","350261","0.0-55.0-0.0","55945880","wem/bandit_single","A18G2CLYSTENK","pain","6","","72","H","0","img/none_selected.jpg","0","0","1","","0.1407597156","false","18","","0.1407597156","main_expt","","0.3845126264","","0.3193638145","","0.03128671198","","","","","",""
"270","","bandit","94","352311","0.0-56.0-0.0","55945880","wem/bandit_single","A18G2CLYSTENK","pain","6","","74","J","1","","0","0","1","","0.3979941068","false","19","","0.1310890834","main_expt","","0.3979941068","","0.2953318626","","0.04453616628","","","","","",""
"49","","bandit","95","354120","0.0-57.0-0.0","55945880","wem/bandit_single","A18G2CLYSTENK","pain","6","","76","L","3","","0","0","1","","0.04596917346","false","20","","0.1317163977","main_expt","","0.3920029867","","0.3007143328","","0.04596917346","","","","","",""
"23","","bandit","96","355911","0.0-58.0-0.0","55945880","wem/bandit_single","A18G2CLYSTENK","pain","6","","75","K","2","","0","0","1","","0.3105995928","false","21","","0.1752537558","main_expt","","0.4057752261","","0.3105995928","","0.04297504417","","","","","",""
"25","","bandit","97","357701","0.0-59.0-0.0","55945880","wem/bandit_single","A18G2CLYSTENK","pain","6","","72","H","0","img/none_selected.jpg","0","1","0","","0.2064983175","false","22","","0.2064983175","main_expt","","0.4072420822","","0.3742057862","","0.04739698515","","","","","",""
"77","","bandit","98","359551","0.0-60.0-0.0","55945880","wem/bandit_single","A18G2CLYSTENK","pain","6","","72","H","0","img/none_selected.jpg","0","0","1","","0.216691321","false","23","","0.216691321","main_expt","","0.3798298113","","0.3439758112","","0.08003173613","","","","","",""
"156","","bandit","99","361485","0.0-61.0-0.0","55945880","wem/bandit_single","A18G2CLYSTENK","pain","6","","72","H","0","img/none_selected.jpg","0","0","1","","0.2342773894","false","24","","0.2342773894","main_expt","","0.3329856024","","0.3549138733","","0.09868307827","","","","","",""
"257","","bandit","100","363528","0.0-62.0-0.0","55945880","wem/bandit_single","A18G2CLYSTENK","pain","6","","75","K","2","","0","0","1","","0.3811330683","false","25","","0.2378870173","main_expt","","0.3337381726","","0.3811330683","","0.07950464875","","","","","",""
"100","","bandit","101","365403","0.0-63.0-0.0","55945880","wem/bandit_single","A18G2CLYSTENK","pain","6","","74","J","1","","0","0","1","","0.3650510818","false","26","","0.2555438901","main_expt","","0.3650510818","","0.3131907418","","0.09697268327","","","","","",""
"0","","bandit","102","367182","0.0-64.0-0.0","55945880","wem/bandit_single","A18G2CLYSTENK","pain","6","","76","L","3","","0","1","0","","0.09831328215","false","27","","0.2487754609","main_expt","","0.3930286133","","0.3210571327","","0.09831328215","","","","","",""
"52","","bandit","103","369002","0.0-65.0-0.0","55945880","wem/bandit_single","A18G2CLYSTENK","pain","6","","76","L","3","","0","0","1","","0.08798585883","false","28","","0.2023297646","main_expt","","0.3849328395","","0.3350138966","","0.08798585883","","","","","",""
"0","","bandit","104","370778","0.0-66.0-0.0","55945880","wem/bandit_single","A18G2CLYSTENK","pain","6","","72","H","0","img/none_selected.jpg","0","0","1","","0.1824385616","false","29","","0.1824385616","main_expt","","0.3635333449","","0.3491704597","","0.1001400419","","","","","",""
"52","","bandit","105","372601","0.0-67.0-0.0","55945880","wem/bandit_single","A18G2CLYSTENK","pain","6","","76","L","3","","0","0","1","","0.100360092","false","30","","0.2108935763","main_expt","","0.3870800473","","0.3515390533","","0.100360092","","","","","",""
"143","","bandit","106","374518","0.0-68.0-0.0","55945880","wem/bandit_single","A18G2CLYSTENK","pain","6","","72","H","0","img/none_selected.jpg","0","0","1","","0.2212072473","false","31","","0.2212072473","main_expt","","0.407818568","","0.3116189274","","0.1235489826","","","","","",""
"51","","bandit","107","376345","0.0-69.0-0.0","55945880","wem/bandit_single","A18G2CLYSTENK","pain","6","","74","J","1","","0","0","1","","0.4365503818","false","32","","0.2349080289","main_expt","","0.4365503818","","0.2923613921","","0.0999088058","","","","","",""
"31","","bandit","108","378139","0.0-70.0-0.0","55945880","wem/bandit_single","A18G2CLYSTENK","pain","6","","75","K","2","","0","0","1","","0.2833872006","false","33","","0.2233211346","main_expt","","0.438397095","","0.2833872006","","0.1229353218","","","","","",""
"470","","bandit","109","380378","0.0-71.0-0.0","55945880","wem/bandit_single","A18G2CLYSTENK","pain","6","","74","J","1","","0","0","1","","0.4225996483","false","34","","0.2328620384","main_expt","","0.4225996483","","0.251012165","","0.1174339591","","","","","",""
"111","","bandit","110","382262","0.0-72.0-0.0","55945880","wem/bandit_single","A18G2CLYSTENK","pain","6","","75","K","2","","0","1","0","","0.2150204629","false","35","","0.2442853791","main_expt","","0.3719427837","","0.2150204629","","0.08922948311","","","","","",""
"470","","bandit","111","384502","0.0-73.0-0.0","55945880","wem/bandit_single","A18G2CLYSTENK","pain","6","","75","K","2","","0","0","1","","0.2003821391","false","36","","0.2536962779","main_expt","","0.3643608465","","0.2003821391","","0.1065429935","","","","","",""
"116","","bandit","112","386395","0.0-74.0-0.0","55945880","wem/bandit_single","A18G2CLYSTENK","pain","6","","72","H","0","img/none_selected.jpg","0","0","1","","0.1968410568","false","37","","0.1968410568","main_expt","","0.3951734682","","0.1584744983","","0.119331244","","","","","",""
"53","","bandit","113","388218","0.0-75.0-0.0","55945880","wem/bandit_single","A18G2CLYSTENK","pain","6","","76","L","3","","0","1","0","","0.1140529394","false","38","","0.1903576104","main_expt","","0.4106313244","","0.1107345946","","0.1140529394","","","","","",""
"467","","bandit","114","390462","0.0-76.0-0.0","55945880","wem/bandit_single","A18G2CLYSTENK","pain","6","","76","L","3","","0","0","1","","0.1377706652","false","39","","0.2094560733","main_expt","","0.385877281","","0.1922112034","","0.1377706652","","","","","",""
"28","","bandit","115","392252","0.0-77.0-0.0","55945880","wem/bandit_single","A18G2CLYSTENK","pain","6","","72","H","0","img/none_selected.jpg","0","0","1","","0.2157952434","false","40","","0.2157952434","main_expt","","0.3814638094","","0.202991566","","0.1686011578","","","","","",""
"106","","bandit","116","394135","0.0-78.0-0.0","55945880","wem/bandit_single","A18G2CLYSTENK","pain","6","","75","K","2","","0","0","1","","0.257249123","false","41","","0.1982376225","main_expt","","0.3569976603","","0.257249123","","0.1640814413","","","","","",""
"319","","bandit","117","396234","0.0-79.0-0.0","55945880","wem/bandit_single","A18G2CLYSTENK","pain","6","","74","J","1","","0","0","1","","0.3254656301","false","42","","0.1815133425","main_expt","","0.3254656301","","0.3139605103","","0.1444461896","","","","","",""
"417","","bandit","118","398423","0.0-80.0-0.0","55945880","wem/bandit_single","A18G2CLYSTENK","pain","6","","72","H","0","img/none_selected.jpg","0","0","1","","0.1804658283","false","43","","0.1804658283","main_expt","","0.3061667188","","0.2859416922","","0.1466097136","","","","","",""
"284","","bandit","119","400478","0.0-81.0-0.0","55945880","wem/bandit_single","A18G2CLYSTENK","pain","6","","76","L","3","","0","0","1","","0.1701376127","false","44","","0.1453808853","main_expt","","0.3247162798","","0.2344477797","","0.1701376127","","","","","",""
"200","","bandit","120","402452","0.0-82.0-0.0","55945880","wem/bandit_single","A18G2CLYSTENK","pain","6","","74","J","1","","0","0","1","","0.3464274235","false","45","","0.1975985391","main_expt","","0.3464274235","","0.25278305","","0.2382164817","","","","","",""
"58","","bandit","121","404278","0.0-83.0-0.0","55945880","wem/bandit_single","A18G2CLYSTENK","pain","6","","75","K","2","","0","0","1","","0.2447001663","false","46","","0.2099331931","main_expt","","0.2853596265","","0.2447001663","","0.2817064876","","","","","",""
"120","","bandit","122","406162","0.0-84.0-0.0","55945880","wem/bandit_single","A18G2CLYSTENK","pain","6","","72","H","0","img/none_selected.jpg","0","1","0","","0.2373708448","false","47","","0.2373708448","main_expt","","0.2781892211","","0.2439886488","","0.3449614965","","","","","",""
"320","","bandit","123","408253","0.0-85.0-0.0","55945880","wem/bandit_single","A18G2CLYSTENK","pain","6","","72","H","0","img/none_selected.jpg","0","0","1","","0.2929879582","false","48","","0.2929879582","main_expt","","0.2802769371","","0.3453423138","","0.2846403666","","","","","",""
"34","","bandit","124","410054","0.0-86.0-0.0","55945880","wem/bandit_single","A18G2CLYSTENK","pain","6","","76","L","3","","0","0","1","","0.3292227521","false","49","","0.2643709298","main_expt","","0.3162769287","","0.3208634608","","0.3292227521","","","","","",""
"176","","bandit","125","412006","0.0-87.0-0.0","55945880","wem/bandit_single","A18G2CLYSTENK","pain","6","","74","J","1","","0","0","1","","0.2524095143","false","50","","0.2666646559","main_expt","","0.2524095143","","0.2600740437","","0.270904054","","","","","",""
"256","","bandit","126","414033","0.0-88.0-0.0","55945880","wem/bandit_single","A18G2CLYSTENK","pain","6","","75","K","2","","0","0","1","","0.2451527442","false","51","","0.2550538978","main_expt","","0.2630113652","","0.2451527442","","0.2503066232","","","","","",""
"59","","bandit","127","415860","0.0-89.0-0.0","55945880","wem/bandit_single","A18G2CLYSTENK","pain","6","","72","H","0","img/none_selected.jpg","0","1","0","","0.3235330097","false","52","","0.3235330097","main_expt","","0.2707742251","","0.1882651979","","0.2405173112","","","","","",""
"146","","bandit","128","417779","0.0-90.0-0.0","55945880","wem/bandit_single","A18G2CLYSTENK","pain","6","","72","H","0","img/none_selected.jpg","0","0","1","","0.347433539","false","53","","0.347433539","main_expt","","0.2150274285","","0.1930778153","","0.2966352861","","","","","",""
"80","","bandit","129","419630","0.0-91.0-0.0","55945880","wem/bandit_single","A18G2CLYSTENK","pain","6","","76","L","3","","0","1","0","","0.2887198369","false","54","","0.3368202787","main_expt","","0.2326572497","","0.2216955806","","0.2887198369","","","","","",""
"100","","bandit","130","421503","0.0-92.0-0.0","55945880","wem/bandit_single","A18G2CLYSTENK","pain","6","","76","L","3","","0","0","1","","0.2801160178","false","55","","0.3503124627","main_expt","","0.2134399586","","0.2422165651","","0.2801160178","","","","","",""
"48","","bandit","131","423319","0.0-93.0-0.0","55945880","wem/bandit_single","A18G2CLYSTENK","pain","6","","72","H","0","img/none_selected.jpg","0","1","0","","0.368841946","false","56","","0.368841946","main_expt","","0.2394891912","","0.228979269","","0.3022415889","","","","","",""
"447","","bandit","132","425536","0.0-94.0-0.0","55945880","wem/bandit_single","A18G2CLYSTENK","pain","6","","72","H","0","img/none_selected.jpg","0","0","1","","0.3883837061","false","57","","0.3883837061","main_expt","","0.2942469327","","0.243325051","","0.3300995428","","","","","",""
"0","","bandit","133","427320","0.0-95.0-0.0","55945880","wem/bandit_single","A18G2CLYSTENK","pain","6","","76","L","3","","0","0","1","","0.3393984951","false","58","","0.4116863428","main_expt","","0.369295693","","0.2326991071","","0.3393984951","","","","","",""
"107","","bandit","134","429204","0.0-96.0-0.0","55945880","wem/bandit_single","A18G2CLYSTENK","pain","6","","74","J","1","","0","1","0","","0.3663837161","false","59","","0.3980375199","main_expt","","0.3663837161","","0.2480349675","","0.3592245678","","","","","",""
"536","","bandit","135","431512","0.0-97.0-0.0","55945880","wem/bandit_single","A18G2CLYSTENK","pain","6","","74","J","1","","0","0","1","","0.3578669063","false","60","","0.3849919156","main_expt","","0.3578669063","","0.2591134247","","0.3431938453","","","","","",""
"830","","bandit","136","434113","0.0-98.0-0.0","55945880","wem/bandit_single","A18G2CLYSTENK","pain","6","","72","H","0","img/none_selected.jpg","0","1","0","","0.3822359719","false","61","","0.3822359719","main_expt","","0.3901807011","","0.2828027123","","0.3622980041","","","","","",""
"308","","bandit","137","436203","0.0-99.0-0.0","55945880","wem/bandit_single","A18G2CLYSTENK","pain","6","","72","H","0","img/none_selected.jpg","0","0","1","","0.3356955782","false","62","","0.3356955782","main_expt","","0.4199484271","","0.2645717152","","0.3898917795","","","","","",""
"141","","bandit","138","438113","0.0-100.0-0.0","55945880","wem/bandit_single","A18G2CLYSTENK","pain","6","","76","L","3","","0","0","1","","0.3730814422","false","63","","0.2961333539","main_expt","","0.431710707","","0.3164731366","","0.3730814422","","","","","",""
"180","","bandit","139","440066","0.0-101.0-0.0","55945880","wem/bandit_single","A18G2CLYSTENK","pain","6","","74","J","1","","0","0","1","","0.4302834116","false","64","","0.3332154777","main_expt","","0.4302834116","","0.3549458842","","0.359514794","","","","","",""
"117","","bandit","140","441959","0.0-102.0-0.0","55945880","wem/bandit_single","A18G2CLYSTENK","pain","6","","75","K","2","","0","0","1","","0.288515421","false","65","","0.35785358","main_expt","","0.3985691748","","0.288515421","","0.3114607296","","","","","",""
"408","","bandit","141","444152","0.0-103.0-0.0","55945880","wem/bandit_single","A18G2CLYSTENK","pain","6","","72","H","0","img/none_selected.jpg","0","0","1","","0.406057841","false","66","","0.406057841","main_expt","","0.4041176093","","0.3011993237","","0.2942291023","","","","","",""
"216","","bandit","142","446147","0.0-104.0-0.0","55945880","wem/bandit_single","A18G2CLYSTENK","pain","6","","76","L","3","","0","1","0","","0.3320533568","false","67","","0.4196038874","main_expt","","0.4007812862","","0.345072876","","0.3320533568","","","","","",""
"160","","bandit","143","448069","0.0-105.0-0.0","55945880","wem/bandit_single","A18G2CLYSTENK","pain","6","","76","L","3","","0","0","1","","0.3600975808","false","68","","0.3890604874","main_expt","","0.4294162969","","0.3196529892","","0.3600975808","","","","","",""
"167","","bandit","144","450004","0.0-106.0-0.0","55945880","wem/bandit_single","A18G2CLYSTENK","pain","6","","72","H","0","img/none_selected.jpg","0","1","0","","0.4084138829","false","69","","0.4084138829","main_expt","","0.3767619451","","0.3649702463","","0.2872110667","","","","","",""
"86","","bandit","145","451856","0.0-107.0-0.0","55945880","wem/bandit_single","A18G2CLYSTENK","pain","6","","72","H","0","img/none_selected.jpg","0","0","1","","0.3468887804","false","70","","0.3468887804","main_expt","","0.3777248691","","0.356932825","","0.295141158","","","","","",""
"49","","bandit","146","453678","0.0-108.0-0.0","55945880","wem/bandit_single","A18G2CLYSTENK","pain","6","","75","K","2","","0","0","1","","0.3835678776","false","71","","0.341524862","main_expt","","0.3795242786","","0.3835678776","","0.3206647592","","","","","",""
"130","","bandit","147","455581","0.0-109.0-0.0","55945880","wem/bandit_single","A18G2CLYSTENK","pain","6","","74","J","1","","0","1","0","","0.3665841139","false","72","","0.3749246652","main_expt","","0.3665841139","","0.4212385026","","0.3264000429","","","","","",""
"137","","bandit","148","457501","0.0-110.0-0.0","55945880","wem/bandit_single","A18G2CLYSTENK","pain","6","","74","J","1","","0","0","1","","0.3651794524","false","73","","0.3871824506","main_expt","","0.3651794524","","0.4261424303","","0.333972891","","","","","",""
"66","","bandit","149","459343","0.0-111.0-0.0","55945880","wem/bandit_single","A18G2CLYSTENK","pain","6","","76","L","3","","0","0","1","","0.3616968722","false","74","","0.3721906724","main_expt","","0.3550305672","","0.3977974162","","0.3616968722","","","","","",""
"241","","bandit","150","461365","0.0-112.0-0.0","55945880","wem/bandit_single","A18G2CLYSTENK","pain","6","","72","H","0","img/none_selected.jpg","0","0","1","","0.3111946895","false","75","","0.3111946895","main_expt","","0.2927321298","","0.4267201321","","0.3975057441","","","","","",""
"325","","bandit","151","463469","0.0-113.0-0.0","55945880","wem/bandit_single","A18G2CLYSTENK","pain","6","","74","J","1","","0","0","1","","0.2842047713","false","76","","0.3336428477","main_expt","","0.2842047713","","0.4263250047","","0.3807363423","","","","","",""
"227","","bandit","152","465469","0.0-114.0-0.0","55945880","wem/bandit_single","A18G2CLYSTENK","pain","6","","75","K","2","","0","0","1","","0.4081139898","false","77","","0.2972108807","main_expt","","0.291961298","","0.4081139898","","0.394346207","","","","","",""
"177","","bandit","153","467419","0.0-115.0-0.0","55945880","wem/bandit_single","A18G2CLYSTENK","pain","6","","76","L","3","","0","0","1","","0.4130135997","false","78","","0.3500338334","main_expt","","0.2772504781","","0.4081745619","","0.4130135997","","","","","",""
"147","","bandit","154","469345","0.0-116.0-0.0","55945880","wem/bandit_single","A18G2CLYSTENK","pain","6","","72","H","0","img/none_selected.jpg","0","0","1","","0.3382579744","false","79","","0.3382579744","main_expt","","0.2910266255","","0.4210543479","","0.388257836","","","","","",""
"370","","bandit","155","471495","0.0-117.0-0.0","55945880","wem/bandit_single","A18G2CLYSTENK","pain","6","","75","K","2","","0","0","1","","0.4173400146","false","80","","0.2848378437","main_expt","","0.3236474027","","0.4173400146","","0.402189785","","","","","",""
"282","","bandit","156","473551","0.0-118.0-0.0","55945880","wem/bandit_single","A18G2CLYSTENK","pain","6","","74","J","1","","0","0","1","","0.3171491255","false","81","","0.2824957966","main_expt","","0.3171491255","","0.3876294662","","0.4188164015","","","","","",""
"174","","bandit","157","475501","0.0-119.0-0.0","55945880","wem/bandit_single","A18G2CLYSTENK","pain","6","","72","H","0","img/none_selected.jpg","0","0","1","","0.2921189703","false","82","","0.2921189703","main_expt","","0.3253049084","","0.3960397656","","0.3923487362","","","","","",""
"153","","bandit","158","477429","0.0-120.0-0.0","55945880","wem/bandit_single","A18G2CLYSTENK","pain","6","","76","L","3","","0","0","1","","0.3765831671","false","83","","0.346808059","main_expt","","0.2650825447","","0.4048972575","","0.3765831671","","","","","",""
"80","","bandit","159","479285","0.0-121.0-0.0","55945880","wem/bandit_single","A18G2CLYSTENK","pain","6","","72","H","0","img/none_selected.jpg","0","0","1","","0.3142369957","false","84","","0.3142369957","main_expt","","0.2860936523","","0.4261464595","","0.3744655151","","","","","",""
"147","","bandit","160","481219","0.0-122.0-0.0","55945880","wem/bandit_single","A18G2CLYSTENK","pain","6","","74","J","1","","0","0","1","","0.2965161573","false","85","","0.3336664699","main_expt","","0.2965161573","","0.4252889048","","0.4097897279","","","","","",""
"265","","bandit","161","483269","0.0-123.0-0.0","55945880","wem/bandit_single","A18G2CLYSTENK","pain","6","","75","K","2","","0","1","0","","0.4234238012","false","86","","0.3487181938","main_expt","","0.2718920201","","0.4234238012","","0.4365994201","","","","","",""
"97","","bandit","162","485141","0.0-124.0-0.0","55945880","wem/bandit_single","A18G2CLYSTENK","pain","6","","75","K","2","","0","0","1","","0.4493325849","false","87","","0.3595256023","main_expt","","0.2663647104","","0.4493325849","","0.4485753971","","","","","",""
"234","","bandit","163","487146","0.0-125.0-0.0","55945880","wem/bandit_single","A18G2CLYSTENK","pain","6","","72","H","0","img/none_selected.jpg","0","1","0","","0.3633435887","false","88","","0.3633435887","main_expt","","0.2505207396","","0.4618336953","","0.4682155013","","","","","",""
"233","","bandit","164","489152","0.0-126.0-0.0","55945880","wem/bandit_single","A18G2CLYSTENK","pain","6","","72","H","0","img/none_selected.jpg","0","1","0","","0.3301577903","false","89","","0.3301577903","main_expt","","0.2380326514","","0.470357169","","0.455546077","","","","","",""
"326","","bandit","165","491257","0.0-127.0-0.0","55945880","wem/bandit_single","A18G2CLYSTENK","pain","6","","72","H","0","img/none_selected.jpg","0","1","0","","0.2983975746","false","90","","0.2983975746","main_expt","","0.2825572521","","0.4756012524","","0.4648286352","","","","","",""
"405","","bandit","166","493446","0.0-128.0-0.0","55945880","wem/bandit_single","A18G2CLYSTENK","pain","6","","72","H","0","img/none_selected.jpg","0","0","1","","0.2708507867","false","91","","0.2708507867","main_expt","","0.3629334232","","0.4661355378","","0.4597569826","","","","","",""
"590","","bandit","167","495802","0.0-129.0-0.0","55945880","wem/bandit_single","A18G2CLYSTENK","pain","6","","75","K","2","","0","1","0","","0.4640816948","false","92","","0.2025174094","main_expt","","0.4318733099","","0.4640816948","","0.4636055165","","","","","",""
"117","","bandit","168","497685","0.0-130.0-0.0","55945880","wem/bandit_single","A18G2CLYSTENK","pain","6","","75","K","2","","0","1","0","","0.4745032584","false","93","","0.1991535532","main_expt","","0.4354989634","","0.4745032584","","0.4344757896","","","","","",""
"264","","bandit","169","499718","0.0-131.0-0.0","55945880","wem/bandit_single","A18G2CLYSTENK","pain","6","","75","K","2","","0","0","1","","0.4713826624","false","94","","0.2072674268","main_expt","","0.4569950804","","0.4713826624","","0.4540573516","","","","","",""
"46","","bandit","170","501535","0.0-132.0-0.0","55945880","wem/bandit_single","A18G2CLYSTENK","pain","6","","76","L","3","","0","1","0","","0.467393544","false","95","","0.2139910976","main_expt","","0.4626037768","","0.4518091014","","0.467393544","","","","","",""
"297","","bandit","171","503603","0.0-133.0-0.0","55945880","wem/bandit_single","A18G2CLYSTENK","pain","6","","76","L","3","","0","0","1","","0.4523779492","false","96","","0.1714021876","main_expt","","0.4632162831","","0.4610288074","","0.4523779492","","","","","",""
"78","","bandit","172","505453","0.0-134.0-0.0","55945880","wem/bandit_single","A18G2CLYSTENK","pain","6","","74","J","1","","0","1","0","","0.4574348148","false","97","","0.1776734449","main_expt","","0.4574348148","","0.4610411697","","0.4734298584","","","","","",""
"97","","bandit","173","507330","0.0-135.0-0.0","55945880","wem/bandit_single","A18G2CLYSTENK","pain","6","","74","J","1","","0","1","0","","0.4551488225","false","98","","0.2143852757","main_expt","","0.4551488225","","0.4658458747","","0.4822123269","","","","","",""
"197","","bandit","174","509303","0.0-136.0-0.0","55945880","wem/bandit_single","A18G2CLYSTENK","pain","6","","74","J","1","","0","1","0","","0.4604873832","false","99","","0.2341872784","main_expt","","0.4604873832","","0.4372748216","","0.4829706494","","","","","",""
"87","","bandit","175","511169","0.0-137.0-0.0","55945880","wem/bandit_single","A18G2CLYSTENK","pain","6","","74","J","1","","0","0","1","","0.4364445071","false","100","","0.2835639283","main_expt","","0.4364445071","","0.4237986198","","0.4918551361","","","","","",""
"45","","bandit","176","512988","0.0-138.0-0.0","55945880","wem/bandit_single","A18G2CLYSTENK","pain","6","","72","H","0","img/none_selected.jpg","0","0","1","","0.3342764243","false","101","","0.3342764243","main_expt","","0.4152010141","","0.4239408107","","0.4891782125","","","","","",""
"267","","bandit","177","515030","0.0-139.0-0.0","55945880","wem/bandit_single","A18G2CLYSTENK","pain","6","","75","K","2","","0","1","0","","0.4482877494","false","102","","0.3693598309","main_expt","","0.4463558977","","0.4482877494","","0.484620563","","","","","",""
"137","","bandit","178","516946","0.0-140.0-0.0","55945880","wem/bandit_single","A18G2CLYSTENK","pain","6","","75","K","2","","0","0","1","","0.4319618448","false","103","","0.3465782007","main_expt","","0.4519222506","","0.4319618448","","0.4880888492","","","","","",""
"130","","bandit","179","518846","0.0-141.0-0.0","55945880","wem/bandit_single","A18G2CLYSTENK","pain","6","","74","J","1","","0","0","1","","0.44950272","false","104","","0.356437927","main_expt","","0.44950272","","0.3989131432","","0.4862983338","","","","","",""
"31","","bandit","180","520637","0.0-142.0-0.0","55945880","wem/bandit_single","A18G2CLYSTENK","pain","6","","76","L","3","","0","1","0","","0.4761426531","false","105","","0.349556789","main_expt","","0.4631277203","","0.3718051273","","0.4761426531","","","","","",""
"104","","bandit","181","522514","0.0-143.0-0.0","55945880","wem/bandit_single","A18G2CLYSTENK","pain","6","","76","L","3","","0","1","0","","0.4724420891","false","106","","0.3368343046","main_expt","","0.4761070442","","0.3820213715","","0.4724420891","","","","","",""
"10","","bandit","182","524303","0.0-144.0-0.0","55945880","wem/bandit_single","A18G2CLYSTENK","pain","6","","76","L","3","","0","1","0","","0.4544285192","false","107","","0.3492990444","main_expt","","0.4574049266","","0.3903902173","","0.4544285192","","","","","",""
"59","","bandit","183","526132","0.0-145.0-0.0","55945880","wem/bandit_single","A18G2CLYSTENK","pain","6","","76","L","3","","0","1","0","","0.4489506099","false","108","","0.3657086014","main_expt","","0.4342229458","","0.424383047","","0.4489506099","","","","","",""
"144","","bandit","184","528053","0.0-146.0-0.0","55945880","wem/bandit_single","A18G2CLYSTENK","pain","6","","76","L","3","","0","0","1","","0.4357570441","false","109","","0.3473329542","main_expt","","0.4437976733","","0.3732822228","","0.4357570441","","","","","",""
"38","","bandit","185","529870","0.0-147.0-0.0","55945880","wem/bandit_single","A18G2CLYSTENK","pain","6","","74","J","1","","0","1","0","","0.4131704669","false","110","","0.3937482981","main_expt","","0.4131704669","","0.3545846445","","0.4243789051","","","","","",""
"96","","bandit","186","531744","0.0-148.0-0.0","55945880","wem/bandit_single","A18G2CLYSTENK","pain","6","","74","J","1","","0","1","0","","0.3849612216","false","111","","0.4067223002","main_expt","","0.3849612216","","0.2861948885","","0.4235572131","","","","","",""
"78","","bandit","187","533603","0.0-149.0-0.0","55945880","wem/bandit_single","A18G2CLYSTENK","pain","6","","74","J","1","","0","0","1","","0.4197473064","false","112","","0.3791461054","main_expt","","0.4197473064","","0.3148935151","","0.4216330179","","","","","",""
"87","","bandit","188","535463","0.0-150.0-0.0","55945880","wem/bandit_single","A18G2CLYSTENK","pain","6","","75","K","2","","0","0","1","","0.310891148","false","113","","0.3697872407","main_expt","","0.4477672952","","0.310891148","","0.3981229654","","","","","",""
"38","","bandit","189","537269","0.0-151.0-0.0","55945880","wem/bandit_single","A18G2CLYSTENK","pain","6","","72","H","0","img/none_selected.jpg","0","1","0","","0.3542284497","false","114","","0.3542284497","main_expt","","0.4347577032","","0.3312817134","","0.4051483532","","","","","",""
"28","","bandit","190","539069","0.0-152.0-0.0","55945880","wem/bandit_single","A18G2CLYSTENK","pain","6","","72","H","0","img/none_selected.jpg","0","0","1","","0.3424252445","false","115","","0.3424252445","main_expt","","0.4123529648","","0.3328181623","","0.3664587937","","","","","",""
"893","","bandit","191","541740","0.0-153.0-0.0","55945880","wem/bandit_single","A18G2CLYSTENK","pain","6","","74","J","1","","0","0","1","","0.4374051313","false","116","","0.3364913945","main_expt","","0.4374051313","","0.282168926","","0.3815824605","","","","","",""
"63","","bandit","192","543562","0.0-154.0-0.0","55945880","wem/bandit_single","A18G2CLYSTENK","pain","6","","72","H","0","img/none_selected.jpg","0","0","1","","0.3607093693","false","117","","0.3607093693","main_expt","","0.4336999329","","0.3282440564","","0.3718524962","","","","","",""
"296","","bandit","193","545638","0.0-155.0-0.0","55945880","wem/bandit_single","A18G2CLYSTENK","pain","6","","75","K","2","","0","0","1","","0.3735758205","false","118","","0.3651530194","main_expt","","0.4609057125","","0.3735758205","","0.3228128462","","","","","",""
"403","","bandit","194","547812","0.0-156.0-0.0","55945880","wem/bandit_single","A18G2CLYSTENK","pain","6","","76","L","3","","0","0","1","","0.3303119184","false","119","","0.391691743","main_expt","","0.4644995027","","0.4085136599","","0.3303119184","","","","","",""
"110","","bandit","195","549696","0.0-157.0-0.0","55945880","wem/bandit_single","A18G2CLYSTENK","pain","6","","72","H","0","img/none_selected.jpg","0","0","1","","0.3892352466","false","120","","0.3892352466","main_expt","","0.4699288035","","0.4152109264","","0.3566896217","","","","","",""
"227","","bandit","196","551703","0.0-158.0-0.0","55945880","wem/bandit_single","A18G2CLYSTENK","pain","6","","74","J","1","","0","1","0","","0.48416914","false","121","","0.4119078466","main_expt","","0.48416914","","0.4362055741","","0.3938610898","","","","","",""
"97","","bandit","197","553576","0.0-159.0-0.0","55945880","wem/bandit_single","A18G2CLYSTENK","pain","6","","74","J","1","","0","0","1","","0.4744752566","false","122","","0.3864510994","main_expt","","0.4744752566","","0.4381361327","","0.3846692282","","","","","",""
"156","","bandit","198","555504","0.0-160.0-0.0","55945880","wem/bandit_single","A18G2CLYSTENK","pain","6","","75","K","2","","0","0","1","","0.4266523018","false","123","","0.3206095238","main_expt","","0.4770694964","","0.4266523018","","0.3479888462","","","","","",""
"457","","bandit","199","557731","0.0-161.0-0.0","55945880","wem/bandit_single","A18G2CLYSTENK","pain","6","","76","L","3","","0","1","0","","0.3446564944","false","124","","0.3004639257","main_expt","","0.4882663864","","0.3976500929","","0.3446564944","","","","","",""
"107","","bandit","200","559612","0.0-162.0-0.0","55945880","wem/bandit_single","A18G2CLYSTENK","pain","6","","76","L","3","","0","0","1","","0.3742116014","false","125","","0.2718713493","main_expt","","0.4867438878","","0.4004048686","","0.3742116014","","","","","",""
"270","","bandit","201","561649","0.0-163.0-0.0","55945880","wem/bandit_single","A18G2CLYSTENK","pain","6","","72","H","0","img/none_selected.jpg","0","0","1","","0.312825386","false","126","","0.312825386","main_expt","","0.4859509926","","0.3978852423","","0.3522130289","","","","","",""
"210","","bandit","202","563631","0.0-164.0-0.0","55945880","wem/bandit_single","A18G2CLYSTENK","pain","6","","76","L","3","","0","0","1","","0.4136983804","false","127","","0.2929193121","main_expt","","0.4910312391","","0.4164913371","","0.4136983804","","","","","",""
"150","","bandit","203","565553","0.0-165.0-0.0","55945880","wem/bandit_single","A18G2CLYSTENK","pain","6","","74","J","1","","0","1","0","","0.4916106826","false","128","","0.3483635392","main_expt","","0.4916106826","","0.4273270633","","0.3740150402","","","","","",""
"66","","bandit","204","567386","0.0-166.0-0.0","55945880","wem/bandit_single","A18G2CLYSTENK","pain","6","","74","J","1","","0","1","0","","0.4774596984","false","129","","0.3180783589","main_expt","","0.4774596984","","0.4403517336","","0.3561584853","","","","","",""
"83","","bandit","205","569246","0.0-167.0-0.0","55945880","wem/bandit_single","A18G2CLYSTENK","pain","6","","74","J","1","","0","1","0","","0.4792113904","false","130","","0.332672873","main_expt","","0.4792113904","","0.436469863","","0.3781611856","","","","","",""
"567","","bandit","206","571596","0.0-168.0-0.0","55945880","wem/bandit_single","A18G2CLYSTENK","pain","6","","74","J","1","","0","0","1","","0.4761250173","false","131","","0.3172252399","main_expt","","0.4761250173","","0.467157068","","0.3972118802","","","","","",""
"307","","bandit","207","573686","0.0-169.0-0.0","55945880","wem/bandit_single","A18G2CLYSTENK","pain","6","","75","K","2","","0","1","0","","0.4747764211","false","132","","0.2808852702","main_expt","","0.4782449011","","0.4747764211","","0.3951630556","","","","","",""
"217","","bandit","208","575680","0.0-170.0-0.0","55945880","wem/bandit_single","A18G2CLYSTENK","pain","6","","75","K","2","","0","0","1","","0.4662147581","false","133","","0.2846237695","main_expt","","0.4789501527","","0.4662147581","","0.3918056992","","","","","",""
"87","","bandit","209","577546","0.0-171.0-0.0","55945880","wem/bandit_single","A18G2CLYSTENK","pain","6","","72","H","0","img/none_selected.jpg","0","1","0","","0.3115497245","false","134","","0.3115497245","main_expt","","0.4821877595","","0.4711951182","","0.395342783","","","","","",""
"107","","bandit","210","579436","0.0-172.0-0.0","55945880","wem/bandit_single","A18G2CLYSTENK","pain","6","","72","H","0","img/none_selected.jpg","0","0","1","","0.3413582918","false","135","","0.3413582918","main_expt","","0.4863767518","","0.4540730246","","0.3867762939","","","","","",""
"201","","bandit","211","581420","0.0-173.0-0.0","55945880","wem/bandit_single","A18G2CLYSTENK","pain","6","","76","L","3","","0","0","1","","0.3929594686","false","136","","0.316763081","main_expt","","0.4887786445","","0.4412688847","","0.3929594686","","","","","",""
"10","","bandit","212","583203","0.0-174.0-0.0","55945880","wem/bandit_single","A18G2CLYSTENK","pain","6","","74","J","1","","0","0","1","","0.4896902137","false","137","","0.2585559296","main_expt","","0.4896902137","","0.4585130214","","0.3067223256","","","","","",""
"41","","bandit","213","585013","0.0-175.0-0.0","55945880","wem/bandit_single","A18G2CLYSTENK","pain","6","","75","K","2","","0","1","0","","0.4413786145","false","138","","0.2320291273","main_expt","","0.4754525561","","0.4413786145","","0.3444805877","","","","","",""
"87","","bandit","214","586870","0.0-176.0-0.0","55945880","wem/bandit_single","A18G2CLYSTENK","pain","6","","75","K","2","","0","0","1","","0.4235974169","false","139","","0.2705305451","main_expt","","0.4525902595","","0.4235974169","","0.4025185773","","","","","",""
"86","","bandit","215","588719","0.0-177.0-0.0","55945880","wem/bandit_single","A18G2CLYSTENK","pain","6","","72","H","0","img/none_selected.jpg","0","0","1","","0.2115164241","false","140","","0.2115164241","main_expt","","0.474141966","","0.3993595144","","0.4000290511","","","","","",""
"63","","bandit","216","590553","0.0-178.0-0.0","55945880","wem/bandit_single","A18G2CLYSTENK","pain","6","","75","K","2","","0","0","1","","0.3845482665","false","141","","0.2166269704","main_expt","","0.4642583801","","0.3845482665","","0.4052231698","","","","","",""
"77","","bandit","217","592403","0.0-179.0-0.0","55945880","wem/bandit_single","A18G2CLYSTENK","pain","6","","74","J","1","","0","0","1","","0.4713728632","false","142","","0.2477117994","main_expt","","0.4713728632","","0.3636407915","","0.3881257509","","","","","",""
"337","","bandit","218","594520","0.0-180.0-0.0","55945880","wem/bandit_single","A18G2CLYSTENK","pain","6","","76","L","3","","0","1","0","","0.4101759482","false","143","","0.2347168821","main_expt","","0.4714731714","","0.3360879677","","0.4101759482","","","","","",""
"206","","bandit","219","596503","0.0-181.0-0.0","55945880","wem/bandit_single","A18G2CLYSTENK","pain","6","","76","L","3","","0","1","0","","0.4100488723","false","144","","0.190213181","main_expt","","0.4777196865","","0.2886719504","","0.4100488723","","","","","",""
"247","","bandit","220","598530","0.0-182.0-0.0","55945880","wem/bandit_single","A18G2CLYSTENK","pain","6","","76","L","3","","0","0","1","","0.4294240464","false","145","","0.2873677543","main_expt","","0.467438704","","0.2607344777","","0.4294240464","","","","","",""
"66","","bandit","221","600370","0.0-183.0-0.0","55945880","wem/bandit_single","A18G2CLYSTENK","pain","6","","72","H","0","img/none_selected.jpg","0","1","0","","0.3434581746","false","146","","0.3434581746","main_expt","","0.4764572222","","0.261523257","","0.4447984025","","","","","",""
"444","","bandit","222","602586","0.0-184.0-0.0","55945880","wem/bandit_single","A18G2CLYSTENK","pain","6","","72","H","0","img/none_selected.jpg","0","0","1","","0.3677167414","false","147","","0.3677167414","main_expt","","0.4670163239","","0.2768268543","","0.4339083406","","","","","",""
"30426","","bandit","223","634783","0.0-185.0-0.0","55945880","wem/bandit_single","A18G2CLYSTENK","pain","6","","74","J","1","","0","1","0","","0.4762727371","false","148","","0.378672096","main_expt","","0.4762727371","","0.2822793125","","0.4200875786","","","","","",""
"586","","bandit","224","637148","0.0-186.0-0.0","55945880","wem/bandit_single","A18G2CLYSTENK","pain","6","","74","J","1","","0","1","0","","0.4763998188","false","149","","0.3447579657","main_expt","","0.4763998188","","0.3100291085","","0.4370731276","","","","","",""
"227","","bandit","225","639154","0.0-187.0-0.0","55945880","wem/bandit_single","A18G2CLYSTENK","pain","6","","74","J","1","","0","1","0","","0.4534074178","false","150","","0.3225325285","main_expt","","0.4534074178","","0.3473977335","","0.4606741766","","","","","",""
"40","","bandit","226","640964","0.0-188.0-0.0","55945880","wem/bandit_single","A18G2CLYSTENK","pain","6","","74","J","1","","0","1","0","","0.4518750411","false","151","","0.2971371866","main_expt","","0.4518750411","","0.3755194153","","0.4831185644","","","","","",""
"60","","bandit","227","642803","0.0-189.0-0.0","55945880","wem/bandit_single","A18G2CLYSTENK","pain","6","","74","J","1","","0","0","1","","0.4724220712","false","152","","0.2436525959","main_expt","","0.4724220712","","0.3931135366","","0.489350082","","","","","",""
"38","","bandit","228","644615","0.0-190.0-0.0","55945880","wem/bandit_single","A18G2CLYSTENK","pain","6","","76","L","3","","0","1","0","","0.4874668037","false","153","","0.2745817176","main_expt","","0.4655138208","","0.3704791656","","0.4874668037","","","","","",""
"48","","bandit","229","646445","0.0-191.0-0.0","55945880","wem/bandit_single","A18G2CLYSTENK","pain","6","","76","L","3","","0","0","1","","0.4906252114","false","154","","0.2354012901","main_expt","","0.466892577","","0.3918087328","","0.4906252114","","","","","",""
"197","","bandit","230","648421","0.0-192.0-0.0","55945880","wem/bandit_single","A18G2CLYSTENK","pain","6","","72","H","0","img/none_selected.jpg","0","0","1","","0.2125693007","false","155","","0.2125693007","main_expt","","0.4696525674","","0.3629162862","","0.4807331657","","","","","",""
"97","","bandit","231","650297","0.0-193.0-0.0","55945880","wem/bandit_single","A18G2CLYSTENK","pain","6","","75","K","2","","0","0","1","","0.3329402669","false","156","","0.2344806361","main_expt","","0.4798639378","","0.3329402669","","0.4886913858","","","","","",""
"386","","bandit","232","652454","0.0-194.0-0.0","55945880","wem/bandit_single","A18G2CLYSTENK","pain","6","","76","L","3","","0","0","1","","0.4791259403","false","157","","0.1314384861","main_expt","","0.4706110477","","0.2681960896","","0.4791259403","","","","","",""
"343","","bandit","233","654578","0.0-195.0-0.0","55945880","wem/bandit_single","A18G2CLYSTENK","pain","6","","76","L","3","","0","1","0","","0.4733263956","false","158","","0.181857365","main_expt","","0.4469873257","","0.2540197996","","0.4733263956","","","","","",""
"377","","bandit","234","656731","0.0-196.0-0.0","55945880","wem/bandit_single","A18G2CLYSTENK","pain","6","","76","L","3","","0","0","1","","0.4815819336","false","159","","0.158015958","main_expt","","0.4239904196","","0.2609952623","","0.4815819336","","","","","",""
"306","","bandit","235","658821","0.0-197.0-0.0","55945880","wem/bandit_single","A18G2CLYSTENK","pain","6","","72","H","0","img/none_selected.jpg","0","0","1","","0.141078422","false","160","","0.141078422","main_expt","","0.4459131135","","0.2023108268","","0.4721468952","","","","","",""
"177","","bandit","236","660781","0.0-198.0-0.0","55945880","wem/bandit_single","A18G2CLYSTENK","pain","6","","74","J","1","","0","0","1","","0.4186734055","false","161","","0.1347361735","main_expt","","0.4186734055","","0.2500661268","","0.4711146003","","","","","",""
"166","","bandit","237","662738","0.0-199.0-0.0","55945880","wem/bandit_single","A18G2CLYSTENK","pain","6","","72","H","0","img/none_selected.jpg","0","0","1","","0.09535719087","false","162","","0.09535719087","main_expt","","0.3857154427","","0.2540596089","","0.4712261849","","","","","",""
"53","","bandit","238","664564","0.0-200.0-0.0","55945880","wem/bandit_single","A18G2CLYSTENK","pain","6","","74","J","1","","0","0","1","","0.4174701589","false","163","","0.08326456225","main_expt","","0.4174701589","","0.2601053227","","0.4845321786","","","","","",""
"347","","bandit","239","666698","0.0-201.0-0.0","55945880","wem/bandit_single","A18G2CLYSTENK","pain","6","","75","K","2","","0","1","0","","0.2541421927","false","164","","0.09053498257","main_expt","","0.3890878976","","0.2541421927","","0.4759389929","","","","","",""
"466","","bandit","240","668937","0.0-202.0-0.0","55945880","wem/bandit_single","A18G2CLYSTENK","pain","6","","75","K","2","","0","0","1","","0.2481661974","false","165","","0.08506048778","main_expt","","0.4138915172","","0.2481661974","","0.4720948066","","","","","",""
"333","","bandit","241","671048","0.0-203.0-0.0","55945880","wem/bandit_single","A18G2CLYSTENK","pain","6","","76","L","3","","0","0","1","","0.4785392204","false","166","","0.1313511463","main_expt","","0.3965001983","","0.2774316831","","0.4785392204","","","","","",""
"33","","bandit","242","672854","0.0-204.0-0.0","55945880","wem/bandit_single","A18G2CLYSTENK","pain","6","","72","H","0","img/none_selected.jpg","0","0","1","","0.1176964862","false","167","","0.1176964862","main_expt","","0.3565429409","","0.2487678046","","0.4807372421","","","","","",""
"53","","bandit","243","674681","0.0-205.0-0.0","55945880","wem/bandit_single","A18G2CLYSTENK","pain","6","","72","H","0","img/none_selected.jpg","0","0","1","","0.08442850793","false","168","","0.08442850793","main_expt","","0.3697134737","","0.3058486258","","0.4679921472","","","","","",""
"646","","bandit","244","677115","0.0-206.0-0.0","55945880","wem/bandit_single","A18G2CLYSTENK","pain","6","","74","J","1","","0","1","0","","0.3754926497","false","169","","0.08508452716","main_expt","","0.3754926497","","0.3196595105","","0.4504326489","","","","","",""
"167","","bandit","245","679064","0.0-207.0-0.0","55945880","wem/bandit_single","A18G2CLYSTENK","pain","6","","75","K","2","","0","0","1","","0.2675331271","false","170","","0.06647736925","main_expt","","0.3688606114","","0.2675331271","","0.4575738232","","","","","",""
"367","","bandit","246","681204","0.0-208.0-0.0","55945880","wem/bandit_single","A18G2CLYSTENK","pain","6","","74","J","1","","0","0","1","","0.3548436987","false","171","","0.05048422731","main_expt","","0.3548436987","","0.2898788388","","0.4515033555","","","","","",""
"816","","bandit","247","683799","0.0-209.0-0.0","55945880","wem/bandit_single","A18G2CLYSTENK","pain","6","","72","H","0","img/none_selected.jpg","0","0","1","","0.05782489063","false","172","","0.05782489063","main_expt","","0.3789739593","","0.3066863737","","0.4804896953","","","","","",""
"3550","","bandit","248","689125","0.0-210.0-0.0","55945880","wem/bandit_single","A18G2CLYSTENK","pain","6","","72","H","0","img/none_selected.jpg","0","0","1","","0.05297704283","false","173","","0.05297704283","main_expt","","0.361488512","","0.2694007619","","0.4915792717","","","","","",""
"87","","bandit","249","690988","0.0-211.0-0.0","55945880","wem/bandit_single","A18G2CLYSTENK","pain","6","","74","J","1","","0","0","1","","0.3460135238","false","174","","0.05353397103","main_expt","","0.3460135238","","0.2754062015","","0.4861742571","","","","","",""
"366","","bandit","250","693132","0.0-212.0-0.0","55945880","wem/bandit_single","A18G2CLYSTENK","pain","6","","75","K","2","","0","1","0","","0.296446081","false","175","","0.03778759003","main_expt","","0.3522158256","","0.296446081","","0.4817940596","","","","","",""
"245","","bandit","251","695155","0.0-213.0-0.0","55945880","wem/bandit_single","A18G2CLYSTENK","pain","6","","75","K","2","","0","0","1","","0.3058710094","false","176","","0.02527008277","main_expt","","0.2998164985","","0.3058710094","","0.4757066075","","","","","",""
"377","","bandit","252","697306","0.0-214.0-0.0","55945880","wem/bandit_single","A18G2CLYSTENK","pain","6","","75","K","2","","0","0","1","","0.2349503117","false","177","","0.03305249037","main_expt","","0.2523084086","","0.2349503117","","0.4781570811","","","","","",""
"386","","bandit","253","699471","0.0-215.0-0.0","55945880","wem/bandit_single","A18G2CLYSTENK","pain","6","","76","L","3","","0","1","0","","0.4800614517","false","178","","0.03386287722","main_expt","","0.304071788","","0.2619038699","","0.4800614517","","","","","",""
"293","","bandit","254","701545","0.0-216.0-0.0","55945880","wem/bandit_single","A18G2CLYSTENK","pain","6","","76","L","3","","0","1","0","","0.4829502963","false","179","","0.04065763291","main_expt","","0.2871062198","","0.2830684205","","0.4829502963","","","","","",""
"107","","bandit","255","703421","0.0-217.0-0.0","55945880","wem/bandit_single","A18G2CLYSTENK","pain","6","","76","L","3","","0","0","1","","0.4858173281","false","180","","0.05743716857","main_expt","","0.2266659288","","0.3534450431","","0.4858173281","","","","","",""
"33","","bandit","256","705233","0.0-218.0-0.0","55945880","wem/bandit_single","A18G2CLYSTENK","pain","6","","76","L","3","","0","0","1","","0.4744777914","false","181","","0.04418568229","main_expt","","0.221928096","","0.3212605574","","0.4744777914","","","","","",""
"58","","bandit","257","707067","0.0-219.0-0.0","55945880","wem/bandit_single","A18G2CLYSTENK","pain","6","","74","J","1","","0","0","1","","0.2300829386","false","182","","0.08176319179","main_expt","","0.2300829386","","0.3315430587","","0.4845259409","","","","","",""
"1301","","bandit","258","710155","0.0-220.0-0.0","55945880","wem/bandit_single","A18G2CLYSTENK","pain","6","","74","J","1","","0","1","0","","0.236046558","false","183","","0.127405614","main_expt","","0.236046558","","0.3284942609","","0.481953826","","","","","",""
"616","","bandit","259","712554","0.0-221.0-0.0","55945880","wem/bandit_single","A18G2CLYSTENK","pain","6","","74","J","1","","0","0","1","","0.2923178249","false","184","","0.08615736955","main_expt","","0.2923178249","","0.3122619856","","0.4855041368","","","","","",""
"548","","bandit","260","714888","0.0-222.0-0.0","55945880","wem/bandit_single","A18G2CLYSTENK","pain","6","","74","J","1","","0","0","1","","0.2808840613","false","185","","0.1184297318","main_expt","","0.2808840613","","0.2923416166","","0.4698046591","","","","","",""
"40","","bandit","261","716698","0.0-223.0-0.0","55945880","wem/bandit_single","A18G2CLYSTENK","pain","6","","76","L","3","","0","0","1","","0.4595088788","false","186","","0.1909222977","main_expt","","0.2016881086","","0.2743414945","","0.4595088788","","","","","",""
"156","","bandit","262","718639","0.0-224.0-0.0","55945880","wem/bandit_single","A18G2CLYSTENK","pain","6","","72","H","0","img/none_selected.jpg","0","0","1","","0.156943311","false","187","","0.156943311","main_expt","","0.2403842116","","0.3313242874","","0.4646501277","","","","","",""
"1276","","bandit","263","721691","0.0-225.0-0.0","55945880","wem/bandit_single","A18G2CLYSTENK","pain","6","","75","K","2","","0","0","1","","0.3665806697","false","188","","0.139104156","main_expt","","0.2559443775","","0.3665806697","","0.4587354039","","","","","",""
"437","","bandit","264","723915","0.0-226.0-0.0","55945880","wem/bandit_single","A18G2CLYSTENK","pain","6","","75","K","2","","0","0","1","","0.3982105691","false","189","","0.1984961232","main_expt","","0.2450962267","","0.3982105691","","0.4433819168","","","","","",""
"287","","bandit","265","725981","0.0-227.0-0.0","55945880","wem/bandit_single","A18G2CLYSTENK","pain","6","","75","K","2","","0","0","1","","0.4063069195","false","190","","0.3152507924","main_expt","","0.2520413598","","0.4063069195","","0.441597313","","","","","",""
"958","","bandit","266","728722","0.0-228.0-0.0","55945880","wem/bandit_single","A18G2CLYSTENK","pain","6","","75","K","2","","0","0","1","","0.4073058099","false","191","","0.34868685","main_expt","","0.3069822625","","0.4073058099","","0.4447050695","","","","","",""
"207","","bandit","267","730705","0.0-229.0-0.0","55945880","wem/bandit_single","A18G2CLYSTENK","pain","6","","74","J","1","","0","0","1","","0.269658105","false","192","","0.3244392246","main_expt","","0.269658105","","0.3597632315","","0.3903647542","","","","","",""
"243","","bandit","268","732732","0.0-230.0-0.0","55945880","wem/bandit_single","A18G2CLYSTENK","pain","6","","72","H","0","img/none_selected.jpg","0","0","1","","0.3077199203","false","193","","0.3077199203","main_expt","","0.2337652902","","0.3512918873","","0.37796371","","","","","",""
"577","","bandit","269","735093","0.0-231.0-0.0","55945880","wem/bandit_single","A18G2CLYSTENK","pain","6","","76","L","3","","0","0","1","","0.4130200877","false","194","","0.3089314305","main_expt","","0.232364398","","0.2959519196","","0.4130200877","","","","","",""
"167","","bandit","270","737032","0.0-232.0-0.0","55945880","wem/bandit_single","A18G2CLYSTENK","pain","6","","75","K","2","","0","0","1","","0.335494982","false","195","","0.2747286701","main_expt","","0.3001816851","","0.335494982","","0.4247195967","","","","","",""
"87","","bandit","271","738898","0.0-233.0-0.0","55945880","wem/bandit_single","A18G2CLYSTENK","pain","6","","74","J","1","","0","0","1","","0.3408234979","false","196","","0.234477082","main_expt","","0.3408234979","","0.349715921","","0.4243543636","","","","","",""
"24","","bandit","272","740706","0.0-234.0-0.0","55945880","wem/bandit_single","A18G2CLYSTENK","pain","6","","72","H","0","img/none_selected.jpg","0","0","1","","0.2134381397","false","197","","0.2134381397","main_expt","","0.3048500693","","0.301359959","","0.3856928417","","","","","",""
"56","","bandit","273","742539","0.0-235.0-0.0","55945880","wem/bandit_single","A18G2CLYSTENK","pain","6","","76","L","3","","0","0","1","","0.3619593125","false","198","","0.1732682886","main_expt","","0.320222978","","0.2948231879","","0.3619593125","","","","","",""
"477","","bandit","274","744805","0.0-236.0-0.0","55945880","wem/bandit_single","A18G2CLYSTENK","pain","6","","75","K","2","","0","0","1","","0.2739130918","false","199","","0.1702760897","main_expt","","0.3267381451","","0.2739130918","","0.367752629","","","","","",""
"10","","bandit","275","746587","0.0-237.0-0.0","55945880","wem/bandit_single","A18G2CLYSTENK","pain","6","","74","J","1","","0","0","1","","0.3471124056","false","200","","0.1149890083","main_expt","","0.3471124056","","0.2519174554","","0.3243939248","","","","","",""
"127","","bandit","276","748489","0.0-238.0-0.0","55945880","wem/bandit_single","A18G2CLYSTENK","pain","6","","72","H","0","img/none_selected.jpg","0","0","1","","0.1378425817","false","201","","0.1378425817","main_expt","","0.377370495","","0.2607800984","","0.309205964","","","","","",""
"39","","bandit","277","750304","0.0-239.0-0.0","55945880","wem/bandit_single","A18G2CLYSTENK","pain","6","","76","L","3","","0","0","1","","0.2762714965","false","202","","0.1351165101","main_expt","","0.4118986778","","0.2144757733","","0.2762714965","","","","","",""
"216","","bandit","278","752301","0.0-240.0-0.0","55945880","wem/bandit_single","A18G2CLYSTENK","pain","6","","74","J","1","","0","0","1","","0.4232074982","false","203","","0.105254576","main_expt","","0.4232074982","","0.3006883459","","0.296808735","","","","","",""
"10","","bandit","279","754088","0.0-241.0-0.0","55945880","wem/bandit_single","A18G2CLYSTENK","pain","6","","72","H","0","img/none_selected.jpg","0","0","1","","0.09939331469","false","204","","0.09939331469","main_expt","","0.422672589","","0.3059688055","","0.3198559136","","","","","",""
"687","","bandit","280","756564","0.0-242.0-0.0","55945880","wem/bandit_single","A18G2CLYSTENK","pain","6","","74","J","1","","0","0","1","","0.4290364806","false","205","","0.1099723927","main_expt","","0.4290364806","","0.2810212056","","0.3814451683","","","","","",""
"837","","bandit","281","759181","0.0-243.0-0.0","55945880","wem/bandit_single","A18G2CLYSTENK","pain","6","","72","H","0","img/none_selected.jpg","0","0","1","","0.1203356594","false","206","","0.1203356594","main_expt","","0.4412489094","","0.2427537705","","0.3836436308","","","","","",""
"127","","bandit","282","761081","0.0-244.0-0.0","55945880","wem/bandit_single","A18G2CLYSTENK","pain","6","","76","L","3","","0","0","1","","0.3943212714","false","207","","0.1887874267","main_expt","","0.461161346","","0.2312113295","","0.3943212714","","","","","",""
"437","","bandit","283","763305","0.0-245.0-0.0","55945880","wem/bandit_single","A18G2CLYSTENK","pain","6","","72","H","0","img/none_selected.jpg","0","0","1","","0.1570662604","false","208","","0.1570662604","main_expt","","0.4749000037","","0.2502246517","","0.4100076043","","","","","",""
"166","","bandit","284","765255","0.0-246.0-0.0","55945880","wem/bandit_single","A18G2CLYSTENK","pain","6","","75","K","2","","0","0","1","","0.2378747501","false","209","","0.2050570797","main_expt","","0.4677638209","","0.2378747501","","0.4207901851","","","","","",""
"146","","bandit","285","767181","0.0-247.0-0.0","55945880","wem/bandit_single","A18G2CLYSTENK","pain","6","","74","J","1","","0","0","1","","0.4507398287","false","210","","0.1803355731","main_expt","","0.4507398287","","0.2323826376","","0.4261573075","","","","","",""
"75","","bandit","286","769038","0.0-248.0-0.0","55945880","wem/bandit_single","A18G2CLYSTENK","pain","6","","76","L","3","","0","0","1","","0.3677002177","false","211","","0.2066302241","main_expt","","0.4275102647","","0.2346446126","","0.3677002177","","","","","",""
"327","","bandit","287","771149","0.0-249.0-0.0","55945880","wem/bandit_single","A18G2CLYSTENK","pain","6","","72","H","0","img/none_selected.jpg","0","0","1","","0.2190460355","false","212","","0.2190460355","main_expt","","0.4147803006","","0.2017096022","","0.4030871251","","","","","",""
"39","","bandit","288","772971","0.0-250.0-0.0","55945880","wem/bandit_single","A18G2CLYSTENK","pain","6","","76","L","3","","0","1","0","","0.3616850983","false","213","","0.2433731683","main_expt","","0.4119553225","","0.2149770465","","0.3616850983","","","","","",""
"137","","bandit","289","774888","0.0-251.0-0.0","55945880","wem/bandit_single","A18G2CLYSTENK","pain","6","","76","L","3","","0","1","0","","0.3380837625","false","214","","0.2355486522","main_expt","","0.4097086646","","0.2323699387","","0.3380837625","","","","","",""
"207","","bandit","290","776881","0.0-252.0-0.0","55945880","wem/bandit_single","A18G2CLYSTENK","pain","6","","76","L","3","","0","0","1","","0.3788103814","false","215","","0.2493822419","main_expt","","0.4553079268","","0.1880023584","","0.3788103814","","","","","",""
"130","","bandit","291","778784","0.0-253.0-0.0","55945880","wem/bandit_single","A18G2CLYSTENK","pain","6","","72","H","0","img/none_selected.jpg","0","1","0","","0.2455091026","false","216","","0.2455091026","main_expt","","0.4360341733","","0.2305078945","","0.3844600678","","","","","",""
"194","","bandit","292","780754","0.0-254.0-0.0","55945880","wem/bandit_single","A18G2CLYSTENK","pain","6","","72","H","0","img/none_selected.jpg","0","1","0","","0.193913996","false","217","","0.193913996","main_expt","","0.4337093526","","0.2042922501","","0.3747540642","","","","","",""
"56","","bandit","293","782605","0.0-255.0-0.0","55945880","wem/bandit_single","A18G2CLYSTENK","pain","6","","72","H","0","img/none_selected.jpg","0","0","1","","0.2375794361","false","218","","0.2375794361","main_expt","","0.4646024675","","0.1827914188","","0.373903774","","","","","",""
"95","","bandit","294","784471","0.0-256.0-0.0","55945880","wem/bandit_single","A18G2CLYSTENK","pain","6","","74","J","1","","0","1","0","","0.4630893692","false","219","","0.2477723709","main_expt","","0.4630893692","","0.2630445196","","0.3735380413","","","","","",""
"57","","bandit","295","786315","0.0-257.0-0.0","55945880","wem/bandit_single","A18G2CLYSTENK","pain","6","","74","J","1","","0","0","1","","0.4683356487","false","220","","0.2543503475","main_expt","","0.4683356487","","0.311946342","","0.383917491","","","","","",""
"93","","bandit","296","788191","0.0-258.0-0.0","55945880","wem/bandit_single","A18G2CLYSTENK","pain","6","","75","K","2","","0","1","0","","0.2972788283","false","221","","0.2776519347","main_expt","","0.4682635517","","0.2972788283","","0.3479973737","","","","","",""
"107","","bandit","297","790085","0.0-259.0-0.0","55945880","wem/bandit_single","A18G2CLYSTENK","pain","6","","75","K","2","","0","1","0","","0.3550400804","false","222","","0.2291835432","main_expt","","0.4771668828","","0.3550400804","","0.3845595158","","","","","",""
"66","","bandit","298","791921","0.0-260.0-0.0","55945880","wem/bandit_single","A18G2CLYSTENK","pain","6","","75","K","2","","0","0","1","","0.3246239653","false","223","","0.2266132179","main_expt","","0.4773959318","","0.3246239653","","0.368723436","","","","","",""
"31","","bandit","299","793727","0.0-261.0-0.0","55945880","wem/bandit_single","A18G2CLYSTENK","pain","6","","72","H","0","img/none_selected.jpg","0","0","1","","0.2124948974","false","224","","0.2124948974","main_expt","","0.4567335023","","0.351266899","","0.3566991655","","","","","",""
"167","","bandit","300","795672","0.0-262.0-0.0","55945880","wem/bandit_single","A18G2CLYSTENK","pain","6","","76","L","3","","0","0","1","","0.3557331736","false","225","","0.2168010387","main_expt","","0.4545703871","","0.3617362435","","0.3557331736","","","","","",""
"67","","bandit","301","797521","0.0-263.0-0.0","55945880","wem/bandit_single","A18G2CLYSTENK","pain","6","","72","H","0","img/none_selected.jpg","0","1","0","","0.2286352314","false","226","","0.2286352314","main_expt","","0.4563055184","","0.3625162538","","0.3620904828","","","","","",""
"97","","bandit","302","799402","0.0-264.0-0.0","55945880","wem/bandit_single","A18G2CLYSTENK","pain","6","","72","H","0","img/none_selected.jpg","0","1","0","","0.2349833204","false","227","","0.2349833204","main_expt","","0.4414344485","","0.3638477037","","0.3794330306","","","","","",""
"206","","bandit","303","801381","0.0-265.0-0.0","55945880","wem/bandit_single","A18G2CLYSTENK","pain","6","","72","H","0","img/none_selected.jpg","0","0","1","","0.2376541641","false","228","","0.2376541641","main_expt","","0.4509897562","","0.321865515","","0.3480060926","","","","","",""
"1201","","bandit","304","804355","0.0-266.0-0.0","55945880","wem/bandit_single","A18G2CLYSTENK","pain","6","","75","K","2","","0","1","0","","0.2574970425","false","229","","0.2141250471","main_expt","","0.4355264455","","0.2574970425","","0.3197951212","","","","","",""
"163","","bandit","305","806298","0.0-267.0-0.0","55945880","wem/bandit_single","A18G2CLYSTENK","pain","6","","75","K","2","","0","1","0","","0.3167366343","false","230","","0.1986478114","main_expt","","0.4393215817","","0.3167366343","","0.2360623461","","","","","",""
"277","","bandit","306","808348","0.0-268.0-0.0","55945880","wem/bandit_single","A18G2CLYSTENK","pain","6","","75","K","2","","0","0","1","","0.359889087","false","231","","0.1632677176","main_expt","","0.426442838","","0.359889087","","0.228441671","","","","","",""
"117","","bandit","307","810239","0.0-269.0-0.0","55945880","wem/bandit_single","A18G2CLYSTENK","pain","6","","72","H","0","img/none_selected.jpg","0","0","1","","0.1437929512","false","232","","0.1437929512","main_expt","","0.4455015341","","0.3765691143","","0.2233622879","","","","","",""
"42","","bandit","308","812065","0.0-270.0-0.0","55945880","wem/bandit_single","A18G2CLYSTENK","pain","6","","76","L","3","","0","0","1","","0.1782647691","false","233","","0.2490618922","main_expt","","0.4370113712","","0.351320345","","0.1782647691","","","","","",""
"56","","bandit","309","813892","0.0-271.0-0.0","55945880","wem/bandit_single","A18G2CLYSTENK","pain","6","","74","J","1","","0","0","1","","0.4228056097","false","234","","0.2811602772","main_expt","","0.4228056097","","0.2997083133","","0.1971530904","","","","","",""
"237","","bandit","310","815905","0.0-272.0-0.0","55945880","wem/bandit_single","A18G2CLYSTENK","pain","6","","75","K","2","","0","0","1","","0.3526624454","false","235","","0.332316849","main_expt","","0.4176536857","","0.3526624454","","0.2109348075","","","","","",""
"83","","bandit","311","817766","0.0-273.0-0.0","55945880","wem/bandit_single","A18G2CLYSTENK","pain","6","","72","H","0","img/none_selected.jpg","0","0","1","","0.3059905229","false","236","","0.3059905229","main_expt","","0.419442654","","0.3050627859","","0.1891579582","","","","","",""
"197","","bandit","312","819739","0.0-274.0-0.0","55945880","wem/bandit_single","A18G2CLYSTENK","pain","6","","75","K","2","","0","0","1","","0.312969263","false","237","","0.3058344165","main_expt","","0.4082659589","","0.312969263","","0.1278978542","","","","","",""
"137","","bandit","313","821656","0.0-275.0-0.0","55945880","wem/bandit_single","A18G2CLYSTENK","pain","6","","76","L","3","","0","0","1","","0.1509653188","false","238","","0.2931512536","main_expt","","0.4108407801","","0.380225341","","0.1509653188","","","","","",""
"417","","bandit","314","823856","0.0-276.0-0.0","55945880","wem/bandit_single","A18G2CLYSTENK","pain","6","","74","J","1","","0","1","0","","0.4378360478","false","239","","0.2922133777","main_expt","","0.4378360478","","0.3657076542","","0.1919733462","","","","","",""
"267","","bandit","315","825906","0.0-277.0-0.0","55945880","wem/bandit_single","A18G2CLYSTENK","pain","6","","74","J","1","","0","0","1","","0.4467030129","false","240","","0.3452033359","main_expt","","0.4467030129","","0.3815359164","","0.1751407906","","","","","",""
"167","","bandit","316","827858","0.0-278.0-0.0","55945880","wem/bandit_single","A18G2CLYSTENK","pain","6","","72","H","0","img/none_selected.jpg","0","1","0","","0.3682897549","false","241","","0.3682897549","main_expt","","0.4705393647","","0.3251101936","","0.1759125222","","","","","",""
"67","","bandit","317","829706","0.0-279.0-0.0","55945880","wem/bandit_single","A18G2CLYSTENK","pain","6","","72","H","0","img/none_selected.jpg","0","1","0","","0.3628947189","false","242","","0.3628947189","main_expt","","0.4610792938","","0.3212185421","","0.2137068054","","","","","",""
"235","","bandit","318","831722","0.0-280.0-0.0","55945880","wem/bandit_single","A18G2CLYSTENK","pain","6","","72","H","0","img/none_selected.jpg","0","1","0","","0.3766569032","false","243","","0.3766569032","main_expt","","0.4437729889","","0.3270030252","","0.2179170348","","","","","",""
"499","","bandit","319","833997","0.0-281.0-0.0","55945880","wem/bandit_single","A18G2CLYSTENK","pain","6","","72","H","0","img/none_selected.jpg","0","0","1","","0.377991886","false","244","","0.377991886","main_expt","","0.4199869792","","0.309973419","","0.2426329099","","","","","",""
"167","","bandit","320","835956","0.0-282.0-0.0","55945880","wem/bandit_single","A18G2CLYSTENK","pain","6","","75","K","2","","0","0","1","","0.3342881273","false","245","","0.304751896","main_expt","","0.4183767379","","0.3342881273","","0.2351694379","","","","","",""
"67","","bandit","321","837806","0.0-283.0-0.0","55945880","wem/bandit_single","A18G2CLYSTENK","pain","6","","76","L","3","","0","0","1","","0.2111663312","false","246","","0.3348187262","main_expt","","0.4292136751","","0.3149240913","","0.2111663312","","","","","",""
"36","","bandit","322","839628","0.0-284.0-0.0","55945880","wem/bandit_single","A18G2CLYSTENK","pain","6","","72","H","0","img/none_selected.jpg","0","0","1","","0.3307987246","false","247","","0.3307987246","main_expt","","0.4577956797","","0.296458043","","0.1899020887","","","","","",""
"56","","bandit","323","841456","0.0-285.0-0.0","55945880","wem/bandit_single","A18G2CLYSTENK","pain","6","","74","J","1","","0","1","0","","0.4586239927","false","248","","0.3774544282","main_expt","","0.4586239927","","0.3038576119","","0.2151484255","","","","","",""
"10","","bandit","324","843256","0.0-286.0-0.0","55945880","wem/bandit_single","A18G2CLYSTENK","pain","6","","74","J","1","","0","1","0","","0.4709187109","false","249","","0.3553688181","main_expt","","0.4709187109","","0.3383832125","","0.2454548658","","","","","",""
"77","","bandit","325","845122","0.0-287.0-0.0","55945880","wem/bandit_single","A18G2CLYSTENK","pain","6","","74","J","1","","0","0","1","","0.4742496359","false","250","","0.3209961504","main_expt","","0.4742496359","","0.3505221498","","0.1973527755","","","","","",""
"56","","bandit","326","846957","0.0-288.0-0.0","55945880","wem/bandit_single","A18G2CLYSTENK","pain","6","","75","K","2","","0","1","0","","0.3439557404","false","251","","0.2938420796","main_expt","","0.4684276702","","0.3439557404","","0.2459600056","","","","","",""
"277","","bandit","327","849022","0.0-289.0-0.0","55945880","wem/bandit_single","A18G2CLYSTENK","pain","6","","75","K","2","","0","1","0","","0.3394881367","false","252","","0.2377141092","main_expt","","0.465775704","","0.3394881367","","0.2361341643","","","","","",""
"156","","bandit","328","850956","0.0-290.0-0.0","55945880","wem/bandit_single","A18G2CLYSTENK","pain","6","","75","K","2","","0","1","0","","0.3195186677","false","253","","0.28098189","main_expt","","0.4739398589","","0.3195186677","","0.2263014677","","","","","",""
"397","","bandit","329","853134","0.0-291.0-0.0","55945880","wem/bandit_single","A18G2CLYSTENK","pain","6","","75","K","2","","0","1","0","","0.3607388593","false","254","","0.36168886","main_expt","","0.4709597483","","0.3607388593","","0.2384195691","","","","","",""
"84","","bandit","330","855005","0.0-292.0-0.0","55945880","wem/bandit_single","A18G2CLYSTENK","pain","6","","75","K","2","","0","0","1","","0.3801942793","false","255","","0.3196270919","main_expt","","0.468651231","","0.3801942793","","0.2186709452","","","","","",""
"134","","bandit","331","856916","0.0-293.0-0.0","55945880","wem/bandit_single","A18G2CLYSTENK","pain","6","","72","H","0","img/none_selected.jpg","0","0","1","","0.3201998045","false","256","","0.3201998045","main_expt","","0.4837462493","","0.2987962353","","0.1625458568","","","","","",""
"34","","bandit","332","858722","0.0-294.0-0.0","55945880","wem/bandit_single","A18G2CLYSTENK","pain","6","","74","J","1","","0","1","0","","0.4842399178","false","257","","0.3576002339","main_expt","","0.4842399178","","0.272571782","","0.159361747","","","","","",""
"86","","bandit","333","860589","0.0-295.0-0.0","55945880","wem/bandit_single","A18G2CLYSTENK","pain","6","","74","J","1","","0","1","0","","0.4878873921","false","258","","0.3715220428","main_expt","","0.4878873921","","0.2593204486","","0.1556255119","","","","","",""
"397","","bandit","334","862775","0.0-296.0-0.0","55945880","wem/bandit_single","A18G2CLYSTENK","pain","6","","74","J","1","","0","1","0","","0.4869160663","false","259","","0.3730860303","main_expt","","0.4869160663","","0.2951424317","","0.1256368346","","","","","",""
"210","","bandit","335","864766","0.0-297.0-0.0","55945880","wem/bandit_single","A18G2CLYSTENK","pain","6","","74","J","1","","0","0","1","","0.4912834456","false","260","","0.3724964978","main_expt","","0.4912834456","","0.2369093976","","0.1449854444","","","","","",""
"236","","bandit","336","866782","0.0-298.0-0.0","55945880","wem/bandit_single","A18G2CLYSTENK","pain","6","","76","L","3","","0","0","1","","0.1647157085","false","261","","0.3574286068","main_expt","","0.4907072989","","0.2234433316","","0.1647157085","","","","","",""
"94","","bandit","337","868656","0.0-299.0-0.0","55945880","wem/bandit_single","A18G2CLYSTENK","pain","6","","72","H","0","img/none_selected.jpg","0","0","1","","0.4204463107","false","262","","0.4204463107","main_expt","","0.4904114062","","0.215626833","","0.1586541082","","","","","",""
"87","","bandit","338","870528","0.0-300.0-0.0","55945880","wem/bandit_single","A18G2CLYSTENK","pain","6","","74","J","1","","0","1","0","","0.4900075499","false","263","","0.4244263348","main_expt","","0.4900075499","","0.2227197798","","0.1683870388","","","","","",""
"40","","bandit","339","872340","0.0-301.0-0.0","55945880","wem/bandit_single","A18G2CLYSTENK","pain","6","","74","J","1","","0","1","0","","0.4922230388","false","264","","0.4217668892","main_expt","","0.4922230388","","0.2113558788","","0.2205087037","","","","","",""
"84","","bandit","340","874223","0.0-302.0-0.0","55945880","wem/bandit_single","A18G2CLYSTENK","pain","6","","75","K","2","","0","0","1","","0.1814287308","false","265","","0.3908218086","main_expt","","0.4892111554","","0.1814287308","","0.1554736059","","","","","",""
"103","","bandit","341","876098","0.0-303.0-0.0","55945880","wem/bandit_single","A18G2CLYSTENK","pain","6","","74","J","1","","0","1","0","","0.4894097466","false","266","","0.350583855","main_expt","","0.4894097466","","0.2579261203","","0.1556775797","","","","","",""
"197","","bandit","342","878088","0.0-304.0-0.0","55945880","wem/bandit_single","A18G2CLYSTENK","pain","6","","72","H","0","img/none_selected.jpg","0","1","0","","0.2971845499","false","267","","0.2971845499","main_expt","","0.4898547377","","0.3033521226","","0.1732223335","","","","","",""
"70","","bandit","343","879938","0.0-305.0-0.0","55945880","wem/bandit_single","A18G2CLYSTENK","pain","6","","72","H","0","img/none_selected.jpg","0","0","1","","0.3271935382","false","268","","0.3271935382","main_expt","","0.4960714099","","0.2697057224","","0.1670192172","","","","","",""
"516","","bandit","344","882236","0.0-306.0-0.0","55945880","wem/bandit_single","A18G2CLYSTENK","pain","6","","74","J","1","","0","1","0","","0.4951393121","false","269","","0.2912245063","main_expt","","0.4951393121","","0.3075876552","","0.1666577124","","","","","",""
"26","","bandit","345","884041","0.0-307.0-0.0","55945880","wem/bandit_single","A18G2CLYSTENK","pain","6","","74","J","1","","0","0","1","","0.4903783272","false","270","","0.3007980493","main_expt","","0.4903783272","","0.3437361696","","0.1133531577","","","","","",""
"287","","bandit","346","886107","0.0-308.0-0.0","55945880","wem/bandit_single","A18G2CLYSTENK","pain","6","","76","L","3","","0","0","1","","0.1453503833","false","271","","0.3025875308","main_expt","","0.4932948231","","0.2596534978","","0.1453503833","","","","","",""
"97","","bandit","347","887982","0.0-309.0-0.0","55945880","wem/bandit_single","A18G2CLYSTENK","pain","6","","74","J","1","","0","0","1","","0.4950636705","false","272","","0.2608882705","main_expt","","0.4950636705","","0.2680739133","","0.1542373291","","","","","",""
"293","","bandit","348","890065","0.0-310.0-0.0","55945880","wem/bandit_single","A18G2CLYSTENK","pain","6","","75","K","2","","0","0","1","","0.2287209558","false","273","","0.2985246063","main_expt","","0.4866982898","","0.2287209558","","0.1312836042","","","","","",""
"156","","bandit","349","892007","0.0-311.0-0.0","55945880","wem/bandit_single","A18G2CLYSTENK","pain","6","","72","H","0","img/none_selected.jpg","0","0","1","","0.296104213","false","274","","0.296104213","main_expt","","0.4654226264","","0.2659047846","","0.1616535947","","","","","",""
"571","","bandit","350","894358","0.0-312.0-0.0","55945880","wem/bandit_single","A18G2CLYSTENK","pain","6","","75","K","2","","0","0","1","","0.2303642271","false","275","","0.2897414639","main_expt","","0.4633702838","","0.2303642271","","0.163822666","","","","","",""
"307","","bandit","351","896457","0.0-313.0-0.0","55945880","wem/bandit_single","A18G2CLYSTENK","pain","6","","74","J","1","","0","0","1","","0.4741710053","false","276","","0.296822441","main_expt","","0.4741710053","","0.2631654739","","0.1500588852","","","","","",""
"153","","bandit","352","898382","0.0-314.0-0.0","55945880","wem/bandit_single","A18G2CLYSTENK","pain","6","","72","H","0","img/none_selected.jpg","0","1","0","","0.2769528726","false","277","","0.2769528726","main_expt","","0.4821206929","","0.2660527836","","0.1975700973","","","","","",""
"262","","bandit","353","900423","0.0-315.0-0.0","55945880","wem/bandit_single","A18G2CLYSTENK","pain","6","","72","H","0","img/none_selected.jpg","0","1","0","","0.3356585436","false","278","","0.3356585436","main_expt","","0.4704549119","","0.2869547209","","0.1355298524","","","","","",""
"865","","bandit","354","903074","0.0-316.0-0.0","55945880","wem/bandit_single","A18G2CLYSTENK","pain","6","","72","H","0","img/none_selected.jpg","0","0","1","","0.3222384225","false","279","","0.3222384225","main_expt","","0.4749598821","","0.3594721793","","0.1437345226","","","","","",""
"1182","","bandit","355","906046","0.0-317.0-0.0","55945880","wem/bandit_single","A18G2CLYSTENK","pain","6","","75","K","2","","0","1","0","","0.3903699723","false","280","","0.27346357","main_expt","","0.4385317488","","0.3903699723","","0.126787642","","","","","",""
"154","","bandit","356","907984","0.0-318.0-0.0","55945880","wem/bandit_single","A18G2CLYSTENK","pain","6","","75","K","2","","0","0","1","","0.4583904318","false","281","","0.3633072925","main_expt","","0.4397970497","","0.4583904318","","0.1765789866","","","","","",""
"223","","bandit","357","909991","0.0-319.0-0.0","55945880","wem/bandit_single","A18G2CLYSTENK","pain","6","","76","L","3","","0","0","1","","0.1659157347","false","282","","0.3269934488","main_expt","","0.4485424667","","0.4689346609","","0.1659157347","","","","","",""
"367","","bandit","358","912142","0.0-320.0-0.0","55945880","wem/bandit_single","A18G2CLYSTENK","pain","6","","74","J","1","","0","0","1","","0.4460930912","false","283","","0.324321327","main_expt","","0.4460930912","","0.460541741","","0.1876778028","","","","","",""
"127","","bandit","359","914050","0.0-321.0-0.0","55945880","wem/bandit_single","A18G2CLYSTENK","pain","6","","72","H","0","img/none_selected.jpg","0","0","1","","0.2677217275","false","284","","0.2677217275","main_expt","","0.46041158","","0.4485703909","","0.2072959333","","","","","",""
"227","","bandit","360","916057","0.0-322.0-0.0","55945880","wem/bandit_single","A18G2CLYSTENK","pain","6","","75","K","2","","0","1","0","","0.4493749552","false","285","","0.2832280908","main_expt","","0.4722631388","","0.4493749552","","0.2171876524","","","","","",""
"337","","bandit","361","918174","0.0-323.0-0.0","55945880","wem/bandit_single","A18G2CLYSTENK","pain","6","","75","K","2","","0","1","0","","0.4223312446","false","286","","0.3338799161","main_expt","","0.4710864859","","0.4223312446","","0.224404947","","","","","",""
"126","","bandit","362","920084","0.0-324.0-0.0","55945880","wem/bandit_single","A18G2CLYSTENK","pain","6","","75","K","2","","0","1","0","","0.457140216","false","287","","0.3484096991","main_expt","","0.4400158941","","0.457140216","","0.2249093708","","","","","",""
"77","","bandit","363","921950","0.0-325.0-0.0","55945880","wem/bandit_single","A18G2CLYSTENK","pain","6","","75","K","2","","0","0","1","","0.4411377771","false","288","","0.3215301514","main_expt","","0.4036546776","","0.4411377771","","0.2219747159","","","","","",""
"94","","bandit","364","923824","0.0-326.0-0.0","55945880","wem/bandit_single","A18G2CLYSTENK","pain","6","","72","H","0","img/none_selected.jpg","0","0","1","","0.2965974011","false","289","","0.2965974011","main_expt","","0.4324218596","","0.4501271696","","0.2183007497","","","","","",""
"246","","bandit","365","925857","0.0-327.0-0.0","55945880","wem/bandit_single","A18G2CLYSTENK","pain","6","","74","J","1","","0","1","0","","0.4536473803","false","290","","0.2926361454","main_expt","","0.4536473803","","0.4436507911","","0.2481136515","","","","","",""
"36","","bandit","366","927677","0.0-328.0-0.0","55945880","wem/bandit_single","A18G2CLYSTENK","pain","6","","74","J","1","","0","0","1","","0.4634661847","false","291","","0.243163711","main_expt","","0.4634661847","","0.4381939672","","0.2972088317","","","","","",""
"86","","bandit","367","929541","0.0-329.0-0.0","55945880","wem/bandit_single","A18G2CLYSTENK","pain","6","","76","L","3","","0","0","1","","0.2998647236","false","292","","0.2064952975","main_expt","","0.4609966616","","0.4101305143","","0.2998647236","","","","","",""
"127","","bandit","368","931460","0.0-330.0-0.0","55945880","wem/bandit_single","A18G2CLYSTENK","pain","6","","72","H","0","img/none_selected.jpg","0","0","1","","0.2099334792","false","293","","0.2099334792","main_expt","","0.4648618971","","0.4297915702","","0.2861810992","","","","","",""
"167","","bandit","369","933406","0.0-331.0-0.0","55945880","wem/bandit_single","A18G2CLYSTENK","pain","6","","75","K","2","","0","0","1","","0.4537219743","false","294","","0.2507358833","main_expt","","0.4582487824","","0.4537219743","","0.345484004","","","","","",""
"207","","bandit","370","935406","0.0-332.0-0.0","55945880","wem/bandit_single","A18G2CLYSTENK","pain","6","","74","J","1","","0","1","0","","0.4482247061","false","295","","0.2494268831","main_expt","","0.4482247061","","0.4694953972","","0.3251772281","","","","","",""
"377","","bandit","371","937573","0.0-333.0-0.0","55945880","wem/bandit_single","A18G2CLYSTENK","pain","6","","74","J","1","","0","0","1","","0.42326912","false","296","","0.2867080039","main_expt","","0.42326912","","0.4880383038","","0.2953905587","","","","","",""
"241","","bandit","372","939591","0.0-334.0-0.0","55945880","wem/bandit_single","A18G2CLYSTENK","pain","6","","72","H","0","img/none_selected.jpg","0","1","0","","0.2983387387","false","297","","0.2983387387","main_expt","","0.4151021773","","0.4916251568","","0.2717848064","","","","","",""
"287","","bandit","373","941667","0.0-335.0-0.0","55945880","wem/bandit_single","A18G2CLYSTENK","pain","6","","72","H","0","img/none_selected.jpg","0","1","0","","0.2982690602","false","298","","0.2982690602","main_expt","","0.4270228344","","0.4921476303","","0.2682571213","","","","","",""
