"rt","responses","trial_type","trial_index","time_elapsed","internal_node_id","subjID","study","MID","cond","drift","key_press","respCharCode","respKey","respChoiceNum","respChoice","gems","bombs","no_reward","GemPrChosen","BombPrChosen","practice","trial_counter","WinPr_0","LosePr_0","trial_label","WinPr_1","LosePr_1","WinPr_2","LosePr_2","WinPr_3","LosePr_3","Q0","Q1","Q2","gender","age","ethnicity"
"40888","{""Q0"":""A85ATJSDTIARY""}","survey-text","0","40898","0.0-0.0","55990867","wem/bandit_single","A85ATJSDTIARY","pain","2","","","","","","","","","","","","","","","","","","","","","","","","","","",""
"3934","","text","1","45843","0.0-1.0","55990867","wem/bandit_single","A85ATJSDTIARY","pain","2","32","","","","","","","","","","","","","","","","","","","","","","","","","",""
"6812","","text","2","52657","0.0-2.0","55990867","wem/bandit_single","A85ATJSDTIARY","pain","2","32","","","","","","","","","","","","","","","","","","","","","","","","","",""
"18008","","text","3","70668","0.0-3.0","55990867","wem/bandit_single","A85ATJSDTIARY","pain","2","32","","","","","","","","","","","","","","","","","","","","","","","","","",""
"17156","","text","4","87826","0.0-4.0","55990867","wem/bandit_single","A85ATJSDTIARY","pain","2","32","","","","","","","","","","","","","","","","","","","","","","","","","",""
"9402","","text","5","97231","0.0-5.0","55990867","wem/bandit_single","A85ATJSDTIARY","pain","2","32","","","","","","","","","","","","","","","","","","","","","","","","","",""
"10433","","text","6","107667","0.0-6.0","55990867","wem/bandit_single","A85ATJSDTIARY","pain","2","32","","","","","","","","","","","","","","","","","","","","","","","","","",""
"3226","","text","7","110895","0.0-7.0","55990867","wem/bandit_single","A85ATJSDTIARY","pain","2","32","","","","","","","","","","","","","","","","","","","","","","","","","",""
"3390","","text","8","114287","0.0-8.0","55990867","wem/bandit_single","A85ATJSDTIARY","pain","2","32","","","","","","","","","","","","","","","","","","","","","","","","","",""
"3206","","text","9","117495","0.0-9.0","55990867","wem/bandit_single","A85ATJSDTIARY","pain","2","32","","","","","","","","","","","","","","","","","","","","","","","","","",""
"5455","","text","10","122952","0.0-10.0","55990867","wem/bandit_single","A85ATJSDTIARY","pain","2","32","","","","","","","","","","","","","","","","","","","","","","","","","",""
"4661","","text","11","127614","0.0-11.0","55990867","wem/bandit_single","A85ATJSDTIARY","pain","2","32","","","","","","","","","","","","","","","","","","","","","","","","","",""
"991","","bandit","12","130112","0.0-12.0-0.0","55990867","wem/bandit_single","A85ATJSDTIARY","pain","2","","74","J","0","img/none_selected_demo.jpg","0","0","1","0","0","true","0","0","0","","","","","","","","","","","","",""
"744","","bandit","13","132617","0.0-13.0-0.0","55990867","wem/bandit_single","A85ATJSDTIARY","pain","2","","75","K","0","img/none_selected_demo.jpg","0","0","1","0","0","true","0","0","0","","","","","","","","","","","","",""
"1978","","text","14","134850","0.0-14.0","55990867","wem/bandit_single","A85ATJSDTIARY","pain","2","32","","","","","","","","","","","","","","","","","","","","","","","","","",""
"1761","","text","15","136615","0.0-15.0","55990867","wem/bandit_single","A85ATJSDTIARY","pain","2","32","","","","","","","","","","","","","","","","","","","","","","","","","",""
"3622","","text","16","140239","0.0-16.0","55990867","wem/bandit_single","A85ATJSDTIARY","pain","2","32","","","","","","","","","","","","","","","","","","","","","","","","","",""
"3517","","text","17","143760","0.0-17.0","55990867","wem/bandit_single","A85ATJSDTIARY","pain","2","32","","","","","","","","","","","","","","","","","","","","","","","","","",""
"675","","bandit","18","145943","0.0-18.0-0.0","55990867","wem/bandit_single","A85ATJSDTIARY","pain","2","","74","J","0","img/none_selected_demo.jpg","0","1","0","0","0.8","true","0","0","0.8","80_20_practice","0","0.2","","","","","","","","","",""
"178","","bandit","19","147882","0.0-18.0-1.0","55990867","wem/bandit_single","A85ATJSDTIARY","pain","2","","75","K","1","","0","0","1","0","0.2","true","0","0","0.8","80_20_practice","0","0.2","","","","","","","","","",""
"245","","bandit","20","149885","0.0-18.0-2.0","55990867","wem/bandit_single","A85ATJSDTIARY","pain","2","","75","K","1","","0","0","1","0","0.2","true","0","0","0.8","80_20_practice","0","0.2","","","","","","","","","",""
"851","","bandit","21","152494","0.0-18.0-3.0","55990867","wem/bandit_single","A85ATJSDTIARY","pain","2","","74","J","0","img/none_selected_demo.jpg","0","1","0","0","0.8","true","0","0","0.8","80_20_practice","0","0.2","","","","","","","","","",""
"18","","bandit","22","154270","0.0-18.0-4.0","55990867","wem/bandit_single","A85ATJSDTIARY","pain","2","","74","J","0","img/none_selected_demo.jpg","0","1","0","0","0.8","true","0","0","0.8","80_20_practice","0","0.2","","","","","","","","","",""
"729","","bandit","23","156758","0.0-18.0-5.0","55990867","wem/bandit_single","A85ATJSDTIARY","pain","2","","74","J","0","img/none_selected_demo.jpg","0","0","1","0","0.8","true","0","0","0.8","80_20_practice","0","0.2","","","","","","","","","",""
"4","","bandit","24","158521","0.0-18.0-6.0","55990867","wem/bandit_single","A85ATJSDTIARY","pain","2","","74","J","0","img/none_selected_demo.jpg","0","1","0","0","0.8","true","0","0","0.8","80_20_practice","0","0.2","","","","","","","","","",""
"80","","bandit","25","160361","0.0-18.0-7.0","55990867","wem/bandit_single","A85ATJSDTIARY","pain","2","","74","J","0","img/none_selected_demo.jpg","0","1","0","0","0.8","true","0","0","0.8","80_20_practice","0","0.2","","","","","","","","","",""
"1846","","bandit","26","163967","0.0-18.0-8.0","55990867","wem/bandit_single","A85ATJSDTIARY","pain","2","","74","J","0","img/none_selected_demo.jpg","0","1","0","0","0.8","true","0","0","0.8","80_20_practice","0","0.2","","","","","","","","","",""
"15","","bandit","27","165744","0.0-18.0-9.0","55990867","wem/bandit_single","A85ATJSDTIARY","pain","2","","74","J","0","img/none_selected_demo.jpg","0","1","0","0","0.8","true","0","0","0.8","80_20_practice","0","0.2","","","","","","","","","",""
"9","","bandit","28","167509","0.0-18.0-10.0","55990867","wem/bandit_single","A85ATJSDTIARY","pain","2","","74","J","0","img/none_selected_demo.jpg","0","1","0","0","0.8","true","0","0","0.8","80_20_practice","0","0.2","","","","","","","","","",""
"1228","","bandit","29","170495","0.0-18.0-11.0","55990867","wem/bandit_single","A85ATJSDTIARY","pain","2","","74","J","0","img/none_selected_demo.jpg","0","1","0","0","0.8","true","0","0","0.8","80_20_practice","0","0.2","","","","","","","","","",""
"256","","bandit","30","172511","0.0-18.0-12.0","55990867","wem/bandit_single","A85ATJSDTIARY","pain","2","","74","J","0","img/none_selected_demo.jpg","0","0","1","0","0.8","true","0","0","0.8","80_20_practice","0","0.2","","","","","","","","","",""
"467","","bandit","31","174737","0.0-18.0-13.0","55990867","wem/bandit_single","A85ATJSDTIARY","pain","2","","74","J","0","img/none_selected_demo.jpg","0","1","0","0","0.8","true","0","0","0.8","80_20_practice","0","0.2","","","","","","","","","",""
"412","","bandit","32","176910","0.0-18.0-14.0","55990867","wem/bandit_single","A85ATJSDTIARY","pain","2","","74","J","0","img/none_selected_demo.jpg","0","1","0","0","0.8","true","0","0","0.8","80_20_practice","0","0.2","","","","","","","","","",""
"58","","bandit","33","178727","0.0-18.0-15.0","55990867","wem/bandit_single","A85ATJSDTIARY","pain","2","","74","J","0","img/none_selected_demo.jpg","0","1","0","0","0.8","true","0","0","0.8","80_20_practice","0","0.2","","","","","","","","","",""
"32","","bandit","34","180520","0.0-18.0-16.0","55990867","wem/bandit_single","A85ATJSDTIARY","pain","2","","74","J","0","img/none_selected_demo.jpg","0","1","0","0","0.8","true","0","0","0.8","80_20_practice","0","0.2","","","","","","","","","",""
"1079","","bandit","35","183359","0.0-18.0-17.0","55990867","wem/bandit_single","A85ATJSDTIARY","pain","2","","74","J","0","img/none_selected_demo.jpg","0","1","0","0","0.8","true","0","0","0.8","80_20_practice","0","0.2","","","","","","","","","",""
"752","","bandit","36","185871","0.0-18.0-18.0","55990867","wem/bandit_single","A85ATJSDTIARY","pain","2","","74","J","0","img/none_selected_demo.jpg","0","0","1","0","0.8","true","0","0","0.8","80_20_practice","0","0.2","","","","","","","","","",""
"729","","bandit","37","188361","0.0-18.0-19.0","55990867","wem/bandit_single","A85ATJSDTIARY","pain","2","","74","J","0","img/none_selected_demo.jpg","0","1","0","0","0.8","true","0","0","0.8","80_20_practice","0","0.2","","","","","","","","","",""
"7131","","text","38","195748","0.0-19.0","55990867","wem/bandit_single","A85ATJSDTIARY","pain","2","32","","","","","","","","","","","","","","","","","","","","","","","","","",""
"3574","","bandit","39","200830","0.0-20.0-0.0","55990867","wem/bandit_single","A85ATJSDTIARY","pain","2","","74","J","0","img/none_selected_demo.jpg","0","0","1","0","0","true","0","0","0","","0","0","","","","","","","","","",""
"9421","","text","40","210506","0.0-21.0","55990867","wem/bandit_single","A85ATJSDTIARY","pain","2","32","","","","","","","","","","","","","","","","","","","","","","","","","",""
"2720","","text","41","213231","0.0-22.0","55990867","wem/bandit_single","A85ATJSDTIARY","pain","2","32","","","","","","","","","","","","","","","","","","","","","","","","","",""
"2869","","text","42","216102","0.0-23.0","55990867","wem/bandit_single","A85ATJSDTIARY","pain","2","32","","","","","","","","","","","","","","","","","","","","","","","","","",""
"2756","","text","43","218862","0.0-24.0","55990867","wem/bandit_single","A85ATJSDTIARY","pain","2","32","","","","","","","","","","","","","","","","","","","","","","","","","",""
"12197","","text","44","231062","0.0-25.0","55990867","wem/bandit_single","A85ATJSDTIARY","pain","2","32","","","","","","","","","","","","","","","","","","","","","","","","","",""
"4334","","text","45","235398","0.0-26.0","55990867","wem/bandit_single","A85ATJSDTIARY","pain","2","32","","","","","","","","","","","","","","","","","","","","","","","","","",""
"3708","","text","46","239110","0.0-27.0","55990867","wem/bandit_single","A85ATJSDTIARY","pain","2","32","","","","","","","","","","","","","","","","","","","","","","","","","",""
"2122","","text","47","241234","0.0-28.0","55990867","wem/bandit_single","A85ATJSDTIARY","pain","2","32","","","","","","","","","","","","","","","","","","","","","","","","","",""
"6105","","text","48","247342","0.0-29.0","55990867","wem/bandit_single","A85ATJSDTIARY","pain","2","32","","","","","","","","","","","","","","","","","","","","","","","","","",""
"1237","","text","49","248582","0.0-30.0","55990867","wem/bandit_single","A85ATJSDTIARY","pain","2","32","","","","","","","","","","","","","","","","","","","","","","","","","",""
"3647","","text","50","252233","0.0-31.0","55990867","wem/bandit_single","A85ATJSDTIARY","pain","2","32","","","","","","","","","","","","","","","","","","","","","","","","","",""
"608","","bandit","51","254349","0.0-32.0-0.0","55990867","wem/bandit_single","A85ATJSDTIARY","pain","2","","72","H","0","img/none_selected.jpg","0","1","0","0","0.8","true","0","0","0.8","full_practice","0","0.2","0","0.6","0","0.2","","","","","",""
"105","","bandit","52","256213","0.0-32.0-1.0","55990867","wem/bandit_single","A85ATJSDTIARY","pain","2","","74","J","1","","0","0","1","0","0.2","true","0","0","0.8","full_practice","0","0.2","0","0.6","0","0.2","","","","","",""
"198","","bandit","53","258175","0.0-32.0-2.0","55990867","wem/bandit_single","A85ATJSDTIARY","pain","2","","72","H","0","img/none_selected.jpg","0","1","0","0","0.8","true","0","0","0.8","full_practice","0","0.2","0","0.6","0","0.2","","","","","",""
"0","","bandit","54","259935","0.0-32.0-3.0","55990867","wem/bandit_single","A85ATJSDTIARY","pain","2","","72","H","0","img/none_selected.jpg","0","1","0","0","0.8","true","0","0","0.8","full_practice","0","0.2","0","0.6","0","0.2","","","","","",""
"29","","bandit","55","261724","0.0-32.0-4.0","55990867","wem/bandit_single","A85ATJSDTIARY","pain","2","","72","H","0","img/none_selected.jpg","0","1","0","0","0.8","true","0","0","0.8","full_practice","0","0.2","0","0.6","0","0.2","","","","","",""
"3","","bandit","56","263485","0.0-32.0-5.0","55990867","wem/bandit_single","A85ATJSDTIARY","pain","2","","72","H","0","img/none_selected.jpg","0","1","0","0","0.8","true","0","0","0.8","full_practice","0","0.2","0","0.6","0","0.2","","","","","",""
"1186","","bandit","57","266431","0.0-32.0-6.0","55990867","wem/bandit_single","A85ATJSDTIARY","pain","2","","72","H","0","img/none_selected.jpg","0","1","0","0","0.8","true","0","0","0.8","full_practice","0","0.2","0","0.6","0","0.2","","","","","",""
"430","","bandit","58","268623","0.0-32.0-7.0","55990867","wem/bandit_single","A85ATJSDTIARY","pain","2","","72","H","0","img/none_selected.jpg","0","1","0","0","0.8","true","0","0","0.8","full_practice","0","0.2","0","0.6","0","0.2","","","","","",""
"245","","bandit","59","270629","0.0-32.0-8.0","55990867","wem/bandit_single","A85ATJSDTIARY","pain","2","","72","H","0","img/none_selected.jpg","0","1","0","0","0.8","true","0","0","0.8","full_practice","0","0.2","0","0.6","0","0.2","","","","","",""
"121","","bandit","60","272511","0.0-32.0-9.0","55990867","wem/bandit_single","A85ATJSDTIARY","pain","2","","72","H","0","img/none_selected.jpg","0","0","1","0","0.8","true","0","0","0.8","full_practice","0","0.2","0","0.6","0","0.2","","","","","",""
"47","","bandit","61","274319","0.0-32.0-10.0","55990867","wem/bandit_single","A85ATJSDTIARY","pain","2","","72","H","0","img/none_selected.jpg","0","0","1","0","0.8","true","0","0","0.8","full_practice","0","0.2","0","0.6","0","0.2","","","","","",""
"9","","bandit","62","276088","0.0-32.0-11.0","55990867","wem/bandit_single","A85ATJSDTIARY","pain","2","","72","H","0","img/none_selected.jpg","0","1","0","0","0.8","true","0","0","0.8","full_practice","0","0.2","0","0.6","0","0.2","","","","","",""
"64","","bandit","63","277910","0.0-32.0-12.0","55990867","wem/bandit_single","A85ATJSDTIARY","pain","2","","72","H","0","img/none_selected.jpg","0","0","1","0","0.8","true","0","0","0.8","full_practice","0","0.2","0","0.6","0","0.2","","","","","",""
"2","","bandit","64","279675","0.0-32.0-13.0","55990867","wem/bandit_single","A85ATJSDTIARY","pain","2","","75","K","2","","0","1","0","0","0.6","true","0","0","0.8","full_practice","0","0.2","0","0.6","0","0.2","","","","","",""
"164","","bandit","65","281598","0.0-32.0-14.0","55990867","wem/bandit_single","A85ATJSDTIARY","pain","2","","75","K","2","","0","1","0","0","0.6","true","0","0","0.8","full_practice","0","0.2","0","0.6","0","0.2","","","","","",""
"281","","bandit","66","283638","0.0-32.0-15.0","55990867","wem/bandit_single","A85ATJSDTIARY","pain","2","","75","K","2","","0","1","0","0","0.6","true","0","0","0.8","full_practice","0","0.2","0","0.6","0","0.2","","","","","",""
"369","","bandit","67","285766","0.0-32.0-16.0","55990867","wem/bandit_single","A85ATJSDTIARY","pain","2","","75","K","2","","0","1","0","0","0.6","true","0","0","0.8","full_practice","0","0.2","0","0.6","0","0.2","","","","","",""
"52","","bandit","68","287583","0.0-32.0-17.0","55990867","wem/bandit_single","A85ATJSDTIARY","pain","2","","75","K","2","","0","1","0","0","0.6","true","0","0","0.8","full_practice","0","0.2","0","0.6","0","0.2","","","","","",""
"53","","bandit","69","289399","0.0-32.0-18.0","55990867","wem/bandit_single","A85ATJSDTIARY","pain","2","","75","K","2","","0","1","0","0","0.6","true","0","0","0.8","full_practice","0","0.2","0","0.6","0","0.2","","","","","",""
"1087","","bandit","70","292247","0.0-32.0-19.0","55990867","wem/bandit_single","A85ATJSDTIARY","pain","2","","75","K","2","","0","0","1","0","0.6","true","0","0","0.8","full_practice","0","0.2","0","0.6","0","0.2","","","","","",""
"2072","","text","71","294575","0.0-33.0","55990867","wem/bandit_single","A85ATJSDTIARY","pain","2","32","","","","","","","","","","","","","","","","","","","","","","","","","",""
"9309","","text","72","304891","0.0-34.0","55990867","wem/bandit_single","A85ATJSDTIARY","pain","2","32","","","","","","","","","","","","","","","","","","","","","","","","","",""
"1096","","text","73","305992","0.0-35.0","55990867","wem/bandit_single","A85ATJSDTIARY","pain","2","32","","","","","","","","","","","","","","","","","","","","","","","","","",""
"6819","","text","74","312815","0.0-36.0","55990867","wem/bandit_single","A85ATJSDTIARY","pain","2","32","","","","","","","","","","","","","","","","","","","","","","","","","",""
"4313","","text","75","317131","0.0-37.0","55990867","wem/bandit_single","A85ATJSDTIARY","pain","2","32","","","","","","","","","","","","","","","","","","","","","","","","","",""
"1460","","bandit","76","320103","0.0-38.0-0.0","55990867","wem/bandit_single","A85ATJSDTIARY","pain","2","","72","H","0","img/none_selected.jpg","0","0","1","","0.03692567881","false","1","","0.03692567881","main_expt","","0.1473353724","","0.1047922924","","0.1196507759","","","","","",""
"1062","","bandit","77","322926","0.0-39.0-0.0","55990867","wem/bandit_single","A85ATJSDTIARY","pain","2","","74","J","1","","0","0","1","","0.1471364572","false","2","","0.0535834513","main_expt","","0.1471364572","","0.09232691068","","0.1434551849","","","","","",""
"82","","bandit","78","324767","0.0-40.0-0.0","55990867","wem/bandit_single","A85ATJSDTIARY","pain","2","","75","K","2","","0","0","1","","0.07878604621","false","3","","0.06455495551","main_expt","","0.1792173289","","0.07878604621","","0.1966750378","","","","","",""
"30","","bandit","79","326556","0.0-41.0-0.0","55990867","wem/bandit_single","A85ATJSDTIARY","pain","2","","76","L","3","","0","1","0","","0.1731728381","false","4","","0.1075220519","main_expt","","0.2089457512","","0.06180226224","","0.1731728381","","","","","",""
"21","","bandit","80","328340","0.0-42.0-0.0","55990867","wem/bandit_single","A85ATJSDTIARY","pain","2","","76","L","3","","0","0","1","","0.151671232","false","5","","0.1459974634","main_expt","","0.2627176439","","0.05657605877","","0.151671232","","","","","",""
"10","","bandit","81","330112","0.0-43.0-0.0","55990867","wem/bandit_single","A85ATJSDTIARY","pain","2","","76","L","3","","0","0","1","","0.2201434377","false","6","","0.1119865757","main_expt","","0.2052823447","","0.03926223851","","0.2201434377","","","","","",""
"99","","bandit","82","331972","0.0-44.0-0.0","55990867","wem/bandit_single","A85ATJSDTIARY","pain","2","","75","K","2","","0","0","1","","0.02952185798","false","7","","0.1135710889","main_expt","","0.2424381104","","0.02952185798","","0.1924323999","","","","","",""
"74","","bandit","83","333804","0.0-45.0-0.0","55990867","wem/bandit_single","A85ATJSDTIARY","pain","2","","74","J","1","","0","0","1","","0.2324683495","false","8","","0.148696524","main_expt","","0.2324683495","","0.01847757052","","0.187431757","","","","","",""
"21","","bandit","84","335590","0.0-46.0-0.0","55990867","wem/bandit_single","A85ATJSDTIARY","pain","2","","72","H","0","img/none_selected.jpg","0","0","1","","0.1181121295","false","9","","0.1181121295","main_expt","","0.2440295668","","0.02695314055","","0.197470847","","","","","",""
"24","","bandit","85","337372","0.0-47.0-0.0","55990867","wem/bandit_single","A85ATJSDTIARY","pain","2","","72","H","0","img/none_selected.jpg","0","0","1","","0.1082266346","false","10","","0.1082266346","main_expt","","0.2465422232","","0.02234311218","","0.2298270047","","","","","",""
"3","","bandit","86","339131","0.0-48.0-0.0","55990867","wem/bandit_single","A85ATJSDTIARY","pain","2","","74","J","1","","0","1","0","","0.1529972956","false","11","","0.1102162287","main_expt","","0.1529972956","","0.04960883058","","0.2124937163","","","","","",""
"998","","bandit","87","341893","0.0-49.0-0.0","55990867","wem/bandit_single","A85ATJSDTIARY","pain","2","","74","J","1","","0","0","1","","0.1827224572","false","12","","0.1420736562","main_expt","","0.1827224572","","0.06086541187","","0.2043121782","","","","","",""
"38","","bandit","88","343692","0.0-50.0-0.0","55990867","wem/bandit_single","A85ATJSDTIARY","pain","2","","74","J","1","","0","0","1","","0.1973099221","false","13","","0.1582971975","main_expt","","0.1973099221","","0.06603274732","","0.2122729008","","","","","",""
"189","","bandit","89","345647","0.0-51.0-0.0","55990867","wem/bandit_single","A85ATJSDTIARY","pain","2","","75","K","2","","0","0","1","","0.06952645267","false","14","","0.1278364912","main_expt","","0.2002936143","","0.06952645267","","0.1748916548","","","","","",""
"100","","bandit","90","347509","0.0-52.0-0.0","55990867","wem/bandit_single","A85ATJSDTIARY","pain","2","","76","L","3","","0","0","1","","0.1598041939","false","15","","0.1389591295","main_expt","","0.2100222876","","0.06705093019","","0.1598041939","","","","","",""
"55","","bandit","91","349326","0.0-53.0-0.0","55990867","wem/bandit_single","A85ATJSDTIARY","pain","2","","75","K","2","","0","0","1","","0.08739136862","false","16","","0.1087507618","main_expt","","0.192095419","","0.08739136862","","0.1496559895","","","","","",""
"590","","bandit","92","351676","0.0-54.0-0.0","55990867","wem/bandit_single","A85ATJSDTIARY","pain","2","","74","J","1","","0","1","0","","0.2057363858","false","17","","0.1591778588","main_expt","","0.2057363858","","0.0633177824","","0.1855105105","","","","","",""
"63","","bandit","93","353502","0.0-55.0-0.0","55990867","wem/bandit_single","A85ATJSDTIARY","pain","2","","74","J","1","","0","0","1","","0.2142317849","false","18","","0.1612769879","main_expt","","0.2142317849","","0.05969087175","","0.180786103","","","","","",""
"30","","bandit","94","355292","0.0-56.0-0.0","55990867","wem/bandit_single","A85ATJSDTIARY","pain","2","","74","J","1","","0","0","1","","0.2416868574","false","19","","0.1706614454","main_expt","","0.2416868574","","0.08316546351","","0.1867551017","","","","","",""
"87","","bandit","95","357142","0.0-57.0-0.0","55990867","wem/bandit_single","A85ATJSDTIARY","pain","2","","72","H","0","img/none_selected.jpg","0","1","0","","0.2173206475","false","20","","0.2173206475","main_expt","","0.2556662882","","0.08506169859","","0.2414580321","","","","","",""
"45","","bandit","96","358949","0.0-58.0-0.0","55990867","wem/bandit_single","A85ATJSDTIARY","pain","2","","72","H","0","img/none_selected.jpg","0","0","1","","0.2297715145","false","21","","0.2297715145","main_expt","","0.2484624222","","0.08337624199","","0.2552731096","","","","","",""
"2","","bandit","97","360712","0.0-59.0-0.0","55990867","wem/bandit_single","A85ATJSDTIARY","pain","2","","72","H","0","img/none_selected.jpg","0","0","1","","0.2893552095","false","22","","0.2893552095","main_expt","","0.3180013331","","0.09400888178","","0.2706059063","","","","","",""
"708","","bandit","98","363180","0.0-60.0-0.0","55990867","wem/bandit_single","A85ATJSDTIARY","pain","2","","72","H","0","img/none_selected.jpg","0","0","1","","0.1756353462","false","23","","0.1756353462","main_expt","","0.3018869565","","0.08373077729","","0.2240124609","","","","","",""
"266","","bandit","99","365205","0.0-61.0-0.0","55990867","wem/bandit_single","A85ATJSDTIARY","pain","2","","75","K","2","","0","0","1","","0.07394888686","false","24","","0.144307289","main_expt","","0.3479913718","","0.07394888686","","0.2337623096","","","","","",""
"7","","bandit","100","366972","0.0-62.0-0.0","55990867","wem/bandit_single","A85ATJSDTIARY","pain","2","","76","L","3","","0","1","0","","0.1992837424","false","25","","0.1103761204","main_expt","","0.3851600672","","0.1177231478","","0.1992837424","","","","","",""
"95","","bandit","101","368829","0.0-63.0-0.0","55990867","wem/bandit_single","A85ATJSDTIARY","pain","2","","76","L","3","","0","0","1","","0.2273902023","false","26","","0.09313295331","main_expt","","0.3771699284","","0.1137187285","","0.2273902023","","","","","",""
"1055","","bandit","102","371646","0.0-64.0-0.0","55990867","wem/bandit_single","A85ATJSDTIARY","pain","2","","76","L","3","","0","0","1","","0.2020281611","false","27","","0.07841862492","main_expt","","0.3284072512","","0.1380279251","","0.2020281611","","","","","",""
"38","","bandit","103","373447","0.0-65.0-0.0","55990867","wem/bandit_single","A85ATJSDTIARY","pain","2","","75","K","2","","0","0","1","","0.1926536066","false","28","","0.0635621653","main_expt","","0.3708797381","","0.1926536066","","0.2121805601","","","","","",""
"765","","bandit","104","375973","0.0-66.0-0.0","55990867","wem/bandit_single","A85ATJSDTIARY","pain","2","","75","K","2","","0","0","1","","0.1919064193","false","29","","0.04349452081","main_expt","","0.3630760189","","0.1919064193","","0.1986823058","","","","","",""
"94","","bandit","105","377831","0.0-67.0-0.0","55990867","wem/bandit_single","A85ATJSDTIARY","pain","2","","74","J","1","","0","0","1","","0.3414786107","false","30","","0.06175929786","main_expt","","0.3414786107","","0.1767437005","","0.2674628916","","","","","",""
"19","","bandit","106","379612","0.0-68.0-0.0","55990867","wem/bandit_single","A85ATJSDTIARY","pain","2","","76","L","3","","0","0","1","","0.2862820789","false","31","","0.06380111671","main_expt","","0.3536929226","","0.2417082081","","0.2862820789","","","","","",""
"16","","bandit","107","381388","0.0-69.0-0.0","55990867","wem/bandit_single","A85ATJSDTIARY","pain","2","","72","H","0","img/none_selected.jpg","0","0","1","","0.08507033619","false","32","","0.08507033619","main_expt","","0.3238646006","","0.2312742115","","0.2895619367","","","","","",""
"838","","bandit","108","383986","0.0-70.0-0.0","55990867","wem/bandit_single","A85ATJSDTIARY","pain","2","","75","K","2","","0","0","1","","0.2247834387","false","33","","0.1242974044","main_expt","","0.3018803865","","0.2247834387","","0.312502841","","","","","",""
"33","","bandit","109","385780","0.0-71.0-0.0","55990867","wem/bandit_single","A85ATJSDTIARY","pain","2","","74","J","1","","0","1","0","","0.2551449341","false","34","","0.158311101","main_expt","","0.2551449341","","0.1192543008","","0.2830864838","","","","","",""
"18","","bandit","110","387557","0.0-72.0-0.0","55990867","wem/bandit_single","A85ATJSDTIARY","pain","2","","74","J","1","","0","1","0","","0.3200580053","false","35","","0.1293969191","main_expt","","0.3200580053","","0.1336327135","","0.2489219385","","","","","",""
"62","","bandit","111","389380","0.0-73.0-0.0","55990867","wem/bandit_single","A85ATJSDTIARY","pain","2","","74","J","1","","0","0","1","","0.3241899647","false","36","","0.1800853883","main_expt","","0.3241899647","","0.09851205292","","0.2090346537","","","","","",""
"760","","bandit","112","391900","0.0-74.0-0.0","55990867","wem/bandit_single","A85ATJSDTIARY","pain","2","","74","J","1","","0","0","1","","0.3029113802","false","37","","0.1025448258","main_expt","","0.3029113802","","0.05943694951","","0.210385238","","","","","",""
"89","","bandit","113","393748","0.0-75.0-0.0","55990867","wem/bandit_single","A85ATJSDTIARY","pain","2","","74","J","1","","0","0","1","","0.2958592888","false","38","","0.1604021245","main_expt","","0.2958592888","","0.06217728149","","0.162227856","","","","","",""
"25","","bandit","114","395538","0.0-76.0-0.0","55990867","wem/bandit_single","A85ATJSDTIARY","pain","2","","74","J","1","","0","0","1","","0.2941945884","false","39","","0.1336531769","main_expt","","0.2941945884","","0.08902833973","","0.1444893634","","","","","",""
"284","","bandit","115","397582","0.0-77.0-0.0","55990867","wem/bandit_single","A85ATJSDTIARY","pain","2","","76","L","3","","0","0","1","","0.1340169349","false","40","","0.1356889635","main_expt","","0.2784490849","","0.1098655825","","0.1340169349","","","","","",""
"61","","bandit","116","399407","0.0-78.0-0.0","55990867","wem/bandit_single","A85ATJSDTIARY","pain","2","","75","K","2","","0","0","1","","0.125718056","false","41","","0.1434276379","main_expt","","0.2943099773","","0.125718056","","0.1019114547","","","","","",""
"80","","bandit","117","401251","0.0-79.0-0.0","55990867","wem/bandit_single","A85ATJSDTIARY","pain","2","","72","H","0","img/none_selected.jpg","0","0","1","","0.1432973755","false","42","","0.1432973755","main_expt","","0.2502187242","","0.07668278466","","0.07379386716","","","","","",""
"5","","bandit","118","403021","0.0-80.0-0.0","55990867","wem/bandit_single","A85ATJSDTIARY","pain","2","","72","H","0","img/none_selected.jpg","0","0","1","","0.1605884153","false","43","","0.1605884153","main_expt","","0.2691097515","","0.08403116819","","0.08186566242","","","","","",""
"365","","bandit","119","405150","0.0-81.0-0.0","55990867","wem/bandit_single","A85ATJSDTIARY","pain","2","","74","J","1","","0","0","1","","0.2601206974","false","44","","0.1396132557","main_expt","","0.2601206974","","0.08258467284","","0.08692603594","","","","","",""
"111","","bandit","120","407025","0.0-82.0-0.0","55990867","wem/bandit_single","A85ATJSDTIARY","pain","2","","75","K","2","","0","0","1","","0.07253936928","false","45","","0.2250933593","main_expt","","0.3222012474","","0.07253936928","","0.1212470101","","","","","",""
"11","","bandit","121","408797","0.0-83.0-0.0","55990867","wem/bandit_single","A85ATJSDTIARY","pain","2","","76","L","3","","0","0","1","","0.134661007","false","46","","0.1826421925","main_expt","","0.3060845752","","0.05374479905","","0.134661007","","","","","",""
"869","","bandit","122","411428","0.0-84.0-0.0","55990867","wem/bandit_single","A85ATJSDTIARY","pain","2","","76","L","3","","0","0","1","","0.1377890551","false","47","","0.1706758886","main_expt","","0.290950603","","0.06764850751","","0.1377890551","","","","","",""
"529","","bandit","123","413716","0.0-85.0-0.0","55990867","wem/bandit_single","A85ATJSDTIARY","pain","2","","75","K","2","","0","1","0","","0.05656727153","false","48","","0.1686178854","main_expt","","0.329307254","","0.05656727153","","0.1325860966","","","","","",""
"57","","bandit","124","415533","0.0-86.0-0.0","55990867","wem/bandit_single","A85ATJSDTIARY","pain","2","","75","K","2","","0","0","1","","0.08131597157","false","49","","0.1822379713","main_expt","","0.405044281","","0.08131597157","","0.1231750139","","","","","",""
"231","","bandit","125","417529","0.0-87.0-0.0","55990867","wem/bandit_single","A85ATJSDTIARY","pain","2","","75","K","2","","0","0","1","","0.08274267654","false","50","","0.2513484478","main_expt","","0.4121919591","","0.08274267654","","0.1565964086","","","","","",""
"20","","bandit","126","419309","0.0-88.0-0.0","55990867","wem/bandit_single","A85ATJSDTIARY","pain","2","","74","J","1","","0","1","0","","0.4271607293","false","51","","0.2812942615","main_expt","","0.4271607293","","0.1154896937","","0.1464659706","","","","","",""
"500","","bandit","127","421572","0.0-89.0-0.0","55990867","wem/bandit_single","A85ATJSDTIARY","pain","2","","74","J","1","","0","1","0","","0.4249516559","false","52","","0.2224049931","main_expt","","0.4249516559","","0.07649260985","","0.1196909414","","","","","",""
"593","","bandit","128","423925","0.0-90.0-0.0","55990867","wem/bandit_single","A85ATJSDTIARY","pain","2","","74","J","1","","0","1","0","","0.414238899","false","53","","0.2135714686","main_expt","","0.414238899","","0.06211708307","","0.1578713891","","","","","",""
"208","","bandit","129","425892","0.0-91.0-0.0","55990867","wem/bandit_single","A85ATJSDTIARY","pain","2","","74","J","1","","0","0","1","","0.4404827494","false","54","","0.2471494284","main_expt","","0.4404827494","","0.05122165179","","0.1420893662","","","","","",""
"420","","bandit","130","428076","0.0-92.0-0.0","55990867","wem/bandit_single","A85ATJSDTIARY","pain","2","","74","J","1","","0","0","1","","0.4258944343","false","55","","0.26732004","main_expt","","0.4258944343","","0.05779626682","","0.1255118638","","","","","",""
"389","","bandit","131","430230","0.0-93.0-0.0","55990867","wem/bandit_single","A85ATJSDTIARY","pain","2","","74","J","1","","0","0","1","","0.4058732664","false","56","","0.258853447","main_expt","","0.4058732664","","0.06578325953","","0.1040792381","","","","","",""
"80","","bandit","132","432076","0.0-94.0-0.0","55990867","wem/bandit_single","A85ATJSDTIARY","pain","2","","74","J","1","","0","1","0","","0.4269212616","false","57","","0.247757255","main_expt","","0.4269212616","","0.07487929626","","0.1058118143","","","","","",""
"85","","bandit","133","433924","0.0-95.0-0.0","55990867","wem/bandit_single","A85ATJSDTIARY","pain","2","","74","J","1","","0","0","1","","0.4120073189","false","58","","0.2380046022","main_expt","","0.4120073189","","0.05601765109","","0.08107820888","","","","","",""
"366","","bandit","134","436053","0.0-96.0-0.0","55990867","wem/bandit_single","A85ATJSDTIARY","pain","2","","74","J","1","","0","0","1","","0.367464959","false","59","","0.273239949","main_expt","","0.367464959","","0.07158824907","","0.115954585","","","","","",""
"31","","bandit","135","437850","0.0-97.0-0.0","55990867","wem/bandit_single","A85ATJSDTIARY","pain","2","","72","H","0","img/none_selected.jpg","0","1","0","","0.314936794","false","60","","0.314936794","main_expt","","0.3113576115","","0.1021813758","","0.190529156","","","","","",""
"48","","bandit","136","439660","0.0-98.0-0.0","55990867","wem/bandit_single","A85ATJSDTIARY","pain","2","","72","H","0","img/none_selected.jpg","0","0","1","","0.3361315769","false","61","","0.3361315769","main_expt","","0.3217665369","","0.1422244628","","0.2024767933","","","","","",""
"28","","bandit","137","441453","0.0-99.0-0.0","55990867","wem/bandit_single","A85ATJSDTIARY","pain","2","","72","H","0","img/none_selected.jpg","0","0","1","","0.3012470308","false","62","","0.3012470308","main_expt","","0.3396020841","","0.1543762338","","0.1478811465","","","","","",""
"28","","bandit","138","443245","0.0-100.0-0.0","55990867","wem/bandit_single","A85ATJSDTIARY","pain","2","","72","H","0","img/none_selected.jpg","0","0","1","","0.3035933772","false","63","","0.3035933772","main_expt","","0.3326008901","","0.1957871903","","0.1472080331","","","","","",""
"717","","bandit","139","445724","0.0-101.0-0.0","55990867","wem/bandit_single","A85ATJSDTIARY","pain","2","","76","L","3","","0","0","1","","0.1523556625","false","64","","0.3061864711","main_expt","","0.2759567044","","0.1998827037","","0.1523556625","","","","","",""
"79","","bandit","140","447565","0.0-102.0-0.0","55990867","wem/bandit_single","A85ATJSDTIARY","pain","2","","76","L","3","","0","0","1","","0.1640586258","false","65","","0.2795045379","main_expt","","0.330340259","","0.2229124218","","0.1640586258","","","","","",""
"86","","bandit","141","449416","0.0-103.0-0.0","55990867","wem/bandit_single","A85ATJSDTIARY","pain","2","","75","K","2","","0","1","0","","0.2821528041","false","66","","0.2624990872","main_expt","","0.394496842","","0.2821528041","","0.1559289375","","","","","",""
"744","","bandit","142","451925","0.0-104.0-0.0","55990867","wem/bandit_single","A85ATJSDTIARY","pain","2","","75","K","2","","0","0","1","","0.2228434199","false","67","","0.2316809648","main_expt","","0.3780229448","","0.2228434199","","0.09042099393","","","","","",""
"19","","bandit","143","453707","0.0-105.0-0.0","55990867","wem/bandit_single","A85ATJSDTIARY","pain","2","","75","K","2","","0","0","1","","0.2039549584","false","68","","0.2266776066","main_expt","","0.313258317","","0.2039549584","","0.08874767337","","","","","",""
"18","","bandit","144","455485","0.0-106.0-0.0","55990867","wem/bandit_single","A85ATJSDTIARY","pain","2","","75","K","2","","0","0","1","","0.1998164138","false","69","","0.1734363374","main_expt","","0.3466590849","","0.1998164138","","0.09103688118","","","","","",""
"716","","bandit","145","457964","0.0-107.0-0.0","55990867","wem/bandit_single","A85ATJSDTIARY","pain","2","","74","J","1","","0","0","1","","0.3389702644","false","70","","0.1469163378","main_expt","","0.3389702644","","0.1936545157","","0.139461016","","","","","",""
"565","","bandit","146","460291","0.0-108.0-0.0","55990867","wem/bandit_single","A85ATJSDTIARY","pain","2","","74","J","1","","0","0","1","","0.3037518088","false","71","","0.1903103683","main_expt","","0.3037518088","","0.1875420319","","0.1269809057","","","","","",""
"311","","bandit","147","462365","0.0-109.0-0.0","55990867","wem/bandit_single","A85ATJSDTIARY","pain","2","","72","H","0","img/none_selected.jpg","0","0","1","","0.2364630875","false","72","","0.2364630875","main_expt","","0.3007282465","","0.2275961541","","0.1541032278","","","","","",""
"92","","bandit","148","464220","0.0-110.0-0.0","55990867","wem/bandit_single","A85ATJSDTIARY","pain","2","","72","H","0","img/none_selected.jpg","0","0","1","","0.2715971604","false","73","","0.2715971604","main_expt","","0.2796446257","","0.2485431464","","0.1618198783","","","","","",""
"1013","","bandit","149","466997","0.0-111.0-0.0","55990867","wem/bandit_single","A85ATJSDTIARY","pain","2","","76","L","3","","0","1","0","","0.1428156761","false","74","","0.2716254876","main_expt","","0.2729876577","","0.2394527842","","0.1428156761","","","","","",""
"644","","bandit","150","469405","0.0-112.0-0.0","55990867","wem/bandit_single","A85ATJSDTIARY","pain","2","","76","L","3","","0","0","1","","0.1312504708","false","75","","0.2998540279","main_expt","","0.2067723694","","0.2074684787","","0.1312504708","","","","","",""
"126","","bandit","151","471296","0.0-113.0-0.0","55990867","wem/bandit_single","A85ATJSDTIARY","pain","2","","76","L","3","","0","1","0","","0.1002429729","false","76","","0.3195890579","main_expt","","0.2130899639","","0.178133335","","0.1002429729","","","","","",""
"35","","bandit","152","473092","0.0-114.0-0.0","55990867","wem/bandit_single","A85ATJSDTIARY","pain","2","","76","L","3","","0","0","1","","0.07543037954","false","77","","0.2856322382","main_expt","","0.2109525889","","0.1788248706","","0.07543037954","","","","","",""
"27","","bandit","153","474884","0.0-115.0-0.0","55990867","wem/bandit_single","A85ATJSDTIARY","pain","2","","76","L","3","","0","0","1","","0.1153668935","false","78","","0.2919105172","main_expt","","0.1884332626","","0.1530293784","","0.1153668935","","","","","",""
"459","","bandit","154","477108","0.0-116.0-0.0","55990867","wem/bandit_single","A85ATJSDTIARY","pain","2","","76","L","3","","0","0","1","","0.07716777456","false","79","","0.2567181874","main_expt","","0.1883433777","","0.1593806387","","0.07716777456","","","","","",""
"424","","bandit","155","479293","0.0-117.0-0.0","55990867","wem/bandit_single","A85ATJSDTIARY","pain","2","","76","L","3","","0","0","1","","0.08058819474","false","80","","0.3200023444","main_expt","","0.1998795799","","0.1428411119","","0.08058819474","","","","","",""
"241","","bandit","156","481294","0.0-118.0-0.0","55990867","wem/bandit_single","A85ATJSDTIARY","pain","2","","75","K","2","","0","0","1","","0.1982686668","false","81","","0.3117755618","main_expt","","0.1651756375","","0.1982686668","","0.09856946308","","","","","",""
"570","","bandit","157","483629","0.0-119.0-0.0","55990867","wem/bandit_single","A85ATJSDTIARY","pain","2","","75","K","2","","0","1","0","","0.2291501313","false","82","","0.3379160562","main_expt","","0.2235829688","","0.2291501313","","0.1000946235","","","","","",""
"3","","bandit","158","485396","0.0-120.0-0.0","55990867","wem/bandit_single","A85ATJSDTIARY","pain","2","","75","K","2","","0","0","1","","0.2259362275","false","83","","0.3620865136","main_expt","","0.2456561592","","0.2259362275","","0.06687408093","","","","","",""
"445","","bandit","159","487606","0.0-121.0-0.0","55990867","wem/bandit_single","A85ATJSDTIARY","pain","2","","75","K","2","","0","0","1","","0.1733031115","false","84","","0.3904685548","main_expt","","0.2790354554","","0.1733031115","","0.06463964557","","","","","",""
"3","","bandit","160","489372","0.0-122.0-0.0","55990867","wem/bandit_single","A85ATJSDTIARY","pain","2","","75","K","2","","0","0","1","","0.1577379057","false","85","","0.4201611698","main_expt","","0.2389339959","","0.1577379057","","0.09044174456","","","","","",""
"814","","bandit","161","491949","0.0-123.0-0.0","55990867","wem/bandit_single","A85ATJSDTIARY","pain","2","","74","J","1","","0","1","0","","0.2905830411","false","86","","0.4544588035","main_expt","","0.2905830411","","0.1646880331","","0.07242924321","","","","","",""
"790","","bandit","162","494500","0.0-124.0-0.0","55990867","wem/bandit_single","A85ATJSDTIARY","pain","2","","74","J","1","","0","0","1","","0.3336128518","false","87","","0.4444110865","main_expt","","0.3336128518","","0.157008097","","0.06356931104","","","","","",""
"466","","bandit","163","496725","0.0-125.0-0.0","55990867","wem/bandit_single","A85ATJSDTIARY","pain","2","","74","J","1","","0","1","0","","0.3720796031","false","88","","0.4276611285","main_expt","","0.3720796031","","0.14663069","","0.08819972964","","","","","",""
"51","","bandit","164","498541","0.0-126.0-0.0","55990867","wem/bandit_single","A85ATJSDTIARY","pain","2","","74","J","1","","0","0","1","","0.3383028484","false","89","","0.395063318","main_expt","","0.3383028484","","0.1510377787","","0.09388884115","","","","","",""
"307","","bandit","165","500613","0.0-127.0-0.0","55990867","wem/bandit_single","A85ATJSDTIARY","pain","2","","74","J","1","","0","0","1","","0.3550100304","false","90","","0.3790569413","main_expt","","0.3550100304","","0.1600185234","","0.1265583984","","","","","",""
"349","","bandit","166","502725","0.0-128.0-0.0","55990867","wem/bandit_single","A85ATJSDTIARY","pain","2","","74","J","1","","0","0","1","","0.4198742783","false","91","","0.3763017738","main_expt","","0.4198742783","","0.1618321768","","0.09433033469","","","","","",""
"71","","bandit","167","504561","0.0-129.0-0.0","55990867","wem/bandit_single","A85ATJSDTIARY","pain","2","","72","H","0","img/none_selected.jpg","0","1","0","","0.3829045729","false","92","","0.3829045729","main_expt","","0.4522920775","","0.1408839615","","0.05111462501","","","","","",""
"30","","bandit","168","506356","0.0-130.0-0.0","55990867","wem/bandit_single","A85ATJSDTIARY","pain","2","","72","H","0","img/none_selected.jpg","0","0","1","","0.4155552038","false","93","","0.4155552038","main_expt","","0.4572096334","","0.1675332925","","0.05378689714","","","","","",""
"606","","bandit","169","508726","0.0-131.0-0.0","55990867","wem/bandit_single","A85ATJSDTIARY","pain","2","","72","H","0","img/none_selected.jpg","0","0","1","","0.3964247486","false","94","","0.3964247486","main_expt","","0.457248447","","0.2154783406","","0.04385487208","","","","","",""
"73","","bandit","170","510565","0.0-132.0-0.0","55990867","wem/bandit_single","A85ATJSDTIARY","pain","2","","72","H","0","img/none_selected.jpg","0","1","0","","0.4028729744","false","95","","0.4028729744","main_expt","","0.4284600246","","0.2434825378","","0.02374316345","","","","","",""
"129","","bandit","171","512454","0.0-133.0-0.0","55990867","wem/bandit_single","A85ATJSDTIARY","pain","2","","72","H","0","img/none_selected.jpg","0","0","1","","0.3937220057","false","96","","0.3937220057","main_expt","","0.4213934208","","0.300751002","","0.01119532444","","","","","",""
"59","","bandit","172","514277","0.0-134.0-0.0","55990867","wem/bandit_single","A85ATJSDTIARY","pain","2","","72","H","0","img/none_selected.jpg","0","0","1","","0.3951408858","false","97","","0.3951408858","main_expt","","0.4093218277","","0.2390268827","","0.01205949719","","","","","",""
"322","","bandit","173","516365","0.0-135.0-0.0","55990867","wem/bandit_single","A85ATJSDTIARY","pain","2","","72","H","0","img/none_selected.jpg","0","0","1","","0.3872505806","false","98","","0.3872505806","main_expt","","0.4011771953","","0.1872158766","","0.02530753644","","","","","",""
"2","","bandit","174","518136","0.0-136.0-0.0","55990867","wem/bandit_single","A85ATJSDTIARY","pain","2","","76","L","3","","0","0","1","","0.02318317113","false","99","","0.3237376228","main_expt","","0.4319140629","","0.2281726053","","0.02318317113","","","","","",""
"41","","bandit","175","519940","0.0-137.0-0.0","55990867","wem/bandit_single","A85ATJSDTIARY","pain","2","","76","L","3","","0","0","1","","0.01577819671","false","100","","0.3840854176","main_expt","","0.4388591553","","0.2322026393","","0.01577819671","","","","","",""
"396","","bandit","176","522099","0.0-138.0-0.0","55990867","wem/bandit_single","A85ATJSDTIARY","pain","2","","76","L","3","","0","0","1","","0.03767304301","false","101","","0.4043087267","main_expt","","0.4405661836","","0.2675158553","","0.03767304301","","","","","",""
"92","","bandit","177","523957","0.0-139.0-0.0","55990867","wem/bandit_single","A85ATJSDTIARY","pain","2","","75","K","2","","0","0","1","","0.2334450153","false","102","","0.423372456","main_expt","","0.4155134761","","0.2334450153","","0.03003558128","","","","","",""
"481","","bandit","178","526203","0.0-140.0-0.0","55990867","wem/bandit_single","A85ATJSDTIARY","pain","2","","75","K","2","","0","0","1","","0.2546104349","false","103","","0.4305794097","main_expt","","0.4079284656","","0.2546104349","","0.04748945294","","","","","",""
"330","","bandit","179","528291","0.0-141.0-0.0","55990867","wem/bandit_single","A85ATJSDTIARY","pain","2","","74","J","1","","0","1","0","","0.3827156199","false","104","","0.4515631957","main_expt","","0.3827156199","","0.2657782481","","0.06674284653","","","","","",""
"16","","bandit","180","530075","0.0-142.0-0.0","55990867","wem/bandit_single","A85ATJSDTIARY","pain","2","","74","J","1","","0","0","1","","0.3892206975","false","105","","0.454723383","main_expt","","0.3892206975","","0.2397797145","","0.0806059128","","","","","",""
"107","","bandit","181","531948","0.0-143.0-0.0","55990867","wem/bandit_single","A85ATJSDTIARY","pain","2","","74","J","1","","0","0","1","","0.3499671591","false","106","","0.4487898282","main_expt","","0.3499671591","","0.1744994936","","0.1147522423","","","","","",""
"100","","bandit","182","533812","0.0-144.0-0.0","55990867","wem/bandit_single","A85ATJSDTIARY","pain","2","","74","J","1","","0","1","0","","0.3378870415","false","107","","0.4300484018","main_expt","","0.3378870415","","0.2004436591","","0.1225979079","","","","","",""
"226","","bandit","183","535797","0.0-145.0-0.0","55990867","wem/bandit_single","A85ATJSDTIARY","pain","2","","74","J","1","","0","0","1","","0.3206855754","false","108","","0.4056187414","main_expt","","0.3206855754","","0.1781349215","","0.1808232933","","","","","",""
"57","","bandit","184","537622","0.0-146.0-0.0","55990867","wem/bandit_single","A85ATJSDTIARY","pain","2","","74","J","1","","0","1","0","","0.3412252333","false","109","","0.4145536126","main_expt","","0.3412252333","","0.1603989886","","0.2004688742","","","","","",""
"47","","bandit","185","539429","0.0-147.0-0.0","55990867","wem/bandit_single","A85ATJSDTIARY","pain","2","","74","J","1","","0","1","0","","0.3650365033","false","110","","0.3897928763","main_expt","","0.3650365033","","0.1300992081","","0.2261403934","","","","","",""
"177","","bandit","186","541374","0.0-148.0-0.0","55990867","wem/bandit_single","A85ATJSDTIARY","pain","2","","74","J","1","","0","0","1","","0.341048274","false","111","","0.4150540561","main_expt","","0.341048274","","0.1740321776","","0.1612973213","","","","","",""
"732","","bandit","187","543869","0.0-149.0-0.0","55990867","wem/bandit_single","A85ATJSDTIARY","pain","2","","74","J","1","","0","0","1","","0.3254027875","false","112","","0.4394636757","main_expt","","0.3254027875","","0.2444477537","","0.1655724556","","","","","",""
"164","","bandit","188","545798","0.0-150.0-0.0","55990867","wem/bandit_single","A85ATJSDTIARY","pain","2","","74","J","1","","0","1","0","","0.308059901","false","113","","0.4301961846","main_expt","","0.308059901","","0.2195244909","","0.1319876284","","","","","",""
"68","","bandit","189","547631","0.0-151.0-0.0","55990867","wem/bandit_single","A85ATJSDTIARY","pain","2","","74","J","1","","0","1","0","","0.3238695313","false","114","","0.4497687286","main_expt","","0.3238695313","","0.2719971232","","0.1147934267","","","","","",""
"80","","bandit","190","549478","0.0-152.0-0.0","55990867","wem/bandit_single","A85ATJSDTIARY","pain","2","","74","J","1","","0","0","1","","0.3315084933","false","115","","0.4448888627","main_expt","","0.3315084933","","0.2447677414","","0.1301750396","","","","","",""
"57","","bandit","191","551301","0.0-153.0-0.0","55990867","wem/bandit_single","A85ATJSDTIARY","pain","2","","74","J","1","","0","0","1","","0.3234657333","false","116","","0.3905844751","main_expt","","0.3234657333","","0.2296513069","","0.130185029","","","","","",""
"424","","bandit","192","553493","0.0-154.0-0.0","55990867","wem/bandit_single","A85ATJSDTIARY","pain","2","","74","J","1","","0","0","1","","0.300593156","false","117","","0.424359093","main_expt","","0.300593156","","0.2151266314","","0.1548944576","","","","","",""
"90","","bandit","193","555348","0.0-155.0-0.0","55990867","wem/bandit_single","A85ATJSDTIARY","pain","2","","74","J","1","","0","0","1","","0.3585138177","false","118","","0.4121010571","main_expt","","0.3585138177","","0.1311834018","","0.172903741","","","","","",""
"587","","bandit","194","557695","0.0-156.0-0.0","55990867","wem/bandit_single","A85ATJSDTIARY","pain","2","","74","J","1","","0","1","0","","0.3062020697","false","119","","0.4117558181","main_expt","","0.3062020697","","0.1190099868","","0.1707570171","","","","","",""
"134","","bandit","195","559597","0.0-157.0-0.0","55990867","wem/bandit_single","A85ATJSDTIARY","pain","2","","74","J","1","","0","0","1","","0.3312553157","false","120","","0.4275669698","main_expt","","0.3312553157","","0.1117686876","","0.1870802187","","","","","",""
"396","","bandit","196","561756","0.0-158.0-0.0","55990867","wem/bandit_single","A85ATJSDTIARY","pain","2","","74","J","1","","0","1","0","","0.3892509988","false","121","","0.4428986123","main_expt","","0.3892509988","","0.1415869423","","0.1870161021","","","","","",""
"33","","bandit","197","563549","0.0-159.0-0.0","55990867","wem/bandit_single","A85ATJSDTIARY","pain","2","","74","J","1","","0","0","1","","0.4330036483","false","122","","0.4376246318","main_expt","","0.4330036483","","0.1398412585","","0.1926804843","","","","","",""
"401","","bandit","198","565715","0.0-160.0-0.0","55990867","wem/bandit_single","A85ATJSDTIARY","pain","2","","74","J","1","","0","0","1","","0.4555957022","false","123","","0.4153394585","main_expt","","0.4555957022","","0.1163210087","","0.2057615037","","","","","",""
"867","","bandit","199","568341","0.0-161.0-0.0","55990867","wem/bandit_single","A85ATJSDTIARY","pain","2","","74","J","1","","0","0","1","","0.4565029776","false","124","","0.4203389285","main_expt","","0.4565029776","","0.07344578178","","0.2639565913","","","","","",""
"74","","bandit","200","570181","0.0-162.0-0.0","55990867","wem/bandit_single","A85ATJSDTIARY","pain","2","","74","J","1","","0","1","0","","0.4511527373","false","125","","0.3710029205","main_expt","","0.4511527373","","0.08752025541","","0.3672341475","","","","","",""
"283","","bandit","201","572228","0.0-163.0-0.0","55990867","wem/bandit_single","A85ATJSDTIARY","pain","2","","74","J","1","","0","0","1","","0.4426171603","false","126","","0.3465273485","main_expt","","0.4426171603","","0.1064058914","","0.3606148775","","","","","",""
"212","","bandit","202","574203","0.0-164.0-0.0","55990867","wem/bandit_single","A85ATJSDTIARY","pain","2","","74","J","1","","0","1","0","","0.4259104728","false","127","","0.4106613481","main_expt","","0.4259104728","","0.1103525866","","0.4079700646","","","","","",""
"49","","bandit","203","576020","0.0-165.0-0.0","55990867","wem/bandit_single","A85ATJSDTIARY","pain","2","","74","J","1","","0","0","1","","0.4543754413","false","128","","0.4377707947","main_expt","","0.4543754413","","0.1060480298","","0.4204919645","","","","","",""
"529","","bandit","204","578316","0.0-166.0-0.0","55990867","wem/bandit_single","A85ATJSDTIARY","pain","2","","74","J","1","","0","1","0","","0.4587533269","false","129","","0.4481781661","main_expt","","0.4587533269","","0.1332603285","","0.4040923387","","","","","",""
"62","","bandit","205","580144","0.0-167.0-0.0","55990867","wem/bandit_single","A85ATJSDTIARY","pain","2","","74","J","1","","0","0","1","","0.4618517855","false","130","","0.4301237728","main_expt","","0.4618517855","","0.09182468565","","0.3906791758","","","","","",""
"5","","bandit","206","581916","0.0-168.0-0.0","55990867","wem/bandit_single","A85ATJSDTIARY","pain","2","","74","J","1","","0","1","0","","0.4622878414","false","131","","0.4457858875","main_expt","","0.4622878414","","0.09388333002","","0.380553204","","","","","",""
"162","","bandit","207","583845","0.0-169.0-0.0","55990867","wem/bandit_single","A85ATJSDTIARY","pain","2","","74","J","1","","0","1","0","","0.4624711794","false","132","","0.4732894157","main_expt","","0.4624711794","","0.07277513685","","0.4000467043","","","","","",""
"33","","bandit","208","585645","0.0-170.0-0.0","55990867","wem/bandit_single","A85ATJSDTIARY","pain","2","","74","J","1","","0","1","0","","0.4794526202","false","133","","0.4607838047","main_expt","","0.4794526202","","0.1108266248","","0.3929100345","","","","","",""
"481","","bandit","209","587894","0.0-171.0-0.0","55990867","wem/bandit_single","A85ATJSDTIARY","pain","2","","74","J","1","","0","0","1","","0.481632873","false","134","","0.4663808264","main_expt","","0.481632873","","0.1466671782","","0.4009617203","","","","","",""
"524","","bandit","210","590183","0.0-172.0-0.0","55990867","wem/bandit_single","A85ATJSDTIARY","pain","2","","74","J","1","","0","0","1","","0.4667599148","false","135","","0.4625615306","main_expt","","0.4667599148","","0.1625995743","","0.3859426802","","","","","",""
"135","","bandit","211","592085","0.0-173.0-0.0","55990867","wem/bandit_single","A85ATJSDTIARY","pain","2","","74","J","1","","0","0","1","","0.4468402508","false","136","","0.4629143089","main_expt","","0.4468402508","","0.1555673637","","0.4089350186","","","","","",""
"366","","bandit","212","594213","0.0-174.0-0.0","55990867","wem/bandit_single","A85ATJSDTIARY","pain","2","","74","J","1","","0","0","1","","0.4331537256","false","137","","0.4644074349","main_expt","","0.4331537256","","0.1395554881","","0.4009707033","","","","","",""
"927","","bandit","213","596909","0.0-175.0-0.0","55990867","wem/bandit_single","A85ATJSDTIARY","pain","2","","74","J","1","","0","1","0","","0.4578477473","false","138","","0.4741213624","main_expt","","0.4578477473","","0.1387442451","","0.4116224971","","","","","",""
"34","","bandit","214","598709","0.0-176.0-0.0","55990867","wem/bandit_single","A85ATJSDTIARY","pain","2","","74","J","1","","0","1","0","","0.464919911","false","139","","0.4736492243","main_expt","","0.464919911","","0.1693780048","","0.4129411324","","","","","",""
"40","","bandit","215","600517","0.0-177.0-0.0","55990867","wem/bandit_single","A85ATJSDTIARY","pain","2","","74","J","1","","0","0","1","","0.4614371154","false","140","","0.4752570035","main_expt","","0.4614371154","","0.1753437518","","0.4494235083","","","","","",""
"409","","bandit","216","602693","0.0-178.0-0.0","55990867","wem/bandit_single","A85ATJSDTIARY","pain","2","","74","J","1","","0","1","0","","0.4747872093","false","141","","0.4857055712","main_expt","","0.4747872093","","0.2288512635","","0.4453484197","","","","","",""
"44","","bandit","217","604501","0.0-179.0-0.0","55990867","wem/bandit_single","A85ATJSDTIARY","pain","2","","74","J","1","","0","0","1","","0.4513335087","false","142","","0.4792724089","main_expt","","0.4513335087","","0.2579513082","","0.4604546146","","","","","",""
"1201","","bandit","218","607470","0.0-180.0-0.0","55990867","wem/bandit_single","A85ATJSDTIARY","pain","2","","74","J","1","","0","1","0","","0.4198830698","false","143","","0.48057755","main_expt","","0.4198830698","","0.21432658","","0.4826245684","","","","","",""
"432","","bandit","219","609669","0.0-181.0-0.0","55990867","wem/bandit_single","A85ATJSDTIARY","pain","2","","74","J","1","","0","0","1","","0.3673231636","false","144","","0.4777600445","main_expt","","0.3673231636","","0.1938021535","","0.4890981767","","","","","",""
"1704","","bandit","220","613140","0.0-182.0-0.0","55990867","wem/bandit_single","A85ATJSDTIARY","pain","2","","74","J","1","","0","1","0","","0.3772368795","false","145","","0.4735071841","main_expt","","0.3772368795","","0.206497324","","0.4680822138","","","","","",""
"600","","bandit","221","615508","0.0-183.0-0.0","55990867","wem/bandit_single","A85ATJSDTIARY","pain","2","","74","J","1","","0","0","1","","0.3767069828","false","146","","0.4598241197","main_expt","","0.3767069828","","0.1857351915","","0.4660155258","","","","","",""
"273","","bandit","222","617551","0.0-184.0-0.0","55990867","wem/bandit_single","A85ATJSDTIARY","pain","2","","74","J","1","","0","0","1","","0.4039806626","false","147","","0.4279993213","main_expt","","0.4039806626","","0.1046475439","","0.4723880167","","","","","",""
"56","","bandit","223","619373","0.0-185.0-0.0","55990867","wem/bandit_single","A85ATJSDTIARY","pain","2","","74","J","1","","0","1","0","","0.4178396587","false","148","","0.4422782314","main_expt","","0.4178396587","","0.1098111678","","0.4692947112","","","","","",""
"33","","bandit","224","621175","0.0-186.0-0.0","55990867","wem/bandit_single","A85ATJSDTIARY","pain","2","","74","J","1","","0","0","1","","0.3932004216","false","149","","0.4514785706","main_expt","","0.3932004216","","0.1221971929","","0.4702562614","","","","","",""
"966","","bandit","225","623909","0.0-187.0-0.0","55990867","wem/bandit_single","A85ATJSDTIARY","pain","2","","74","J","1","","0","0","1","","0.4103897693","false","150","","0.4189864991","main_expt","","0.4103897693","","0.1354034315","","0.4714094479","","","","","",""
"185","","bandit","226","625861","0.0-188.0-0.0","55990867","wem/bandit_single","A85ATJSDTIARY","pain","2","","74","J","1","","0","1","0","","0.4122179041","false","151","","0.4389233528","main_expt","","0.4122179041","","0.1041822367","","0.4761401221","","","","","",""
"64","","bandit","227","627693","0.0-189.0-0.0","55990867","wem/bandit_single","A85ATJSDTIARY","pain","2","","74","J","1","","0","1","0","","0.3952463752","false","152","","0.4244236929","main_expt","","0.3952463752","","0.09038071171","","0.4697737123","","","","","",""
"48","","bandit","228","629508","0.0-190.0-0.0","55990867","wem/bandit_single","A85ATJSDTIARY","pain","2","","74","J","1","","0","0","1","","0.3877384472","false","153","","0.4476471014","main_expt","","0.3877384472","","0.08460578514","","0.446753433","","","","","",""
"155","","bandit","229","631432","0.0-191.0-0.0","55990867","wem/bandit_single","A85ATJSDTIARY","pain","2","","74","J","1","","0","0","1","","0.3551427127","false","154","","0.4505336387","main_expt","","0.3551427127","","0.06957086972","","0.4588815304","","","","","",""
"151","","bandit","230","633349","0.0-192.0-0.0","55990867","wem/bandit_single","A85ATJSDTIARY","pain","2","","74","J","1","","0","0","1","","0.3027898514","false","155","","0.466992112","main_expt","","0.3027898514","","0.07570805595","","0.4483664475","","","","","",""
"80","","bandit","231","635196","0.0-193.0-0.0","55990867","wem/bandit_single","A85ATJSDTIARY","pain","2","","74","J","1","","0","0","1","","0.3245978035","false","156","","0.4383448919","main_expt","","0.3245978035","","0.1010055374","","0.4383670719","","","","","",""
"127","","bandit","232","637092","0.0-194.0-0.0","55990867","wem/bandit_single","A85ATJSDTIARY","pain","2","","72","H","0","img/none_selected.jpg","0","0","1","","0.4181306447","false","157","","0.4181306447","main_expt","","0.3293821827","","0.09959580587","","0.42990192","","","","","",""
"1","","bandit","233","638861","0.0-195.0-0.0","55990867","wem/bandit_single","A85ATJSDTIARY","pain","2","","72","H","0","img/none_selected.jpg","0","1","0","","0.4322591637","false","158","","0.4322591637","main_expt","","0.3053991167","","0.09130540219","","0.4112902825","","","","","",""
"64","","bandit","234","640695","0.0-196.0-0.0","55990867","wem/bandit_single","A85ATJSDTIARY","pain","2","","72","H","0","img/none_selected.jpg","0","0","1","","0.4129829621","false","159","","0.4129829621","main_expt","","0.3475565739","","0.07080299429","","0.4085113589","","","","","",""
"94","","bandit","235","642558","0.0-197.0-0.0","55990867","wem/bandit_single","A85ATJSDTIARY","pain","2","","72","H","0","img/none_selected.jpg","0","0","1","","0.4094933958","false","160","","0.4094933958","main_expt","","0.327393219","","0.05017383151","","0.4079314082","","","","","",""
"14","","bandit","236","644332","0.0-198.0-0.0","55990867","wem/bandit_single","A85ATJSDTIARY","pain","2","","72","H","0","img/none_selected.jpg","0","1","0","","0.404058003","false","161","","0.404058003","main_expt","","0.303429729","","0.03820476969","","0.3631501835","","","","","",""
"24","","bandit","237","646117","0.0-199.0-0.0","55990867","wem/bandit_single","A85ATJSDTIARY","pain","2","","72","H","0","img/none_selected.jpg","0","0","1","","0.3846726044","false","162","","0.3846726044","main_expt","","0.3079210788","","0.02512507724","","0.3470346279","","","","","",""
"32","","bandit","238","647918","0.0-200.0-0.0","55990867","wem/bandit_single","A85ATJSDTIARY","pain","2","","72","H","0","img/none_selected.jpg","0","0","1","","0.4016559577","false","163","","0.4016559577","main_expt","","0.3004483846","","0.03932379445","","0.372656257","","","","","",""
"157","","bandit","239","649844","0.0-201.0-0.0","55990867","wem/bandit_single","A85ATJSDTIARY","pain","2","","72","H","0","img/none_selected.jpg","0","1","0","","0.3566256613","false","164","","0.3566256613","main_expt","","0.2886014424","","0.01829840099","","0.3802753243","","","","","",""
"64","","bandit","240","651677","0.0-202.0-0.0","55990867","wem/bandit_single","A85ATJSDTIARY","pain","2","","72","H","0","img/none_selected.jpg","0","0","1","","0.3509524146","false","165","","0.3509524146","main_expt","","0.2088325088","","0.02415252971","","0.3881672334","","","","","",""
"26","","bandit","241","653470","0.0-203.0-0.0","55990867","wem/bandit_single","A85ATJSDTIARY","pain","2","","72","H","0","img/none_selected.jpg","0","0","1","","0.2773632025","false","166","","0.2773632025","main_expt","","0.2160195985","","0.02185778449","","0.359536632","","","","","",""
"110","","bandit","242","655349","0.0-204.0-0.0","55990867","wem/bandit_single","A85ATJSDTIARY","pain","2","","72","H","0","img/none_selected.jpg","0","0","1","","0.3022689801","false","167","","0.3022689801","main_expt","","0.1836534764","","0.02761124673","","0.3693034809","","","","","",""
"679","","bandit","243","657796","0.0-205.0-0.0","55990867","wem/bandit_single","A85ATJSDTIARY","pain","2","","76","L","3","","0","1","0","","0.3449050916","false","168","","0.2937690027","main_expt","","0.1701024481","","0.02160611799","","0.3449050916","","","","","",""
"103","","bandit","244","659668","0.0-206.0-0.0","55990867","wem/bandit_single","A85ATJSDTIARY","pain","2","","76","L","3","","0","1","0","","0.3515710367","false","169","","0.2488586406","main_expt","","0.1896079261","","0.02113437328","","0.3515710367","","","","","",""
"405","","bandit","245","661836","0.0-207.0-0.0","55990867","wem/bandit_single","A85ATJSDTIARY","pain","2","","76","L","3","","0","0","1","","0.3233833909","false","170","","0.2112819205","main_expt","","0.2377789273","","0.01292956957","","0.3233833909","","","","","",""
"139","","bandit","246","663744","0.0-208.0-0.0","55990867","wem/bandit_single","A85ATJSDTIARY","pain","2","","76","L","3","","0","0","1","","0.2468086364","false","171","","0.2217900108","main_expt","","0.2640247014","","0.01989811998","","0.2468086364","","","","","",""
"42","","bandit","247","665556","0.0-209.0-0.0","55990867","wem/bandit_single","A85ATJSDTIARY","pain","2","","76","L","3","","0","0","1","","0.3408906282","false","172","","0.2387596097","main_expt","","0.2055846389","","0.0296351857","","0.3408906282","","","","","",""
"304","","bandit","248","667628","0.0-210.0-0.0","55990867","wem/bandit_single","A85ATJSDTIARY","pain","2","","76","L","3","","0","0","1","","0.3252944763","false","173","","0.2602125502","main_expt","","0.2438181894","","0.03540771295","","0.3252944763","","","","","",""
"105","","bandit","249","669500","0.0-211.0-0.0","55990867","wem/bandit_single","A85ATJSDTIARY","pain","2","","76","L","3","","0","1","0","","0.3200904142","false","174","","0.2202846771","main_expt","","0.2733147352","","0.03725130304","","0.3200904142","","","","","",""
"113","","bandit","250","671380","0.0-212.0-0.0","55990867","wem/bandit_single","A85ATJSDTIARY","pain","2","","76","L","3","","0","0","1","","0.3622659173","false","175","","0.233285157","main_expt","","0.2767671147","","0.03242602151","","0.3622659173","","","","","",""
"428","","bandit","251","673573","0.0-213.0-0.0","55990867","wem/bandit_single","A85ATJSDTIARY","pain","2","","76","L","3","","0","0","1","","0.2937007374","false","176","","0.2264555061","main_expt","","0.2195478827","","0.04697917163","","0.2937007374","","","","","",""
"9","","bandit","252","675350","0.0-214.0-0.0","55990867","wem/bandit_single","A85ATJSDTIARY","pain","2","","76","L","3","","0","0","1","","0.2513366018","false","177","","0.241841845","main_expt","","0.1515864758","","0.04124559051","","0.2513366018","","","","","",""
"30","","bandit","253","677150","0.0-215.0-0.0","55990867","wem/bandit_single","A85ATJSDTIARY","pain","2","","76","L","3","","0","0","1","","0.3159509921","false","178","","0.2423953475","main_expt","","0.1618037694","","0.06205026603","","0.3159509921","","","","","",""
"734","","bandit","254","679652","0.0-216.0-0.0","55990867","wem/bandit_single","A85ATJSDTIARY","pain","2","","76","L","3","","0","0","1","","0.2899582247","false","179","","0.2523089652","main_expt","","0.1653326191","","0.08412795639","","0.2899582247","","","","","",""
"232","","bandit","255","681644","0.0-217.0-0.0","55990867","wem/bandit_single","A85ATJSDTIARY","pain","2","","75","K","2","","0","0","1","","0.1304099397","false","180","","0.2223981335","main_expt","","0.1751853148","","0.1304099397","","0.3371390753","","","","","",""
"10","","bandit","256","683421","0.0-218.0-0.0","55990867","wem/bandit_single","A85ATJSDTIARY","pain","2","","75","K","2","","0","1","0","","0.1801801058","false","181","","0.2319473409","main_expt","","0.211978586","","0.1801801058","","0.3365963609","","","","","",""
"48","","bandit","257","685238","0.0-219.0-0.0","55990867","wem/bandit_single","A85ATJSDTIARY","pain","2","","75","K","2","","0","0","1","","0.1951504204","false","182","","0.2338578761","main_expt","","0.2323199139","","0.1951504204","","0.2643366398","","","","","",""
"116","","bandit","258","687119","0.0-220.0-0.0","55990867","wem/bandit_single","A85ATJSDTIARY","pain","2","","75","K","2","","0","0","1","","0.2330781564","false","183","","0.265472663","main_expt","","0.2252803731","","0.2330781564","","0.2464000872","","","","","",""
"84","","bandit","259","688964","0.0-221.0-0.0","55990867","wem/bandit_single","A85ATJSDTIARY","pain","2","","75","K","2","","0","1","0","","0.2711395555","false","184","","0.2826161147","main_expt","","0.1614269484","","0.2711395555","","0.3039071009","","","","","",""
"74","","bandit","260","690804","0.0-222.0-0.0","55990867","wem/bandit_single","A85ATJSDTIARY","pain","2","","75","K","2","","0","0","1","","0.2182249031","false","185","","0.2542525597","main_expt","","0.1636939604","","0.2182249031","","0.3100879913","","","","","",""
"463","","bandit","261","693036","0.0-223.0-0.0","55990867","wem/bandit_single","A85ATJSDTIARY","pain","2","","75","K","2","","0","0","1","","0.2609412602","false","186","","0.260460085","main_expt","","0.1744134641","","0.2609412602","","0.28505789","","","","","",""
"6","","bandit","262","694805","0.0-224.0-0.0","55990867","wem/bandit_single","A85ATJSDTIARY","pain","2","","75","K","2","","0","0","1","","0.2242136054","false","187","","0.2119714508","main_expt","","0.1955069844","","0.2242136054","","0.2698122055","","","","","",""
"396","","bandit","263","696972","0.0-225.0-0.0","55990867","wem/bandit_single","A85ATJSDTIARY","pain","2","","74","J","1","","0","0","1","","0.2289740151","false","188","","0.1887053186","main_expt","","0.2289740151","","0.2404864381","","0.2270240414","","","","","",""
"388","","bandit","264","699126","0.0-226.0-0.0","55990867","wem/bandit_single","A85ATJSDTIARY","pain","2","","74","J","1","","0","0","1","","0.2495887903","false","189","","0.1944753942","main_expt","","0.2495887903","","0.2177927796","","0.2182158859","","","","","",""
"23","","bandit","265","700917","0.0-227.0-0.0","55990867","wem/bandit_single","A85ATJSDTIARY","pain","2","","74","J","1","","0","1","0","","0.2815424982","false","190","","0.2163673671","main_expt","","0.2815424982","","0.2445379922","","0.2445882628","","","","","",""
"8","","bandit","266","702694","0.0-228.0-0.0","55990867","wem/bandit_single","A85ATJSDTIARY","pain","2","","74","J","1","","0","0","1","","0.2401402076","false","191","","0.2584180811","main_expt","","0.2401402076","","0.2910265903","","0.2733302752","","","","","",""
"581","","bandit","267","705043","0.0-229.0-0.0","55990867","wem/bandit_single","A85ATJSDTIARY","pain","2","","74","J","1","","0","0","1","","0.2510809658","false","192","","0.2555063139","main_expt","","0.2510809658","","0.3095983682","","0.2776932955","","","","","",""
"618","","bandit","268","707428","0.0-230.0-0.0","55990867","wem/bandit_single","A85ATJSDTIARY","pain","2","","74","J","1","","0","0","1","","0.2875405407","false","193","","0.2694863875","main_expt","","0.2875405407","","0.3217156539","","0.3335190616","","","","","",""
"400","","bandit","269","709597","0.0-231.0-0.0","55990867","wem/bandit_single","A85ATJSDTIARY","pain","2","","72","H","0","img/none_selected.jpg","0","0","1","","0.2894821148","false","194","","0.2894821148","main_expt","","0.2183543786","","0.278878796","","0.3308991278","","","","","",""
"410","","bandit","270","711774","0.0-232.0-0.0","55990867","wem/bandit_single","A85ATJSDTIARY","pain","2","","72","H","0","img/none_selected.jpg","0","1","0","","0.3028339589","false","195","","0.3028339589","main_expt","","0.2626349305","","0.2738334973","","0.3676749275","","","","","",""
"44","","bandit","271","713588","0.0-233.0-0.0","55990867","wem/bandit_single","A85ATJSDTIARY","pain","2","","72","H","0","img/none_selected.jpg","0","1","0","","0.3051171059","false","196","","0.3051171059","main_expt","","0.2046446137","","0.2494818112","","0.3523241719","","","","","",""
"451","","bandit","272","715805","0.0-234.0-0.0","55990867","wem/bandit_single","A85ATJSDTIARY","pain","2","","72","H","0","img/none_selected.jpg","0","0","1","","0.2901305303","false","197","","0.2901305303","main_expt","","0.2122082762","","0.2620473779","","0.3874168703","","","","","",""
"343","","bandit","273","717917","0.0-235.0-0.0","55990867","wem/bandit_single","A85ATJSDTIARY","pain","2","","72","H","0","img/none_selected.jpg","0","1","0","","0.2403600488","false","198","","0.2403600488","main_expt","","0.1962120249","","0.3153682745","","0.4072223947","","","","","",""
"175","","bandit","274","719859","0.0-236.0-0.0","55990867","wem/bandit_single","A85ATJSDTIARY","pain","2","","72","H","0","img/none_selected.jpg","0","0","1","","0.2034733728","false","199","","0.2034733728","main_expt","","0.1840541487","","0.2424407548","","0.4284861426","","","","","",""
"34","","bandit","275","721653","0.0-237.0-0.0","55990867","wem/bandit_single","A85ATJSDTIARY","pain","2","","72","H","0","img/none_selected.jpg","0","0","1","","0.2193557146","false","200","","0.2193557146","main_expt","","0.1575563837","","0.2692586032","","0.4181746593","","","","","",""
"319","","bandit","276","723741","0.0-238.0-0.0","55990867","wem/bandit_single","A85ATJSDTIARY","pain","2","","72","H","0","img/none_selected.jpg","0","0","1","","0.2412650678","false","201","","0.2412650678","main_expt","","0.138860739","","0.2605377594","","0.4134190678","","","","","",""
"223","","bandit","277","725725","0.0-239.0-0.0","55990867","wem/bandit_single","A85ATJSDTIARY","pain","2","","72","H","0","img/none_selected.jpg","0","0","1","","0.2106041824","false","202","","0.2106041824","main_expt","","0.1216759056","","0.2372211354","","0.4255663607","","","","","",""
"1","","bandit","278","727493","0.0-240.0-0.0","55990867","wem/bandit_single","A85ATJSDTIARY","pain","2","","72","H","0","img/none_selected.jpg","0","0","1","","0.2182463191","false","203","","0.2182463191","main_expt","","0.1085797693","","0.20896917","","0.4267176133","","","","","",""
"276","","bandit","279","729533","0.0-241.0-0.0","55990867","wem/bandit_single","A85ATJSDTIARY","pain","2","","76","L","3","","0","0","1","","0.460819217","false","204","","0.2060997213","main_expt","","0.08750272662","","0.2277156902","","0.460819217","","","","","",""
"263","","bandit","280","731564","0.0-242.0-0.0","55990867","wem/bandit_single","A85ATJSDTIARY","pain","2","","76","L","3","","0","1","0","","0.4797370756","false","205","","0.2179237498","main_expt","","0.1119911725","","0.2096017385","","0.4797370756","","","","","",""
"30","","bandit","281","733364","0.0-243.0-0.0","55990867","wem/bandit_single","A85ATJSDTIARY","pain","2","","76","L","3","","0","0","1","","0.4850202511","false","206","","0.194566176","main_expt","","0.105166696","","0.2293009918","","0.4850202511","","","","","",""
"1009","","bandit","282","736141","0.0-244.0-0.0","55990867","wem/bandit_single","A85ATJSDTIARY","pain","2","","76","L","3","","0","1","0","","0.4588339162","false","207","","0.2540459421","main_expt","","0.07428909222","","0.2613461541","","0.4588339162","","","","","",""
"53","","bandit","283","737965","0.0-245.0-0.0","55990867","wem/bandit_single","A85ATJSDTIARY","pain","2","","76","L","3","","0","1","0","","0.4704498371","false","208","","0.2165425212","main_expt","","0.08415887516","","0.2921374763","","0.4704498371","","","","","",""
"1011","","bandit","284","740740","0.0-246.0-0.0","55990867","wem/bandit_single","A85ATJSDTIARY","pain","2","","76","L","3","","0","0","1","","0.4498430745","false","209","","0.1808740619","main_expt","","0.05558253146","","0.2679345114","","0.4498430745","","","","","",""
"383","","bandit","285","742892","0.0-247.0-0.0","55990867","wem/bandit_single","A85ATJSDTIARY","pain","2","","76","L","3","","0","0","1","","0.4463117693","false","210","","0.2298827717","main_expt","","0.04914985493","","0.2356021564","","0.4463117693","","","","","",""
"326","","bandit","286","744980","0.0-248.0-0.0","55990867","wem/bandit_single","A85ATJSDTIARY","pain","2","","76","L","3","","0","0","1","","0.422163821","false","211","","0.2533880575","main_expt","","0.03798033643","","0.2152320876","","0.422163821","","","","","",""
"222","","bandit","287","746972","0.0-249.0-0.0","55990867","wem/bandit_single","A85ATJSDTIARY","pain","2","","76","L","3","","0","1","0","","0.3852039581","false","212","","0.2771241442","main_expt","","0.03974322714","","0.2216595069","","0.3852039581","","","","","",""
"328","","bandit","288","749069","0.0-250.0-0.0","55990867","wem/bandit_single","A85ATJSDTIARY","pain","2","","76","L","3","","0","0","1","","0.3822954745","false","213","","0.3010302337","main_expt","","0.02384455773","","0.2150176613","","0.3822954745","","","","","",""
"454","","bandit","289","751293","0.0-251.0-0.0","55990867","wem/bandit_single","A85ATJSDTIARY","pain","2","","76","L","3","","0","1","0","","0.3608549874","false","214","","0.3409008015","main_expt","","0.03216660231","","0.1772129937","","0.3608549874","","","","","",""
"57","","bandit","290","753118","0.0-252.0-0.0","55990867","wem/bandit_single","A85ATJSDTIARY","pain","2","","76","L","3","","0","0","1","","0.3621739951","false","215","","0.3227810677","main_expt","","0.03095464101","","0.1584975441","","0.3621739951","","","","","",""
"2","","bandit","291","754883","0.0-253.0-0.0","55990867","wem/bandit_single","A85ATJSDTIARY","pain","2","","76","L","3","","0","1","0","","0.3733564142","false","216","","0.3636386285","main_expt","","0.04011500866","","0.1256434713","","0.3733564142","","","","","",""
"206","","bandit","292","756851","0.0-254.0-0.0","55990867","wem/bandit_single","A85ATJSDTIARY","pain","2","","76","L","3","","0","1","0","","0.3856473275","false","217","","0.3649758886","main_expt","","0.02351309264","","0.1601534085","","0.3856473275","","","","","",""
"408","","bandit","293","759020","0.0-255.0-0.0","55990867","wem/bandit_single","A85ATJSDTIARY","pain","2","","76","L","3","","0","0","1","","0.3645608201","false","218","","0.3641131336","main_expt","","0.01650540734","","0.1514518834","","0.3645608201","","","","","",""
"604","","bandit","294","761388","0.0-256.0-0.0","55990867","wem/bandit_single","A85ATJSDTIARY","pain","2","","76","L","3","","0","1","0","","0.3851453746","false","219","","0.341156599","main_expt","","0.03577324375","","0.2415223947","","0.3851453746","","","","","",""
"2248","","bandit","295","765409","0.0-257.0-0.0","55990867","wem/bandit_single","A85ATJSDTIARY","pain","2","","76","L","3","","0","1","0","","0.4075423229","false","220","","0.266049218","main_expt","","0.03655385126","","0.2248182851","","0.4075423229","","","","","",""
"1012","","bandit","296","768190","0.0-258.0-0.0","55990867","wem/bandit_single","A85ATJSDTIARY","pain","2","","76","L","3","","0","0","1","","0.4083347012","false","221","","0.2359154628","main_expt","","0.03282050992","","0.2588925836","","0.4083347012","","","","","",""
"1342","","bandit","297","771300","0.0-259.0-0.0","55990867","wem/bandit_single","A85ATJSDTIARY","pain","2","","76","L","3","","0","1","0","","0.4083223781","false","222","","0.2640726019","main_expt","","0.02558717114","","0.2025188389","","0.4083223781","","","","","",""
"1075","","bandit","298","774140","0.0-260.0-0.0","55990867","wem/bandit_single","A85ATJSDTIARY","pain","2","","76","L","3","","0","1","0","","0.4240474742","false","223","","0.1860418506","main_expt","","0.04788205671","","0.1609755914","","0.4240474742","","","","","",""
"1144","","bandit","299","777052","0.0-261.0-0.0","55990867","wem/bandit_single","A85ATJSDTIARY","pain","2","","76","L","3","","0","1","0","","0.4346876605","false","224","","0.151875944","main_expt","","0.05498715651","","0.2316748255","","0.4346876605","","","","","",""
"769","","bandit","300","779589","0.0-262.0-0.0","55990867","wem/bandit_single","A85ATJSDTIARY","pain","2","","76","L","3","","0","1","0","","0.4541072866","false","225","","0.1209973656","main_expt","","0.056476577","","0.1605893144","","0.4541072866","","","","","",""
"262","","bandit","301","781621","0.0-263.0-0.0","55990867","wem/bandit_single","A85ATJSDTIARY","pain","2","","76","L","3","","0","0","1","","0.4239515892","false","226","","0.1503457952","main_expt","","0.06361054401","","0.1389366963","","0.4239515892","","","","","",""
"1157","","bandit","302","784548","0.0-264.0-0.0","55990867","wem/bandit_single","A85ATJSDTIARY","pain","2","","76","L","3","","0","0","1","","0.4122914309","false","227","","0.1784166707","main_expt","","0.03819722012","","0.09987042713","","0.4122914309","","","","","",""
"320","","bandit","303","786640","0.0-265.0-0.0","55990867","wem/bandit_single","A85ATJSDTIARY","pain","2","","76","L","3","","0","0","1","","0.4022765074","false","228","","0.1729157366","main_expt","","0.03706892342","","0.1511988136","","0.4022765074","","","","","",""
"1179","","bandit","304","789589","0.0-266.0-0.0","55990867","wem/bandit_single","A85ATJSDTIARY","pain","2","","76","L","3","","0","0","1","","0.3991813765","false","229","","0.2035050609","main_expt","","0.05619366589","","0.1165125066","","0.3991813765","","","","","",""
"252","","bandit","305","791612","0.0-267.0-0.0","55990867","wem/bandit_single","A85ATJSDTIARY","pain","2","","76","L","3","","0","0","1","","0.3771825363","false","230","","0.1677195288","main_expt","","0.02398835026","","0.09058018373","","0.3771825363","","","","","",""
"368","","bandit","306","793748","0.0-268.0-0.0","55990867","wem/bandit_single","A85ATJSDTIARY","pain","2","","75","K","2","","0","0","1","","0.1254599363","false","231","","0.1568417205","main_expt","","0.01087418165","","0.1254599363","","0.4081115595","","","","","",""
"329","","bandit","307","795836","0.0-269.0-0.0","55990867","wem/bandit_single","A85ATJSDTIARY","pain","2","","75","K","2","","0","0","1","","0.09699218641","false","232","","0.1733774055","main_expt","","0.005667282796","","0.09699218641","","0.4227202023","","","","","",""
"133","","bandit","308","797740","0.0-270.0-0.0","55990867","wem/bandit_single","A85ATJSDTIARY","pain","2","","74","J","1","","0","1","0","","0.00711790457","false","233","","0.2318808439","main_expt","","0.00711790457","","0.07122003092","","0.4267606383","","","","","",""
"2","","bandit","309","799510","0.0-271.0-0.0","55990867","wem/bandit_single","A85ATJSDTIARY","pain","2","","74","J","1","","0","0","1","","0.01087448681","false","234","","0.2728484722","main_expt","","0.01087448681","","0.07078025717","","0.4076790224","","","","","",""
"45","","bandit","310","801326","0.0-272.0-0.0","55990867","wem/bandit_single","A85ATJSDTIARY","pain","2","","74","J","1","","0","0","1","","0.008183852991","false","235","","0.230842538","main_expt","","0.008183852991","","0.04546889639","","0.3750136452","","","","","",""
"60","","bandit","311","803155","0.0-273.0-0.0","55990867","wem/bandit_single","A85ATJSDTIARY","pain","2","","74","J","1","","0","0","1","","0.00957014591","false","236","","0.2565969246","main_expt","","0.00957014591","","0.07949547843","","0.3579900966","","","","","",""
"0","","bandit","312","804927","0.0-274.0-0.0","55990867","wem/bandit_single","A85ATJSDTIARY","pain","2","","72","H","0","img/none_selected.jpg","0","0","1","","0.2661079812","false","237","","0.2661079812","main_expt","","0.02345003211","","0.06498208703","","0.3685919787","","","","","",""
"91","","bandit","313","806788","0.0-275.0-0.0","55990867","wem/bandit_single","A85ATJSDTIARY","pain","2","","72","H","0","img/none_selected.jpg","0","0","1","","0.3192940022","false","238","","0.3192940022","main_expt","","0.02056264696","","0.07283675032","","0.3220789964","","","","","",""
"425","","bandit","314","808981","0.0-276.0-0.0","55990867","wem/bandit_single","A85ATJSDTIARY","pain","2","","76","L","3","","0","0","1","","0.3059519391","false","239","","0.3150738333","main_expt","","0.02436326326","","0.08723568047","","0.3059519391","","","","","",""
"135","","bandit","315","810886","0.0-277.0-0.0","55990867","wem/bandit_single","A85ATJSDTIARY","pain","2","","76","L","3","","0","0","1","","0.3168560559","false","240","","0.3008600842","main_expt","","0.0242835944","","0.06404566497","","0.3168560559","","","","","",""
"36","","bandit","316","812694","0.0-278.0-0.0","55990867","wem/bandit_single","A85ATJSDTIARY","pain","2","","75","K","2","","0","0","1","","0.05187051438","false","241","","0.2677087501","main_expt","","0.02652021178","","0.05187051438","","0.269391424","","","","","",""
"164","","bandit","317","814629","0.0-279.0-0.0","55990867","wem/bandit_single","A85ATJSDTIARY","pain","2","","75","K","2","","0","0","1","","0.04056120823","false","242","","0.2645585527","main_expt","","0.0264543433","","0.04056120823","","0.2061132751","","","","","",""
"461","","bandit","318","816853","0.0-280.0-0.0","55990867","wem/bandit_single","A85ATJSDTIARY","pain","2","","74","J","1","","0","0","1","","0.02176476481","false","243","","0.2793098336","main_expt","","0.02176476481","","0.02806248696","","0.1996760118","","","","","",""
"469","","bandit","319","819095","0.0-281.0-0.0","55990867","wem/bandit_single","A85ATJSDTIARY","pain","2","","74","J","1","","0","0","1","","0.01301534777","false","244","","0.285685864","main_expt","","0.01301534777","","0.04063524207","","0.1719334629","","","","","",""
"20","","bandit","320","820886","0.0-282.0-0.0","55990867","wem/bandit_single","A85ATJSDTIARY","pain","2","","72","H","0","img/none_selected.jpg","0","1","0","","0.2792363563","false","245","","0.2792363563","main_expt","","0.02332936253","","0.03258124644","","0.2264626889","","","","","",""
"398","","bandit","321","823046","0.0-283.0-0.0","55990867","wem/bandit_single","A85ATJSDTIARY","pain","2","","72","H","0","img/none_selected.jpg","0","1","0","","0.2721020884","false","246","","0.2721020884","main_expt","","0.02379131239","","0.034431304","","0.2097999869","","","","","",""
"59","","bandit","322","824877","0.0-284.0-0.0","55990867","wem/bandit_single","A85ATJSDTIARY","pain","2","","72","H","0","img/none_selected.jpg","0","0","1","","0.2784836582","false","247","","0.2784836582","main_expt","","0.02988301985","","0.0335896152","","0.2190078117","","","","","",""
"64","","bandit","323","826703","0.0-285.0-0.0","55990867","wem/bandit_single","A85ATJSDTIARY","pain","2","","72","H","0","img/none_selected.jpg","0","0","1","","0.2155360038","false","248","","0.2155360038","main_expt","","0.04121629219","","0.0373608022","","0.214739415","","","","","",""
"277","","bandit","324","828753","0.0-286.0-0.0","55990867","wem/bandit_single","A85ATJSDTIARY","pain","2","","72","H","0","img/none_selected.jpg","0","0","1","","0.2182269439","false","249","","0.2182269439","main_expt","","0.03081548873","","0.04629433077","","0.2361668487","","","","","",""
"312","","bandit","325","830837","0.0-287.0-0.0","55990867","wem/bandit_single","A85ATJSDTIARY","pain","2","","72","H","0","img/none_selected.jpg","0","0","1","","0.2794373206","false","250","","0.2794373206","main_expt","","0.02831669856","","0.04794370872","","0.2730147117","","","","","",""
"336","","bandit","326","832932","0.0-288.0-0.0","55990867","wem/bandit_single","A85ATJSDTIARY","pain","2","","72","H","0","img/none_selected.jpg","0","0","1","","0.2925698281","false","251","","0.2925698281","main_expt","","0.02600870455","","0.06568157066","","0.2591269664","","","","","",""
"74","","bandit","327","834774","0.0-289.0-0.0","55990867","wem/bandit_single","A85ATJSDTIARY","pain","2","","76","L","3","","0","0","1","","0.3091321407","false","252","","0.2727886948","main_expt","","0.02705961599","","0.07567030371","","0.3091321407","","","","","",""
"369","","bandit","328","836909","0.0-290.0-0.0","55990867","wem/bandit_single","A85ATJSDTIARY","pain","2","","76","L","3","","0","1","0","","0.2284010385","false","253","","0.2470803404","main_expt","","0.01805963102","","0.06628052114","","0.2284010385","","","","","",""
"44","","bandit","329","838726","0.0-291.0-0.0","55990867","wem/bandit_single","A85ATJSDTIARY","pain","2","","76","L","3","","0","1","0","","0.2452739286","false","254","","0.3366881304","main_expt","","0.01631706542","","0.08321976201","","0.2452739286","","","","","",""
"370","","bandit","330","840862","0.0-292.0-0.0","55990867","wem/bandit_single","A85ATJSDTIARY","pain","2","","76","L","3","","0","0","1","","0.2769296881","false","255","","0.3781216995","main_expt","","0.01966147099","","0.1379446817","","0.2769296881","","","","","",""
"26","","bandit","331","842660","0.0-293.0-0.0","55990867","wem/bandit_single","A85ATJSDTIARY","pain","2","","76","L","3","","0","1","0","","0.222598086","false","256","","0.3565974786","main_expt","","0.02801527349","","0.1104053019","","0.222598086","","","","","",""
"74","","bandit","332","844500","0.0-294.0-0.0","55990867","wem/bandit_single","A85ATJSDTIARY","pain","2","","76","L","3","","0","0","1","","0.2497605863","false","257","","0.3668333327","main_expt","","0.02393064904","","0.110095483","","0.2497605863","","","","","",""
"477","","bandit","333","846749","0.0-295.0-0.0","55990867","wem/bandit_single","A85ATJSDTIARY","pain","2","","76","L","3","","0","0","1","","0.248028097","false","258","","0.3978392262","main_expt","","0.01715644076","","0.09250214804","","0.248028097","","","","","",""
"289","","bandit","334","848813","0.0-296.0-0.0","55990867","wem/bandit_single","A85ATJSDTIARY","pain","2","","76","L","3","","0","0","1","","0.210079309","false","259","","0.3892622443","main_expt","","0.01812234738","","0.1288972452","","0.210079309","","","","","",""
"254","","bandit","335","850842","0.0-297.0-0.0","55990867","wem/bandit_single","A85ATJSDTIARY","pain","2","","76","L","3","","0","0","1","","0.1785868889","false","260","","0.3787635018","main_expt","","0.01699252537","","0.127844668","","0.1785868889","","","","","",""
"407","","bandit","336","853021","0.0-298.0-0.0","55990867","wem/bandit_single","A85ATJSDTIARY","pain","2","","76","L","3","","0","1","0","","0.1855690742","false","261","","0.4151771386","main_expt","","0.02027773674","","0.1408125104","","0.1855690742","","","","","",""
"84","","bandit","337","854878","0.0-299.0-0.0","55990867","wem/bandit_single","A85ATJSDTIARY","pain","2","","76","L","3","","0","0","1","","0.2454672077","false","262","","0.4184001904","main_expt","","0.008159173947","","0.1423762304","","0.2454672077","","","","","",""
"186","","bandit","338","856835","0.0-300.0-0.0","55990867","wem/bandit_single","A85ATJSDTIARY","pain","2","","76","L","3","","0","0","1","","0.2423041147","false","263","","0.4397427278","main_expt","","0.00730364875","","0.1237094287","","0.2423041147","","","","","",""
"361","","bandit","339","858957","0.0-301.0-0.0","55990867","wem/bandit_single","A85ATJSDTIARY","pain","2","","76","L","3","","0","1","0","","0.2771483686","false","264","","0.4308816061","main_expt","","0.008891010149","","0.1110826985","","0.2771483686","","","","","",""
"53","","bandit","340","860782","0.0-302.0-0.0","55990867","wem/bandit_single","A85ATJSDTIARY","pain","2","","76","L","3","","0","0","1","","0.2066329382","false","265","","0.4310956018","main_expt","","0.009434589262","","0.09816719149","","0.2066329382","","","","","",""
"21","","bandit","341","862574","0.0-303.0-0.0","55990867","wem/bandit_single","A85ATJSDTIARY","pain","2","","76","L","3","","0","0","1","","0.1954640054","false","266","","0.4462346174","main_expt","","0.009503255165","","0.1313615454","","0.1954640054","","","","","",""
"234","","bandit","342","864582","0.0-304.0-0.0","55990867","wem/bandit_single","A85ATJSDTIARY","pain","2","","76","L","3","","0","0","1","","0.132533774","false","267","","0.4649068607","main_expt","","0.01294763698","","0.1039649444","","0.132533774","","","","","",""
"395","","bandit","343","866749","0.0-305.0-0.0","55990867","wem/bandit_single","A85ATJSDTIARY","pain","2","","76","L","3","","0","0","1","","0.1212355483","false","268","","0.4499385749","main_expt","","0.01002763249","","0.0758663636","","0.1212355483","","","","","",""
"262","","bandit","344","868772","0.0-306.0-0.0","55990867","wem/bandit_single","A85ATJSDTIARY","pain","2","","75","K","2","","0","0","1","","0.08641939852","false","269","","0.4702815535","main_expt","","0.009339874814","","0.08641939852","","0.1363236216","","","","","",""
"52","","bandit","345","870586","0.0-307.0-0.0","55990867","wem/bandit_single","A85ATJSDTIARY","pain","2","","74","J","1","","0","0","1","","0.0101894737","false","270","","0.4738293899","main_expt","","0.0101894737","","0.08694739741","","0.1061923246","","","","","",""
"41","","bandit","346","872389","0.0-308.0-0.0","55990867","wem/bandit_single","A85ATJSDTIARY","pain","2","","72","H","0","img/none_selected.jpg","0","0","1","","0.4552130477","false","271","","0.4552130477","main_expt","","0.0101062795","","0.07507278363","","0.09682021381","","","","","",""
"20","","bandit","347","874184","0.0-309.0-0.0","55990867","wem/bandit_single","A85ATJSDTIARY","pain","2","","76","L","3","","0","0","1","","0.0728164368","false","272","","0.4571227508","main_expt","","0.009276773287","","0.09002305832","","0.0728164368","","","","","",""
"35","","bandit","348","875981","0.0-310.0-0.0","55990867","wem/bandit_single","A85ATJSDTIARY","pain","2","","75","K","2","","0","1","0","","0.07941117108","false","273","","0.4262778794","main_expt","","0.0113492324","","0.07941117108","","0.1026255411","","","","","",""
"2","","bandit","349","877756","0.0-311.0-0.0","55990867","wem/bandit_single","A85ATJSDTIARY","pain","2","","75","K","2","","0","0","1","","0.09301171309","false","274","","0.4017895895","main_expt","","0.005483919941","","0.09301171309","","0.08683802548","","","","","",""
"290","","bandit","350","879821","0.0-312.0-0.0","55990867","wem/bandit_single","A85ATJSDTIARY","pain","2","","75","K","2","","0","0","1","","0.1012072593","false","275","","0.4017548056","main_expt","","0.00462874381","","0.1012072593","","0.08250982893","","","","","",""
"369","","bandit","351","881964","0.0-313.0-0.0","55990867","wem/bandit_single","A85ATJSDTIARY","pain","2","","75","K","2","","0","0","1","","0.1230964009","false","276","","0.4072561249","main_expt","","0.009610611089","","0.1230964009","","0.06031930624","","","","","",""
"31","","bandit","352","883766","0.0-314.0-0.0","55990867","wem/bandit_single","A85ATJSDTIARY","pain","2","","74","J","1","","0","0","1","","0.01319252808","false","277","","0.3248287115","main_expt","","0.01319252808","","0.1320105939","","0.07169075363","","","","","",""
"4","","bandit","353","885544","0.0-315.0-0.0","55990867","wem/bandit_single","A85ATJSDTIARY","pain","2","","72","H","0","img/none_selected.jpg","0","0","1","","0.2954662343","false","278","","0.2954662343","main_expt","","0.008560453299","","0.100271112","","0.119525529","","","","","",""
"23","","bandit","354","887341","0.0-316.0-0.0","55990867","wem/bandit_single","A85ATJSDTIARY","pain","2","","76","L","3","","0","0","1","","0.05136608794","false","279","","0.3430788315","main_expt","","0.02270234009","","0.0752783975","","0.05136608794","","","","","",""
"50","","bandit","355","889164","0.0-317.0-0.0","55990867","wem/bandit_single","A85ATJSDTIARY","pain","2","","75","K","2","","0","0","1","","0.04609407158","false","280","","0.298888987","main_expt","","0.01842994591","","0.04609407158","","0.06692305053","","","","","",""
"218","","bandit","356","891156","0.0-318.0-0.0","55990867","wem/bandit_single","A85ATJSDTIARY","pain","2","","74","J","1","","0","0","1","","0.01750385803","false","281","","0.317374049","main_expt","","0.01750385803","","0.05874754036","","0.08594942048","","","","","",""
"611","","bandit","357","893541","0.0-319.0-0.0","55990867","wem/bandit_single","A85ATJSDTIARY","pain","2","","72","H","0","img/none_selected.jpg","0","0","1","","0.2905756231","false","282","","0.2905756231","main_expt","","0.01075771148","","0.05911354127","","0.08562343316","","","","","",""
"2","","bandit","358","895320","0.0-320.0-0.0","55990867","wem/bandit_single","A85ATJSDTIARY","pain","2","","76","L","3","","0","0","1","","0.06507866554","false","283","","0.335540713","main_expt","","0.009487342711","","0.0444902615","","0.06507866554","","","","","",""
"104","","bandit","359","897192","0.0-321.0-0.0","55990867","wem/bandit_single","A85ATJSDTIARY","pain","2","","75","K","2","","0","0","1","","0.03666520406","false","284","","0.3569674754","main_expt","","0.01035814212","","0.03666520406","","0.05738126215","","","","","",""
"537","","bandit","360","899501","0.0-322.0-0.0","55990867","wem/bandit_single","A85ATJSDTIARY","pain","2","","74","J","1","","0","0","1","","0.01056818013","false","285","","0.4068019922","main_expt","","0.01056818013","","0.02451873239","","0.06337296056","","","","","",""
"467","","bandit","361","901739","0.0-323.0-0.0","55990867","wem/bandit_single","A85ATJSDTIARY","pain","2","","72","H","0","img/none_selected.jpg","0","1","0","","0.432978486","false","286","","0.432978486","main_expt","","0.007821227136","","0.02877547985","","0.04649068967","","","","","",""
"380","","bandit","362","903893","0.0-324.0-0.0","55990867","wem/bandit_single","A85ATJSDTIARY","pain","2","","72","H","0","img/none_selected.jpg","0","0","1","","0.4213006965","false","287","","0.4213006965","main_expt","","0.01039042452","","0.03331393821","","0.04946639224","","","","","",""
"81","","bandit","363","905748","0.0-325.0-0.0","55990867","wem/bandit_single","A85ATJSDTIARY","pain","2","","72","H","0","img/none_selected.jpg","0","0","1","","0.4094413186","false","288","","0.4094413186","main_expt","","0.02141961277","","0.02363643209","","0.03962947871","","","","","",""
"170","","bandit","364","907691","0.0-326.0-0.0","55990867","wem/bandit_single","A85ATJSDTIARY","pain","2","","72","H","0","img/none_selected.jpg","0","0","1","","0.3731302572","false","289","","0.3731302572","main_expt","","0.02062414181","","0.0366455232","","0.05295486238","","","","","",""
"3","","bandit","365","909454","0.0-327.0-0.0","55990867","wem/bandit_single","A85ATJSDTIARY","pain","2","","72","H","0","img/none_selected.jpg","0","1","0","","0.4076032329","false","290","","0.4076032329","main_expt","","0.01411690602","","0.04887184979","","0.06311332932","","","","","",""
"320","","bandit","366","911547","0.0-328.0-0.0","55990867","wem/bandit_single","A85ATJSDTIARY","pain","2","","72","H","0","img/none_selected.jpg","0","0","1","","0.4134699565","false","291","","0.4134699565","main_expt","","0.03188260643","","0.03783642248","","0.07741633782","","","","","",""
"18","","bandit","367","913333","0.0-329.0-0.0","55990867","wem/bandit_single","A85ATJSDTIARY","pain","2","","72","H","0","img/none_selected.jpg","0","0","1","","0.3827884258","false","292","","0.3827884258","main_expt","","0.03429620073","","0.07820299584","","0.09064252153","","","","","",""
"7","","bandit","368","915109","0.0-330.0-0.0","55990867","wem/bandit_single","A85ATJSDTIARY","pain","2","","72","H","0","img/none_selected.jpg","0","0","1","","0.4162015812","false","293","","0.4162015812","main_expt","","0.030392347","","0.07060894185","","0.07659126906","","","","","",""
"320","","bandit","369","917188","0.0-331.0-0.0","55990867","wem/bandit_single","A85ATJSDTIARY","pain","2","","76","L","3","","0","0","1","","0.08042624432","false","294","","0.447674372","main_expt","","0.04782046051","","0.1051632986","","0.08042624432","","","","","",""
"35","","bandit","370","918990","0.0-332.0-0.0","55990867","wem/bandit_single","A85ATJSDTIARY","pain","2","","75","K","2","","0","0","1","","0.06624019153","false","295","","0.4402126752","main_expt","","0.06309063339","","0.06624019153","","0.1216640212","","","","","",""
"141","","bandit","371","920892","0.0-333.0-0.0","55990867","wem/bandit_single","A85ATJSDTIARY","pain","2","","74","J","1","","0","0","1","","0.09511663338","false","296","","0.4378891161","main_expt","","0.09511663338","","0.07088700909","","0.1058257345","","","","","",""
"204","","bandit","372","922867","0.0-334.0-0.0","55990867","wem/bandit_single","A85ATJSDTIARY","pain","2","","72","H","0","img/none_selected.jpg","0","0","1","","0.468153315","false","297","","0.468153315","main_expt","","0.07325770628","","0.0529580871","","0.1101311263","","","","","",""
"579","","bandit","373","925212","0.0-335.0-0.0","55990867","wem/bandit_single","A85ATJSDTIARY","pain","2","","74","J","1","","0","1","0","","0.06352452747","false","298","","0.4538992283","main_expt","","0.06352452747","","0.04256970448","","0.1117004815","","","","","",""
"411","","bandit","374","927396","0.0-336.0-0.0","55990867","wem/bandit_single","A85ATJSDTIARY","pain","2","","74","J","1","","0","0","1","","0.09466520998","false","299","","0.4653276232","main_expt","","0.09466520998","","0.02772245328","","0.1201211159","","","","","",""
