"rt","responses","trial_type","trial_index","time_elapsed","internal_node_id","subjID","study","MID","cond","drift","key_press","respCharCode","respKey","respChoiceNum","respChoice","gems","bombs","no_reward","GemPrChosen","BombPrChosen","practice","trial_counter","WinPr_0","LosePr_0","trial_label","WinPr_1","LosePr_1","WinPr_2","LosePr_2","WinPr_3","LosePr_3","Q0","Q1","Q2","gender","age","ethnicity"
"11504","{""Q0"":""A2IABGWWDKRQS3""}","survey-text","0","11510","0.0-0.0","56336629","wem/bandit_single","A2IABGWWDKRQS3","pain","3","","","","","","","","","","","","","","","","","","","","","","","","","","",""
"1639","","text","1","14152","0.0-1.0","56336629","wem/bandit_single","A2IABGWWDKRQS3","pain","3","32","","","","","","","","","","","","","","","","","","","","","","","","","",""
"2982","","text","2","17136","0.0-2.0","56336629","wem/bandit_single","A2IABGWWDKRQS3","pain","3","32","","","","","","","","","","","","","","","","","","","","","","","","","",""
"15878","","text","3","33016","0.0-3.0","56336629","wem/bandit_single","A2IABGWWDKRQS3","pain","3","32","","","","","","","","","","","","","","","","","","","","","","","","","",""
"10694","","text","4","43711","0.0-4.0","56336629","wem/bandit_single","A2IABGWWDKRQS3","pain","3","32","","","","","","","","","","","","","","","","","","","","","","","","","",""
"5806","","text","5","49519","0.0-5.0","56336629","wem/bandit_single","A2IABGWWDKRQS3","pain","3","32","","","","","","","","","","","","","","","","","","","","","","","","","",""
"5198","","text","6","54719","0.0-6.0","56336629","wem/bandit_single","A2IABGWWDKRQS3","pain","3","32","","","","","","","","","","","","","","","","","","","","","","","","","",""
"2462","","text","7","57182","0.0-7.0","56336629","wem/bandit_single","A2IABGWWDKRQS3","pain","3","32","","","","","","","","","","","","","","","","","","","","","","","","","",""
"4799","","text","8","61982","0.0-8.0","56336629","wem/bandit_single","A2IABGWWDKRQS3","pain","3","32","","","","","","","","","","","","","","","","","","","","","","","","","",""
"2623","","text","9","64607","0.0-9.0","56336629","wem/bandit_single","A2IABGWWDKRQS3","pain","3","32","","","","","","","","","","","","","","","","","","","","","","","","","",""
"2135","","text","10","66743","0.0-10.0","56336629","wem/bandit_single","A2IABGWWDKRQS3","pain","3","32","","","","","","","","","","","","","","","","","","","","","","","","","",""
"2559","","text","11","69303","0.0-11.0","56336629","wem/bandit_single","A2IABGWWDKRQS3","pain","3","32","","","","","","","","","","","","","","","","","","","","","","","","","",""
"3317","","bandit","12","74126","0.0-12.0-0.0","56336629","wem/bandit_single","A2IABGWWDKRQS3","pain","3","","74","J","0","img/none_selected_demo.jpg","0","0","1","0","0","true","0","0","0","","","","","","","","","","","","",""
"460","","bandit","13","76347","0.0-13.0-0.0","56336629","wem/bandit_single","A2IABGWWDKRQS3","pain","3","","75","K","0","img/none_selected_demo.jpg","0","0","1","0","0","true","0","0","0","","","","","","","","","","","","",""
"1424","","text","14","78023","0.0-14.0","56336629","wem/bandit_single","A2IABGWWDKRQS3","pain","3","32","","","","","","","","","","","","","","","","","","","","","","","","","",""
"1135","","text","15","79158","0.0-15.0","56336629","wem/bandit_single","A2IABGWWDKRQS3","pain","3","32","","","","","","","","","","","","","","","","","","","","","","","","","",""
"3431","","text","16","82591","0.0-16.0","56336629","wem/bandit_single","A2IABGWWDKRQS3","pain","3","32","","","","","","","","","","","","","","","","","","","","","","","","","",""
"1742","","text","17","84335","0.0-17.0","56336629","wem/bandit_single","A2IABGWWDKRQS3","pain","3","32","","","","","","","","","","","","","","","","","","","","","","","","","",""
"1173","","bandit","18","87021","0.0-18.0-0.0","56336629","wem/bandit_single","A2IABGWWDKRQS3","pain","3","","74","J","0","img/none_selected_demo.jpg","0","1","0","0","0.8","true","0","0","0.8","80_20_practice","0","0.2","","","","","","","","","",""
"29","","bandit","19","88805","0.0-18.0-1.0","56336629","wem/bandit_single","A2IABGWWDKRQS3","pain","3","","74","J","0","img/none_selected_demo.jpg","0","1","0","0","0.8","true","0","0","0.8","80_20_practice","0","0.2","","","","","","","","","",""
"68","","bandit","20","90629","0.0-18.0-2.0","56336629","wem/bandit_single","A2IABGWWDKRQS3","pain","3","","74","J","0","img/none_selected_demo.jpg","0","1","0","0","0.8","true","0","0","0.8","80_20_practice","0","0.2","","","","","","","","","",""
"19","","bandit","21","92404","0.0-18.0-3.0","56336629","wem/bandit_single","A2IABGWWDKRQS3","pain","3","","74","J","0","img/none_selected_demo.jpg","0","1","0","0","0.8","true","0","0","0.8","80_20_practice","0","0.2","","","","","","","","","",""
"300","","bandit","22","94461","0.0-18.0-4.0","56336629","wem/bandit_single","A2IABGWWDKRQS3","pain","3","","74","J","0","img/none_selected_demo.jpg","0","1","0","0","0.8","true","0","0","0.8","80_20_practice","0","0.2","","","","","","","","","",""
"44","","bandit","23","96260","0.0-18.0-5.0","56336629","wem/bandit_single","A2IABGWWDKRQS3","pain","3","","74","J","0","img/none_selected_demo.jpg","0","1","0","0","0.8","true","0","0","0.8","80_20_practice","0","0.2","","","","","","","","","",""
"85","","bandit","24","98101","0.0-18.0-6.0","56336629","wem/bandit_single","A2IABGWWDKRQS3","pain","3","","74","J","0","img/none_selected_demo.jpg","0","0","1","0","0.8","true","0","0","0.8","80_20_practice","0","0.2","","","","","","","","","",""
"44","","bandit","25","99900","0.0-18.0-7.0","56336629","wem/bandit_single","A2IABGWWDKRQS3","pain","3","","74","J","0","img/none_selected_demo.jpg","0","1","0","0","0.8","true","0","0","0.8","80_20_practice","0","0.2","","","","","","","","","",""
"373","","bandit","26","102029","0.0-18.0-8.0","56336629","wem/bandit_single","A2IABGWWDKRQS3","pain","3","","74","J","0","img/none_selected_demo.jpg","0","1","0","0","0.8","true","0","0","0.8","80_20_practice","0","0.2","","","","","","","","","",""
"268","","bandit","27","104053","0.0-18.0-9.0","56336629","wem/bandit_single","A2IABGWWDKRQS3","pain","3","","74","J","0","img/none_selected_demo.jpg","0","1","0","0","0.8","true","0","0","0.8","80_20_practice","0","0.2","","","","","","","","","",""
"229","","bandit","28","106036","0.0-18.0-10.0","56336629","wem/bandit_single","A2IABGWWDKRQS3","pain","3","","74","J","0","img/none_selected_demo.jpg","0","1","0","0","0.8","true","0","0","0.8","80_20_practice","0","0.2","","","","","","","","","",""
"54","","bandit","29","107844","0.0-18.0-11.0","56336629","wem/bandit_single","A2IABGWWDKRQS3","pain","3","","74","J","0","img/none_selected_demo.jpg","0","1","0","0","0.8","true","0","0","0.8","80_20_practice","0","0.2","","","","","","","","","",""
"21","","bandit","30","109622","0.0-18.0-12.0","56336629","wem/bandit_single","A2IABGWWDKRQS3","pain","3","","74","J","0","img/none_selected_demo.jpg","0","1","0","0","0.8","true","0","0","0.8","80_20_practice","0","0.2","","","","","","","","","",""
"132","","bandit","31","111510","0.0-18.0-13.0","56336629","wem/bandit_single","A2IABGWWDKRQS3","pain","3","","74","J","0","img/none_selected_demo.jpg","0","0","1","0","0.8","true","0","0","0.8","80_20_practice","0","0.2","","","","","","","","","",""
"187","","bandit","32","113453","0.0-18.0-14.0","56336629","wem/bandit_single","A2IABGWWDKRQS3","pain","3","","74","J","0","img/none_selected_demo.jpg","0","0","1","0","0.8","true","0","0","0.8","80_20_practice","0","0.2","","","","","","","","","",""
"572","","bandit","33","115780","0.0-18.0-15.0","56336629","wem/bandit_single","A2IABGWWDKRQS3","pain","3","","74","J","0","img/none_selected_demo.jpg","0","0","1","0","0.8","true","0","0","0.8","80_20_practice","0","0.2","","","","","","","","","",""
"109","","bandit","34","117644","0.0-18.0-16.0","56336629","wem/bandit_single","A2IABGWWDKRQS3","pain","3","","75","K","1","","0","0","1","0","0.2","true","0","0","0.8","80_20_practice","0","0.2","","","","","","","","","",""
"157","","bandit","35","119558","0.0-18.0-17.0","56336629","wem/bandit_single","A2IABGWWDKRQS3","pain","3","","75","K","1","","0","1","0","0","0.2","true","0","0","0.8","80_20_practice","0","0.2","","","","","","","","","",""
"163","","bandit","36","121476","0.0-18.0-18.0","56336629","wem/bandit_single","A2IABGWWDKRQS3","pain","3","","75","K","1","","0","1","0","0","0.2","true","0","0","0.8","80_20_practice","0","0.2","","","","","","","","","",""
"77","","bandit","37","123308","0.0-18.0-19.0","56336629","wem/bandit_single","A2IABGWWDKRQS3","pain","3","","75","K","1","","0","1","0","0","0.2","true","0","0","0.8","80_20_practice","0","0.2","","","","","","","","","",""
"3094","","text","38","126655","0.0-19.0","56336629","wem/bandit_single","A2IABGWWDKRQS3","pain","3","32","","","","","","","","","","","","","","","","","","","","","","","","","",""
"1501","","bandit","39","129662","0.0-20.0-0.0","56336629","wem/bandit_single","A2IABGWWDKRQS3","pain","3","","74","J","0","img/none_selected_demo.jpg","0","0","1","0","0","true","0","0","0","","0","0","","","","","","","","","",""
"44","","text","40","129958","0.0-21.0","56336629","wem/bandit_single","A2IABGWWDKRQS3","pain","3","75","","","","","","","","","","","","","","","","","","","","","","","","","",""
"3199","","text","41","133159","0.0-22.0","56336629","wem/bandit_single","A2IABGWWDKRQS3","pain","3","32","","","","","","","","","","","","","","","","","","","","","","","","","",""
"2798","","text","42","135958","0.0-23.0","56336629","wem/bandit_single","A2IABGWWDKRQS3","pain","3","32","","","","","","","","","","","","","","","","","","","","","","","","","",""
"2375","","text","43","138335","0.0-24.0","56336629","wem/bandit_single","A2IABGWWDKRQS3","pain","3","32","","","","","","","","","","","","","","","","","","","","","","","","","",""
"2269","","text","44","140607","0.0-25.0","56336629","wem/bandit_single","A2IABGWWDKRQS3","pain","3","32","","","","","","","","","","","","","","","","","","","","","","","","","",""
"4383","","text","45","144991","0.0-26.0","56336629","wem/bandit_single","A2IABGWWDKRQS3","pain","3","32","","","","","","","","","","","","","","","","","","","","","","","","","",""
"518","","text","46","145510","0.0-27.0","56336629","wem/bandit_single","A2IABGWWDKRQS3","pain","3","32","","","","","","","","","","","","","","","","","","","","","","","","","",""
"647","","text","47","146159","0.0-28.0","56336629","wem/bandit_single","A2IABGWWDKRQS3","pain","3","32","","","","","","","","","","","","","","","","","","","","","","","","","",""
"1038","","text","48","147199","0.0-29.0","56336629","wem/bandit_single","A2IABGWWDKRQS3","pain","3","32","","","","","","","","","","","","","","","","","","","","","","","","","",""
"1139","","text","49","148339","0.0-30.0","56336629","wem/bandit_single","A2IABGWWDKRQS3","pain","3","32","","","","","","","","","","","","","","","","","","","","","","","","","",""
"2474","","text","50","150814","0.0-31.0","56336629","wem/bandit_single","A2IABGWWDKRQS3","pain","3","32","","","","","","","","","","","","","","","","","","","","","","","","","",""
"421","","bandit","51","152741","0.0-32.0-0.0","56336629","wem/bandit_single","A2IABGWWDKRQS3","pain","3","","72","H","0","img/none_selected.jpg","0","1","0","0","0.8","true","0","0","0.8","full_practice","0","0.2","0","0.6","0","0.2","","","","","",""
"517","","bandit","52","155020","0.0-32.0-1.0","56336629","wem/bandit_single","A2IABGWWDKRQS3","pain","3","","72","H","0","img/none_selected.jpg","0","1","0","0","0.8","true","0","0","0.8","full_practice","0","0.2","0","0.6","0","0.2","","","","","",""
"172","","bandit","53","156948","0.0-32.0-2.0","56336629","wem/bandit_single","A2IABGWWDKRQS3","pain","3","","72","H","0","img/none_selected.jpg","0","1","0","0","0.8","true","0","0","0.8","full_practice","0","0.2","0","0.6","0","0.2","","","","","",""
"173","","bandit","54","158876","0.0-32.0-3.0","56336629","wem/bandit_single","A2IABGWWDKRQS3","pain","3","","72","H","0","img/none_selected.jpg","0","1","0","0","0.8","true","0","0","0.8","full_practice","0","0.2","0","0.6","0","0.2","","","","","",""
"45","","bandit","55","160676","0.0-32.0-4.0","56336629","wem/bandit_single","A2IABGWWDKRQS3","pain","3","","72","H","0","img/none_selected.jpg","0","0","1","0","0.8","true","0","0","0.8","full_practice","0","0.2","0","0.6","0","0.2","","","","","",""
"180","","bandit","56","162613","0.0-32.0-5.0","56336629","wem/bandit_single","A2IABGWWDKRQS3","pain","3","","74","J","1","","0","0","1","0","0.2","true","0","0","0.8","full_practice","0","0.2","0","0.6","0","0.2","","","","","",""
"124","","bandit","57","164492","0.0-32.0-6.0","56336629","wem/bandit_single","A2IABGWWDKRQS3","pain","3","","74","J","1","","0","0","1","0","0.2","true","0","0","0.8","full_practice","0","0.2","0","0.6","0","0.2","","","","","",""
"195","","bandit","58","166444","0.0-32.0-7.0","56336629","wem/bandit_single","A2IABGWWDKRQS3","pain","3","","75","K","2","","0","0","1","0","0.6","true","0","0","0.8","full_practice","0","0.2","0","0.6","0","0.2","","","","","",""
"246","","bandit","59","168445","0.0-32.0-8.0","56336629","wem/bandit_single","A2IABGWWDKRQS3","pain","3","","76","L","3","","0","0","1","0","0.2","true","0","0","0.8","full_practice","0","0.2","0","0.6","0","0.2","","","","","",""
"588","","bandit","60","170788","0.0-32.0-9.0","56336629","wem/bandit_single","A2IABGWWDKRQS3","pain","3","","72","H","0","img/none_selected.jpg","0","1","0","0","0.8","true","0","0","0.8","full_practice","0","0.2","0","0.6","0","0.2","","","","","",""
"46","","bandit","61","172589","0.0-32.0-10.0","56336629","wem/bandit_single","A2IABGWWDKRQS3","pain","3","","72","H","0","img/none_selected.jpg","0","1","0","0","0.8","true","0","0","0.8","full_practice","0","0.2","0","0.6","0","0.2","","","","","",""
"194","","bandit","62","174540","0.0-32.0-11.0","56336629","wem/bandit_single","A2IABGWWDKRQS3","pain","3","","72","H","0","img/none_selected.jpg","0","1","0","0","0.8","true","0","0","0.8","full_practice","0","0.2","0","0.6","0","0.2","","","","","",""
"166","","bandit","63","176460","0.0-32.0-12.0","56336629","wem/bandit_single","A2IABGWWDKRQS3","pain","3","","72","H","0","img/none_selected.jpg","0","0","1","0","0.8","true","0","0","0.8","full_practice","0","0.2","0","0.6","0","0.2","","","","","",""
"45","","bandit","64","178260","0.0-32.0-13.0","56336629","wem/bandit_single","A2IABGWWDKRQS3","pain","3","","72","H","0","img/none_selected.jpg","0","1","0","0","0.8","true","0","0","0.8","full_practice","0","0.2","0","0.6","0","0.2","","","","","",""
"204","","bandit","65","180221","0.0-32.0-14.0","56336629","wem/bandit_single","A2IABGWWDKRQS3","pain","3","","72","H","0","img/none_selected.jpg","0","0","1","0","0.8","true","0","0","0.8","full_practice","0","0.2","0","0.6","0","0.2","","","","","",""
"61","","bandit","66","182038","0.0-32.0-15.0","56336629","wem/bandit_single","A2IABGWWDKRQS3","pain","3","","72","H","0","img/none_selected.jpg","0","1","0","0","0.8","true","0","0","0.8","full_practice","0","0.2","0","0.6","0","0.2","","","","","",""
"322","","bandit","67","184118","0.0-32.0-16.0","56336629","wem/bandit_single","A2IABGWWDKRQS3","pain","3","","72","H","0","img/none_selected.jpg","0","1","0","0","0.8","true","0","0","0.8","full_practice","0","0.2","0","0.6","0","0.2","","","","","",""
"83","","bandit","68","185956","0.0-32.0-17.0","56336629","wem/bandit_single","A2IABGWWDKRQS3","pain","3","","72","H","0","img/none_selected.jpg","0","1","0","0","0.8","true","0","0","0.8","full_practice","0","0.2","0","0.6","0","0.2","","","","","",""
"13","","bandit","69","187729","0.0-32.0-18.0","56336629","wem/bandit_single","A2IABGWWDKRQS3","pain","3","","72","H","0","img/none_selected.jpg","0","0","1","0","0.8","true","0","0","0.8","full_practice","0","0.2","0","0.6","0","0.2","","","","","",""
"17","","bandit","70","189500","0.0-32.0-19.0","56336629","wem/bandit_single","A2IABGWWDKRQS3","pain","3","","72","H","0","img/none_selected.jpg","0","1","0","0","0.8","true","0","0","0.8","full_practice","0","0.2","0","0.6","0","0.2","","","","","",""
"2235","","text","71","191991","0.0-33.0","56336629","wem/bandit_single","A2IABGWWDKRQS3","pain","3","32","","","","","","","","","","","","","","","","","","","","","","","","","",""
"8026","","text","72","201019","0.0-34.0","56336629","wem/bandit_single","A2IABGWWDKRQS3","pain","3","32","","","","","","","","","","","","","","","","","","","","","","","","","",""
"2777","","text","73","203798","0.0-35.0","56336629","wem/bandit_single","A2IABGWWDKRQS3","pain","3","32","","","","","","","","","","","","","","","","","","","","","","","","","",""
"655","","text","74","204455","0.0-36.0","56336629","wem/bandit_single","A2IABGWWDKRQS3","pain","3","32","","","","","","","","","","","","","","","","","","","","","","","","","",""
"1654","","text","75","206111","0.0-37.0","56336629","wem/bandit_single","A2IABGWWDKRQS3","pain","3","32","","","","","","","","","","","","","","","","","","","","","","","","","",""
"738","","bandit","76","208359","0.0-38.0-0.0","56336629","wem/bandit_single","A2IABGWWDKRQS3","pain","3","","72","H","0","img/none_selected.jpg","0","0","1","","0.06813583588","false","1","","0.06813583588","main_expt","","0.2015711498","","0.2211287853","","0.3417032333","","","","","",""
"490","","bandit","77","210605","0.0-39.0-0.0","56336629","wem/bandit_single","A2IABGWWDKRQS3","pain","3","","74","J","1","","0","0","1","","0.1868286341","false","2","","0.08840771113","main_expt","","0.1868286341","","0.2921894834","","0.3935143322","","","","","",""
"301","","bandit","78","212661","0.0-40.0-0.0","56336629","wem/bandit_single","A2IABGWWDKRQS3","pain","3","","75","K","2","","0","1","0","","0.2712314767","false","3","","0.14311428","main_expt","","0.2285659085","","0.2712314767","","0.3247841161","","","","","",""
"5","","bandit","79","214420","0.0-41.0-0.0","56336629","wem/bandit_single","A2IABGWWDKRQS3","pain","3","","75","K","2","","0","0","1","","0.3501044345","false","4","","0.1389033164","main_expt","","0.2587006496","","0.3501044345","","0.3524809632","","","","","",""
"69","","bandit","80","216257","0.0-42.0-0.0","56336629","wem/bandit_single","A2IABGWWDKRQS3","pain","3","","75","K","2","","0","1","0","","0.3826883046","false","5","","0.1064755534","main_expt","","0.2238216231","","0.3826883046","","0.3243282494","","","","","",""
"23","","bandit","81","218038","0.0-43.0-0.0","56336629","wem/bandit_single","A2IABGWWDKRQS3","pain","3","","75","K","2","","0","0","1","","0.3538977559","false","6","","0.07607549968","main_expt","","0.2114086621","","0.3538977559","","0.3856520047","","","","","",""
"122","","bandit","82","219916","0.0-44.0-0.0","56336629","wem/bandit_single","A2IABGWWDKRQS3","pain","3","","75","K","2","","0","1","0","","0.3911179113","false","7","","0.0490522351","main_expt","","0.225256176","","0.3911179113","","0.3595299576","","","","","",""
"195","","bandit","83","221868","0.0-45.0-0.0","56336629","wem/bandit_single","A2IABGWWDKRQS3","pain","3","","75","K","2","","0","1","0","","0.3378010318","false","8","","0.04564729275","main_expt","","0.1920600422","","0.3378010318","","0.2908809246","","","","","",""
"86","","bandit","84","223709","0.0-46.0-0.0","56336629","wem/bandit_single","A2IABGWWDKRQS3","pain","3","","75","K","2","","0","1","0","","0.3584091786","false","9","","0.05361883364","main_expt","","0.222474992","","0.3584091786","","0.3401169694","","","","","",""
"59","","bandit","85","225522","0.0-47.0-0.0","56336629","wem/bandit_single","A2IABGWWDKRQS3","pain","3","","75","K","2","","0","1","0","","0.3822252457","false","10","","0.05689605437","main_expt","","0.1720297318","","0.3822252457","","0.370347707","","","","","",""
"79","","bandit","86","227356","0.0-48.0-0.0","56336629","wem/bandit_single","A2IABGWWDKRQS3","pain","3","","75","K","2","","0","1","0","","0.4003480189","false","11","","0.05596529361","main_expt","","0.1672236423","","0.4003480189","","0.3385652673","","","","","",""
"85","","bandit","87","229196","0.0-49.0-0.0","56336629","wem/bandit_single","A2IABGWWDKRQS3","pain","3","","75","K","2","","0","1","0","","0.4035898181","false","12","","0.07455145674","main_expt","","0.1908353862","","0.4035898181","","0.3433253296","","","","","",""
"77","","bandit","88","231028","0.0-50.0-0.0","56336629","wem/bandit_single","A2IABGWWDKRQS3","pain","3","","75","K","2","","0","1","0","","0.3939267589","false","13","","0.1061797552","main_expt","","0.1373256951","","0.3939267589","","0.3306460316","","","","","",""
"94","","bandit","89","232879","0.0-51.0-0.0","56336629","wem/bandit_single","A2IABGWWDKRQS3","pain","3","","75","K","2","","0","0","1","","0.4058751809","false","14","","0.09003395111","main_expt","","0.1605467602","","0.4058751809","","0.3423394156","","","","","",""
"74","","bandit","90","234708","0.0-52.0-0.0","56336629","wem/bandit_single","A2IABGWWDKRQS3","pain","3","","75","K","2","","0","1","0","","0.3784768297","false","15","","0.09190110762","main_expt","","0.1270826231","","0.3784768297","","0.3514631564","","","","","",""
"162","","bandit","91","236629","0.0-53.0-0.0","56336629","wem/bandit_single","A2IABGWWDKRQS3","pain","3","","75","K","2","","0","0","1","","0.3742197382","false","16","","0.1119147711","main_expt","","0.1659789958","","0.3742197382","","0.3763865137","","","","","",""
"11","","bandit","92","238397","0.0-54.0-0.0","56336629","wem/bandit_single","A2IABGWWDKRQS3","pain","3","","75","K","2","","0","0","1","","0.3738750299","false","17","","0.1268228496","main_expt","","0.1810296119","","0.3738750299","","0.3613216018","","","","","",""
"196","","bandit","93","240348","0.0-55.0-0.0","56336629","wem/bandit_single","A2IABGWWDKRQS3","pain","3","","76","L","3","","0","0","1","","0.3354311471","false","18","","0.160542793","main_expt","","0.2209588372","","0.30878177","","0.3354311471","","","","","",""
"31","","bandit","94","242148","0.0-56.0-0.0","56336629","wem/bandit_single","A2IABGWWDKRQS3","pain","3","","74","J","1","","0","0","1","","0.1577150754","false","19","","0.1913020378","main_expt","","0.1577150754","","0.3257740717","","0.3151580681","","","","","",""
"76","","bandit","95","243980","0.0-57.0-0.0","56336629","wem/bandit_single","A2IABGWWDKRQS3","pain","3","","72","H","0","img/none_selected.jpg","0","0","1","","0.2201213849","false","20","","0.2201213849","main_expt","","0.2368366468","","0.2780557495","","0.2633525784","","","","","",""
"69","","bandit","96","245804","0.0-58.0-0.0","56336629","wem/bandit_single","A2IABGWWDKRQS3","pain","3","","72","H","0","img/none_selected.jpg","0","0","1","","0.1747441944","false","21","","0.1747441944","main_expt","","0.1692925459","","0.2552615423","","0.2730255539","","","","","",""
"69","","bandit","97","247628","0.0-59.0-0.0","56336629","wem/bandit_single","A2IABGWWDKRQS3","pain","3","","74","J","1","","0","0","1","","0.144462955","false","22","","0.1407764438","main_expt","","0.144462955","","0.2862558775","","0.2366183143","","","","","",""
"269","","bandit","98","249652","0.0-60.0-0.0","56336629","wem/bandit_single","A2IABGWWDKRQS3","pain","3","","76","L","3","","0","0","1","","0.2193011186","false","23","","0.1444197889","main_expt","","0.1928882479","","0.290674517","","0.2193011186","","","","","",""
"28","","bandit","99","251437","0.0-61.0-0.0","56336629","wem/bandit_single","A2IABGWWDKRQS3","pain","3","","75","K","2","","0","0","1","","0.2669553567","false","24","","0.1898422889","main_expt","","0.2077361259","","0.2669553567","","0.2058852999","","","","","",""
"155","","bandit","100","253348","0.0-62.0-0.0","56336629","wem/bandit_single","A2IABGWWDKRQS3","pain","3","","75","K","2","","0","0","1","","0.2134469473","false","25","","0.2319991336","main_expt","","0.2580980749","","0.2134469473","","0.2377147794","","","","","",""
"4","","bandit","101","255108","0.0-63.0-0.0","56336629","wem/bandit_single","A2IABGWWDKRQS3","pain","3","","76","L","3","","0","0","1","","0.3017638279","false","26","","0.2140617454","main_expt","","0.2593960467","","0.2027981442","","0.3017638279","","","","","",""
"133","","bandit","102","256997","0.0-64.0-0.0","56336629","wem/bandit_single","A2IABGWWDKRQS3","pain","3","","72","H","0","img/none_selected.jpg","0","0","1","","0.2186733942","false","27","","0.2186733942","main_expt","","0.2913294918","","0.1669761534","","0.2647551657","","","","","",""
"115","","bandit","103","258868","0.0-65.0-0.0","56336629","wem/bandit_single","A2IABGWWDKRQS3","pain","3","","74","J","1","","0","0","1","","0.2838721205","false","28","","0.2573772923","main_expt","","0.2838721205","","0.1301617017","","0.2864353885","","","","","",""
"59","","bandit","104","260685","0.0-66.0-0.0","56336629","wem/bandit_single","A2IABGWWDKRQS3","pain","3","","74","J","1","","0","0","1","","0.2225595658","false","29","","0.2563684882","main_expt","","0.2225595658","","0.1540227795","","0.2669447337","","","","","",""
"124","","bandit","105","262564","0.0-67.0-0.0","56336629","wem/bandit_single","A2IABGWWDKRQS3","pain","3","","76","L","3","","0","0","1","","0.242519946","false","30","","0.3180657859","main_expt","","0.2450998207","","0.1290956128","","0.242519946","","","","","",""
"202","","bandit","106","264520","0.0-68.0-0.0","56336629","wem/bandit_single","A2IABGWWDKRQS3","pain","3","","75","K","2","","0","0","1","","0.157476084","false","31","","0.3391977199","main_expt","","0.2358374841","","0.157476084","","0.1808952067","","","","","",""
"95","","bandit","107","266379","0.0-69.0-0.0","56336629","wem/bandit_single","A2IABGWWDKRQS3","pain","3","","76","L","3","","0","0","1","","0.1490402933","false","32","","0.3655242212","main_expt","","0.2465538883","","0.1667461438","","0.1490402933","","","","","",""
"141","","bandit","108","268276","0.0-70.0-0.0","56336629","wem/bandit_single","A2IABGWWDKRQS3","pain","3","","75","K","2","","0","0","1","","0.1698659255","false","33","","0.3476833293","main_expt","","0.2479029149","","0.1698659255","","0.1607825008","","","","","",""
"220","","bandit","109","270253","0.0-71.0-0.0","56336629","wem/bandit_single","A2IABGWWDKRQS3","pain","3","","72","H","0","img/none_selected.jpg","0","1","0","","0.3287357547","false","34","","0.3287357547","main_expt","","0.1813792252","","0.1830702822","","0.2019438485","","","","","",""
"36","","bandit","110","272044","0.0-72.0-0.0","56336629","wem/bandit_single","A2IABGWWDKRQS3","pain","3","","72","H","0","img/none_selected.jpg","0","0","1","","0.3568635533","false","35","","0.3568635533","main_expt","","0.1507873856","","0.1648441896","","0.1187506792","","","","","",""
"123","","bandit","111","273925","0.0-73.0-0.0","56336629","wem/bandit_single","A2IABGWWDKRQS3","pain","3","","72","H","0","img/none_selected.jpg","0","0","1","","0.2559818432","false","36","","0.2559818432","main_expt","","0.185146395","","0.1702375356","","0.107122158","","","","","",""
"74","","bandit","112","275758","0.0-74.0-0.0","56336629","wem/bandit_single","A2IABGWWDKRQS3","pain","3","","72","H","0","img/none_selected.jpg","0","0","1","","0.2095103509","false","37","","0.2095103509","main_expt","","0.1995500277","","0.1248493821","","0.1462043769","","","","","",""
"162","","bandit","113","277676","0.0-75.0-0.0","56336629","wem/bandit_single","A2IABGWWDKRQS3","pain","3","","74","J","1","","0","0","1","","0.2324476024","false","38","","0.1824107212","main_expt","","0.2324476024","","0.1806095344","","0.1562864446","","","","","",""
"148","","bandit","114","279580","0.0-76.0-0.0","56336629","wem/bandit_single","A2IABGWWDKRQS3","pain","3","","74","J","1","","0","0","1","","0.2374336796","false","39","","0.180532013","main_expt","","0.2374336796","","0.1636381498","","0.1425148763","","","","","",""
"69","","bandit","115","281404","0.0-77.0-0.0","56336629","wem/bandit_single","A2IABGWWDKRQS3","pain","3","","75","K","2","","0","0","1","","0.128328165","false","40","","0.209403608","main_expt","","0.1871034738","","0.128328165","","0.1332413707","","","","","",""
"99","","bandit","116","283260","0.0-78.0-0.0","56336629","wem/bandit_single","A2IABGWWDKRQS3","pain","3","","75","K","2","","0","0","1","","0.1128848486","false","41","","0.1790729352","main_expt","","0.1923798107","","0.1128848486","","0.170838957","","","","","",""
"659","","bandit","117","285676","0.0-79.0-0.0","56336629","wem/bandit_single","A2IABGWWDKRQS3","pain","3","","76","L","3","","0","0","1","","0.221577246","false","42","","0.1586268334","main_expt","","0.2175202152","","0.1024028154","","0.221577246","","","","","",""
"213","","bandit","118","287644","0.0-80.0-0.0","56336629","wem/bandit_single","A2IABGWWDKRQS3","pain","3","","76","L","3","","0","0","1","","0.2937465132","false","43","","0.1953085145","main_expt","","0.199004634","","0.1842117743","","0.2937465132","","","","","",""
"188","","bandit","119","289589","0.0-81.0-0.0","56336629","wem/bandit_single","A2IABGWWDKRQS3","pain","3","","74","J","1","","0","1","0","","0.1979694218","false","44","","0.229373846","main_expt","","0.1979694218","","0.2398699605","","0.2473378206","","","","","",""
"51","","bandit","120","291397","0.0-82.0-0.0","56336629","wem/bandit_single","A2IABGWWDKRQS3","pain","3","","74","J","1","","0","0","1","","0.1992427108","false","45","","0.2387173179","main_expt","","0.1992427108","","0.2666943954","","0.2911711657","","","","","",""
"75","","bandit","121","293229","0.0-83.0-0.0","56336629","wem/bandit_single","A2IABGWWDKRQS3","pain","3","","74","J","1","","0","0","1","","0.2240306516","false","46","","0.2142046797","main_expt","","0.2240306516","","0.3187479261","","0.2520057509","","","","","",""
"76","","bandit","122","295060","0.0-84.0-0.0","56336629","wem/bandit_single","A2IABGWWDKRQS3","pain","3","","75","K","2","","0","1","0","","0.3190608455","false","47","","0.2454335886","main_expt","","0.2065012218","","0.3190608455","","0.2527148282","","","","","",""
"69","","bandit","123","296884","0.0-85.0-0.0","56336629","wem/bandit_single","A2IABGWWDKRQS3","pain","3","","75","K","2","","0","0","1","","0.3135096665","false","48","","0.2810950816","main_expt","","0.1926440163","","0.3135096665","","0.273334487","","","","","",""
"253","","bandit","124","298894","0.0-86.0-0.0","56336629","wem/bandit_single","A2IABGWWDKRQS3","pain","3","","72","H","0","img/none_selected.jpg","0","0","1","","0.2547597437","false","49","","0.2547597437","main_expt","","0.1670810943","","0.3341811191","","0.3181736471","","","","","",""
"105","","bandit","125","300757","0.0-87.0-0.0","56336629","wem/bandit_single","A2IABGWWDKRQS3","pain","3","","75","K","2","","0","0","1","","0.3459923598","false","50","","0.224323175","main_expt","","0.1198069869","","0.3459923598","","0.3806153608","","","","","",""
"15","","bandit","126","302540","0.0-88.0-0.0","56336629","wem/bandit_single","A2IABGWWDKRQS3","pain","3","","74","J","1","","0","0","1","","0.103394302","false","51","","0.2755477452","main_expt","","0.103394302","","0.3331953563","","0.3949296296","","","","","",""
"196","","bandit","127","304493","0.0-89.0-0.0","56336629","wem/bandit_single","A2IABGWWDKRQS3","pain","3","","72","H","0","img/none_selected.jpg","0","1","0","","0.3022170302","false","52","","0.3022170302","main_expt","","0.1018912343","","0.3915962888","","0.3544293331","","","","","",""
"83","","bandit","128","306333","0.0-90.0-0.0","56336629","wem/bandit_single","A2IABGWWDKRQS3","pain","3","","72","H","0","img/none_selected.jpg","0","1","0","","0.2886203433","false","53","","0.2886203433","main_expt","","0.07233269407","","0.3984086051","","0.3007967805","","","","","",""
"162","","bandit","129","308252","0.0-91.0-0.0","56336629","wem/bandit_single","A2IABGWWDKRQS3","pain","3","","72","H","0","img/none_selected.jpg","0","0","1","","0.3072524501","false","54","","0.3072524501","main_expt","","0.09210147888","","0.4181407331","","0.3376398899","","","","","",""
"172","","bandit","130","310180","0.0-92.0-0.0","56336629","wem/bandit_single","A2IABGWWDKRQS3","pain","3","","72","H","0","img/none_selected.jpg","0","1","0","","0.3847595325","false","55","","0.3847595325","main_expt","","0.08866102842","","0.3964386999","","0.3625264345","","","","","",""
"173","","bandit","131","312109","0.0-93.0-0.0","56336629","wem/bandit_single","A2IABGWWDKRQS3","pain","3","","72","H","0","img/none_selected.jpg","0","0","1","","0.4008313728","false","56","","0.4008313728","main_expt","","0.1208391037","","0.4043277199","","0.313137485","","","","","",""
"186","","bandit","132","314053","0.0-94.0-0.0","56336629","wem/bandit_single","A2IABGWWDKRQS3","pain","3","","72","H","0","img/none_selected.jpg","0","0","1","","0.3763680666","false","57","","0.3763680666","main_expt","","0.1429525169","","0.3232173094","","0.3287581384","","","","","",""
"11","","bandit","133","315820","0.0-95.0-0.0","56336629","wem/bandit_single","A2IABGWWDKRQS3","pain","3","","72","H","0","img/none_selected.jpg","0","0","1","","0.3630839511","false","58","","0.3630839511","main_expt","","0.1800007821","","0.3352595409","","0.2891608333","","","","","",""
"2","","bandit","134","317580","0.0-96.0-0.0","56336629","wem/bandit_single","A2IABGWWDKRQS3","pain","3","","76","L","3","","0","0","1","","0.2228703537","false","59","","0.3166885591","main_expt","","0.1168587732","","0.3423270404","","0.2228703537","","","","","",""
"11","","bandit","135","319349","0.0-97.0-0.0","56336629","wem/bandit_single","A2IABGWWDKRQS3","pain","3","","75","K","2","","0","0","1","","0.3326485747","false","60","","0.3339947878","main_expt","","0.08966050757","","0.3326485747","","0.2694349638","","","","","",""
"91","","bandit","136","321197","0.0-98.0-0.0","56336629","wem/bandit_single","A2IABGWWDKRQS3","pain","3","","74","J","1","","0","0","1","","0.06827284498","false","61","","0.3559621948","main_expt","","0.06827284498","","0.3239501662","","0.3291501217","","","","","",""
"115","","bandit","137","323068","0.0-99.0-0.0","56336629","wem/bandit_single","A2IABGWWDKRQS3","pain","3","","75","K","2","","0","1","0","","0.3140158541","false","62","","0.3565904981","main_expt","","0.0870528816","","0.3140158541","","0.3516688484","","","","","",""
"52","","bandit","138","324876","0.0-100.0-0.0","56336629","wem/bandit_single","A2IABGWWDKRQS3","pain","3","","75","K","2","","0","1","0","","0.2896297009","false","63","","0.3766945074","main_expt","","0.07384780705","","0.2896297009","","0.3662001291","","","","","",""
"148","","bandit","139","326781","0.0-101.0-0.0","56336629","wem/bandit_single","A2IABGWWDKRQS3","pain","3","","75","K","2","","0","0","1","","0.2848001348","false","64","","0.4038560084","main_expt","","0.09386223648","","0.2848001348","","0.3986377969","","","","","",""
"2","","bandit","140","328542","0.0-102.0-0.0","56336629","wem/bandit_single","A2IABGWWDKRQS3","pain","3","","75","K","2","","0","0","1","","0.2621939157","false","65","","0.4081833366","main_expt","","0.08656227431","","0.2621939157","","0.4284050928","","","","","",""
"10","","bandit","141","330309","0.0-103.0-0.0","56336629","wem/bandit_single","A2IABGWWDKRQS3","pain","3","","76","L","3","","0","0","1","","0.4295130084","false","66","","0.4111507483","main_expt","","0.1254260964","","0.2218985249","","0.4295130084","","","","","",""
"158","","bandit","142","332228","0.0-104.0-0.0","56336629","wem/bandit_single","A2IABGWWDKRQS3","pain","3","","72","H","0","img/none_selected.jpg","0","1","0","","0.3731562577","false","67","","0.3731562577","main_expt","","0.0848557225","","0.2203007364","","0.4192215244","","","","","",""
"163","","bandit","143","334148","0.0-105.0-0.0","56336629","wem/bandit_single","A2IABGWWDKRQS3","pain","3","","72","H","0","img/none_selected.jpg","0","0","1","","0.3471707475","false","68","","0.3471707475","main_expt","","0.1277621339","","0.2163243509","","0.4617344849","","","","","",""
"220","","bandit","144","336125","0.0-106.0-0.0","56336629","wem/bandit_single","A2IABGWWDKRQS3","pain","3","","72","H","0","img/none_selected.jpg","0","0","1","","0.3163780081","false","69","","0.3163780081","main_expt","","0.1425885083","","0.1552451017","","0.4496684627","","","","","",""
"195","","bandit","145","338077","0.0-107.0-0.0","56336629","wem/bandit_single","A2IABGWWDKRQS3","pain","3","","74","J","1","","0","1","0","","0.1765985622","false","70","","0.2872849644","main_expt","","0.1765985622","","0.144295094","","0.4572021165","","","","","",""
"129","","bandit","146","339965","0.0-108.0-0.0","56336629","wem/bandit_single","A2IABGWWDKRQS3","pain","3","","74","J","1","","0","0","1","","0.1520060204","false","71","","0.300298776","main_expt","","0.1520060204","","0.1823242822","","0.457930868","","","","","",""
"147","","bandit","147","341868","0.0-109.0-0.0","56336629","wem/bandit_single","A2IABGWWDKRQS3","pain","3","","74","J","1","","0","1","0","","0.09933583891","false","72","","0.3280152389","main_expt","","0.09933583891","","0.144478384","","0.4687468973","","","","","",""
"123","","bandit","148","343748","0.0-110.0-0.0","56336629","wem/bandit_single","A2IABGWWDKRQS3","pain","3","","74","J","1","","0","0","1","","0.1087995109","false","73","","0.2758062481","main_expt","","0.1087995109","","0.1420634247","","0.4707862587","","","","","",""
"148","","bandit","149","345652","0.0-111.0-0.0","56336629","wem/bandit_single","A2IABGWWDKRQS3","pain","3","","75","K","2","","0","0","1","","0.1358649702","false","74","","0.3370537031","main_expt","","0.150223613","","0.1358649702","","0.4602293826","","","","","",""
"290","","bandit","150","347701","0.0-112.0-0.0","56336629","wem/bandit_single","A2IABGWWDKRQS3","pain","3","","76","L","3","","0","0","1","","0.439891953","false","75","","0.3323795279","main_expt","","0.1945690608","","0.09700523291","","0.439891953","","","","","",""
"82","","bandit","151","349539","0.0-113.0-0.0","56336629","wem/bandit_single","A2IABGWWDKRQS3","pain","3","","72","H","0","img/none_selected.jpg","0","1","0","","0.3822428931","false","76","","0.3822428931","main_expt","","0.2454913388","","0.07829726083","","0.4424180744","","","","","",""
"188","","bandit","152","351484","0.0-114.0-0.0","56336629","wem/bandit_single","A2IABGWWDKRQS3","pain","3","","72","H","0","img/none_selected.jpg","0","1","0","","0.4136836411","false","77","","0.4136836411","main_expt","","0.2181262922","","0.08460916486","","0.4066280348","","","","","",""
"196","","bandit","153","353436","0.0-115.0-0.0","56336629","wem/bandit_single","A2IABGWWDKRQS3","pain","3","","72","H","0","img/none_selected.jpg","0","1","0","","0.4505469687","false","78","","0.4505469687","main_expt","","0.2500794828","","0.0875988483","","0.3969262671","","","","","",""
"172","","bandit","154","355365","0.0-116.0-0.0","56336629","wem/bandit_single","A2IABGWWDKRQS3","pain","3","","72","H","0","img/none_selected.jpg","0","1","0","","0.4251749511","false","79","","0.4251749511","main_expt","","0.2021405589","","0.06491107755","","0.4119020232","","","","","",""
"115","","bandit","155","357238","0.0-117.0-0.0","56336629","wem/bandit_single","A2IABGWWDKRQS3","pain","3","","72","H","0","img/none_selected.jpg","0","0","1","","0.3976376265","false","80","","0.3976376265","main_expt","","0.1654874554","","0.1021818806","","0.3797331509","","","","","",""
"66","","bandit","156","359061","0.0-118.0-0.0","56336629","wem/bandit_single","A2IABGWWDKRQS3","pain","3","","72","H","0","img/none_selected.jpg","0","0","1","","0.409462467","false","81","","0.409462467","main_expt","","0.1281487551","","0.07175209231","","0.4024270851","","","","","",""
"153","","bandit","157","360972","0.0-119.0-0.0","56336629","wem/bandit_single","A2IABGWWDKRQS3","pain","3","","74","J","1","","0","0","1","","0.1167166884","false","82","","0.4541942335","main_expt","","0.1167166884","","0.04651379375","","0.3976574516","","","","","",""
"13","","bandit","158","362742","0.0-120.0-0.0","56336629","wem/bandit_single","A2IABGWWDKRQS3","pain","3","","74","J","1","","0","0","1","","0.1426109787","false","83","","0.4452160763","main_expt","","0.1426109787","","0.03148502893","","0.3749492802","","","","","",""
"122","","bandit","159","364620","0.0-121.0-0.0","56336629","wem/bandit_single","A2IABGWWDKRQS3","pain","3","","75","K","2","","0","0","1","","0.05186863446","false","84","","0.438985114","main_expt","","0.121887906","","0.05186863446","","0.4021863709","","","","","",""
"132","","bandit","160","366511","0.0-122.0-0.0","56336629","wem/bandit_single","A2IABGWWDKRQS3","pain","3","","75","K","2","","0","0","1","","0.04986731509","false","85","","0.4331173667","main_expt","","0.1361926199","","0.04986731509","","0.3624574422","","","","","",""
"192","","bandit","161","368461","0.0-123.0-0.0","56336629","wem/bandit_single","A2IABGWWDKRQS3","pain","3","","76","L","3","","0","0","1","","0.387939101","false","86","","0.447547065","main_expt","","0.1287871674","","0.05891938772","","0.387939101","","","","","",""
"99","","bandit","162","370316","0.0-124.0-0.0","56336629","wem/bandit_single","A2IABGWWDKRQS3","pain","3","","76","L","3","","0","1","0","","0.3949621072","false","87","","0.4451560311","main_expt","","0.13112728","","0.06619539979","","0.3949621072","","","","","",""
"236","","bandit","163","372308","0.0-125.0-0.0","56336629","wem/bandit_single","A2IABGWWDKRQS3","pain","3","","76","L","3","","0","0","1","","0.3789082299","false","88","","0.4010299359","main_expt","","0.1385028762","","0.03553047297","","0.3789082299","","","","","",""
"195","","bandit","164","374261","0.0-126.0-0.0","56336629","wem/bandit_single","A2IABGWWDKRQS3","pain","3","","76","L","3","","0","0","1","","0.3718344374","false","89","","0.430672582","main_expt","","0.1377901848","","0.03983007571","","0.3718344374","","","","","",""
"26","","bandit","165","376043","0.0-127.0-0.0","56336629","wem/bandit_single","A2IABGWWDKRQS3","pain","3","","72","H","0","img/none_selected.jpg","0","0","1","","0.4063924327","false","90","","0.4063924327","main_expt","","0.1642812903","","0.02618566652","","0.4341719303","","","","","",""
"28","","bandit","166","377829","0.0-128.0-0.0","56336629","wem/bandit_single","A2IABGWWDKRQS3","pain","3","","72","H","0","img/none_selected.jpg","0","0","1","","0.4115689239","false","91","","0.4115689239","main_expt","","0.2115922749","","0.03325063158","","0.4538289377","","","","","",""
"74","","bandit","167","379660","0.0-129.0-0.0","56336629","wem/bandit_single","A2IABGWWDKRQS3","pain","3","","74","J","1","","0","0","1","","0.1819790886","false","92","","0.4195244723","main_expt","","0.1819790886","","0.02042352937","","0.4508501544","","","","","",""
"132","","bandit","168","381551","0.0-130.0-0.0","56336629","wem/bandit_single","A2IABGWWDKRQS3","pain","3","","75","K","2","","0","0","1","","0.01887694535","false","93","","0.3976010387","main_expt","","0.2039146085","","0.01887694535","","0.4548943395","","","","","",""
"72","","bandit","169","383389","0.0-131.0-0.0","56336629","wem/bandit_single","A2IABGWWDKRQS3","pain","3","","76","L","3","","0","0","1","","0.4646086811","false","94","","0.3668479885","main_expt","","0.2307813202","","0.02367451168","","0.4646086811","","","","","",""
"47","","bandit","170","385196","0.0-132.0-0.0","56336629","wem/bandit_single","A2IABGWWDKRQS3","pain","3","","72","H","0","img/none_selected.jpg","0","0","1","","0.3332342888","false","95","","0.3332342888","main_expt","","0.2213313998","","0.02723032617","","0.467541367","","","","","",""
"140","","bandit","171","387092","0.0-133.0-0.0","56336629","wem/bandit_single","A2IABGWWDKRQS3","pain","3","","74","J","1","","0","0","1","","0.2568515079","false","96","","0.2884910782","main_expt","","0.2568515079","","0.02648196594","","0.4642351642","","","","","",""
"59","","bandit","172","388918","0.0-134.0-0.0","56336629","wem/bandit_single","A2IABGWWDKRQS3","pain","3","","75","K","2","","0","0","1","","0.01585024216","false","97","","0.2656891479","main_expt","","0.2699845376","","0.01585024216","","0.4467755515","","","","","",""
"49","","bandit","173","390724","0.0-135.0-0.0","56336629","wem/bandit_single","A2IABGWWDKRQS3","pain","3","","76","L","3","","0","1","0","","0.4056350907","false","98","","0.2595300749","main_expt","","0.2797451528","","0.01169409205","","0.4056350907","","","","","",""
"35","","bandit","174","392516","0.0-136.0-0.0","56336629","wem/bandit_single","A2IABGWWDKRQS3","pain","3","","76","L","3","","0","0","1","","0.339742379","false","99","","0.2519900202","main_expt","","0.3187705275","","0.01197913588","","0.339742379","","","","","",""
"19","","bandit","175","394293","0.0-137.0-0.0","56336629","wem/bandit_single","A2IABGWWDKRQS3","pain","3","","75","K","2","","0","0","1","","0.01759776774","false","100","","0.2523409295","main_expt","","0.3570824245","","0.01759776774","","0.3381167522","","","","","",""
"42","","bandit","176","396096","0.0-138.0-0.0","56336629","wem/bandit_single","A2IABGWWDKRQS3","pain","3","","74","J","1","","0","1","0","","0.3489468272","false","101","","0.2146893193","main_expt","","0.3489468272","","0.04295615511","","0.2803213009","","","","","",""
"200","","bandit","177","398054","0.0-139.0-0.0","56336629","wem/bandit_single","A2IABGWWDKRQS3","pain","3","","74","J","1","","0","0","1","","0.3015799625","false","102","","0.1843767259","main_expt","","0.3015799625","","0.06572998715","","0.317644571","","","","","",""
"90","","bandit","178","399901","0.0-140.0-0.0","56336629","wem/bandit_single","A2IABGWWDKRQS3","pain","3","","72","H","0","img/none_selected.jpg","0","1","0","","0.2108432206","false","103","","0.2108432206","main_expt","","0.2656450655","","0.1043212589","","0.3024927185","","","","","",""
"99","","bandit","179","401757","0.0-141.0-0.0","56336629","wem/bandit_single","A2IABGWWDKRQS3","pain","3","","72","H","0","img/none_selected.jpg","0","1","0","","0.26792014","false","104","","0.26792014","main_expt","","0.261155182","","0.07063930719","","0.3339077782","","","","","",""
"290","","bandit","180","404021","0.0-142.0-0.0","56336629","wem/bandit_single","A2IABGWWDKRQS3","pain","3","","72","H","0","img/none_selected.jpg","0","0","1","","0.3302583292","false","105","","0.3302583292","main_expt","","0.2794756432","","0.09992353171","","0.2966783269","","","","","",""
"236","","bandit","181","406390","0.0-143.0-0.0","56336629","wem/bandit_single","A2IABGWWDKRQS3","pain","3","","72","H","0","img/none_selected.jpg","0","0","1","","0.3099187861","false","106","","0.3099187861","main_expt","","0.2719827923","","0.1074399807","","0.3722996478","","","","","",""
"114","","bandit","182","408261","0.0-144.0-0.0","56336629","wem/bandit_single","A2IABGWWDKRQS3","pain","3","","74","J","1","","0","0","1","","0.2614179637","false","107","","0.3526315454","main_expt","","0.2614179637","","0.1398361659","","0.3764369168","","","","","",""
"116","","bandit","183","410134","0.0-145.0-0.0","56336629","wem/bandit_single","A2IABGWWDKRQS3","pain","3","","75","K","2","","0","0","1","","0.1503356919","false","108","","0.3741147492","main_expt","","0.3154283329","","0.1503356919","","0.3221289315","","","","","",""
"813225","","bandit","184","1225121","0.0-146.0-0.0","56336629","wem/bandit_single","A2IABGWWDKRQS3","pain","3","","72","H","0","img/none_selected.jpg","0","0","1","","0.3775387023","false","109","","0.3775387023","main_expt","","0.3965133924","","0.1554773292","","0.3394272446","","","","","",""
"260","","bandit","185","1227140","0.0-147.0-0.0","56336629","wem/bandit_single","A2IABGWWDKRQS3","pain","3","","74","J","1","","0","0","1","","0.4096679205","false","110","","0.3603169275","main_expt","","0.4096679205","","0.1862379276","","0.3108194313","","","","","",""
"34","","bandit","186","1228931","0.0-148.0-0.0","56336629","wem/bandit_single","A2IABGWWDKRQS3","pain","3","","72","H","0","img/none_selected.jpg","0","0","1","","0.3492898999","false","111","","0.3492898999","main_expt","","0.4107972434","","0.2096222548","","0.2754643313","","","","","",""
"122","","bandit","187","1230811","0.0-149.0-0.0","56336629","wem/bandit_single","A2IABGWWDKRQS3","pain","3","","74","J","1","","0","0","1","","0.4229867006","false","112","","0.3332089306","main_expt","","0.4229867006","","0.2432579143","","0.2906444469","","","","","",""
"3","","bandit","188","1232571","0.0-150.0-0.0","56336629","wem/bandit_single","A2IABGWWDKRQS3","pain","3","","75","K","2","","0","0","1","","0.1721880852","false","113","","0.3450976056","main_expt","","0.4045712819","","0.1721880852","","0.3006146448","","","","","",""
"116","","bandit","189","1234444","0.0-151.0-0.0","56336629","wem/bandit_single","A2IABGWWDKRQS3","pain","3","","76","L","3","","0","1","0","","0.2668468313","false","114","","0.3725565121","main_expt","","0.3821667802","","0.2081909003","","0.2668468313","","","","","",""
"82","","bandit","190","1237004","0.0-152.0-0.0","56336629","wem/bandit_single","A2IABGWWDKRQS3","pain","3","","76","L","3","","0","0","1","","0.3032344037","false","115","","0.3789561431","main_expt","","0.3342096713","","0.272711811","","0.3032344037","","","","","",""
"948","","bandit","191","1240460","0.0-153.0-0.0","56336629","wem/bandit_single","A2IABGWWDKRQS3","pain","3","","76","L","3","","0","0","1","","0.279678247","false","116","","0.3829881954","main_expt","","0.3475890958","","0.2801201945","","0.279678247","","","","","",""
"105","","bandit","192","1243006","0.0-154.0-0.0","56336629","wem/bandit_single","A2IABGWWDKRQS3","pain","3","","76","L","3","","0","0","1","","0.2762620489","false","117","","0.3872477479","main_expt","","0.3545652452","","0.3615324036","","0.2762620489","","","","","",""
"155","","bandit","193","1244924","0.0-155.0-0.0","56336629","wem/bandit_single","A2IABGWWDKRQS3","pain","3","","72","H","0","img/none_selected.jpg","0","0","1","","0.3952603005","false","118","","0.3952603005","main_expt","","0.3542043025","","0.3615177178","","0.2880572365","","","","","",""
"130","","bandit","194","1246810","0.0-156.0-0.0","56336629","wem/bandit_single","A2IABGWWDKRQS3","pain","3","","74","J","1","","0","0","1","","0.3471352845","false","119","","0.3838673248","main_expt","","0.3471352845","","0.3875935955","","0.2807620685","","","","","",""
"6868","","bandit","195","1255439","0.0-157.0-0.0","56336629","wem/bandit_single","A2IABGWWDKRQS3","pain","3","","74","J","1","","0","0","1","","0.3343169965","false","120","","0.4148997213","main_expt","","0.3343169965","","0.4052723714","","0.2811576832","","","","","",""
"159","","bandit","196","1257357","0.0-158.0-0.0","56336629","wem/bandit_single","A2IABGWWDKRQS3","pain","3","","75","K","2","","0","0","1","","0.44462971","false","121","","0.4184259471","main_expt","","0.3595120763","","0.44462971","","0.3016455194","","","","","",""
"17","","bandit","197","1259130","0.0-159.0-0.0","56336629","wem/bandit_single","A2IABGWWDKRQS3","pain","3","","76","L","3","","0","0","1","","0.3161331551","false","122","","0.4271141924","main_expt","","0.3296914373","","0.4338931322","","0.3161331551","","","","","",""
"131","","bandit","198","1261022","0.0-160.0-0.0","56336629","wem/bandit_single","A2IABGWWDKRQS3","pain","3","","72","H","0","img/none_selected.jpg","0","0","1","","0.3994299035","false","123","","0.3994299035","main_expt","","0.3369167856","","0.4248885798","","0.2882518765","","","","","",""
"183","","bandit","199","1262962","0.0-161.0-0.0","56336629","wem/bandit_single","A2IABGWWDKRQS3","pain","3","","74","J","1","","0","0","1","","0.3181772373","false","124","","0.4319292606","main_expt","","0.3181772373","","0.3773411534","","0.3426101702","","","","","",""
"19","","bandit","200","1264739","0.0-162.0-0.0","56336629","wem/bandit_single","A2IABGWWDKRQS3","pain","3","","75","K","2","","0","1","0","","0.3322500489","false","125","","0.4228137624","main_expt","","0.3285823626","","0.3322500489","","0.3623178769","","","","","",""
"34","","bandit","201","1266531","0.0-163.0-0.0","56336629","wem/bandit_single","A2IABGWWDKRQS3","pain","3","","75","K","2","","0","1","0","","0.3742157909","false","126","","0.4445824992","main_expt","","0.3203566048","","0.3742157909","","0.3487147863","","","","","",""
"75","","bandit","202","1268363","0.0-164.0-0.0","56336629","wem/bandit_single","A2IABGWWDKRQS3","pain","3","","75","K","2","","0","0","1","","0.3851047317","false","127","","0.4525048151","main_expt","","0.3852478983","","0.3851047317","","0.4137567253","","","","","",""
"104","","bandit","203","1270227","0.0-165.0-0.0","56336629","wem/bandit_single","A2IABGWWDKRQS3","pain","3","","75","K","2","","0","1","0","","0.4043255462","false","128","","0.4692783601","main_expt","","0.3389365807","","0.4043255462","","0.3814482247","","","","","",""
"120","","bandit","204","1272109","0.0-166.0-0.0","56336629","wem/bandit_single","A2IABGWWDKRQS3","pain","3","","75","K","2","","0","0","1","","0.4123407707","false","129","","0.4168961411","main_expt","","0.3137404055","","0.4123407707","","0.4168244781","","","","","",""
"40","","bandit","205","1273907","0.0-167.0-0.0","56336629","wem/bandit_single","A2IABGWWDKRQS3","pain","3","","75","K","2","","0","1","0","","0.4046971735","false","130","","0.3790243023","main_expt","","0.3258581953","","0.4046971735","","0.4365918222","","","","","",""
"147579","","bandit","206","1423799","0.0-168.0-0.0","56336629","wem/bandit_single","A2IABGWWDKRQS3","pain","3","","72","H","0","img/none_selected.jpg","0","0","1","","0.4049885765","false","131","","0.4049885765","main_expt","","0.2883577813","","0.4461276952","","0.4389841863","","","","","",""
"371","","bandit","207","1425932","0.0-169.0-0.0","56336629","wem/bandit_single","A2IABGWWDKRQS3","pain","3","","72","H","0","img/none_selected.jpg","0","0","1","","0.4146365962","false","132","","0.4146365962","main_expt","","0.3560589507","","0.4611465992","","0.4152650591","","","","","",""
"40","","bandit","208","1427732","0.0-170.0-0.0","56336629","wem/bandit_single","A2IABGWWDKRQS3","pain","3","","75","K","2","","0","0","1","","0.4798080461","false","133","","0.3895917514","main_expt","","0.358394082","","0.4798080461","","0.4542457407","","","","","",""
"90","","bandit","209","1429579","0.0-171.0-0.0","56336629","wem/bandit_single","A2IABGWWDKRQS3","pain","3","","74","J","1","","0","0","1","","0.3605573227","false","134","","0.4031985028","main_expt","","0.3605573227","","0.4536835414","","0.4598844585","","","","","",""
"74","","bandit","210","1433005","0.0-172.0-0.0","56336629","wem/bandit_single","A2IABGWWDKRQS3","pain","3","","76","L","3","","0","1","0","","0.4690925783","false","135","","0.3950250086","main_expt","","0.3695471057","","0.4297718384","","0.4690925783","","","","","",""
"6303","","bandit","211","1441822","0.0-173.0-0.0","56336629","wem/bandit_single","A2IABGWWDKRQS3","pain","3","","76","L","3","","0","1","0","","0.4382452635","false","136","","0.3958408827","main_expt","","0.4060603524","","0.4047290025","","0.4382452635","","","","","",""
"54","","bandit","212","1443638","0.0-174.0-0.0","56336629","wem/bandit_single","A2IABGWWDKRQS3","pain","3","","76","L","3","","0","1","0","","0.4469583278","false","137","","0.4025558346","main_expt","","0.3977168634","","0.4062789173","","0.4469583278","","","","","",""
"111","","bandit","213","1445508","0.0-175.0-0.0","56336629","wem/bandit_single","A2IABGWWDKRQS3","pain","3","","76","L","3","","0","1","0","","0.44739429","false","138","","0.3901350715","main_expt","","0.3884520433","","0.3893267926","","0.44739429","","","","","",""
"60","","bandit","214","1447324","0.0-176.0-0.0","56336629","wem/bandit_single","A2IABGWWDKRQS3","pain","3","","76","L","3","","0","1","0","","0.4329330235","false","139","","0.4069565875","main_expt","","0.3517782966","","0.3355070849","","0.4329330235","","","","","",""
"60","","bandit","215","1449141","0.0-177.0-0.0","56336629","wem/bandit_single","A2IABGWWDKRQS3","pain","3","","76","L","3","","0","1","0","","0.4427321083","false","140","","0.4384632306","main_expt","","0.3147433726","","0.3033729388","","0.4427321083","","","","","",""
"40","","bandit","216","1450941","0.0-178.0-0.0","56336629","wem/bandit_single","A2IABGWWDKRQS3","pain","3","","76","L","3","","0","1","0","","0.4630674526","false","141","","0.4513823692","main_expt","","0.315874603","","0.3495942718","","0.4630674526","","","","","",""
"120","","bandit","217","1452821","0.0-179.0-0.0","56336629","wem/bandit_single","A2IABGWWDKRQS3","pain","3","","76","L","3","","0","1","0","","0.4678156034","false","142","","0.4477105457","main_expt","","0.2660579121","","0.373744609","","0.4678156034","","","","","",""
"113","","bandit","218","1454691","0.0-180.0-0.0","56336629","wem/bandit_single","A2IABGWWDKRQS3","pain","3","","76","L","3","","0","0","1","","0.4556942345","false","143","","0.4399018081","main_expt","","0.2791435274","","0.3983109068","","0.4556942345","","","","","",""
"108","","bandit","219","1456556","0.0-181.0-0.0","56336629","wem/bandit_single","A2IABGWWDKRQS3","pain","3","","76","L","3","","0","0","1","","0.4606745253","false","144","","0.3929519584","main_expt","","0.3232226047","","0.4290647624","","0.4606745253","","","","","",""
"107","","bandit","220","1458421","0.0-182.0-0.0","56336629","wem/bandit_single","A2IABGWWDKRQS3","pain","3","","72","H","0","img/none_selected.jpg","0","0","1","","0.3638959839","false","145","","0.3638959839","main_expt","","0.2863527335","","0.4360055891","","0.4493721712","","","","","",""
"135","","bandit","221","1460317","0.0-183.0-0.0","56336629","wem/bandit_single","A2IABGWWDKRQS3","pain","3","","74","J","1","","0","1","0","","0.2399582054","false","146","","0.3109408856","main_expt","","0.2399582054","","0.4408793748","","0.411205332","","","","","",""
"1200","","bandit","222","1463275","0.0-184.0-0.0","56336629","wem/bandit_single","A2IABGWWDKRQS3","pain","3","","72","H","0","img/none_selected.jpg","0","0","1","","0.303790043","false","147","","0.303790043","main_expt","","0.2186627863","","0.4152856751","","0.4091009254","","","","","",""
"144","","bandit","223","1465179","0.0-185.0-0.0","56336629","wem/bandit_single","A2IABGWWDKRQS3","pain","3","","76","L","3","","0","1","0","","0.3878952866","false","148","","0.2836070719","main_expt","","0.233860686","","0.400149315","","0.3878952866","","","","","",""
"187","","bandit","224","1467123","0.0-186.0-0.0","56336629","wem/bandit_single","A2IABGWWDKRQS3","pain","3","","74","J","1","","0","0","1","","0.2752018233","false","149","","0.2132997302","main_expt","","0.2752018233","","0.4081055764","","0.39239053","","","","","",""
"665","","bandit","225","1469555","0.0-187.0-0.0","56336629","wem/bandit_single","A2IABGWWDKRQS3","pain","3","","76","L","3","","0","1","0","","0.3869122725","false","150","","0.1906505553","main_expt","","0.2306982087","","0.3946041437","","0.3869122725","","","","","",""
"187","","bandit","226","1471500","0.0-188.0-0.0","56336629","wem/bandit_single","A2IABGWWDKRQS3","pain","3","","75","K","2","","0","0","1","","0.3517385329","false","151","","0.1887938372","main_expt","","0.272940168","","0.3517385329","","0.3562084687","","","","","",""
"322","","bandit","227","1473581","0.0-189.0-0.0","56336629","wem/bandit_single","A2IABGWWDKRQS3","pain","3","","74","J","1","","0","0","1","","0.246833375","false","152","","0.1452925277","main_expt","","0.246833375","","0.33807167","","0.3975166132","","","","","",""
"104","","bandit","228","1475443","0.0-190.0-0.0","56336629","wem/bandit_single","A2IABGWWDKRQS3","pain","3","","76","L","3","","0","0","1","","0.4221253747","false","153","","0.1236287895","main_expt","","0.2555278221","","0.3507556502","","0.4221253747","","","","","",""
"16","","bandit","229","1477221","0.0-191.0-0.0","56336629","wem/bandit_single","A2IABGWWDKRQS3","pain","3","","72","H","0","img/none_selected.jpg","0","0","1","","0.119712108","false","154","","0.119712108","main_expt","","0.1964980564","","0.3484399371","","0.3887365422","","","","","",""
"46","","bandit","230","1479035","0.0-192.0-0.0","56336629","wem/bandit_single","A2IABGWWDKRQS3","pain","3","","74","J","1","","0","0","1","","0.2158986014","false","155","","0.1638630184","main_expt","","0.2158986014","","0.4023996329","","0.3935049101","","","","","",""
"63","","bandit","231","1480860","0.0-193.0-0.0","56336629","wem/bandit_single","A2IABGWWDKRQS3","pain","3","","75","K","2","","0","0","1","","0.3489947109","false","156","","0.138562935","main_expt","","0.2269609611","","0.3489947109","","0.4185769797","","","","","",""
"161","","bandit","232","1482780","0.0-194.0-0.0","56336629","wem/bandit_single","A2IABGWWDKRQS3","pain","3","","76","L","3","","0","0","1","","0.412821327","false","157","","0.1424057266","main_expt","","0.2997599927","","0.3223479281","","0.412821327","","","","","",""
"96","","bandit","233","1484635","0.0-195.0-0.0","56336629","wem/bandit_single","A2IABGWWDKRQS3","pain","3","","72","H","0","img/none_selected.jpg","0","0","1","","0.1068688432","false","158","","0.1068688432","main_expt","","0.2608946303","","0.3334556671","","0.4433072999","","","","","",""
"777","","bandit","234","1487172","0.0-196.0-0.0","56336629","wem/bandit_single","A2IABGWWDKRQS3","pain","3","","76","L","3","","0","1","0","","0.4600675837","false","159","","0.08394897778","main_expt","","0.2927903113","","0.3686402331","","0.4600675837","","","","","",""
"70","","bandit","235","1489012","0.0-197.0-0.0","56336629","wem/bandit_single","A2IABGWWDKRQS3","pain","3","","75","K","2","","0","0","1","","0.3711838842","false","160","","0.09909711901","main_expt","","0.3165869591","","0.3711838842","","0.449399373","","","","","",""
"1","","bandit","236","1490773","0.0-198.0-0.0","56336629","wem/bandit_single","A2IABGWWDKRQS3","pain","3","","76","L","3","","0","0","1","","0.4303005813","false","161","","0.09256485174","main_expt","","0.3355773311","","0.385982022","","0.4303005813","","","","","",""
"80","","bandit","237","1492613","0.0-199.0-0.0","56336629","wem/bandit_single","A2IABGWWDKRQS3","pain","3","","76","L","3","","0","1","0","","0.4319487415","false","162","","0.07550585721","main_expt","","0.3801839585","","0.3435676447","","0.4319487415","","","","","",""
"25","","bandit","238","1494394","0.0-200.0-0.0","56336629","wem/bandit_single","A2IABGWWDKRQS3","pain","3","","76","L","3","","0","1","0","","0.4459750046","false","163","","0.08055395315","main_expt","","0.3796909961","","0.3840292687","","0.4459750046","","","","","",""
"179","","bandit","239","1496331","0.0-201.0-0.0","56336629","wem/bandit_single","A2IABGWWDKRQS3","pain","3","","76","L","3","","0","0","1","","0.4529977304","false","164","","0.07824920034","main_expt","","0.3657353238","","0.3427058888","","0.4529977304","","","","","",""
"423","","bandit","240","1498515","0.0-202.0-0.0","56336629","wem/bandit_single","A2IABGWWDKRQS3","pain","3","","72","H","0","img/none_selected.jpg","0","1","0","","0.08439791844","false","165","","0.08439791844","main_expt","","0.3937598932","","0.3258967388","","0.4472909282","","","","","",""
"34","","bandit","241","1500308","0.0-203.0-0.0","56336629","wem/bandit_single","A2IABGWWDKRQS3","pain","3","","74","J","1","","0","0","1","","0.3914196171","false","166","","0.05039915739","main_expt","","0.3914196171","","0.2704303424","","0.4399772256","","","","","",""
"153","","bandit","242","1502222","0.0-204.0-0.0","56336629","wem/bandit_single","A2IABGWWDKRQS3","pain","3","","75","K","2","","0","1","0","","0.3205555932","false","167","","0.05759530337","main_expt","","0.3919877423","","0.3205555932","","0.4636729032","","","","","",""
"566","","bandit","243","1504547","0.0-205.0-0.0","56336629","wem/bandit_single","A2IABGWWDKRQS3","pain","3","","76","L","3","","0","1","0","","0.4437796743","false","168","","0.04992464654","main_expt","","0.3647459683","","0.3639109947","","0.4437796743","","","","","",""
"55","","bandit","244","1506362","0.0-206.0-0.0","56336629","wem/bandit_single","A2IABGWWDKRQS3","pain","3","","76","L","3","","0","0","1","","0.456101387","false","169","","0.03416660819","main_expt","","0.4058418149","","0.3733582142","","0.456101387","","","","","",""
"24","","bandit","245","1508146","0.0-207.0-0.0","56336629","wem/bandit_single","A2IABGWWDKRQS3","pain","3","","76","L","3","","0","1","0","","0.4571218852","false","170","","0.01917125828","main_expt","","0.3998590153","","0.3832331311","","0.4571218852","","","","","",""
"9","","bandit","246","1509918","0.0-208.0-0.0","56336629","wem/bandit_single","A2IABGWWDKRQS3","pain","3","","74","J","1","","0","0","1","","0.3887500458","false","171","","0.02244253376","main_expt","","0.3887500458","","0.3815339887","","0.445510323","","","","","",""
"54","","bandit","247","1511733","0.0-209.0-0.0","56336629","wem/bandit_single","A2IABGWWDKRQS3","pain","3","","72","H","0","img/none_selected.jpg","0","0","1","","0.02619280326","false","172","","0.02619280326","main_expt","","0.4102182378","","0.3471775219","","0.4280794999","","","","","",""
"121","","bandit","248","1513611","0.0-210.0-0.0","56336629","wem/bandit_single","A2IABGWWDKRQS3","pain","3","","75","K","2","","0","0","1","","0.340289466","false","173","","0.0218428458","main_expt","","0.3895773165","","0.340289466","","0.4379780546","","","","","",""
"128","","bandit","249","1515501","0.0-211.0-0.0","56336629","wem/bandit_single","A2IABGWWDKRQS3","pain","3","","76","L","3","","0","1","0","","0.4160926905","false","174","","0.02840617367","main_expt","","0.3826402373","","0.3280863639","","0.4160926905","","","","","",""
"103","","bandit","250","1517364","0.0-212.0-0.0","56336629","wem/bandit_single","A2IABGWWDKRQS3","pain","3","","76","L","3","","0","0","1","","0.44195178","false","175","","0.0268928826","main_expt","","0.38572844","","0.3782643392","","0.44195178","","","","","",""
"240","","bandit","251","1519365","0.0-213.0-0.0","56336629","wem/bandit_single","A2IABGWWDKRQS3","pain","3","","76","L","3","","0","0","1","","0.4469840309","false","176","","0.04471375276","main_expt","","0.3566605828","","0.3714875018","","0.4469840309","","","","","",""
"95","","bandit","252","1521218","0.0-214.0-0.0","56336629","wem/bandit_single","A2IABGWWDKRQS3","pain","3","","72","H","0","img/none_selected.jpg","0","0","1","","0.04508647299","false","177","","0.04508647299","main_expt","","0.3736379944","","0.3110573775","","0.4732589693","","","","","",""
"26","","bandit","253","1523004","0.0-215.0-0.0","56336629","wem/bandit_single","A2IABGWWDKRQS3","pain","3","","74","J","1","","0","0","1","","0.3835263095","false","178","","0.07342594821","main_expt","","0.3835263095","","0.3725785744","","0.4716065645","","","","","",""
"96","","bandit","254","1524859","0.0-216.0-0.0","56336629","wem/bandit_single","A2IABGWWDKRQS3","pain","3","","75","K","2","","0","1","0","","0.4143512522","false","179","","0.08189943715","main_expt","","0.3531759074","","0.4143512522","","0.4724187392","","","","","",""
"14","","bandit","255","1526635","0.0-217.0-0.0","56336629","wem/bandit_single","A2IABGWWDKRQS3","pain","3","","76","L","3","","0","1","0","","0.4551908631","false","180","","0.07894611151","main_expt","","0.3185705061","","0.4240428135","","0.4551908631","","","","","",""
"74","","bandit","256","1528467","0.0-218.0-0.0","56336629","wem/bandit_single","A2IABGWWDKRQS3","pain","3","","76","L","3","","0","0","1","","0.456416976","false","181","","0.06982230443","main_expt","","0.2823592255","","0.4394908049","","0.456416976","","","","","",""
"146","","bandit","257","1530371","0.0-219.0-0.0","56336629","wem/bandit_single","A2IABGWWDKRQS3","pain","3","","75","K","2","","0","0","1","","0.4180692962","false","182","","0.06674639092","main_expt","","0.2741397005","","0.4180692962","","0.4525945541","","","","","",""
"157","","bandit","258","1532296","0.0-220.0-0.0","56336629","wem/bandit_single","A2IABGWWDKRQS3","pain","3","","76","L","3","","0","0","1","","0.4439654651","false","183","","0.04008595334","main_expt","","0.2936799338","","0.4468782907","","0.4439654651","","","","","",""
"164","","bandit","259","1534219","0.0-221.0-0.0","56336629","wem/bandit_single","A2IABGWWDKRQS3","pain","3","","75","K","2","","0","1","0","","0.4489540851","false","184","","0.04652727321","main_expt","","0.3027831177","","0.4489540851","","0.4366406792","","","","","",""
"46","","bandit","260","1536027","0.0-222.0-0.0","56336629","wem/bandit_single","A2IABGWWDKRQS3","pain","3","","75","K","2","","0","1","0","","0.4669005471","false","185","","0.05033673313","main_expt","","0.3180510168","","0.4669005471","","0.4282468188","","","","","",""
"115","","bandit","261","1537899","0.0-223.0-0.0","56336629","wem/bandit_single","A2IABGWWDKRQS3","pain","3","","75","K","2","","0","1","0","","0.419417397","false","186","","0.03009771755","main_expt","","0.3285352945","","0.419417397","","0.4249990568","","","","","",""
"5","","bandit","262","1539668","0.0-224.0-0.0","56336629","wem/bandit_single","A2IABGWWDKRQS3","pain","3","","75","K","2","","0","0","1","","0.3735271503","false","187","","0.02601150791","main_expt","","0.3278715557","","0.3735271503","","0.4159118542","","","","","",""
"137","","bandit","263","1541563","0.0-225.0-0.0","56336629","wem/bandit_single","A2IABGWWDKRQS3","pain","3","","75","K","2","","0","1","0","","0.3339942922","false","188","","0.02389042297","main_expt","","0.3408065186","","0.3339942922","","0.4294829221","","","","","",""
"4","","bandit","264","1543326","0.0-226.0-0.0","56336629","wem/bandit_single","A2IABGWWDKRQS3","pain","3","","75","K","2","","0","0","1","","0.3200911101","false","189","","0.02303770395","main_expt","","0.3335894225","","0.3200911101","","0.4183094629","","","","","",""
"16","","bandit","265","1545099","0.0-227.0-0.0","56336629","wem/bandit_single","A2IABGWWDKRQS3","pain","3","","75","K","2","","0","1","0","","0.379511296","false","190","","0.0156858998","main_expt","","0.2560009578","","0.379511296","","0.3769048436","","","","","",""
"33","","bandit","266","1546891","0.0-228.0-0.0","56336629","wem/bandit_single","A2IABGWWDKRQS3","pain","3","","75","K","2","","0","0","1","","0.3475909393","false","191","","0.02184200568","main_expt","","0.2422543603","","0.3475909393","","0.3654839124","","","","","",""
"146","","bandit","267","1548797","0.0-229.0-0.0","56336629","wem/bandit_single","A2IABGWWDKRQS3","pain","3","","75","K","2","","0","1","0","","0.3248483226","false","192","","0.04159540118","main_expt","","0.2479432207","","0.3248483226","","0.4158526776","","","","","",""
"153","","bandit","268","1550707","0.0-230.0-0.0","56336629","wem/bandit_single","A2IABGWWDKRQS3","pain","3","","75","K","2","","0","1","0","","0.3530355579","false","193","","0.02418359434","main_expt","","0.2198669916","","0.3530355579","","0.4294001388","","","","","",""
"155","","bandit","269","1552624","0.0-231.0-0.0","56336629","wem/bandit_single","A2IABGWWDKRQS3","pain","3","","75","K","2","","0","1","0","","0.3613612536","false","194","","0.03036789999","main_expt","","0.1832858475","","0.3613612536","","0.421006879","","","","","",""
"206","","bandit","270","1554589","0.0-232.0-0.0","56336629","wem/bandit_single","A2IABGWWDKRQS3","pain","3","","75","K","2","","0","0","1","","0.3712676973","false","195","","0.0328032794","main_expt","","0.1758973168","","0.3712676973","","0.3993762185","","","","","",""
"175","","bandit","271","1556524","0.0-233.0-0.0","56336629","wem/bandit_single","A2IABGWWDKRQS3","pain","3","","75","K","2","","0","0","1","","0.3797177139","false","196","","0.03367124179","main_expt","","0.1472052011","","0.3797177139","","0.3953591144","","","","","",""
"113","","bandit","272","1558397","0.0-234.0-0.0","56336629","wem/bandit_single","A2IABGWWDKRQS3","pain","3","","76","L","3","","0","0","1","","0.4186523265","false","197","","0.03515804352","main_expt","","0.09357285733","","0.3703437648","","0.4186523265","","","","","",""
"102","","bandit","273","1560259","0.0-235.0-0.0","56336629","wem/bandit_single","A2IABGWWDKRQS3","pain","3","","72","H","0","img/none_selected.jpg","0","0","1","","0.0474911349","false","198","","0.0474911349","main_expt","","0.1466532231","","0.3269028648","","0.4334783576","","","","","",""
"49","","bandit","274","1562070","0.0-236.0-0.0","56336629","wem/bandit_single","A2IABGWWDKRQS3","pain","3","","74","J","1","","0","1","0","","0.1745555733","false","199","","0.04758635843","main_expt","","0.1745555733","","0.2972028605","","0.452916177","","","","","",""
"24","","bandit","275","1563853","0.0-237.0-0.0","56336629","wem/bandit_single","A2IABGWWDKRQS3","pain","3","","74","J","1","","0","0","1","","0.1496088854","false","200","","0.06637193447","main_expt","","0.1496088854","","0.2548635421","","0.4652130485","","","","","",""
"105","","bandit","276","1565717","0.0-238.0-0.0","56336629","wem/bandit_single","A2IABGWWDKRQS3","pain","3","","74","J","1","","0","0","1","","0.1144678821","false","201","","0.03961336895","main_expt","","0.1144678821","","0.2360204523","","0.4544628945","","","","","",""
"198","","bandit","277","1567676","0.0-239.0-0.0","56336629","wem/bandit_single","A2IABGWWDKRQS3","pain","3","","74","J","1","","0","0","1","","0.08314182588","false","202","","0.04217273593","main_expt","","0.08314182588","","0.1847208139","","0.4346785174","","","","","",""
"7","","bandit","278","1569447","0.0-240.0-0.0","56336629","wem/bandit_single","A2IABGWWDKRQS3","pain","3","","75","K","2","","0","1","0","","0.1740418795","false","203","","0.03601881868","main_expt","","0.1008304514","","0.1740418795","","0.4340895374","","","","","",""
"157","","bandit","279","1571367","0.0-241.0-0.0","56336629","wem/bandit_single","A2IABGWWDKRQS3","pain","3","","75","K","2","","0","0","1","","0.1469060572","false","204","","0.04663301139","main_expt","","0.1170364225","","0.1469060572","","0.4398780919","","","","","",""
"175","","bandit","280","1573302","0.0-242.0-0.0","56336629","wem/bandit_single","A2IABGWWDKRQS3","pain","3","","75","K","2","","0","0","1","","0.1162446513","false","205","","0.04643109282","main_expt","","0.1228414706","","0.1162446513","","0.4001316318","","","","","",""
"311","","bandit","281","1575371","0.0-243.0-0.0","56336629","wem/bandit_single","A2IABGWWDKRQS3","pain","3","","76","L","3","","0","1","0","","0.4347617828","false","206","","0.06886832812","main_expt","","0.1574749647","","0.1289033918","","0.4347617828","","","","","",""
"24","","bandit","282","1577156","0.0-244.0-0.0","56336629","wem/bandit_single","A2IABGWWDKRQS3","pain","3","","76","L","3","","0","0","1","","0.4383015813","false","207","","0.0600143171","main_expt","","0.1922173773","","0.1261822501","","0.4383015813","","","","","",""
"21","","bandit","283","1578940","0.0-245.0-0.0","56336629","wem/bandit_single","A2IABGWWDKRQS3","pain","3","","76","L","3","","0","0","1","","0.4038237536","false","208","","0.04637571639","main_expt","","0.1673160211","","0.1024795668","","0.4038237536","","","","","",""
"85","","bandit","284","1580788","0.0-246.0-0.0","56336629","wem/bandit_single","A2IABGWWDKRQS3","pain","3","","72","H","0","img/none_selected.jpg","0","0","1","","0.04040360689","false","209","","0.04040360689","main_expt","","0.1269527993","","0.1129838087","","0.3890753365","","","","","",""
"7","","bandit","285","1582559","0.0-247.0-0.0","56336629","wem/bandit_single","A2IABGWWDKRQS3","pain","3","","74","J","1","","0","0","1","","0.1114377498","false","210","","0.02069644656","main_expt","","0.1114377498","","0.1562804612","","0.3792373644","","","","","",""
"166","","bandit","286","1584483","0.0-248.0-0.0","56336629","wem/bandit_single","A2IABGWWDKRQS3","pain","3","","75","K","2","","0","0","1","","0.1363837251","false","211","","0.03173395488","main_expt","","0.1155820846","","0.1363837251","","0.3780611868","","","","","",""
"4","","bandit","287","1586246","0.0-249.0-0.0","56336629","wem/bandit_single","A2IABGWWDKRQS3","pain","3","","76","L","3","","0","0","1","","0.3483689532","false","212","","0.02469601981","main_expt","","0.1553323518","","0.09358237554","","0.3483689532","","","","","",""
"32","","bandit","288","1588035","0.0-250.0-0.0","56336629","wem/bandit_single","A2IABGWWDKRQS3","pain","3","","72","H","0","img/none_selected.jpg","0","0","1","","0.04258417901","false","213","","0.04258417901","main_expt","","0.2062901667","","0.05743859841","","0.2874103991","","","","","",""
"246","","bandit","289","1590044","0.0-251.0-0.0","56336629","wem/bandit_single","A2IABGWWDKRQS3","pain","3","","74","J","1","","0","0","1","","0.2076956631","false","214","","0.05493755721","main_expt","","0.2076956631","","0.05800100084","","0.2620706088","","","","","",""
"137","","bandit","290","1591941","0.0-252.0-0.0","56336629","wem/bandit_single","A2IABGWWDKRQS3","pain","3","","75","K","2","","0","0","1","","0.05413405856","false","215","","0.08978059799","main_expt","","0.2609492508","","0.05413405856","","0.2855520155","","","","","",""
"16","","bandit","291","1593716","0.0-253.0-0.0","56336629","wem/bandit_single","A2IABGWWDKRQS3","pain","3","","76","L","3","","0","1","0","","0.2916786734","false","216","","0.09809121306","main_expt","","0.2500101786","","0.03942357166","","0.2916786734","","","","","",""
"33","","bandit","292","1595511","0.0-254.0-0.0","56336629","wem/bandit_single","A2IABGWWDKRQS3","pain","3","","76","L","3","","0","1","0","","0.2823685681","false","217","","0.1427848958","main_expt","","0.2748248586","","0.03801572204","","0.2823685681","","","","","",""
"160","","bandit","293","1597430","0.0-255.0-0.0","56336629","wem/bandit_single","A2IABGWWDKRQS3","pain","3","","76","L","3","","0","0","1","","0.2423520158","false","218","","0.1570322525","main_expt","","0.311954441","","0.03890441123","","0.2423520158","","","","","",""
"118","","bandit","294","1599308","0.0-256.0-0.0","56336629","wem/bandit_single","A2IABGWWDKRQS3","pain","3","","72","H","0","img/none_selected.jpg","0","0","1","","0.1805036953","false","219","","0.1805036953","main_expt","","0.3632760336","","0.01887456362","","0.2949403562","","","","","",""
"47","","bandit","295","1601115","0.0-257.0-0.0","56336629","wem/bandit_single","A2IABGWWDKRQS3","pain","3","","74","J","1","","0","0","1","","0.3369908474","false","220","","0.1305519061","main_expt","","0.3369908474","","0.02149820142","","0.3123592507","","","","","",""
"24","","bandit","296","1602900","0.0-258.0-0.0","56336629","wem/bandit_single","A2IABGWWDKRQS3","pain","3","","75","K","2","","0","0","1","","0.03528878979","false","221","","0.09039333473","main_expt","","0.3047504054","","0.03528878979","","0.3184432139","","","","","",""
"102","","bandit","297","1604763","0.0-259.0-0.0","56336629","wem/bandit_single","A2IABGWWDKRQS3","pain","3","","76","L","3","","0","1","0","","0.3596246423","false","222","","0.0801847008","main_expt","","0.3107799438","","0.03906528797","","0.3596246423","","","","","",""
"159","","bandit","298","1606686","0.0-260.0-0.0","56336629","wem/bandit_single","A2IABGWWDKRQS3","pain","3","","76","L","3","","0","0","1","","0.3048299186","false","223","","0.08930296305","main_expt","","0.3359374044","","0.04285152396","","0.3048299186","","","","","",""
"87","","bandit","299","1608535","0.0-261.0-0.0","56336629","wem/bandit_single","A2IABGWWDKRQS3","pain","3","","76","L","3","","0","0","1","","0.3097637171","false","224","","0.0783544472","main_expt","","0.354776332","","0.03308098724","","0.3097637171","","","","","",""
"94","","bandit","300","1610388","0.0-262.0-0.0","56336629","wem/bandit_single","A2IABGWWDKRQS3","pain","3","","72","H","0","img/none_selected.jpg","0","0","1","","0.05733223117","false","225","","0.05733223117","main_expt","","0.3747964846","","0.03318257961","","0.3313621339","","","","","",""
"57","","bandit","301","1612205","0.0-263.0-0.0","56336629","wem/bandit_single","A2IABGWWDKRQS3","pain","3","","74","J","1","","0","0","1","","0.3530330239","false","226","","0.09472546141","main_expt","","0.3530330239","","0.02568716964","","0.2611013425","","","","","",""
"41","","bandit","302","1614004","0.0-264.0-0.0","56336629","wem/bandit_single","A2IABGWWDKRQS3","pain","3","","75","K","2","","0","0","1","","0.03534330031","false","227","","0.08353253247","main_expt","","0.3299445106","","0.03534330031","","0.2761398934","","","","","",""
"160","","bandit","303","1615924","0.0-265.0-0.0","56336629","wem/bandit_single","A2IABGWWDKRQS3","pain","3","","76","L","3","","0","0","1","","0.2358148364","false","228","","0.06220105415","main_expt","","0.3286020352","","0.03702628412","","0.2358148364","","","","","",""
"159","","bandit","304","1617845","0.0-266.0-0.0","56336629","wem/bandit_single","A2IABGWWDKRQS3","pain","3","","74","J","1","","0","1","0","","0.3178943429","false","229","","0.06639782905","main_expt","","0.3178943429","","0.03077125553","","0.2091128555","","","","","",""
"47","","bandit","305","1619652","0.0-267.0-0.0","56336629","wem/bandit_single","A2IABGWWDKRQS3","pain","3","","74","J","1","","0","0","1","","0.3254915512","false","230","","0.07029464087","main_expt","","0.3254915512","","0.03752036101","","0.181986641","","","","","",""
"41","","bandit","306","1621454","0.0-268.0-0.0","56336629","wem/bandit_single","A2IABGWWDKRQS3","pain","3","","74","J","1","","0","0","1","","0.3298497064","false","231","","0.07612781315","main_expt","","0.3298497064","","0.02736090244","","0.1599443191","","","","","",""
"368","","bandit","307","1623581","0.0-269.0-0.0","56336629","wem/bandit_single","A2IABGWWDKRQS3","pain","3","","75","K","2","","0","0","1","","0.02154887034","false","232","","0.04325191911","main_expt","","0.300331178","","0.02154887034","","0.125214013","","","","","",""
"105","","bandit","308","1625445","0.0-270.0-0.0","56336629","wem/bandit_single","A2IABGWWDKRQS3","pain","3","","76","L","3","","0","1","0","","0.134118517","false","233","","0.04039924652","main_expt","","0.3357562734","","0.0228348974","","0.134118517","","","","","",""
"64","","bandit","309","1627267","0.0-271.0-0.0","56336629","wem/bandit_single","A2IABGWWDKRQS3","pain","3","","76","L","3","","0","1","0","","0.1238594142","false","234","","0.0435796211","main_expt","","0.3257461803","","0.01030782054","","0.1238594142","","","","","",""
"162","","bandit","310","1629187","0.0-272.0-0.0","56336629","wem/bandit_single","A2IABGWWDKRQS3","pain","3","","76","L","3","","0","0","1","","0.1141846942","false","235","","0.02315237623","main_expt","","0.3534766227","","0.02615737471","","0.1141846942","","","","","",""
"50","","bandit","311","1630998","0.0-273.0-0.0","56336629","wem/bandit_single","A2IABGWWDKRQS3","pain","3","","76","L","3","","0","1","0","","0.1101280349","false","236","","0.02010779399","main_expt","","0.3733068719","","0.0224272094","","0.1101280349","","","","","",""
"134","","bandit","312","1632895","0.0-274.0-0.0","56336629","wem/bandit_single","A2IABGWWDKRQS3","pain","3","","76","L","3","","0","0","1","","0.09079266978","false","237","","0.01796146932","main_expt","","0.4105295152","","0.02679999918","","0.09079266978","","","","","",""
"219","","bandit","313","1634873","0.0-275.0-0.0","56336629","wem/bandit_single","A2IABGWWDKRQS3","pain","3","","75","K","2","","0","0","1","","0.07542988795","false","238","","0.0167141813","main_expt","","0.4225156592","","0.07542988795","","0.1365862295","","","","","",""
"89","","bandit","314","1636724","0.0-276.0-0.0","56336629","wem/bandit_single","A2IABGWWDKRQS3","pain","3","","72","H","0","img/none_selected.jpg","0","0","1","","0.03283355296","false","239","","0.03283355296","main_expt","","0.4360895212","","0.09772903","","0.1846819155","","","","","",""
"66","","bandit","315","1638548","0.0-277.0-0.0","56336629","wem/bandit_single","A2IABGWWDKRQS3","pain","3","","74","J","1","","0","0","1","","0.423514393","false","240","","0.05325110434","main_expt","","0.423514393","","0.1044145256","","0.1795044078","","","","","",""
"178","","bandit","316","1640484","0.0-278.0-0.0","56336629","wem/bandit_single","A2IABGWWDKRQS3","pain","3","","76","L","3","","0","0","1","","0.1522343712","false","241","","0.04551940083","main_expt","","0.3824942702","","0.109937241","","0.1522343712","","","","","",""
"52","","bandit","317","1642299","0.0-279.0-0.0","56336629","wem/bandit_single","A2IABGWWDKRQS3","pain","3","","75","K","2","","0","0","1","","0.09239004846","false","242","","0.05503183359","main_expt","","0.3758562762","","0.09239004846","","0.1433696576","","","","","",""
"298","","bandit","318","1644362","0.0-280.0-0.0","56336629","wem/bandit_single","A2IABGWWDKRQS3","pain","3","","74","J","1","","0","1","0","","0.2984655584","false","243","","0.04467871076","main_expt","","0.2984655584","","0.1014218366","","0.1427577162","","","","","",""
"67","","bandit","319","1646191","0.0-281.0-0.0","56336629","wem/bandit_single","A2IABGWWDKRQS3","pain","3","","74","J","1","","0","0","1","","0.2901672904","false","244","","0.06552455376","main_expt","","0.2901672904","","0.192841162","","0.1340795621","","","","","",""
"214","","bandit","320","1648164","0.0-282.0-0.0","56336629","wem/bandit_single","A2IABGWWDKRQS3","pain","3","","74","J","1","","0","0","1","","0.2495050599","false","245","","0.1005127954","main_expt","","0.2495050599","","0.1953250812","","0.1469719784","","","","","",""
"134","","bandit","321","1650059","0.0-283.0-0.0","56336629","wem/bandit_single","A2IABGWWDKRQS3","pain","3","","76","L","3","","0","0","1","","0.140914489","false","246","","0.11534406","main_expt","","0.2406773486","","0.1865380945","","0.140914489","","","","","",""
"162","","bandit","322","1651981","0.0-284.0-0.0","56336629","wem/bandit_single","A2IABGWWDKRQS3","pain","3","","75","K","2","","0","0","1","","0.221100819","false","247","","0.08579934652","main_expt","","0.2265306157","","0.221100819","","0.1592666071","","","","","",""
"54","","bandit","323","1653796","0.0-285.0-0.0","56336629","wem/bandit_single","A2IABGWWDKRQS3","pain","3","","72","H","0","img/none_selected.jpg","0","0","1","","0.08554071629","false","248","","0.08554071629","main_expt","","0.2000380921","","0.2106100544","","0.2210893918","","","","","",""
"6","","bandit","324","1655565","0.0-286.0-0.0","56336629","wem/bandit_single","A2IABGWWDKRQS3","pain","3","","76","L","3","","0","0","1","","0.2306666851","false","249","","0.07137080198","main_expt","","0.1920984986","","0.2172535859","","0.2306666851","","","","","",""
"158","","bandit","325","1657486","0.0-287.0-0.0","56336629","wem/bandit_single","A2IABGWWDKRQS3","pain","3","","74","J","1","","0","0","1","","0.1624135027","false","250","","0.06874505311","main_expt","","0.1624135027","","0.1953648199","","0.2422322172","","","","","",""
"181","","bandit","326","1659427","0.0-288.0-0.0","56336629","wem/bandit_single","A2IABGWWDKRQS3","pain","3","","75","K","2","","0","1","0","","0.2129795833","false","251","","0.04927492375","main_expt","","0.2057369507","","0.2129795833","","0.2425189851","","","","","",""
"41","","bandit","327","1661227","0.0-289.0-0.0","56336629","wem/bandit_single","A2IABGWWDKRQS3","pain","3","","75","K","2","","0","1","0","","0.2271134102","false","252","","0.0504542679","main_expt","","0.26034901","","0.2271134102","","0.1980379423","","","","","",""
"63","","bandit","328","1663051","0.0-290.0-0.0","56336629","wem/bandit_single","A2IABGWWDKRQS3","pain","3","","75","K","2","","0","1","0","","0.2152809257","false","253","","0.0313618618","main_expt","","0.1886300366","","0.2152809257","","0.2040952335","","","","","",""
"120","","bandit","329","1664933","0.0-291.0-0.0","56336629","wem/bandit_single","A2IABGWWDKRQS3","pain","3","","75","K","2","","0","0","1","","0.2065685424","false","254","","0.0191685034","main_expt","","0.1978078828","","0.2065685424","","0.1621407843","","","","","",""
"158","","bandit","330","1666850","0.0-292.0-0.0","56336629","wem/bandit_single","A2IABGWWDKRQS3","pain","3","","75","K","2","","0","0","1","","0.2000715388","false","255","","0.01882474885","main_expt","","0.1544468143","","0.2000715388","","0.1817956319","","","","","",""
"50","","bandit","331","1668659","0.0-293.0-0.0","56336629","wem/bandit_single","A2IABGWWDKRQS3","pain","3","","75","K","2","","0","1","0","","0.1997851389","false","256","","0.01765542058","main_expt","","0.1552120094","","0.1997851389","","0.1796151025","","","","","",""
"118","","bandit","332","1670539","0.0-294.0-0.0","56336629","wem/bandit_single","A2IABGWWDKRQS3","pain","3","","75","K","2","","0","1","0","","0.1965173465","false","257","","0.0162265086","main_expt","","0.1337291471","","0.1965173465","","0.1874922979","","","","","",""
"87","","bandit","333","1672387","0.0-295.0-0.0","56336629","wem/bandit_single","A2IABGWWDKRQS3","pain","3","","75","K","2","","0","1","0","","0.1816932188","false","258","","0.01630278654","main_expt","","0.1279332347","","0.1816932188","","0.2152410464","","","","","",""
"127","","bandit","334","1674275","0.0-296.0-0.0","56336629","wem/bandit_single","A2IABGWWDKRQS3","pain","3","","75","K","2","","0","1","0","","0.2275026539","false","259","","0.0149919991","main_expt","","0.152418206","","0.2275026539","","0.2311433436","","","","","",""
"182","","bandit","335","1676218","0.0-297.0-0.0","56336629","wem/bandit_single","A2IABGWWDKRQS3","pain","3","","75","K","2","","0","0","1","","0.1798156178","false","260","","0.02225913397","main_expt","","0.1100328583","","0.1798156178","","0.1621257941","","","","","",""
"169","","bandit","336","1678148","0.0-298.0-0.0","56336629","wem/bandit_single","A2IABGWWDKRQS3","pain","3","","75","K","2","","0","0","1","","0.187122726","false","261","","0.02865634389","main_expt","","0.1537012171","","0.187122726","","0.1219102136","","","","","",""
"9","","bandit","337","1679916","0.0-299.0-0.0","56336629","wem/bandit_single","A2IABGWWDKRQS3","pain","3","","75","K","2","","0","0","1","","0.1507521212","false","262","","0.03173788073","main_expt","","0.1302597035","","0.1507521212","","0.1667536199","","","","","",""
"86","","bandit","338","1681762","0.0-300.0-0.0","56336629","wem/bandit_single","A2IABGWWDKRQS3","pain","3","","72","H","0","img/none_selected.jpg","0","0","1","","0.04250990858","false","263","","0.04250990858","main_expt","","0.1297736826","","0.1374951011","","0.1361259709","","","","","",""
"91","","bandit","339","1683618","0.0-301.0-0.0","56336629","wem/bandit_single","A2IABGWWDKRQS3","pain","3","","74","J","1","","0","0","1","","0.1326654045","false","264","","0.056503948","main_expt","","0.1326654045","","0.1158818852","","0.1217381733","","","","","",""
"39","","bandit","340","1685419","0.0-302.0-0.0","56336629","wem/bandit_single","A2IABGWWDKRQS3","pain","3","","76","L","3","","0","0","1","","0.1258265959","false","265","","0.07592662832","main_expt","","0.1586413096","","0.1147359408","","0.1258265959","","","","","",""
"135","","bandit","341","1687314","0.0-303.0-0.0","56336629","wem/bandit_single","A2IABGWWDKRQS3","pain","3","","76","L","3","","0","0","1","","0.1445769791","false","266","","0.1002340293","main_expt","","0.1496521415","","0.09491002089","","0.1445769791","","","","","",""
"192","","bandit","342","1689266","0.0-304.0-0.0","56336629","wem/bandit_single","A2IABGWWDKRQS3","pain","3","","72","H","0","img/none_selected.jpg","0","0","1","","0.1526998269","false","267","","0.1526998269","main_expt","","0.1410052581","","0.1181284109","","0.1014120844","","","","","",""
"106","","bandit","343","1691139","0.0-305.0-0.0","56336629","wem/bandit_single","A2IABGWWDKRQS3","pain","3","","74","J","1","","0","1","0","","0.145208313","false","268","","0.1340815566","main_expt","","0.145208313","","0.1054434992","","0.06386630904","","","","","",""
"193","","bandit","344","1693093","0.0-306.0-0.0","56336629","wem/bandit_single","A2IABGWWDKRQS3","pain","3","","74","J","1","","0","0","1","","0.1387339362","false","269","","0.1350059692","main_expt","","0.1387339362","","0.1307900039","","0.03725778621","","","","","",""
"199","","bandit","345","1695052","0.0-307.0-0.0","56336629","wem/bandit_single","A2IABGWWDKRQS3","pain","3","","74","J","1","","0","0","1","","0.1822325734","false","270","","0.1008257698","main_expt","","0.1822325734","","0.1444746669","","0.02825676517","","","","","",""
"117","","bandit","346","1696930","0.0-308.0-0.0","56336629","wem/bandit_single","A2IABGWWDKRQS3","pain","3","","76","L","3","","0","0","1","","0.02967844624","false","271","","0.1257425884","main_expt","","0.1752825828","","0.1622504114","","0.02967844624","","","","","",""
"39","","bandit","347","1698731","0.0-309.0-0.0","56336629","wem/bandit_single","A2IABGWWDKRQS3","pain","3","","75","K","2","","0","0","1","","0.1814673171","false","272","","0.1363444874","main_expt","","0.1572277832","","0.1814673171","","0.03051557875","","","","","",""
"78","","bandit","348","1700573","0.0-310.0-0.0","56336629","wem/bandit_single","A2IABGWWDKRQS3","pain","3","","72","H","0","img/none_selected.jpg","0","0","1","","0.1090842693","false","273","","0.1090842693","main_expt","","0.1609880977","","0.1930303076","","0.0408401102","","","","","",""
"89","","bandit","349","1702421","0.0-311.0-0.0","56336629","wem/bandit_single","A2IABGWWDKRQS3","pain","3","","74","J","1","","0","0","1","","0.2228580822","false","274","","0.1397265487","main_expt","","0.2228580822","","0.1704680895","","0.03240614182","","","","","",""
"23","","bandit","350","1704205","0.0-312.0-0.0","56336629","wem/bandit_single","A2IABGWWDKRQS3","pain","3","","76","L","3","","0","0","1","","0.04120982645","false","275","","0.210641606","main_expt","","0.2126640298","","0.1785534293","","0.04120982645","","","","","",""
"103","","bandit","351","1706069","0.0-313.0-0.0","56336629","wem/bandit_single","A2IABGWWDKRQS3","pain","3","","75","K","2","","0","0","1","","0.1843971019","false","276","","0.1523626192","main_expt","","0.2006548762","","0.1843971019","","0.04353307789","","","","","",""
"111","","bandit","352","1707939","0.0-314.0-0.0","56336629","wem/bandit_single","A2IABGWWDKRQS3","pain","3","","75","K","2","","0","0","1","","0.2042268453","false","277","","0.16102954","main_expt","","0.1986275587","","0.2042268453","","0.0172565486","","","","","",""
"9","","bandit","353","1709706","0.0-315.0-0.0","56336629","wem/bandit_single","A2IABGWWDKRQS3","pain","3","","72","H","0","img/none_selected.jpg","0","0","1","","0.1166001048","false","278","","0.1166001048","main_expt","","0.1321506531","","0.1609113936","","0.02582715814","","","","","",""
"7","","bandit","354","1711475","0.0-316.0-0.0","56336629","wem/bandit_single","A2IABGWWDKRQS3","pain","3","","76","L","3","","0","0","1","","0.03609925784","false","279","","0.1427402012","main_expt","","0.2112193978","","0.1604878733","","0.03609925784","","","","","",""
"142","","bandit","355","1713382","0.0-317.0-0.0","56336629","wem/bandit_single","A2IABGWWDKRQS3","pain","3","","75","K","2","","0","0","1","","0.1678567182","false","280","","0.1524149458","main_expt","","0.1872216356","","0.1678567182","","0.02629944548","","","","","",""
"133","","bandit","356","1715275","0.0-318.0-0.0","56336629","wem/bandit_single","A2IABGWWDKRQS3","pain","3","","74","J","1","","0","0","1","","0.1635487084","false","281","","0.1638207856","main_expt","","0.1635487084","","0.1338700362","","0.01890368782","","","","","",""
"160","","bandit","357","1717197","0.0-319.0-0.0","56336629","wem/bandit_single","A2IABGWWDKRQS3","pain","3","","72","H","0","img/none_selected.jpg","0","0","1","","0.1055747009","false","282","","0.1055747009","main_expt","","0.1576359327","","0.2010661714","","0.01508823693","","","","","",""
"80","","bandit","358","1719034","0.0-320.0-0.0","56336629","wem/bandit_single","A2IABGWWDKRQS3","pain","3","","76","L","3","","0","0","1","","0.01359220223","false","283","","0.1121395768","main_expt","","0.21861051","","0.1763159594","","0.01359220223","","","","","",""
"10","","bandit","359","1720803","0.0-321.0-0.0","56336629","wem/bandit_single","A2IABGWWDKRQS3","pain","3","","75","K","2","","0","1","0","","0.2379754842","false","284","","0.1110051372","main_expt","","0.180487154","","0.2379754842","","0.01691173417","","","","","",""
"135","","bandit","360","1722700","0.0-322.0-0.0","56336629","wem/bandit_single","A2IABGWWDKRQS3","pain","3","","75","K","2","","0","1","0","","0.2769670592","false","285","","0.1746572204","main_expt","","0.1641106304","","0.2769670592","","0.01734240677","","","","","",""
"207","","bandit","361","1724667","0.0-323.0-0.0","56336629","wem/bandit_single","A2IABGWWDKRQS3","pain","3","","75","K","2","","0","1","0","","0.3002963297","false","286","","0.2038956484","main_expt","","0.1866508097","","0.3002963297","","0.01574531315","","","","","",""
"174","","bandit","362","1726603","0.0-324.0-0.0","56336629","wem/bandit_single","A2IABGWWDKRQS3","pain","3","","75","K","2","","0","1","0","","0.2804215723","false","287","","0.2396876396","main_expt","","0.1339791425","","0.2804215723","","0.011703364","","","","","",""
"134","","bandit","363","1728499","0.0-325.0-0.0","56336629","wem/bandit_single","A2IABGWWDKRQS3","pain","3","","75","K","2","","0","0","1","","0.2873948651","false","288","","0.2300823482","main_expt","","0.1910191906","","0.2873948651","","0.01499165326","","","","","",""
"25","","bandit","364","1730283","0.0-326.0-0.0","56336629","wem/bandit_single","A2IABGWWDKRQS3","pain","3","","74","J","1","","0","1","0","","0.1987886011","false","289","","0.2697946193","main_expt","","0.1987886011","","0.3383825142","","0.01307353483","","","","","",""
"159","","bandit","365","1732203","0.0-327.0-0.0","56336629","wem/bandit_single","A2IABGWWDKRQS3","pain","3","","74","J","1","","0","0","1","","0.2163493667","false","290","","0.3030113395","main_expt","","0.2163493667","","0.3597664772","","0.005839555229","","","","","",""
"37","","bandit","366","1734002","0.0-328.0-0.0","56336629","wem/bandit_single","A2IABGWWDKRQS3","pain","3","","76","L","3","","0","0","1","","0.00760433752","false","291","","0.2903670118","main_expt","","0.1987756658","","0.3684517111","","0.00760433752","","","","","",""
"55","","bandit","367","1736024","0.0-329.0-0.0","56336629","wem/bandit_single","A2IABGWWDKRQS3","pain","3","","72","H","0","img/none_selected.jpg","0","0","1","","0.3219279298","false","292","","0.3219279298","main_expt","","0.1996771378","","0.3471931258","","0.01807310376","","","","","",""
"299","","bandit","368","1739027","0.0-330.0-0.0","56336629","wem/bandit_single","A2IABGWWDKRQS3","pain","3","","76","L","3","","0","0","1","","0.02882206876","false","293","","0.2585416619","main_expt","","0.2067525645","","0.3742872252","","0.02882206876","","","","","",""
"68","","bandit","369","1740856","0.0-331.0-0.0","56336629","wem/bandit_single","A2IABGWWDKRQS3","pain","3","","75","K","2","","0","0","1","","0.3937541296","false","294","","0.3093607287","main_expt","","0.230585761","","0.3937541296","","0.02728804169","","","","","",""
"108","","bandit","370","1743025","0.0-332.0-0.0","56336629","wem/bandit_single","A2IABGWWDKRQS3","pain","3","","74","J","1","","0","0","1","","0.1936278336","false","295","","0.315069057","main_expt","","0.1936278336","","0.3331550888","","0.01545304162","","","","","",""
"13","","bandit","371","1744796","0.0-333.0-0.0","56336629","wem/bandit_single","A2IABGWWDKRQS3","pain","3","","72","H","0","img/none_selected.jpg","0","1","0","","0.3556215031","false","296","","0.3556215031","main_expt","","0.1733248866","","0.3564327955","","0.01463146341","","","","","",""
"127","","bandit","372","1746683","0.0-334.0-0.0","56336629","wem/bandit_single","A2IABGWWDKRQS3","pain","3","","76","L","3","","0","0","1","","0.03487584845","false","297","","0.3380436511","main_expt","","0.1762096585","","0.3344242189","","0.03487584845","","","","","",""
"78","","bandit","373","1748524","0.0-335.0-0.0","56336629","wem/bandit_single","A2IABGWWDKRQS3","pain","3","","75","K","2","","0","1","0","","0.3434582948","false","298","","0.347815101","main_expt","","0.176801175","","0.3434582948","","0.04917346329","","","","","",""
