"rt","responses","trial_type","trial_index","time_elapsed","internal_node_id","subjID","study","MID","cond","drift","key_press","respCharCode","respKey","respChoiceNum","respChoice","gems","bombs","no_reward","GemPrChosen","BombPrChosen","practice","trial_counter","WinPr_0","LosePr_0","trial_label","WinPr_1","LosePr_1","WinPr_2","LosePr_2","WinPr_3","LosePr_3","Q0","Q1","Q2","gender","age","ethnicity"
"4144","{""Q0"":""A3H48TMCITL94X""}","survey-text","0","4151","0.0-0.0","57325242","wem/bandit_single","A3H48TMCITL94X","pain","8","","","","","","","","","","","","","","","","","","","","","","","","","","",""
"4492","","text","1","9652","0.0-1.0","57325242","wem/bandit_single","A3H48TMCITL94X","pain","8","32","","","","","","","","","","","","","","","","","","","","","","","","","",""
"17710","","text","2","27366","0.0-2.0","57325242","wem/bandit_single","A3H48TMCITL94X","pain","8","32","","","","","","","","","","","","","","","","","","","","","","","","","",""
"52547","","text","3","79917","0.0-3.0","57325242","wem/bandit_single","A3H48TMCITL94X","pain","8","32","","","","","","","","","","","","","","","","","","","","","","","","","",""
"19016","","text","4","98935","0.0-4.0","57325242","wem/bandit_single","A3H48TMCITL94X","pain","8","32","","","","","","","","","","","","","","","","","","","","","","","","","",""
"11369","","text","5","110307","0.0-5.0","57325242","wem/bandit_single","A3H48TMCITL94X","pain","8","32","","","","","","","","","","","","","","","","","","","","","","","","","",""
"10395","","text","6","120704","0.0-6.0","57325242","wem/bandit_single","A3H48TMCITL94X","pain","8","32","","","","","","","","","","","","","","","","","","","","","","","","","",""
"8255","","text","7","128962","0.0-7.0","57325242","wem/bandit_single","A3H48TMCITL94X","pain","8","32","","","","","","","","","","","","","","","","","","","","","","","","","",""
"4719","","text","8","133683","0.0-8.0","57325242","wem/bandit_single","A3H48TMCITL94X","pain","8","32","","","","","","","","","","","","","","","","","","","","","","","","","",""
"3095","","text","9","136780","0.0-9.0","57325242","wem/bandit_single","A3H48TMCITL94X","pain","8","32","","","","","","","","","","","","","","","","","","","","","","","","","",""
"3876","","text","10","140659","0.0-10.0","57325242","wem/bandit_single","A3H48TMCITL94X","pain","8","32","","","","","","","","","","","","","","","","","","","","","","","","","",""
"5425","","text","11","146087","0.0-11.0","57325242","wem/bandit_single","A3H48TMCITL94X","pain","8","32","","","","","","","","","","","","","","","","","","","","","","","","","",""
"1410","","bandit","12","149013","0.0-12.0-0.0","57325242","wem/bandit_single","A3H48TMCITL94X","pain","8","","74","J","0","img/none_selected_demo.jpg","0","0","1","0","0","true","0","0","0","","","","","","","","","","","","",""
"606","","bandit","13","151382","0.0-13.0-0.0","57325242","wem/bandit_single","A3H48TMCITL94X","pain","8","","75","K","0","img/none_selected_demo.jpg","0","0","1","0","0","true","0","0","0","","","","","","","","","","","","",""
"2588","","text","14","154224","0.0-14.0","57325242","wem/bandit_single","A3H48TMCITL94X","pain","8","32","","","","","","","","","","","","","","","","","","","","","","","","","",""
"1364","","text","15","155590","0.0-15.0","57325242","wem/bandit_single","A3H48TMCITL94X","pain","8","32","","","","","","","","","","","","","","","","","","","","","","","","","",""
"3325","","text","16","158917","0.0-16.0","57325242","wem/bandit_single","A3H48TMCITL94X","pain","8","32","","","","","","","","","","","","","","","","","","","","","","","","","",""
"2806","","text","17","161726","0.0-17.0","57325242","wem/bandit_single","A3H48TMCITL94X","pain","8","32","","","","","","","","","","","","","","","","","","","","","","","","","",""
"942","","bandit","18","164177","0.0-18.0-0.0","57325242","wem/bandit_single","A3H48TMCITL94X","pain","8","","74","J","0","img/none_selected_demo.jpg","0","1","0","0","0.8","true","0","0","0.8","80_20_practice","0","0.2","","","","","","","","","",""
"167","","bandit","19","166105","0.0-18.0-1.0","57325242","wem/bandit_single","A3H48TMCITL94X","pain","8","","74","J","0","img/none_selected_demo.jpg","0","1","0","0","0.8","true","0","0","0.8","80_20_practice","0","0.2","","","","","","","","","",""
"3","","bandit","20","167871","0.0-18.0-2.0","57325242","wem/bandit_single","A3H48TMCITL94X","pain","8","","74","J","0","img/none_selected_demo.jpg","0","1","0","0","0.8","true","0","0","0.8","80_20_practice","0","0.2","","","","","","","","","",""
"16","","bandit","21","169645","0.0-18.0-3.0","57325242","wem/bandit_single","A3H48TMCITL94X","pain","8","","74","J","0","img/none_selected_demo.jpg","0","1","0","0","0.8","true","0","0","0.8","80_20_practice","0","0.2","","","","","","","","","",""
"26","","bandit","22","171430","0.0-18.0-4.0","57325242","wem/bandit_single","A3H48TMCITL94X","pain","8","","74","J","0","img/none_selected_demo.jpg","0","0","1","0","0.8","true","0","0","0.8","80_20_practice","0","0.2","","","","","","","","","",""
"34","","bandit","23","173224","0.0-18.0-5.0","57325242","wem/bandit_single","A3H48TMCITL94X","pain","8","","74","J","0","img/none_selected_demo.jpg","0","1","0","0","0.8","true","0","0","0.8","80_20_practice","0","0.2","","","","","","","","","",""
"586","","bandit","24","175567","0.0-18.0-6.0","57325242","wem/bandit_single","A3H48TMCITL94X","pain","8","","74","J","0","img/none_selected_demo.jpg","0","1","0","0","0.8","true","0","0","0.8","80_20_practice","0","0.2","","","","","","","","","",""
"129","","bandit","25","177459","0.0-18.0-7.0","57325242","wem/bandit_single","A3H48TMCITL94X","pain","8","","74","J","0","img/none_selected_demo.jpg","0","1","0","0","0.8","true","0","0","0.8","80_20_practice","0","0.2","","","","","","","","","",""
"56","","bandit","26","179276","0.0-18.0-8.0","57325242","wem/bandit_single","A3H48TMCITL94X","pain","8","","74","J","0","img/none_selected_demo.jpg","0","0","1","0","0.8","true","0","0","0.8","80_20_practice","0","0.2","","","","","","","","","",""
"643","","bandit","27","181677","0.0-18.0-9.0","57325242","wem/bandit_single","A3H48TMCITL94X","pain","8","","74","J","0","img/none_selected_demo.jpg","0","1","0","0","0.8","true","0","0","0.8","80_20_practice","0","0.2","","","","","","","","","",""
"198","","bandit","28","183632","0.0-18.0-10.0","57325242","wem/bandit_single","A3H48TMCITL94X","pain","8","","74","J","0","img/none_selected_demo.jpg","0","1","0","0","0.8","true","0","0","0.8","80_20_practice","0","0.2","","","","","","","","","",""
"493","","bandit","29","185886","0.0-18.0-11.0","57325242","wem/bandit_single","A3H48TMCITL94X","pain","8","","74","J","0","img/none_selected_demo.jpg","0","0","1","0","0.8","true","0","0","0.8","80_20_practice","0","0.2","","","","","","","","","",""
"66","","bandit","30","187711","0.0-18.0-12.0","57325242","wem/bandit_single","A3H48TMCITL94X","pain","8","","74","J","0","img/none_selected_demo.jpg","0","0","1","0","0.8","true","0","0","0.8","80_20_practice","0","0.2","","","","","","","","","",""
"13","","bandit","31","189486","0.0-18.0-13.0","57325242","wem/bandit_single","A3H48TMCITL94X","pain","8","","74","J","0","img/none_selected_demo.jpg","0","1","0","0","0.8","true","0","0","0.8","80_20_practice","0","0.2","","","","","","","","","",""
"59","","bandit","32","191306","0.0-18.0-14.0","57325242","wem/bandit_single","A3H48TMCITL94X","pain","8","","74","J","0","img/none_selected_demo.jpg","0","0","1","0","0.8","true","0","0","0.8","80_20_practice","0","0.2","","","","","","","","","",""
"408","","bandit","33","193477","0.0-18.0-15.0","57325242","wem/bandit_single","A3H48TMCITL94X","pain","8","","74","J","0","img/none_selected_demo.jpg","0","1","0","0","0.8","true","0","0","0.8","80_20_practice","0","0.2","","","","","","","","","",""
"429","","bandit","34","195665","0.0-18.0-16.0","57325242","wem/bandit_single","A3H48TMCITL94X","pain","8","","74","J","0","img/none_selected_demo.jpg","0","1","0","0","0.8","true","0","0","0.8","80_20_practice","0","0.2","","","","","","","","","",""
"580","","bandit","35","198004","0.0-18.0-17.0","57325242","wem/bandit_single","A3H48TMCITL94X","pain","8","","74","J","0","img/none_selected_demo.jpg","0","1","0","0","0.8","true","0","0","0.8","80_20_practice","0","0.2","","","","","","","","","",""
"750","","bandit","36","200515","0.0-18.0-18.0","57325242","wem/bandit_single","A3H48TMCITL94X","pain","8","","74","J","0","img/none_selected_demo.jpg","0","1","0","0","0.8","true","0","0","0.8","80_20_practice","0","0.2","","","","","","","","","",""
"565","","bandit","37","202838","0.0-18.0-19.0","57325242","wem/bandit_single","A3H48TMCITL94X","pain","8","","74","J","0","img/none_selected_demo.jpg","0","1","0","0","0.8","true","0","0","0.8","80_20_practice","0","0.2","","","","","","","","","",""
"16928","","text","38","220022","0.0-19.0","57325242","wem/bandit_single","A3H48TMCITL94X","pain","8","32","","","","","","","","","","","","","","","","","","","","","","","","","",""
"2397","","bandit","39","223926","0.0-20.0-0.0","57325242","wem/bandit_single","A3H48TMCITL94X","pain","8","","74","J","0","img/none_selected_demo.jpg","0","0","1","0","0","true","0","0","0","","0","0","","","","","","","","","",""
"6219","","text","40","230401","0.0-21.0","57325242","wem/bandit_single","A3H48TMCITL94X","pain","8","32","","","","","","","","","","","","","","","","","","","","","","","","","",""
"50181","","text","41","280587","0.0-22.0","57325242","wem/bandit_single","A3H48TMCITL94X","pain","8","32","","","","","","","","","","","","","","","","","","","","","","","","","",""
"5360","","text","42","285952","0.0-23.0","57325242","wem/bandit_single","A3H48TMCITL94X","pain","8","32","","","","","","","","","","","","","","","","","","","","","","","","","",""
"2656","","text","43","288612","0.0-24.0","57325242","wem/bandit_single","A3H48TMCITL94X","pain","8","32","","","","","","","","","","","","","","","","","","","","","","","","","",""
"58881","","text","44","347495","0.0-25.0","57325242","wem/bandit_single","A3H48TMCITL94X","pain","8","32","","","","","","","","","","","","","","","","","","","","","","","","","",""
"238759","","text","45","586258","0.0-26.0","57325242","wem/bandit_single","A3H48TMCITL94X","pain","8","32","","","","","","","","","","","","","","","","","","","","","","","","","",""
"4401","","text","46","590662","0.0-27.0","57325242","wem/bandit_single","A3H48TMCITL94X","pain","8","32","","","","","","","","","","","","","","","","","","","","","","","","","",""
"4162","","text","47","594827","0.0-28.0","57325242","wem/bandit_single","A3H48TMCITL94X","pain","8","32","","","","","","","","","","","","","","","","","","","","","","","","","",""
"4106","","text","48","598939","0.0-29.0","57325242","wem/bandit_single","A3H48TMCITL94X","pain","8","32","","","","","","","","","","","","","","","","","","","","","","","","","",""
"2223","","text","49","601165","0.0-30.0","57325242","wem/bandit_single","A3H48TMCITL94X","pain","8","32","","","","","","","","","","","","","","","","","","","","","","","","","",""
"5136","","text","50","606306","0.0-31.0","57325242","wem/bandit_single","A3H48TMCITL94X","pain","8","32","","","","","","","","","","","","","","","","","","","","","","","","","",""
"2915","","bandit","51","610728","0.0-32.0-0.0","57325242","wem/bandit_single","A3H48TMCITL94X","pain","8","","76","L","3","","0","0","1","0","0.2","true","0","0","0.8","full_practice","0","0.2","0","0.6","0","0.2","","","","","",""
"146","","bandit","52","612635","0.0-32.0-1.0","57325242","wem/bandit_single","A3H48TMCITL94X","pain","8","","75","K","2","","0","1","0","0","0.6","true","0","0","0.8","full_practice","0","0.2","0","0.6","0","0.2","","","","","",""
"177","","bandit","53","614576","0.0-32.0-2.0","57325242","wem/bandit_single","A3H48TMCITL94X","pain","8","","75","K","2","","0","1","0","0","0.6","true","0","0","0.8","full_practice","0","0.2","0","0.6","0","0.2","","","","","",""
"166","","bandit","54","616502","0.0-32.0-3.0","57325242","wem/bandit_single","A3H48TMCITL94X","pain","8","","75","K","2","","0","1","0","0","0.6","true","0","0","0.8","full_practice","0","0.2","0","0.6","0","0.2","","","","","",""
"147","","bandit","55","618409","0.0-32.0-4.0","57325242","wem/bandit_single","A3H48TMCITL94X","pain","8","","75","K","2","","0","1","0","0","0.6","true","0","0","0.8","full_practice","0","0.2","0","0.6","0","0.2","","","","","",""
"79","","bandit","56","620249","0.0-32.0-5.0","57325242","wem/bandit_single","A3H48TMCITL94X","pain","8","","75","K","2","","0","1","0","0","0.6","true","0","0","0.8","full_practice","0","0.2","0","0.6","0","0.2","","","","","",""
"49","","bandit","57","622060","0.0-32.0-6.0","57325242","wem/bandit_single","A3H48TMCITL94X","pain","8","","75","K","2","","0","1","0","0","0.6","true","0","0","0.8","full_practice","0","0.2","0","0.6","0","0.2","","","","","",""
"29","","bandit","58","623850","0.0-32.0-7.0","57325242","wem/bandit_single","A3H48TMCITL94X","pain","8","","75","K","2","","0","1","0","0","0.6","true","0","0","0.8","full_practice","0","0.2","0","0.6","0","0.2","","","","","",""
"82","","bandit","59","625694","0.0-32.0-8.0","57325242","wem/bandit_single","A3H48TMCITL94X","pain","8","","75","K","2","","0","1","0","0","0.6","true","0","0","0.8","full_practice","0","0.2","0","0.6","0","0.2","","","","","",""
"333","","bandit","60","627788","0.0-32.0-9.0","57325242","wem/bandit_single","A3H48TMCITL94X","pain","8","","75","K","2","","0","1","0","0","0.6","true","0","0","0.8","full_practice","0","0.2","0","0.6","0","0.2","","","","","",""
"72","","bandit","61","629622","0.0-32.0-10.0","57325242","wem/bandit_single","A3H48TMCITL94X","pain","8","","75","K","2","","0","1","0","0","0.6","true","0","0","0.8","full_practice","0","0.2","0","0.6","0","0.2","","","","","",""
"24","","bandit","62","631408","0.0-32.0-11.0","57325242","wem/bandit_single","A3H48TMCITL94X","pain","8","","75","K","2","","0","1","0","0","0.6","true","0","0","0.8","full_practice","0","0.2","0","0.6","0","0.2","","","","","",""
"38","","bandit","63","633208","0.0-32.0-12.0","57325242","wem/bandit_single","A3H48TMCITL94X","pain","8","","75","K","2","","0","1","0","0","0.6","true","0","0","0.8","full_practice","0","0.2","0","0.6","0","0.2","","","","","",""
"32","","bandit","64","634999","0.0-32.0-13.0","57325242","wem/bandit_single","A3H48TMCITL94X","pain","8","","75","K","2","","0","0","1","0","0.6","true","0","0","0.8","full_practice","0","0.2","0","0.6","0","0.2","","","","","",""
"28","","bandit","65","636793","0.0-32.0-14.0","57325242","wem/bandit_single","A3H48TMCITL94X","pain","8","","75","K","2","","0","0","1","0","0.6","true","0","0","0.8","full_practice","0","0.2","0","0.6","0","0.2","","","","","",""
"111","","bandit","66","638668","0.0-32.0-15.0","57325242","wem/bandit_single","A3H48TMCITL94X","pain","8","","76","L","3","","0","0","1","0","0.2","true","0","0","0.8","full_practice","0","0.2","0","0.6","0","0.2","","","","","",""
"27","","bandit","67","640458","0.0-32.0-16.0","57325242","wem/bandit_single","A3H48TMCITL94X","pain","8","","74","J","1","","0","1","0","0","0.2","true","0","0","0.8","full_practice","0","0.2","0","0.6","0","0.2","","","","","",""
"69","","bandit","68","642291","0.0-32.0-17.0","57325242","wem/bandit_single","A3H48TMCITL94X","pain","8","","74","J","1","","0","0","1","0","0.2","true","0","0","0.8","full_practice","0","0.2","0","0.6","0","0.2","","","","","",""
"22","","bandit","69","644074","0.0-32.0-18.0","57325242","wem/bandit_single","A3H48TMCITL94X","pain","8","","74","J","1","","0","0","1","0","0.2","true","0","0","0.8","full_practice","0","0.2","0","0.6","0","0.2","","","","","",""
"350","","bandit","70","646187","0.0-32.0-19.0","57325242","wem/bandit_single","A3H48TMCITL94X","pain","8","","72","H","0","img/none_selected.jpg","0","1","0","0","0.8","true","0","0","0.8","full_practice","0","0.2","0","0.6","0","0.2","","","","","",""
"4168","","text","71","650623","0.0-33.0","57325242","wem/bandit_single","A3H48TMCITL94X","pain","8","32","","","","","","","","","","","","","","","","","","","","","","","","","",""
"6161","","text","72","657792","0.0-34.0","57325242","wem/bandit_single","A3H48TMCITL94X","pain","8","32","","","","","","","","","","","","","","","","","","","","","","","","","",""
"2746","","text","73","660543","0.0-35.0","57325242","wem/bandit_single","A3H48TMCITL94X","pain","8","32","","","","","","","","","","","","","","","","","","","","","","","","","",""
"2028","","text","74","662574","0.0-36.0","57325242","wem/bandit_single","A3H48TMCITL94X","pain","8","32","","","","","","","","","","","","","","","","","","","","","","","","","",""
"1465","","text","75","664043","0.0-37.0","57325242","wem/bandit_single","A3H48TMCITL94X","pain","8","32","","","","","","","","","","","","","","","","","","","","","","","","","",""
"804","","bandit","76","666357","0.0-38.0-0.0","57325242","wem/bandit_single","A3H48TMCITL94X","pain","8","","72","H","0","img/none_selected.jpg","0","0","1","","0.461186604","false","1","","0.461186604","main_expt","","0.2895646149","","0.2726752288","","0.4519399214","","","","","",""
"439","","bandit","77","668559","0.0-39.0-0.0","57325242","wem/bandit_single","A3H48TMCITL94X","pain","8","","74","J","1","","0","0","1","","0.3162770887","false","2","","0.4745384616","main_expt","","0.3162770887","","0.2373300031","","0.4414774062","","","","","",""
"108","","bandit","78","670432","0.0-40.0-0.0","57325242","wem/bandit_single","A3H48TMCITL94X","pain","8","","75","K","2","","0","1","0","","0.2268539811","false","3","","0.476270309","main_expt","","0.3445892231","","0.2268539811","","0.4248782664","","","","","",""
"18","","bandit","79","672215","0.0-41.0-0.0","57325242","wem/bandit_single","A3H48TMCITL94X","pain","8","","75","K","2","","0","0","1","","0.2312911009","false","4","","0.4750198572","main_expt","","0.318720175","","0.2312911009","","0.3797460064","","","","","",""
"47","","bandit","80","674026","0.0-42.0-0.0","57325242","wem/bandit_single","A3H48TMCITL94X","pain","8","","75","K","2","","0","1","0","","0.1875260819","false","5","","0.4711191004","main_expt","","0.2768356494","","0.1875260819","","0.3747955817","","","","","",""
"29","","bandit","81","675817","0.0-43.0-0.0","57325242","wem/bandit_single","A3H48TMCITL94X","pain","8","","75","K","2","","0","1","0","","0.190272436","false","6","","0.4561500297","main_expt","","0.2660169375","","0.190272436","","0.3434652127","","","","","",""
"1","","bandit","82","677580","0.0-44.0-0.0","57325242","wem/bandit_single","A3H48TMCITL94X","pain","8","","75","K","2","","0","1","0","","0.1912500229","false","7","","0.4549462182","main_expt","","0.3364590491","","0.1912500229","","0.3450192323","","","","","",""
"44","","bandit","83","679388","0.0-45.0-0.0","57325242","wem/bandit_single","A3H48TMCITL94X","pain","8","","75","K","2","","0","0","1","","0.2317086102","false","8","","0.4738433377","main_expt","","0.2814314702","","0.2317086102","","0.3319287687","","","","","",""
"0","","bandit","84","681154","0.0-46.0-0.0","57325242","wem/bandit_single","A3H48TMCITL94X","pain","8","","75","K","2","","0","0","1","","0.2732709622","false","9","","0.4719526371","main_expt","","0.172204453","","0.2732709622","","0.3592879842","","","","","",""
"384","","bandit","85","683302","0.0-47.0-0.0","57325242","wem/bandit_single","A3H48TMCITL94X","pain","8","","76","L","3","","0","0","1","","0.4119036765","false","10","","0.4102917743","main_expt","","0.1714760066","","0.2369361721","","0.4119036765","","","","","",""
"106","","bandit","86","685171","0.0-48.0-0.0","57325242","wem/bandit_single","A3H48TMCITL94X","pain","8","","74","J","1","","0","0","1","","0.1477319919","false","11","","0.4247485268","main_expt","","0.1477319919","","0.2428480584","","0.440335537","","","","","",""
"43","","bandit","87","686976","0.0-49.0-0.0","57325242","wem/bandit_single","A3H48TMCITL94X","pain","8","","72","H","0","img/none_selected.jpg","0","1","0","","0.3805001106","false","12","","0.3805001106","main_expt","","0.1195530135","","0.3127978045","","0.4198069009","","","","","",""
"15","","bandit","88","688754","0.0-50.0-0.0","57325242","wem/bandit_single","A3H48TMCITL94X","pain","8","","72","H","0","img/none_selected.jpg","0","0","1","","0.3922463094","false","13","","0.3922463094","main_expt","","0.1097065617","","0.3411181312","","0.4095272681","","","","","",""
"70","","bandit","89","690587","0.0-51.0-0.0","57325242","wem/bandit_single","A3H48TMCITL94X","pain","8","","75","K","2","","0","0","1","","0.3547490374","false","14","","0.3385893542","main_expt","","0.1146709003","","0.3547490374","","0.4393311008","","","","","",""
"413","","bandit","90","692761","0.0-52.0-0.0","57325242","wem/bandit_single","A3H48TMCITL94X","pain","8","","72","H","0","img/none_selected.jpg","0","0","1","","0.2580729479","false","15","","0.2580729479","main_expt","","0.105598426","","0.3447780093","","0.4232641195","","","","","",""
"45","","bandit","91","694571","0.0-53.0-0.0","57325242","wem/bandit_single","A3H48TMCITL94X","pain","8","","74","J","1","","0","0","1","","0.1085338479","false","16","","0.3126944558","main_expt","","0.1085338479","","0.3451486401","","0.408879381","","","","","",""
"41","","bandit","92","696374","0.0-54.0-0.0","57325242","wem/bandit_single","A3H48TMCITL94X","pain","8","","76","L","3","","0","1","0","","0.376774317","false","17","","0.3693960878","main_expt","","0.1267686316","","0.3788599072","","0.376774317","","","","","",""
"4","","bandit","93","698142","0.0-55.0-0.0","57325242","wem/bandit_single","A3H48TMCITL94X","pain","8","","76","L","3","","0","0","1","","0.4245824949","false","18","","0.3881723811","main_expt","","0.2161611973","","0.3977159439","","0.4245824949","","","","","",""
"68","","bandit","94","699973","0.0-56.0-0.0","57325242","wem/bandit_single","A3H48TMCITL94X","pain","8","","76","L","3","","0","0","1","","0.4391895307","false","19","","0.3762380044","main_expt","","0.2028493804","","0.3885232362","","0.4391895307","","","","","",""
"41","","bandit","95","701776","0.0-57.0-0.0","57325242","wem/bandit_single","A3H48TMCITL94X","pain","8","","75","K","2","","0","1","0","","0.3985462001","false","20","","0.3842023068","main_expt","","0.2258994585","","0.3985462001","","0.4621127774","","","","","",""
"33","","bandit","96","703569","0.0-58.0-0.0","57325242","wem/bandit_single","A3H48TMCITL94X","pain","8","","75","K","2","","0","1","0","","0.349749023","false","21","","0.3509270449","main_expt","","0.1591174119","","0.349749023","","0.4621164646","","","","","",""
"54","","bandit","97","705384","0.0-59.0-0.0","57325242","wem/bandit_single","A3H48TMCITL94X","pain","8","","75","K","2","","0","0","1","","0.3437713834","false","22","","0.3777441782","main_expt","","0.1526874152","","0.3437713834","","0.4347396303","","","","","",""
"30","","bandit","98","707175","0.0-60.0-0.0","57325242","wem/bandit_single","A3H48TMCITL94X","pain","8","","75","K","2","","0","0","1","","0.3608333873","false","23","","0.3799964268","main_expt","","0.1461335862","","0.3608333873","","0.43496863","","","","","",""
"17","","bandit","99","708955","0.0-61.0-0.0","57325242","wem/bandit_single","A3H48TMCITL94X","pain","8","","72","H","0","img/none_selected.jpg","0","1","0","","0.4097073291","false","24","","0.4097073291","main_expt","","0.194032511","","0.3832767268","","0.43684491","","","","","",""
"16","","bandit","100","710736","0.0-62.0-0.0","57325242","wem/bandit_single","A3H48TMCITL94X","pain","8","","72","H","0","img/none_selected.jpg","0","1","0","","0.4196977393","false","25","","0.4196977393","main_expt","","0.1913779305","","0.3839685871","","0.3785768995","","","","","",""
"11","","bandit","101","712511","0.0-63.0-0.0","57325242","wem/bandit_single","A3H48TMCITL94X","pain","8","","72","H","0","img/none_selected.jpg","0","0","1","","0.3798545817","false","26","","0.3798545817","main_expt","","0.2830828826","","0.3871157951","","0.3754964585","","","","","",""
"43","","bandit","102","714318","0.0-64.0-0.0","57325242","wem/bandit_single","A3H48TMCITL94X","pain","8","","75","K","2","","0","1","0","","0.4093540125","false","27","","0.3531061786","main_expt","","0.3268824087","","0.4093540125","","0.3964499655","","","","","",""
"36","","bandit","103","716118","0.0-65.0-0.0","57325242","wem/bandit_single","A3H48TMCITL94X","pain","8","","75","K","2","","0","0","1","","0.3781829904","false","28","","0.3327392046","main_expt","","0.3092871108","","0.3781829904","","0.4243602908","","","","","",""
"436","","bandit","104","718319","0.0-66.0-0.0","57325242","wem/bandit_single","A3H48TMCITL94X","pain","8","","72","H","0","img/none_selected.jpg","0","0","1","","0.2799969064","false","29","","0.2799969064","main_expt","","0.299803321","","0.3633234486","","0.4296462108","","","","","",""
"29","","bandit","105","720112","0.0-67.0-0.0","57325242","wem/bandit_single","A3H48TMCITL94X","pain","8","","74","J","1","","0","1","0","","0.3318792252","false","30","","0.225268033","main_expt","","0.3318792252","","0.395486831","","0.4442153724","","","","","",""
"238","","bandit","106","722111","0.0-68.0-0.0","57325242","wem/bandit_single","A3H48TMCITL94X","pain","8","","74","J","1","","0","0","1","","0.3274080626","false","31","","0.2195205817","main_expt","","0.3274080626","","0.353932484","","0.4425075274","","","","","",""
"2444","","bandit","107","726319","0.0-69.0-0.0","57325242","wem/bandit_single","A3H48TMCITL94X","pain","8","","76","L","3","","0","0","1","","0.4038806219","false","32","","0.2569702332","main_expt","","0.3233555863","","0.3902442546","","0.4038806219","","","","","",""
"2","","bandit","108","728087","0.0-70.0-0.0","57325242","wem/bandit_single","A3H48TMCITL94X","pain","8","","75","K","2","","0","0","1","","0.3727342875","false","33","","0.2914027765","main_expt","","0.3836123675","","0.3727342875","","0.4283701542","","","","","",""
"292","","bandit","109","730142","0.0-71.0-0.0","57325242","wem/bandit_single","A3H48TMCITL94X","pain","8","","74","J","1","","0","0","1","","0.4200589335","false","34","","0.2667004126","main_expt","","0.4200589335","","0.3940120807","","0.4332078231","","","","","",""
"381","","bandit","110","732287","0.0-72.0-0.0","57325242","wem/bandit_single","A3H48TMCITL94X","pain","8","","72","H","0","img/none_selected.jpg","0","0","1","","0.3112773703","false","35","","0.3112773703","main_expt","","0.4280145355","","0.3682756201","","0.3861361583","","","","","",""
"406","","bandit","111","734456","0.0-73.0-0.0","57325242","wem/bandit_single","A3H48TMCITL94X","pain","8","","75","K","2","","0","0","1","","0.4136743311","false","36","","0.3158013471","main_expt","","0.3696194815","","0.4136743311","","0.3176889815","","","","","",""
"42","","bandit","112","736265","0.0-74.0-0.0","57325242","wem/bandit_single","A3H48TMCITL94X","pain","8","","75","K","2","","0","0","1","","0.449594317","false","37","","0.3348696363","main_expt","","0.3567242832","","0.449594317","","0.3333355096","","","","","",""
"316","","bandit","113","738345","0.0-75.0-0.0","57325242","wem/bandit_single","A3H48TMCITL94X","pain","8","","72","H","0","img/none_selected.jpg","0","0","1","","0.2967031697","false","38","","0.2967031697","main_expt","","0.3139752797","","0.4427192246","","0.3613286773","","","","","",""
"38","","bandit","114","740146","0.0-76.0-0.0","57325242","wem/bandit_single","A3H48TMCITL94X","pain","8","","76","L","3","","0","0","1","","0.3354588101","false","39","","0.2816090282","main_expt","","0.2884672813","","0.4375360897","","0.3354588101","","","","","",""
"77","","bandit","115","741987","0.0-77.0-0.0","57325242","wem/bandit_single","A3H48TMCITL94X","pain","8","","74","J","1","","0","0","1","","0.3253538103","false","40","","0.2900329111","main_expt","","0.3253538103","","0.452648821","","0.4044898685","","","","","",""
"49","","bandit","116","743802","0.0-78.0-0.0","57325242","wem/bandit_single","A3H48TMCITL94X","pain","8","","74","J","1","","0","0","1","","0.2782289032","false","41","","0.3160732104","main_expt","","0.2782289032","","0.4689255384","","0.3615903795","","","","","",""
"129","","bandit","117","745696","0.0-79.0-0.0","57325242","wem/bandit_single","A3H48TMCITL94X","pain","8","","75","K","2","","0","1","0","","0.470096522","false","42","","0.370849222","main_expt","","0.2378060085","","0.470096522","","0.3239257876","","","","","",""
"22","","bandit","118","747479","0.0-80.0-0.0","57325242","wem/bandit_single","A3H48TMCITL94X","pain","8","","75","K","2","","0","1","0","","0.4349244256","false","43","","0.385301305","main_expt","","0.2250536993","","0.4349244256","","0.2907144625","","","","","",""
"44","","bandit","119","749289","0.0-81.0-0.0","57325242","wem/bandit_single","A3H48TMCITL94X","pain","8","","75","K","2","","0","1","0","","0.4316966947","false","44","","0.416838688","main_expt","","0.2132249492","","0.4316966947","","0.2937558929","","","","","",""
"35","","bandit","120","751087","0.0-82.0-0.0","57325242","wem/bandit_single","A3H48TMCITL94X","pain","8","","75","K","2","","0","0","1","","0.4526201082","false","45","","0.3927526088","main_expt","","0.2669052982","","0.4526201082","","0.3667346614","","","","","",""
"3","","bandit","121","752855","0.0-83.0-0.0","57325242","wem/bandit_single","A3H48TMCITL94X","pain","8","","75","K","2","","0","0","1","","0.4696962879","false","46","","0.3789336214","main_expt","","0.259601005","","0.4696962879","","0.4084803937","","","","","",""
"359","","bandit","122","754979","0.0-84.0-0.0","57325242","wem/bandit_single","A3H48TMCITL94X","pain","8","","72","H","0","img/none_selected.jpg","0","0","1","","0.3994803113","false","47","","0.3994803113","main_expt","","0.2442503122","","0.4591824552","","0.3956447052","","","","","",""
"332","","bandit","123","757074","0.0-85.0-0.0","57325242","wem/bandit_single","A3H48TMCITL94X","pain","8","","72","H","0","img/none_selected.jpg","0","0","1","","0.3570668153","false","48","","0.3570668153","main_expt","","0.2427668164","","0.4548607847","","0.3859230678","","","","","",""
"32","","bandit","124","758870","0.0-86.0-0.0","57325242","wem/bandit_single","A3H48TMCITL94X","pain","8","","76","L","3","","0","1","0","","0.394993817","false","49","","0.3500417472","main_expt","","0.218731525","","0.4625410341","","0.394993817","","","","","",""
"73","","bandit","125","760707","0.0-87.0-0.0","57325242","wem/bandit_single","A3H48TMCITL94X","pain","8","","76","L","3","","0","1","0","","0.4358915385","false","50","","0.3110114061","main_expt","","0.2187604329","","0.4620574215","","0.4358915385","","","","","",""
"57","","bandit","126","762524","0.0-88.0-0.0","57325242","wem/bandit_single","A3H48TMCITL94X","pain","8","","76","L","3","","0","1","0","","0.4437026926","false","51","","0.3165374422","main_expt","","0.2764450854","","0.4573118055","","0.4437026926","","","","","",""
"76","","bandit","127","764367","0.0-89.0-0.0","57325242","wem/bandit_single","A3H48TMCITL94X","pain","8","","76","L","3","","0","1","0","","0.4357441266","false","52","","0.3212783944","main_expt","","0.2735561336","","0.4577170033","","0.4357441266","","","","","",""
"346","","bandit","128","766476","0.0-90.0-0.0","57325242","wem/bandit_single","A3H48TMCITL94X","pain","8","","76","L","3","","0","1","0","","0.3926545571","false","53","","0.3079714244","main_expt","","0.2558353256","","0.4599667981","","0.3926545571","","","","","",""
"161","","bandit","129","768396","0.0-91.0-0.0","57325242","wem/bandit_single","A3H48TMCITL94X","pain","8","","76","L","3","","0","0","1","","0.3841940555","false","54","","0.3538619638","main_expt","","0.2856473895","","0.4598989899","","0.3841940555","","","","","",""
"34","","bandit","130","770197","0.0-92.0-0.0","57325242","wem/bandit_single","A3H48TMCITL94X","pain","8","","74","J","1","","0","0","1","","0.3110799389","false","55","","0.3390258849","main_expt","","0.3110799389","","0.4371040197","","0.3733442546","","","","","",""
"39","","bandit","131","772001","0.0-93.0-0.0","57325242","wem/bandit_single","A3H48TMCITL94X","pain","8","","75","K","2","","0","1","0","","0.3889704242","false","56","","0.3282580673","main_expt","","0.2862995849","","0.3889704242","","0.3500738246","","","","","",""
"104","","bandit","132","773871","0.0-94.0-0.0","57325242","wem/bandit_single","A3H48TMCITL94X","pain","8","","75","K","2","","0","0","1","","0.4089883961","false","57","","0.3014999451","main_expt","","0.3029349154","","0.4089883961","","0.3265916347","","","","","",""
"316","","bandit","133","775952","0.0-95.0-0.0","57325242","wem/bandit_single","A3H48TMCITL94X","pain","8","","76","L","3","","0","0","1","","0.3203483638","false","58","","0.2895525025","main_expt","","0.282602966","","0.3682078294","","0.3203483638","","","","","",""
"68","","bandit","134","777787","0.0-96.0-0.0","57325242","wem/bandit_single","A3H48TMCITL94X","pain","8","","72","H","0","img/none_selected.jpg","0","0","1","","0.2538740387","false","59","","0.2538740387","main_expt","","0.3271218703","","0.426053772","","0.258324817","","","","","",""
"2","","bandit","135","779554","0.0-97.0-0.0","57325242","wem/bandit_single","A3H48TMCITL94X","pain","8","","74","J","1","","0","0","1","","0.2978757068","false","60","","0.2509640494","main_expt","","0.2978757068","","0.4175969639","","0.2527557167","","","","","",""
"50","","bandit","136","781368","0.0-98.0-0.0","57325242","wem/bandit_single","A3H48TMCITL94X","pain","8","","75","K","2","","0","0","1","","0.4124946444","false","61","","0.1930295055","main_expt","","0.1922553384","","0.4124946444","","0.2925705146","","","","","",""
"42","","bandit","137","783174","0.0-99.0-0.0","57325242","wem/bandit_single","A3H48TMCITL94X","pain","8","","76","L","3","","0","0","1","","0.310648962","false","62","","0.1259826115","main_expt","","0.1408400783","","0.4077217862","","0.310648962","","","","","",""
"20","","bandit","138","784960","0.0-100.0-0.0","57325242","wem/bandit_single","A3H48TMCITL94X","pain","8","","72","H","0","img/none_selected.jpg","0","0","1","","0.1388804293","false","63","","0.1388804293","main_expt","","0.1779610645","","0.4258821936","","0.3175489896","","","","","",""
"28","","bandit","139","786753","0.0-101.0-0.0","57325242","wem/bandit_single","A3H48TMCITL94X","pain","8","","76","L","3","","0","0","1","","0.2756852574","false","64","","0.1412297375","main_expt","","0.1733040919","","0.4314195329","","0.2756852574","","","","","",""
"20","","bandit","140","788541","0.0-102.0-0.0","57325242","wem/bandit_single","A3H48TMCITL94X","pain","8","","74","J","1","","0","0","1","","0.1669650696","false","65","","0.07856201072","main_expt","","0.1669650696","","0.4174082156","","0.2798966648","","","","","",""
"447","","bandit","141","790749","0.0-103.0-0.0","57325242","wem/bandit_single","A3H48TMCITL94X","pain","8","","75","K","2","","0","0","1","","0.4396479182","false","66","","0.04493535693","main_expt","","0.1439674443","","0.4396479182","","0.2440426105","","","","","",""
"34","","bandit","142","792551","0.0-104.0-0.0","57325242","wem/bandit_single","A3H48TMCITL94X","pain","8","","76","L","3","","0","1","0","","0.2630461485","false","67","","0.06268984171","main_expt","","0.1892066175","","0.4080198752","","0.2630461485","","","","","",""
"465","","bandit","143","794776","0.0-105.0-0.0","57325242","wem/bandit_single","A3H48TMCITL94X","pain","8","","76","L","3","","0","1","0","","0.2456224984","false","68","","0.0976634122","main_expt","","0.1994174399","","0.4137299856","","0.2456224984","","","","","",""
"36","","bandit","144","796577","0.0-106.0-0.0","57325242","wem/bandit_single","A3H48TMCITL94X","pain","8","","76","L","3","","0","0","1","","0.328759159","false","69","","0.1303859095","main_expt","","0.1624567358","","0.3938947582","","0.328759159","","","","","",""
"363","","bandit","145","798705","0.0-107.0-0.0","57325242","wem/bandit_single","A3H48TMCITL94X","pain","8","","76","L","3","","0","0","1","","0.3063762308","false","70","","0.09159795462","main_expt","","0.203142037","","0.3876621225","","0.3063762308","","","","","",""
"370","","bandit","146","800841","0.0-108.0-0.0","57325242","wem/bandit_single","A3H48TMCITL94X","pain","8","","76","L","3","","0","0","1","","0.3509026903","false","71","","0.07422050438","main_expt","","0.218187973","","0.3788053019","","0.3509026903","","","","","",""
"57","","bandit","147","802663","0.0-109.0-0.0","57325242","wem/bandit_single","A3H48TMCITL94X","pain","8","","72","H","0","img/none_selected.jpg","0","1","0","","0.05420033029","false","72","","0.05420033029","main_expt","","0.2357875668","","0.3632611749","","0.3695940198","","","","","",""
"24","","bandit","148","804454","0.0-110.0-0.0","57325242","wem/bandit_single","A3H48TMCITL94X","pain","8","","72","H","0","img/none_selected.jpg","0","0","1","","0.04794676006","false","73","","0.04794676006","main_expt","","0.1951490082","","0.3121818875","","0.3532210052","","","","","",""
"5","","bandit","149","806227","0.0-111.0-0.0","57325242","wem/bandit_single","A3H48TMCITL94X","pain","8","","72","H","0","img/none_selected.jpg","0","0","1","","0.03645121522","false","74","","0.03645121522","main_expt","","0.208621177","","0.3385624816","","0.3780170277","","","","","",""
"10","","bandit","150","808005","0.0-112.0-0.0","57325242","wem/bandit_single","A3H48TMCITL94X","pain","8","","74","J","1","","0","0","1","","0.2016482668","false","75","","0.04346784694","main_expt","","0.2016482668","","0.3393964734","","0.3141643986","","","","","",""
"86","","bandit","151","809853","0.0-113.0-0.0","57325242","wem/bandit_single","A3H48TMCITL94X","pain","8","","75","K","2","","0","0","1","","0.3489067358","false","76","","0.05697420644","main_expt","","0.2495615647","","0.3489067358","","0.3520496016","","","","","",""
"31","","bandit","152","811648","0.0-114.0-0.0","57325242","wem/bandit_single","A3H48TMCITL94X","pain","8","","74","J","1","","0","0","1","","0.2225386599","false","77","","0.05831686642","main_expt","","0.2225386599","","0.3502211764","","0.2628688268","","","","","",""
"77","","bandit","153","813493","0.0-115.0-0.0","57325242","wem/bandit_single","A3H48TMCITL94X","pain","8","","72","H","0","img/none_selected.jpg","0","0","1","","0.0396837938","false","78","","0.0396837938","main_expt","","0.2525784454","","0.2979424841","","0.2856335909","","","","","",""
"1","","bandit","154","815261","0.0-116.0-0.0","57325242","wem/bandit_single","A3H48TMCITL94X","pain","8","","72","H","0","img/none_selected.jpg","0","0","1","","0.03651397352","false","79","","0.03651397352","main_expt","","0.2691825077","","0.2779986596","","0.3052483479","","","","","",""
"311","","bandit","155","817337","0.0-117.0-0.0","57325242","wem/bandit_single","A3H48TMCITL94X","pain","8","","76","L","3","","0","0","1","","0.2809417262","false","80","","0.0570793957","main_expt","","0.2749696362","","0.2681941829","","0.2809417262","","","","","",""
"39","","bandit","156","819143","0.0-118.0-0.0","57325242","wem/bandit_single","A3H48TMCITL94X","pain","8","","76","L","3","","0","0","1","","0.2639407754","false","81","","0.05597964966","main_expt","","0.291945729","","0.2536714586","","0.2639407754","","","","","",""
"80","","bandit","157","820988","0.0-119.0-0.0","57325242","wem/bandit_single","A3H48TMCITL94X","pain","8","","75","K","2","","0","0","1","","0.1904528106","false","82","","0.0589745046","main_expt","","0.2804178179","","0.1904528106","","0.3352417475","","","","","",""
"433","","bandit","158","823188","0.0-120.0-0.0","57325242","wem/bandit_single","A3H48TMCITL94X","pain","8","","75","K","2","","0","1","0","","0.2497062266","false","83","","0.04461225985","main_expt","","0.2253075454","","0.2497062266","","0.3246721101","","","","","",""
"26","","bandit","159","824980","0.0-121.0-0.0","57325242","wem/bandit_single","A3H48TMCITL94X","pain","8","","75","K","2","","0","0","1","","0.2960017758","false","84","","0.04600221485","main_expt","","0.2475548924","","0.2960017758","","0.3082112656","","","","","",""
"60","","bandit","160","826806","0.0-122.0-0.0","57325242","wem/bandit_single","A3H48TMCITL94X","pain","8","","75","K","2","","0","0","1","","0.2677312645","false","85","","0.04782026086","main_expt","","0.2443994903","","0.2677312645","","0.2733186338","","","","","",""
"12","","bandit","161","828584","0.0-123.0-0.0","57325242","wem/bandit_single","A3H48TMCITL94X","pain","8","","74","J","1","","0","0","1","","0.2112262296","false","86","","0.05551660222","main_expt","","0.2112262296","","0.2764415163","","0.2595222796","","","","","",""
"34","","bandit","162","830383","0.0-124.0-0.0","57325242","wem/bandit_single","A3H48TMCITL94X","pain","8","","74","J","1","","0","0","1","","0.2188998383","false","87","","0.04708869331","main_expt","","0.2188998383","","0.324022149","","0.2256999028","","","","","",""
"375","","bandit","163","832526","0.0-125.0-0.0","57325242","wem/bandit_single","A3H48TMCITL94X","pain","8","","72","H","0","img/none_selected.jpg","0","0","1","","0.02844544313","false","88","","0.02844544313","main_expt","","0.2197891412","","0.3109963835","","0.1990670624","","","","","",""
"81","","bandit","164","834369","0.0-126.0-0.0","57325242","wem/bandit_single","A3H48TMCITL94X","pain","8","","72","H","0","img/none_selected.jpg","0","0","1","","0.02947982339","false","89","","0.02947982339","main_expt","","0.1264972534","","0.324941543","","0.2125628639","","","","","",""
"10","","bandit","165","836152","0.0-127.0-0.0","57325242","wem/bandit_single","A3H48TMCITL94X","pain","8","","76","L","3","","0","0","1","","0.2335475446","false","90","","0.01544371513","main_expt","","0.09492746395","","0.3309337967","","0.2335475446","","","","","",""
"387","","bandit","166","838307","0.0-128.0-0.0","57325242","wem/bandit_single","A3H48TMCITL94X","pain","8","","76","L","3","","0","0","1","","0.2803997126","false","91","","0.02662688154","main_expt","","0.0779798764","","0.2419508287","","0.2803997126","","","","","",""
"35","","bandit","167","840108","0.0-129.0-0.0","57325242","wem/bandit_single","A3H48TMCITL94X","pain","8","","76","L","3","","0","0","1","","0.2771315147","false","92","","0.03471523835","main_expt","","0.1178574791","","0.2040869203","","0.2771315147","","","","","",""
"25","","bandit","168","841900","0.0-130.0-0.0","57325242","wem/bandit_single","A3H48TMCITL94X","pain","8","","72","H","0","img/none_selected.jpg","0","0","1","","0.0252433293","false","93","","0.0252433293","main_expt","","0.1199697814","","0.1936143615","","0.3069544445","","","","","",""
"154","","bandit","169","843822","0.0-131.0-0.0","57325242","wem/bandit_single","A3H48TMCITL94X","pain","8","","74","J","1","","0","0","1","","0.1351842626","false","94","","0.02873343753","main_expt","","0.1351842626","","0.2296452841","","0.2585327286","","","","","",""
"68","","bandit","170","845656","0.0-132.0-0.0","57325242","wem/bandit_single","A3H48TMCITL94X","pain","8","","74","J","1","","0","0","1","","0.1229387465","false","95","","0.03754278977","main_expt","","0.1229387465","","0.3009770616","","0.2043747222","","","","","",""
"54","","bandit","171","847474","0.0-133.0-0.0","57325242","wem/bandit_single","A3H48TMCITL94X","pain","8","","75","K","2","","0","1","0","","0.3664634414","false","96","","0.02045008397","main_expt","","0.1341504272","","0.3664634414","","0.2149370614","","","","","",""
"29","","bandit","172","849271","0.0-134.0-0.0","57325242","wem/bandit_single","A3H48TMCITL94X","pain","8","","75","K","2","","0","0","1","","0.3476641925","false","97","","0.01282395838","main_expt","","0.08646330057","","0.3476641925","","0.1294523689","","","","","",""
"75","","bandit","173","851115","0.0-135.0-0.0","57325242","wem/bandit_single","A3H48TMCITL94X","pain","8","","75","K","2","","0","1","0","","0.3885632826","false","98","","0.02206163243","main_expt","","0.07731746448","","0.3885632826","","0.1653870254","","","","","",""
"42","","bandit","174","852926","0.0-136.0-0.0","57325242","wem/bandit_single","A3H48TMCITL94X","pain","8","","75","K","2","","0","0","1","","0.3222143249","false","99","","0.03016500256","main_expt","","0.05048608161","","0.3222143249","","0.187235433","","","","","",""
"4","","bandit","175","854698","0.0-137.0-0.0","57325242","wem/bandit_single","A3H48TMCITL94X","pain","8","","75","K","2","","0","0","1","","0.3386714995","false","100","","0.03237578522","main_expt","","0.03970728334","","0.3386714995","","0.1583251777","","","","","",""
"156","","bandit","176","856621","0.0-138.0-0.0","57325242","wem/bandit_single","A3H48TMCITL94X","pain","8","","75","K","2","","0","0","1","","0.3131396166","false","101","","0.03241037075","main_expt","","0.02108340439","","0.3131396166","","0.1337381207","","","","","",""
"96","","bandit","177","858484","0.0-139.0-0.0","57325242","wem/bandit_single","A3H48TMCITL94X","pain","8","","75","K","2","","0","0","1","","0.3417288757","false","102","","0.06000215667","main_expt","","0.05244648731","","0.3417288757","","0.1163639012","","","","","",""
"18","","bandit","178","860268","0.0-140.0-0.0","57325242","wem/bandit_single","A3H48TMCITL94X","pain","8","","76","L","3","","0","0","1","","0.1118657557","false","103","","0.08726741307","main_expt","","0.04574159302","","0.3582654759","","0.1118657557","","","","","",""
"37","","bandit","179","862072","0.0-141.0-0.0","57325242","wem/bandit_single","A3H48TMCITL94X","pain","8","","72","H","0","img/none_selected.jpg","0","0","1","","0.1067467257","false","104","","0.1067467257","main_expt","","0.05033190662","","0.3409136392","","0.1501499683","","","","","",""
"10","","bandit","180","863850","0.0-142.0-0.0","57325242","wem/bandit_single","A3H48TMCITL94X","pain","8","","74","J","1","","0","0","1","","0.1076128494","false","105","","0.1004566838","main_expt","","0.1076128494","","0.3532992837","","0.1354733374","","","","","",""
"398","","bandit","181","866019","0.0-143.0-0.0","57325242","wem/bandit_single","A3H48TMCITL94X","pain","8","","72","H","0","img/none_selected.jpg","0","0","1","","0.1055318719","false","106","","0.1055318719","main_expt","","0.06740855405","","0.335683565","","0.1727398631","","","","","",""
"383","","bandit","182","868168","0.0-144.0-0.0","57325242","wem/bandit_single","A3H48TMCITL94X","pain","8","","72","H","0","img/none_selected.jpg","0","0","1","","0.1236328269","false","107","","0.1236328269","main_expt","","0.06658027063","","0.3924059951","","0.1474174257","","","","","",""
"144","","bandit","183","870078","0.0-145.0-0.0","57325242","wem/bandit_single","A3H48TMCITL94X","pain","8","","76","L","3","","0","0","1","","0.1683059408","false","108","","0.1301170461","main_expt","","0.0777756245","","0.3626054341","","0.1683059408","","","","","",""
"393","","bandit","184","872239","0.0-146.0-0.0","57325242","wem/bandit_single","A3H48TMCITL94X","pain","8","","76","L","3","","0","0","1","","0.1972223025","false","109","","0.1507941036","main_expt","","0.1117823495","","0.3806857721","","0.1972223025","","","","","",""
"14","","bandit","185","874022","0.0-147.0-0.0","57325242","wem/bandit_single","A3H48TMCITL94X","pain","8","","74","J","1","","0","0","1","","0.08710900622","false","110","","0.1647590848","main_expt","","0.08710900622","","0.3452619283","","0.2085186414","","","","","",""
"19","","bandit","186","875808","0.0-148.0-0.0","57325242","wem/bandit_single","A3H48TMCITL94X","pain","8","","74","J","1","","0","0","1","","0.107183683","false","111","","0.1574612326","main_expt","","0.107183683","","0.3653509784","","0.1811180602","","","","","",""
"66","","bandit","187","877641","0.0-149.0-0.0","57325242","wem/bandit_single","A3H48TMCITL94X","pain","8","","75","K","2","","0","0","1","","0.3435522482","false","112","","0.1406493921","main_expt","","0.1099425133","","0.3435522482","","0.222295219","","","","","",""
"473","","bandit","188","879883","0.0-150.0-0.0","57325242","wem/bandit_single","A3H48TMCITL94X","pain","8","","75","K","2","","0","0","1","","0.3424956272","false","113","","0.1367300214","main_expt","","0.1457634924","","0.3424956272","","0.254178783","","","","","",""
"75","","bandit","189","881727","0.0-151.0-0.0","57325242","wem/bandit_single","A3H48TMCITL94X","pain","8","","76","L","3","","0","0","1","","0.2315882939","false","114","","0.1534665218","main_expt","","0.09824844824","","0.3353894863","","0.2315882939","","","","","",""
"815","","bandit","190","884307","0.0-152.0-0.0","57325242","wem/bandit_single","A3H48TMCITL94X","pain","8","","76","L","3","","0","0","1","","0.2079629003","false","115","","0.1890238391","main_expt","","0.07202874502","","0.3965113255","","0.2079629003","","","","","",""
"11","","bandit","191","886085","0.0-153.0-0.0","57325242","wem/bandit_single","A3H48TMCITL94X","pain","8","","76","L","3","","0","0","1","","0.2117584369","false","116","","0.1480670238","main_expt","","0.08386797302","","0.3889101716","","0.2117584369","","","","","",""
"293","","bandit","192","888147","0.0-154.0-0.0","57325242","wem/bandit_single","A3H48TMCITL94X","pain","8","","76","L","3","","0","1","0","","0.1897465023","false","117","","0.1450369027","main_expt","","0.1223406282","","0.412290601","","0.1897465023","","","","","",""
"329","","bandit","193","890244","0.0-155.0-0.0","57325242","wem/bandit_single","A3H48TMCITL94X","pain","8","","76","L","3","","0","0","1","","0.2162179109","false","118","","0.1525061225","main_expt","","0.1131974311","","0.4090296977","","0.2162179109","","","","","",""
"192","","bandit","194","892202","0.0-156.0-0.0","57325242","wem/bandit_single","A3H48TMCITL94X","pain","8","","76","L","3","","0","0","1","","0.1954464435","false","119","","0.1327940691","main_expt","","0.1214903214","","0.3900906375","","0.1954464435","","","","","",""
"2995","","bandit","195","896966","0.0-157.0-0.0","57325242","wem/bandit_single","A3H48TMCITL94X","pain","8","","76","L","3","","0","0","1","","0.2433439763","false","120","","0.1517026744","main_expt","","0.1379734046","","0.3722828095","","0.2433439763","","","","","",""
"33","","bandit","196","898766","0.0-158.0-0.0","57325242","wem/bandit_single","A3H48TMCITL94X","pain","8","","72","H","0","img/none_selected.jpg","0","0","1","","0.09770447215","false","121","","0.09770447215","main_expt","","0.1537473387","","0.3593952677","","0.2093375247","","","","","",""
"23","","bandit","197","900550","0.0-159.0-0.0","57325242","wem/bandit_single","A3H48TMCITL94X","pain","8","","74","J","1","","0","0","1","","0.1654199468","false","122","","0.1084092314","main_expt","","0.1654199468","","0.3670381393","","0.2030857612","","","","","",""
"23","","bandit","198","902342","0.0-160.0-0.0","57325242","wem/bandit_single","A3H48TMCITL94X","pain","8","","75","K","2","","0","0","1","","0.3587286137","false","123","","0.1828660492","main_expt","","0.1908187881","","0.3587286137","","0.1810532848","","","","","",""
"152","","bandit","199","904263","0.0-161.0-0.0","57325242","wem/bandit_single","A3H48TMCITL94X","pain","8","","75","K","2","","0","1","0","","0.3492740793","false","124","","0.1743556658","main_expt","","0.2229551501","","0.3492740793","","0.1582229448","","","","","",""
"14","","bandit","200","906048","0.0-162.0-0.0","57325242","wem/bandit_single","A3H48TMCITL94X","pain","8","","75","K","2","","0","0","1","","0.3031262708","false","125","","0.2091647646","main_expt","","0.2354127912","","0.3031262708","","0.1223239468","","","","","",""
"4","","bandit","201","907823","0.0-163.0-0.0","57325242","wem/bandit_single","A3H48TMCITL94X","pain","8","","75","K","2","","0","1","0","","0.3272336491","false","126","","0.2089783764","main_expt","","0.25119817","","0.3272336491","","0.08912034734","","","","","",""
"25","","bandit","202","909616","0.0-164.0-0.0","57325242","wem/bandit_single","A3H48TMCITL94X","pain","8","","75","K","2","","0","0","1","","0.3153677968","false","127","","0.21334071","main_expt","","0.2312690923","","0.3153677968","","0.05948163","","","","","",""
"25","","bandit","203","911408","0.0-165.0-0.0","57325242","wem/bandit_single","A3H48TMCITL94X","pain","8","","75","K","2","","0","1","0","","0.3317710332","false","128","","0.1916283041","main_expt","","0.2741150261","","0.3317710332","","0.06525821595","","","","","",""
"27","","bandit","204","913207","0.0-166.0-0.0","57325242","wem/bandit_single","A3H48TMCITL94X","pain","8","","75","K","2","","0","0","1","","0.3818586719","false","129","","0.1810604207","main_expt","","0.2804264122","","0.3818586719","","0.04677418535","","","","","",""
"35","","bandit","205","915011","0.0-167.0-0.0","57325242","wem/bandit_single","A3H48TMCITL94X","pain","8","","75","K","2","","0","0","1","","0.3778611376","false","130","","0.1492319935","main_expt","","0.2746384559","","0.3778611376","","0.04931785787","","","","","",""
"16","","bandit","206","916799","0.0-168.0-0.0","57325242","wem/bandit_single","A3H48TMCITL94X","pain","8","","75","K","2","","0","0","1","","0.3745485054","false","131","","0.129351286","main_expt","","0.3052944487","","0.3745485054","","0.03231589458","","","","","",""
"8","","bandit","207","918577","0.0-169.0-0.0","57325242","wem/bandit_single","A3H48TMCITL94X","pain","8","","75","K","2","","0","1","0","","0.3901944836","false","132","","0.1020216346","main_expt","","0.2871604017","","0.3901944836","","0.0374336399","","","","","",""
"2","","bandit","208","920346","0.0-170.0-0.0","57325242","wem/bandit_single","A3H48TMCITL94X","pain","8","","75","K","2","","0","0","1","","0.3245875462","false","133","","0.1100395313","main_expt","","0.2262434135","","0.3245875462","","0.04583961862","","","","","",""
"62","","bandit","209","922174","0.0-171.0-0.0","57325242","wem/bandit_single","A3H48TMCITL94X","pain","8","","75","K","2","","0","1","0","","0.2794858075","false","134","","0.1078381017","main_expt","","0.2020687113","","0.2794858075","","0.04150300199","","","","","",""
"361","","bandit","210","924303","0.0-172.0-0.0","57325242","wem/bandit_single","A3H48TMCITL94X","pain","8","","75","K","2","","0","1","0","","0.2867414221","false","135","","0.1093486249","main_expt","","0.2168620662","","0.2867414221","","0.04663842542","","","","","",""
"83","","bandit","211","926155","0.0-173.0-0.0","57325242","wem/bandit_single","A3H48TMCITL94X","pain","8","","75","K","2","","0","1","0","","0.2388941587","false","136","","0.1246456113","main_expt","","0.151139006","","0.2388941587","","0.06291357963","","","","","",""
"122","","bandit","212","928046","0.0-174.0-0.0","57325242","wem/bandit_single","A3H48TMCITL94X","pain","8","","75","K","2","","0","0","1","","0.2301747732","false","137","","0.1167447495","main_expt","","0.1452995234","","0.2301747732","","0.0848669819","","","","","",""
"221","","bandit","213","930035","0.0-175.0-0.0","57325242","wem/bandit_single","A3H48TMCITL94X","pain","8","","75","K","2","","0","0","1","","0.2344721482","false","138","","0.1357570265","main_expt","","0.1599176777","","0.2344721482","","0.1250360552","","","","","",""
"402","","bandit","214","932208","0.0-176.0-0.0","57325242","wem/bandit_single","A3H48TMCITL94X","pain","8","","75","K","2","","0","1","0","","0.2351335283","false","139","","0.1616689495","main_expt","","0.1704699841","","0.2351335283","","0.122190115","","","","","",""
"141","","bandit","215","934118","0.0-177.0-0.0","57325242","wem/bandit_single","A3H48TMCITL94X","pain","8","","75","K","2","","0","0","1","","0.2876903143","false","140","","0.1979747013","main_expt","","0.1142956015","","0.2876903143","","0.08666030548","","","","","",""
"100","","bandit","216","935987","0.0-178.0-0.0","57325242","wem/bandit_single","A3H48TMCITL94X","pain","8","","75","K","2","","0","0","1","","0.2865732071","false","141","","0.1708965128","main_expt","","0.1206890816","","0.2865732071","","0.09967801986","","","","","",""
"24","","bandit","217","937781","0.0-179.0-0.0","57325242","wem/bandit_single","A3H48TMCITL94X","pain","8","","75","K","2","","0","0","1","","0.248943806","false","142","","0.204481367","main_expt","","0.1324259923","","0.248943806","","0.1125289611","","","","","",""
"69","","bandit","218","939612","0.0-180.0-0.0","57325242","wem/bandit_single","A3H48TMCITL94X","pain","8","","75","K","2","","0","1","0","","0.2839045407","false","143","","0.1861099789","main_expt","","0.09892217097","","0.2839045407","","0.1467602081","","","","","",""
"103","","bandit","219","941484","0.0-181.0-0.0","57325242","wem/bandit_single","A3H48TMCITL94X","pain","8","","75","K","2","","0","1","0","","0.3150250783","false","144","","0.1956465744","main_expt","","0.1577744197","","0.3150250783","","0.1467522766","","","","","",""
"118","","bandit","220","943374","0.0-182.0-0.0","57325242","wem/bandit_single","A3H48TMCITL94X","pain","8","","75","K","2","","0","1","0","","0.3090395899","false","145","","0.2622876922","main_expt","","0.1392006829","","0.3090395899","","0.118212248","","","","","",""
"70","","bandit","221","945213","0.0-183.0-0.0","57325242","wem/bandit_single","A3H48TMCITL94X","pain","8","","75","K","2","","0","1","0","","0.3122039877","false","146","","0.304745079","main_expt","","0.1262993523","","0.3122039877","","0.1089879874","","","","","",""
"140","","bandit","222","947122","0.0-184.0-0.0","57325242","wem/bandit_single","A3H48TMCITL94X","pain","8","","75","K","2","","0","0","1","","0.2959619691","false","147","","0.2888799162","main_expt","","0.1970652478","","0.2959619691","","0.1200469816","","","","","",""
"745","","bandit","223","949637","0.0-185.0-0.0","57325242","wem/bandit_single","A3H48TMCITL94X","pain","8","","75","K","2","","0","0","1","","0.2395536641","false","148","","0.2290209364","main_expt","","0.2502259542","","0.2395536641","","0.1276189258","","","","","",""
"27867","","bandit","224","979273","0.0-186.0-0.0","57325242","wem/bandit_single","A3H48TMCITL94X","pain","8","","76","L","3","","0","1","0","","0.1280703092","false","149","","0.1626908122","main_expt","","0.264890558","","0.2650868272","","0.1280703092","","","","","",""
"283","","bandit","225","981314","0.0-187.0-0.0","57325242","wem/bandit_single","A3H48TMCITL94X","pain","8","","76","L","3","","0","0","1","","0.1260403861","false","150","","0.1958031623","main_expt","","0.2458403893","","0.2986082654","","0.1260403861","","","","","",""
"12","","bandit","226","983089","0.0-188.0-0.0","57325242","wem/bandit_single","A3H48TMCITL94X","pain","8","","75","K","2","","0","0","1","","0.2843767109","false","151","","0.2110526716","main_expt","","0.3021038309","","0.2843767109","","0.1472493067","","","","","",""
"0","","bandit","227","984858","0.0-189.0-0.0","57325242","wem/bandit_single","A3H48TMCITL94X","pain","8","","75","K","2","","0","0","1","","0.2910803031","false","152","","0.239542308","main_expt","","0.2863751765","","0.2910803031","","0.1256460397","","","","","",""
"115","","bandit","228","986742","0.0-190.0-0.0","57325242","wem/bandit_single","A3H48TMCITL94X","pain","8","","75","K","2","","0","0","1","","0.2910028656","false","153","","0.2781725502","main_expt","","0.250244768","","0.2910028656","","0.1567097088","","","","","",""
"17158","","bandit","229","1005662","0.0-191.0-0.0","57325242","wem/bandit_single","A3H48TMCITL94X","pain","8","","75","K","2","","0","1","0","","0.2845613835","false","154","","0.228047793","main_expt","","0.2127808211","","0.2845613835","","0.1473662378","","","","","",""
"36","","bandit","230","1007468","0.0-192.0-0.0","57325242","wem/bandit_single","A3H48TMCITL94X","pain","8","","75","K","2","","0","0","1","","0.2707345723","false","155","","0.2683949018","main_expt","","0.205053704","","0.2707345723","","0.1466549972","","","","","",""
"135","","bandit","231","1009370","0.0-193.0-0.0","57325242","wem/bandit_single","A3H48TMCITL94X","pain","8","","75","K","2","","0","1","0","","0.3156720475","false","156","","0.3192141369","main_expt","","0.1648482415","","0.3156720475","","0.1127453184","","","","","",""
"1519","","bandit","232","1012659","0.0-194.0-0.0","57325242","wem/bandit_single","A3H48TMCITL94X","pain","8","","75","K","2","","0","0","1","","0.3101066834","false","157","","0.3402823895","main_expt","","0.1888047422","","0.3101066834","","0.1577506677","","","","","",""
"27","","bandit","233","1014457","0.0-195.0-0.0","57325242","wem/bandit_single","A3H48TMCITL94X","pain","8","","76","L","3","","0","0","1","","0.177177298","false","158","","0.2944958958","main_expt","","0.1759444775","","0.3236654942","","0.177177298","","","","","",""
"0","","bandit","234","1016227","0.0-196.0-0.0","57325242","wem/bandit_single","A3H48TMCITL94X","pain","8","","76","L","3","","0","0","1","","0.1693510486","false","159","","0.3007248388","main_expt","","0.2066832709","","0.2735657487","","0.1693510486","","","","","",""
"640","","bandit","235","1018636","0.0-197.0-0.0","57325242","wem/bandit_single","A3H48TMCITL94X","pain","8","","72","H","0","img/none_selected.jpg","0","0","1","","0.3179332055","false","160","","0.3179332055","main_expt","","0.2570817279","","0.2384912546","","0.1230292859","","","","","",""
"19","","bandit","236","1020424","0.0-198.0-0.0","57325242","wem/bandit_single","A3H48TMCITL94X","pain","8","","72","H","0","img/none_selected.jpg","0","0","1","","0.2506164635","false","161","","0.2506164635","main_expt","","0.2244749933","","0.2615252743","","0.07903667538","","","","","",""
"38","","bandit","237","1022234","0.0-199.0-0.0","57325242","wem/bandit_single","A3H48TMCITL94X","pain","8","","74","J","1","","0","0","1","","0.23263707","false","162","","0.2858836385","main_expt","","0.23263707","","0.2187643747","","0.1136507332","","","","","",""
"37","","bandit","238","1024040","0.0-200.0-0.0","57325242","wem/bandit_single","A3H48TMCITL94X","pain","8","","74","J","1","","0","0","1","","0.2287127565","false","163","","0.2848163613","main_expt","","0.2287127565","","0.1909081127","","0.1137116213","","","","","",""
"30","","bandit","239","1025843","0.0-201.0-0.0","57325242","wem/bandit_single","A3H48TMCITL94X","pain","8","","74","J","1","","0","0","1","","0.2303253206","false","164","","0.2688566635","main_expt","","0.2303253206","","0.1808716434","","0.1254102563","","","","","",""
"81","","bandit","240","1027693","0.0-202.0-0.0","57325242","wem/bandit_single","A3H48TMCITL94X","pain","8","","75","K","2","","0","0","1","","0.2118073572","false","165","","0.2921202554","main_expt","","0.2771057403","","0.2118073572","","0.1216805934","","","","","",""
"246","","bandit","241","1029709","0.0-203.0-0.0","57325242","wem/bandit_single","A3H48TMCITL94X","pain","8","","75","K","2","","0","0","1","","0.2410554973","false","166","","0.3143591269","main_expt","","0.2371810998","","0.2410554973","","0.1291529517","","","","","",""
"319","","bandit","242","1031797","0.0-204.0-0.0","57325242","wem/bandit_single","A3H48TMCITL94X","pain","8","","75","K","2","","0","1","0","","0.2574005288","false","167","","0.2892924204","main_expt","","0.2349122652","","0.2574005288","","0.1535345887","","","","","",""
"328","","bandit","243","1033897","0.0-205.0-0.0","57325242","wem/bandit_single","A3H48TMCITL94X","pain","8","","75","K","2","","0","1","0","","0.2729884233","false","168","","0.2786305655","main_expt","","0.1959020284","","0.2729884233","","0.1435034989","","","","","",""
"53","","bandit","244","1035715","0.0-206.0-0.0","57325242","wem/bandit_single","A3H48TMCITL94X","pain","8","","75","K","2","","0","0","1","","0.2625821735","false","169","","0.246803054","main_expt","","0.1899859579","","0.2625821735","","0.1957458285","","","","","",""
"344","","bandit","245","1037832","0.0-207.0-0.0","57325242","wem/bandit_single","A3H48TMCITL94X","pain","8","","75","K","2","","0","0","1","","0.3100542845","false","170","","0.2375021307","main_expt","","0.2213833812","","0.3100542845","","0.1308867566","","","","","",""
"23","","bandit","246","1039626","0.0-208.0-0.0","57325242","wem/bandit_single","A3H48TMCITL94X","pain","8","","75","K","2","","0","1","0","","0.3083945368","false","171","","0.2965678991","main_expt","","0.1589997081","","0.3083945368","","0.1422271972","","","","","",""
"94","","bandit","247","1041492","0.0-209.0-0.0","57325242","wem/bandit_single","A3H48TMCITL94X","pain","8","","75","K","2","","0","1","0","","0.3929186772","false","172","","0.2696718616","main_expt","","0.1669714507","","0.3929186772","","0.1541925874","","","","","",""
"19","","bandit","248","1043280","0.0-210.0-0.0","57325242","wem/bandit_single","A3H48TMCITL94X","pain","8","","75","K","2","","0","0","1","","0.4107736206","false","173","","0.2576521005","main_expt","","0.1699847696","","0.4107736206","","0.1416394444","","","","","",""
"10","","bandit","249","1045064","0.0-211.0-0.0","57325242","wem/bandit_single","A3H48TMCITL94X","pain","8","","75","K","2","","0","0","1","","0.4267170337","false","174","","0.2839516933","main_expt","","0.202136981","","0.4267170337","","0.1207830423","","","","","",""
"24","","bandit","250","1046859","0.0-212.0-0.0","57325242","wem/bandit_single","A3H48TMCITL94X","pain","8","","75","K","2","","0","0","1","","0.420504823","false","175","","0.2932452363","main_expt","","0.1863880777","","0.420504823","","0.1636312712","","","","","",""
"10","","bandit","251","1048640","0.0-213.0-0.0","57325242","wem/bandit_single","A3H48TMCITL94X","pain","8","","75","K","2","","0","1","0","","0.3956962169","false","176","","0.3118313574","main_expt","","0.1426909825","","0.3956962169","","0.186569684","","","","","",""
"21","","bandit","252","1050433","0.0-214.0-0.0","57325242","wem/bandit_single","A3H48TMCITL94X","pain","8","","75","K","2","","0","0","1","","0.3834761318","false","177","","0.3378695823","main_expt","","0.1335645184","","0.3834761318","","0.1089038478","","","","","",""
"18","","bandit","253","1052220","0.0-215.0-0.0","57325242","wem/bandit_single","A3H48TMCITL94X","pain","8","","76","L","3","","0","1","0","","0.08465244813","false","178","","0.3234122319","main_expt","","0.09719791569","","0.4167112469","","0.08465244813","","","","","",""
"313","","bandit","254","1054306","0.0-216.0-0.0","57325242","wem/bandit_single","A3H48TMCITL94X","pain","8","","76","L","3","","0","0","1","","0.1015747644","false","179","","0.3281528324","main_expt","","0.07123289457","","0.4370197561","","0.1015747644","","","","","",""
"96","","bandit","255","1056172","0.0-217.0-0.0","57325242","wem/bandit_single","A3H48TMCITL94X","pain","8","","76","L","3","","0","0","1","","0.1277953302","false","180","","0.340497037","main_expt","","0.05555663239","","0.3776598584","","0.1277953302","","","","","",""
"60","","bandit","256","1058004","0.0-218.0-0.0","57325242","wem/bandit_single","A3H48TMCITL94X","pain","8","","76","L","3","","0","1","0","","0.1854921141","false","181","","0.3007371283","main_expt","","0.04396828199","","0.3636519722","","0.1854921141","","","","","",""
"55","","bandit","257","1059831","0.0-219.0-0.0","57325242","wem/bandit_single","A3H48TMCITL94X","pain","8","","76","L","3","","0","0","1","","0.2273529654","false","182","","0.3190136055","main_expt","","0.02691259782","","0.3246411676","","0.2273529654","","","","","",""
"59","","bandit","258","1061661","0.0-220.0-0.0","57325242","wem/bandit_single","A3H48TMCITL94X","pain","8","","76","L","3","","0","1","0","","0.2600234541","false","183","","0.322323442","main_expt","","0.04807599522","","0.3187018958","","0.2600234541","","","","","",""
"45","","bandit","259","1063481","0.0-221.0-0.0","57325242","wem/bandit_single","A3H48TMCITL94X","pain","8","","76","L","3","","0","0","1","","0.2689652485","false","184","","0.3086696071","main_expt","","0.05076165442","","0.3497063737","","0.2689652485","","","","","",""
"39","","bandit","260","1065291","0.0-222.0-0.0","57325242","wem/bandit_single","A3H48TMCITL94X","pain","8","","76","L","3","","0","0","1","","0.2646203852","false","185","","0.3146814862","main_expt","","0.1128087831","","0.3334532315","","0.2646203852","","","","","",""
"17","","bandit","261","1067080","0.0-223.0-0.0","57325242","wem/bandit_single","A3H48TMCITL94X","pain","8","","76","L","3","","0","0","1","","0.2038557162","false","186","","0.3353274036","main_expt","","0.1592260056","","0.3511592443","","0.2038557162","","","","","",""
"7","","bandit","262","1068859","0.0-224.0-0.0","57325242","wem/bandit_single","A3H48TMCITL94X","pain","8","","76","L","3","","0","0","1","","0.2643634763","false","187","","0.331036234","main_expt","","0.2195828404","","0.3758503369","","0.2643634763","","","","","",""
"42","","bandit","263","1070675","0.0-225.0-0.0","57325242","wem/bandit_single","A3H48TMCITL94X","pain","8","","76","L","3","","0","1","0","","0.2137054787","false","188","","0.3061178756","main_expt","","0.214856838","","0.3951098987","","0.2137054787","","","","","",""
"88","","bandit","264","1072535","0.0-226.0-0.0","57325242","wem/bandit_single","A3H48TMCITL94X","pain","8","","75","K","2","","0","1","0","","0.3766733461","false","189","","0.3455914038","main_expt","","0.2103369464","","0.3766733461","","0.2349639762","","","","","",""
"42","","bandit","265","1074350","0.0-227.0-0.0","57325242","wem/bandit_single","A3H48TMCITL94X","pain","8","","75","K","2","","0","1","0","","0.3974997784","false","190","","0.3734842368","main_expt","","0.1932940482","","0.3974997784","","0.2067261929","","","","","",""
"48","","bandit","266","1076169","0.0-228.0-0.0","57325242","wem/bandit_single","A3H48TMCITL94X","pain","8","","75","K","2","","0","0","1","","0.4174686418","false","191","","0.3648323685","main_expt","","0.2285646161","","0.4174686418","","0.275245882","","","","","",""
"18","","bandit","267","1077962","0.0-229.0-0.0","57325242","wem/bandit_single","A3H48TMCITL94X","pain","8","","76","L","3","","0","0","1","","0.306220044","false","192","","0.3339781981","main_expt","","0.2589031043","","0.3963748123","","0.306220044","","","","","",""
"23","","bandit","268","1079756","0.0-230.0-0.0","57325242","wem/bandit_single","A3H48TMCITL94X","pain","8","","76","L","3","","0","0","1","","0.3035773814","false","193","","0.3342714415","main_expt","","0.2195537535","","0.3921748604","","0.3035773814","","","","","",""
"30","","bandit","269","1081557","0.0-231.0-0.0","57325242","wem/bandit_single","A3H48TMCITL94X","pain","8","","76","L","3","","0","0","1","","0.2510827831","false","194","","0.3241295504","main_expt","","0.2027550427","","0.3580841109","","0.2510827831","","","","","",""
"71","","bandit","270","1083400","0.0-232.0-0.0","57325242","wem/bandit_single","A3H48TMCITL94X","pain","8","","76","L","3","","0","0","1","","0.2455858858","false","195","","0.3116310431","main_expt","","0.1862287394","","0.3508589263","","0.2455858858","","","","","",""
"91","","bandit","271","1085266","0.0-233.0-0.0","57325242","wem/bandit_single","A3H48TMCITL94X","pain","8","","76","L","3","","0","0","1","","0.2514601016","false","196","","0.3757707762","main_expt","","0.1892299528","","0.3580593089","","0.2514601016","","","","","",""
"116","","bandit","272","1087151","0.0-234.0-0.0","57325242","wem/bandit_single","A3H48TMCITL94X","pain","8","","76","L","3","","0","0","1","","0.2735270373","false","197","","0.3510132286","main_expt","","0.2217707201","","0.325214339","","0.2735270373","","","","","",""
"15","","bandit","273","1088939","0.0-235.0-0.0","57325242","wem/bandit_single","A3H48TMCITL94X","pain","8","","76","L","3","","0","0","1","","0.1856542716","false","198","","0.3775824693","main_expt","","0.2622368769","","0.3214736551","","0.1856542716","","","","","",""
"9","","bandit","274","1090720","0.0-236.0-0.0","57325242","wem/bandit_single","A3H48TMCITL94X","pain","8","","75","K","2","","0","1","0","","0.3134841864","false","199","","0.3591355879","main_expt","","0.2566369559","","0.3134841864","","0.1439471636","","","","","",""
"67","","bandit","275","1092562","0.0-237.0-0.0","57325242","wem/bandit_single","A3H48TMCITL94X","pain","8","","75","K","2","","0","1","0","","0.3484934822","false","200","","0.4329566742","main_expt","","0.2405232655","","0.3484934822","","0.1920673188","","","","","",""
"47","","bandit","276","1094387","0.0-238.0-0.0","57325242","wem/bandit_single","A3H48TMCITL94X","pain","8","","75","K","2","","0","0","1","","0.3509587021","false","201","","0.4316294991","main_expt","","0.191632201","","0.3509587021","","0.2139557707","","","","","",""
"36","","bandit","277","1096192","0.0-239.0-0.0","57325242","wem/bandit_single","A3H48TMCITL94X","pain","8","","75","K","2","","0","1","0","","0.3472711197","false","202","","0.4446061493","main_expt","","0.1860277461","","0.3472711197","","0.2411081829","","","","","",""
"83","","bandit","278","1098044","0.0-240.0-0.0","57325242","wem/bandit_single","A3H48TMCITL94X","pain","8","","75","K","2","","0","0","1","","0.3501901851","false","203","","0.4350640844","main_expt","","0.1959395152","","0.3501901851","","0.2229679022","","","","","",""
"36","","bandit","279","1099851","0.0-241.0-0.0","57325242","wem/bandit_single","A3H48TMCITL94X","pain","8","","75","K","2","","0","1","0","","0.4021923856","false","204","","0.4511953558","main_expt","","0.1909798814","","0.4021923856","","0.2094072873","","","","","",""
"93","","bandit","280","1101714","0.0-242.0-0.0","57325242","wem/bandit_single","A3H48TMCITL94X","pain","8","","75","K","2","","0","1","0","","0.4103624794","false","205","","0.4444608137","main_expt","","0.1952925147","","0.4103624794","","0.2061243076","","","","","",""
"67","","bandit","281","1103557","0.0-243.0-0.0","57325242","wem/bandit_single","A3H48TMCITL94X","pain","8","","75","K","2","","0","0","1","","0.3884407208","false","206","","0.4174874576","main_expt","","0.2333477628","","0.3884407208","","0.1830656651","","","","","",""
"126","","bandit","282","1105446","0.0-244.0-0.0","57325242","wem/bandit_single","A3H48TMCITL94X","pain","8","","75","K","2","","0","0","1","","0.4205181933","false","207","","0.4473837798","main_expt","","0.2366383375","","0.4205181933","","0.1806213093","","","","","",""
"66","","bandit","283","1107283","0.0-245.0-0.0","57325242","wem/bandit_single","A3H48TMCITL94X","pain","8","","75","K","2","","0","1","0","","0.39705837","false","208","","0.4423282801","main_expt","","0.2588239296","","0.39705837","","0.1547428587","","","","","",""
"25","","bandit","284","1109079","0.0-246.0-0.0","57325242","wem/bandit_single","A3H48TMCITL94X","pain","8","","75","K","2","","0","1","0","","0.3763678409","false","209","","0.4495798672","main_expt","","0.2109346514","","0.3763678409","","0.1633509089","","","","","",""
"2690","","bandit","285","1113540","0.0-247.0-0.0","57325242","wem/bandit_single","A3H48TMCITL94X","pain","8","","75","K","2","","0","0","1","","0.329669689","false","210","","0.4604116181","main_expt","","0.2352346414","","0.329669689","","0.194224154","","","","","",""
"2771","","bandit","286","1118079","0.0-248.0-0.0","57325242","wem/bandit_single","A3H48TMCITL94X","pain","8","","75","K","2","","0","1","0","","0.3234151823","false","211","","0.4515605979","main_expt","","0.1919095989","","0.3234151823","","0.1428536625","","","","","",""
"35","","bandit","287","1119888","0.0-249.0-0.0","57325242","wem/bandit_single","A3H48TMCITL94X","pain","8","","75","K","2","","0","1","0","","0.346289724","false","212","","0.3796359761","main_expt","","0.2511997366","","0.346289724","","0.1876263767","","","","","",""
"7","","bandit","288","1121668","0.0-250.0-0.0","57325242","wem/bandit_single","A3H48TMCITL94X","pain","8","","75","K","2","","0","0","1","","0.3579646626","false","213","","0.4098311692","main_expt","","0.2247602752","","0.3579646626","","0.1767426991","","","","","",""
"20","","bandit","289","1123465","0.0-251.0-0.0","57325242","wem/bandit_single","A3H48TMCITL94X","pain","8","","75","K","2","","0","0","1","","0.3871938136","false","214","","0.3758430492","main_expt","","0.2078026042","","0.3871938136","","0.1997003326","","","","","",""
"3165","","bandit","290","1128400","0.0-252.0-0.0","57325242","wem/bandit_single","A3H48TMCITL94X","pain","8","","75","K","2","","0","0","1","","0.4072701047","false","215","","0.3391734167","main_expt","","0.2000367883","","0.4072701047","","0.1753208105","","","","","",""
"238","","bandit","291","1130411","0.0-253.0-0.0","57325242","wem/bandit_single","A3H48TMCITL94X","pain","8","","75","K","2","","0","1","0","","0.4139997029","false","216","","0.3292806148","main_expt","","0.1850279066","","0.4139997029","","0.1526073348","","","","","",""
"392","","bandit","292","1132576","0.0-254.0-0.0","57325242","wem/bandit_single","A3H48TMCITL94X","pain","8","","75","K","2","","0","0","1","","0.4058129166","false","217","","0.3672552775","main_expt","","0.1862329662","","0.4058129166","","0.1885901152","","","","","",""
"18630","","bandit","293","1152979","0.0-255.0-0.0","57325242","wem/bandit_single","A3H48TMCITL94X","pain","8","","75","K","2","","0","0","1","","0.3831507141","false","218","","0.3540988412","main_expt","","0.2076422808","","0.3831507141","","0.2068683321","","","","","",""
"43","","bandit","294","1154795","0.0-256.0-0.0","57325242","wem/bandit_single","A3H48TMCITL94X","pain","8","","75","K","2","","0","1","0","","0.3975704748","false","219","","0.3705907093","main_expt","","0.1693095695","","0.3975704748","","0.1830460615","","","","","",""
"8338","","bandit","295","1164908","0.0-257.0-0.0","57325242","wem/bandit_single","A3H48TMCITL94X","pain","8","","75","K","2","","0","1","0","","0.420208779","false","220","","0.4071767116","main_expt","","0.1643321708","","0.420208779","","0.1510464272","","","","","",""
"1549","","bandit","296","1168229","0.0-258.0-0.0","57325242","wem/bandit_single","A3H48TMCITL94X","pain","8","","75","K","2","","0","0","1","","0.4277126104","false","221","","0.4000591573","main_expt","","0.1755642267","","0.4277126104","","0.1195154075","","","","","",""
"13","","bandit","297","1170016","0.0-259.0-0.0","57325242","wem/bandit_single","A3H48TMCITL94X","pain","8","","75","K","2","","0","0","1","","0.4098861052","false","222","","0.4257242725","main_expt","","0.2047466037","","0.4098861052","","0.1322821073","","","","","",""
"47","","bandit","298","1171837","0.0-260.0-0.0","57325242","wem/bandit_single","A3H48TMCITL94X","pain","8","","75","K","2","","0","0","1","","0.3865692481","false","223","","0.4084538547","main_expt","","0.1261696039","","0.3865692481","","0.1634864242","","","","","",""
"10","","bandit","299","1173618","0.0-261.0-0.0","57325242","wem/bandit_single","A3H48TMCITL94X","pain","8","","75","K","2","","0","1","0","","0.3942994903","false","224","","0.3756333804","main_expt","","0.1671605087","","0.3942994903","","0.1927622759","","","","","",""
"114","","bandit","300","1175504","0.0-262.0-0.0","57325242","wem/bandit_single","A3H48TMCITL94X","pain","8","","75","K","2","","0","0","1","","0.3444994861","false","225","","0.3977261909","main_expt","","0.1498322393","","0.3444994861","","0.1949177646","","","","","",""
"15","","bandit","301","1177292","0.0-263.0-0.0","57325242","wem/bandit_single","A3H48TMCITL94X","pain","8","","75","K","2","","0","1","0","","0.4042132592","false","226","","0.3876796808","main_expt","","0.106170416","","0.4042132592","","0.1675301724","","","","","",""
"27","","bandit","302","1179091","0.0-264.0-0.0","57325242","wem/bandit_single","A3H48TMCITL94X","pain","8","","75","K","2","","0","0","1","","0.3906229402","false","227","","0.3213858912","main_expt","","0.0897934899","","0.3906229402","","0.163375113","","","","","",""
"42","","bandit","303","1180906","0.0-265.0-0.0","57325242","wem/bandit_single","A3H48TMCITL94X","pain","8","","75","K","2","","0","0","1","","0.3417164876","false","228","","0.3331191915","main_expt","","0.09443294629","","0.3417164876","","0.195474145","","","","","",""
"37","","bandit","304","1182715","0.0-266.0-0.0","57325242","wem/bandit_single","A3H48TMCITL94X","pain","8","","75","K","2","","0","0","1","","0.3222205624","false","229","","0.308496805","main_expt","","0.0848669953","","0.3222205624","","0.2410354958","","","","","",""
"32","","bandit","305","1184520","0.0-267.0-0.0","57325242","wem/bandit_single","A3H48TMCITL94X","pain","8","","75","K","2","","0","0","1","","0.3442672336","false","230","","0.2734654059","main_expt","","0.0701458292","","0.3442672336","","0.2567648542","","","","","",""
"14","","bandit","306","1186298","0.0-268.0-0.0","57325242","wem/bandit_single","A3H48TMCITL94X","pain","8","","76","L","3","","0","0","1","","0.2304241664","false","231","","0.292212981","main_expt","","0.1251282835","","0.3164459362","","0.2304241664","","","","","",""
"13","","bandit","307","1188086","0.0-269.0-0.0","57325242","wem/bandit_single","A3H48TMCITL94X","pain","8","","75","K","2","","0","0","1","","0.3396906789","false","232","","0.2516656152","main_expt","","0.1124912266","","0.3396906789","","0.2264886823","","","","","",""
"86","","bandit","308","1189943","0.0-270.0-0.0","57325242","wem/bandit_single","A3H48TMCITL94X","pain","8","","75","K","2","","0","0","1","","0.3008540409","false","233","","0.2563877418","main_expt","","0.1535494164","","0.3008540409","","0.1892320941","","","","","",""
"135","","bandit","309","1191850","0.0-271.0-0.0","57325242","wem/bandit_single","A3H48TMCITL94X","pain","8","","72","H","0","img/none_selected.jpg","0","0","1","","0.283882603","false","234","","0.283882603","main_expt","","0.1389628654","","0.2767988229","","0.1556895318","","","","","",""
"156","","bandit","310","1193783","0.0-272.0-0.0","57325242","wem/bandit_single","A3H48TMCITL94X","pain","8","","74","J","1","","0","0","1","","0.1680793718","false","235","","0.2758852766","main_expt","","0.1680793718","","0.2507781603","","0.1976044491","","","","","",""
"34","","bandit","311","1195589","0.0-273.0-0.0","57325242","wem/bandit_single","A3H48TMCITL94X","pain","8","","72","H","0","img/none_selected.jpg","0","0","1","","0.2434452049","false","236","","0.2434452049","main_expt","","0.2037097706","","0.3091667607","","0.1468950029","","","","","",""
"182","","bandit","312","1197546","0.0-274.0-0.0","57325242","wem/bandit_single","A3H48TMCITL94X","pain","8","","75","K","2","","0","0","1","","0.2883211118","false","237","","0.2405517979","main_expt","","0.1897176974","","0.2883211118","","0.1365515699","","","","","",""
"710","","bandit","313","1200032","0.0-275.0-0.0","57325242","wem/bandit_single","A3H48TMCITL94X","pain","8","","74","J","1","","0","0","1","","0.2317710791","false","238","","0.2260832521","main_expt","","0.2317710791","","0.2756444762","","0.1527077476","","","","","",""
"42","","bandit","314","1201841","0.0-276.0-0.0","57325242","wem/bandit_single","A3H48TMCITL94X","pain","8","","74","J","1","","0","0","1","","0.2206906913","false","239","","0.2061693665","main_expt","","0.2206906913","","0.3061346513","","0.1315224722","","","","","",""
"254","","bandit","315","1203871","0.0-277.0-0.0","57325242","wem/bandit_single","A3H48TMCITL94X","pain","8","","72","H","0","img/none_selected.jpg","0","0","1","","0.2203195159","false","240","","0.2203195159","main_expt","","0.2155283076","","0.3274201615","","0.1398926963","","","","","",""
"1054","","bandit","316","1206699","0.0-278.0-0.0","57325242","wem/bandit_single","A3H48TMCITL94X","pain","8","","72","H","0","img/none_selected.jpg","0","1","0","","0.2230507071","false","241","","0.2230507071","main_expt","","0.2386015387","","0.2838770346","","0.1698873683","","","","","",""
"32","","bandit","317","1208505","0.0-279.0-0.0","57325242","wem/bandit_single","A3H48TMCITL94X","pain","8","","72","H","0","img/none_selected.jpg","0","0","1","","0.1834748297","false","242","","0.1834748297","main_expt","","0.2178179326","","0.261873528","","0.1693915972","","","","","",""
"55","","bandit","318","1210332","0.0-280.0-0.0","57325242","wem/bandit_single","A3H48TMCITL94X","pain","8","","72","H","0","img/none_selected.jpg","0","0","1","","0.1450766806","false","243","","0.1450766806","main_expt","","0.2209910316","","0.2346518895","","0.2011280514","","","","","",""
"72","","bandit","319","1212179","0.0-281.0-0.0","57325242","wem/bandit_single","A3H48TMCITL94X","pain","8","","72","H","0","img/none_selected.jpg","0","0","1","","0.1407015906","false","244","","0.1407015906","main_expt","","0.2202366047","","0.2253303202","","0.283074141","","","","","",""
"23","","bandit","320","1213976","0.0-282.0-0.0","57325242","wem/bandit_single","A3H48TMCITL94X","pain","8","","76","L","3","","0","0","1","","0.2960363525","false","245","","0.1386250556","main_expt","","0.2369425358","","0.2379184421","","0.2960363525","","","","","",""
"87","","bandit","321","1215839","0.0-283.0-0.0","57325242","wem/bandit_single","A3H48TMCITL94X","pain","8","","76","L","3","","0","0","1","","0.2985154159","false","246","","0.1561911267","main_expt","","0.2437218948","","0.1704118475","","0.2985154159","","","","","",""
"34","","bandit","322","1217650","0.0-284.0-0.0","57325242","wem/bandit_single","A3H48TMCITL94X","pain","8","","76","L","3","","0","0","1","","0.3159682012","false","247","","0.251644506","main_expt","","0.2573167276","","0.1520093858","","0.3159682012","","","","","",""
"372","","bandit","323","1219793","0.0-285.0-0.0","57325242","wem/bandit_single","A3H48TMCITL94X","pain","8","","75","K","2","","0","0","1","","0.1246217458","false","248","","0.2541276422","main_expt","","0.255349996","","0.1246217458","","0.2937445921","","","","","",""
"102","","bandit","324","1221671","0.0-286.0-0.0","57325242","wem/bandit_single","A3H48TMCITL94X","pain","8","","75","K","2","","0","1","0","","0.1525969556","false","249","","0.1924412691","main_expt","","0.2866877344","","0.1525969556","","0.2794909668","","","","","",""
"107","","bandit","325","1223553","0.0-287.0-0.0","57325242","wem/bandit_single","A3H48TMCITL94X","pain","8","","75","K","2","","0","0","1","","0.1500628479","false","250","","0.1397358892","main_expt","","0.2330780591","","0.1500628479","","0.2327966623","","","","","",""
"12214","","bandit","326","1237535","0.0-288.0-0.0","57325242","wem/bandit_single","A3H48TMCITL94X","pain","8","","75","K","2","","0","0","1","","0.1141396938","false","251","","0.1362233376","main_expt","","0.2580196572","","0.1141396938","","0.2595602212","","","","","",""
"353","","bandit","327","1239665","0.0-289.0-0.0","57325242","wem/bandit_single","A3H48TMCITL94X","pain","8","","75","K","2","","0","0","1","","0.1476089834","false","252","","0.1796418735","main_expt","","0.2003146692","","0.1476089834","","0.2715763176","","","","","",""
"132","","bandit","328","1241571","0.0-290.0-0.0","57325242","wem/bandit_single","A3H48TMCITL94X","pain","8","","75","K","2","","0","0","1","","0.175183139","false","253","","0.1833608075","main_expt","","0.1651092288","","0.175183139","","0.3146654463","","","","","",""
"184","","bandit","329","1243531","0.0-291.0-0.0","57325242","wem/bandit_single","A3H48TMCITL94X","pain","8","","76","L","3","","0","0","1","","0.3037610447","false","254","","0.1983034343","main_expt","","0.1413675546","","0.1916323123","","0.3037610447","","","","","",""
"1527","","bandit","330","1246828","0.0-292.0-0.0","57325242","wem/bandit_single","A3H48TMCITL94X","pain","8","","74","J","1","","0","0","1","","0.1801919014","false","255","","0.2286544637","main_expt","","0.1801919014","","0.1888714334","","0.287825992","","","","","",""
"9","","bandit","331","1248613","0.0-293.0-0.0","57325242","wem/bandit_single","A3H48TMCITL94X","pain","8","","72","H","0","img/none_selected.jpg","0","1","0","","0.2502735072","false","256","","0.2502735072","main_expt","","0.1883387327","","0.2338577058","","0.2673332977","","","","","",""
"9","","bandit","332","1250396","0.0-294.0-0.0","57325242","wem/bandit_single","A3H48TMCITL94X","pain","8","","72","H","0","img/none_selected.jpg","0","1","0","","0.2657937058","false","257","","0.2657937058","main_expt","","0.1757220287","","0.2235288738","","0.2867614738","","","","","",""
"49","","bandit","333","1252226","0.0-295.0-0.0","57325242","wem/bandit_single","A3H48TMCITL94X","pain","8","","72","H","0","img/none_selected.jpg","0","0","1","","0.2326681124","false","258","","0.2326681124","main_expt","","0.1817694486","","0.2256298632","","0.2432485896","","","","","",""
"363","","bandit","334","1254363","0.0-296.0-0.0","57325242","wem/bandit_single","A3H48TMCITL94X","pain","8","","72","H","0","img/none_selected.jpg","0","0","1","","0.2128848171","false","259","","0.2128848171","main_expt","","0.1938363466","","0.229367941","","0.2433124215","","","","","",""
"36","","bandit","335","1256173","0.0-297.0-0.0","57325242","wem/bandit_single","A3H48TMCITL94X","pain","8","","72","H","0","img/none_selected.jpg","0","1","0","","0.261065439","false","260","","0.261065439","main_expt","","0.2129025296","","0.2585863351","","0.202057327","","","","","",""
"27","","bandit","336","1257973","0.0-298.0-0.0","57325242","wem/bandit_single","A3H48TMCITL94X","pain","8","","72","H","0","img/none_selected.jpg","0","0","1","","0.2693274395","false","261","","0.2693274395","main_expt","","0.1931457884","","0.2748644017","","0.163702413","","","","","",""
"40","","bandit","337","1259788","0.0-299.0-0.0","57325242","wem/bandit_single","A3H48TMCITL94X","pain","8","","72","H","0","img/none_selected.jpg","0","1","0","","0.3386888623","false","262","","0.3386888623","main_expt","","0.183306516","","0.288340978","","0.1317961998","","","","","",""
"357","","bandit","338","1261917","0.0-300.0-0.0","57325242","wem/bandit_single","A3H48TMCITL94X","pain","8","","72","H","0","img/none_selected.jpg","0","0","1","","0.3645909238","false","263","","0.3645909238","main_expt","","0.1293037787","","0.3151532186","","0.09680570831","","","","","",""
"90","","bandit","339","1263783","0.0-301.0-0.0","57325242","wem/bandit_single","A3H48TMCITL94X","pain","8","","72","H","0","img/none_selected.jpg","0","0","1","","0.3437159196","false","264","","0.3437159196","main_expt","","0.1386072774","","0.2931268787","","0.08846786375","","","","","",""
"223","","bandit","340","1265781","0.0-302.0-0.0","57325242","wem/bandit_single","A3H48TMCITL94X","pain","8","","72","H","0","img/none_selected.jpg","0","1","0","","0.3644358952","false","265","","0.3644358952","main_expt","","0.1511252148","","0.3131275506","","0.08556864258","","","","","",""
"345","","bandit","341","1267902","0.0-303.0-0.0","57325242","wem/bandit_single","A3H48TMCITL94X","pain","8","","72","H","0","img/none_selected.jpg","0","0","1","","0.3904852039","false","266","","0.3904852039","main_expt","","0.2186772706","","0.336523231","","0.0706515048","","","","","",""
"63","","bandit","342","1269739","0.0-304.0-0.0","57325242","wem/bandit_single","A3H48TMCITL94X","pain","8","","72","H","0","img/none_selected.jpg","0","0","1","","0.3896615427","false","267","","0.3896615427","main_expt","","0.2625163009","","0.2850369317","","0.0747424838","","","","","",""
"328","","bandit","343","1271838","0.0-305.0-0.0","57325242","wem/bandit_single","A3H48TMCITL94X","pain","8","","72","H","0","img/none_selected.jpg","0","1","0","","0.4017278216","false","268","","0.4017278216","main_expt","","0.3140442454","","0.3163307124","","0.112617448","","","","","",""
"79","","bandit","344","1273680","0.0-306.0-0.0","57325242","wem/bandit_single","A3H48TMCITL94X","pain","8","","72","H","0","img/none_selected.jpg","0","0","1","","0.370996795","false","269","","0.370996795","main_expt","","0.3069084364","","0.2956683275","","0.1406639307","","","","","",""
"45","","bandit","345","1275500","0.0-307.0-0.0","57325242","wem/bandit_single","A3H48TMCITL94X","pain","8","","72","H","0","img/none_selected.jpg","0","1","0","","0.4255483526","false","270","","0.4255483526","main_expt","","0.2814908846","","0.3574655381","","0.1398727949","","","","","",""
"429","","bandit","346","1277705","0.0-308.0-0.0","57325242","wem/bandit_single","A3H48TMCITL94X","pain","8","","72","H","0","img/none_selected.jpg","0","0","1","","0.3948114384","false","271","","0.3948114384","main_expt","","0.3060786573","","0.3969117111","","0.1430486157","","","","","",""
"108","","bandit","347","1279590","0.0-309.0-0.0","57325242","wem/bandit_single","A3H48TMCITL94X","pain","8","","72","H","0","img/none_selected.jpg","0","0","1","","0.3713372483","false","272","","0.3713372483","main_expt","","0.3555003363","","0.3938657786","","0.1872928851","","","","","",""
"966","","bandit","348","1282335","0.0-310.0-0.0","57325242","wem/bandit_single","A3H48TMCITL94X","pain","8","","72","H","0","img/none_selected.jpg","0","1","0","","0.3650537767","false","273","","0.3650537767","main_expt","","0.3980140183","","0.3903330825","","0.1769074474","","","","","",""
"597","","bandit","349","1284707","0.0-311.0-0.0","57325242","wem/bandit_single","A3H48TMCITL94X","pain","8","","72","H","0","img/none_selected.jpg","0","0","1","","0.3414565802","false","274","","0.3414565802","main_expt","","0.4077181827","","0.4236793781","","0.1820324592","","","","","",""
"147","","bandit","350","1286631","0.0-312.0-0.0","57325242","wem/bandit_single","A3H48TMCITL94X","pain","8","","72","H","0","img/none_selected.jpg","0","0","1","","0.3027622838","false","275","","0.3027622838","main_expt","","0.4142369189","","0.4320968281","","0.1923133529","","","","","",""
"65","","bandit","351","1288464","0.0-313.0-0.0","57325242","wem/bandit_single","A3H48TMCITL94X","pain","8","","72","H","0","img/none_selected.jpg","0","0","1","","0.3125082267","false","276","","0.3125082267","main_expt","","0.4250096067","","0.4017915655","","0.1917589367","","","","","",""
"176","","bandit","352","1290411","0.0-314.0-0.0","57325242","wem/bandit_single","A3H48TMCITL94X","pain","8","","72","H","0","img/none_selected.jpg","0","0","1","","0.348890663","false","277","","0.348890663","main_expt","","0.4378988515","","0.3548215972","","0.1667093518","","","","","",""
"74","","bandit","353","1292260","0.0-315.0-0.0","57325242","wem/bandit_single","A3H48TMCITL94X","pain","8","","72","H","0","img/none_selected.jpg","0","0","1","","0.3341457036","false","278","","0.3341457036","main_expt","","0.4323676568","","0.3683165275","","0.1695638059","","","","","",""
"94","","bandit","354","1294128","0.0-316.0-0.0","57325242","wem/bandit_single","A3H48TMCITL94X","pain","8","","72","H","0","img/none_selected.jpg","0","0","1","","0.2341959149","false","279","","0.2341959149","main_expt","","0.4391545144","","0.3750953637","","0.1696283439","","","","","",""
"128","","bandit","355","1296032","0.0-317.0-0.0","57325242","wem/bandit_single","A3H48TMCITL94X","pain","8","","76","L","3","","0","0","1","","0.09227733008","false","280","","0.1839622844","main_expt","","0.4467207207","","0.3557095414","","0.09227733008","","","","","",""
"67","","bandit","356","1297876","0.0-318.0-0.0","57325242","wem/bandit_single","A3H48TMCITL94X","pain","8","","75","K","2","","0","0","1","","0.374333358","false","281","","0.1303375237","main_expt","","0.3922333676","","0.374333358","","0.08059064446","","","","","",""
"43","","bandit","357","1299696","0.0-319.0-0.0","57325242","wem/bandit_single","A3H48TMCITL94X","pain","8","","74","J","1","","0","0","1","","0.4243132136","false","282","","0.07449941097","main_expt","","0.4243132136","","0.3786855632","","0.06236597977","","","","","",""
"106","","bandit","358","1301577","0.0-320.0-0.0","57325242","wem/bandit_single","A3H48TMCITL94X","pain","8","","76","L","3","","0","0","1","","0.07782340279","false","283","","0.08783129911","main_expt","","0.4187362854","","0.437514669","","0.07782340279","","","","","",""
"41","","bandit","359","1303397","0.0-321.0-0.0","57325242","wem/bandit_single","A3H48TMCITL94X","pain","8","","76","L","3","","0","0","1","","0.07564660971","false","284","","0.08228152097","main_expt","","0.422543139","","0.410198323","","0.07564660971","","","","","",""
"47","","bandit","360","1305218","0.0-322.0-0.0","57325242","wem/bandit_single","A3H48TMCITL94X","pain","8","","75","K","2","","0","0","1","","0.3777139522","false","285","","0.09246744832","main_expt","","0.434302279","","0.3777139522","","0.08237135124","","","","","",""
"27","","bandit","361","1307019","0.0-323.0-0.0","57325242","wem/bandit_single","A3H48TMCITL94X","pain","8","","75","K","2","","0","1","0","","0.3841171753","false","286","","0.08394792075","main_expt","","0.4094725029","","0.3841171753","","0.05670298638","","","","","",""
"146","","bandit","362","1308941","0.0-324.0-0.0","57325242","wem/bandit_single","A3H48TMCITL94X","pain","8","","75","K","2","","0","1","0","","0.3641862554","false","287","","0.1021913287","main_expt","","0.3778080042","","0.3641862554","","0.06647452785","","","","","",""
"49","","bandit","363","1310771","0.0-325.0-0.0","57325242","wem/bandit_single","A3H48TMCITL94X","pain","8","","75","K","2","","0","0","1","","0.3192590496","false","288","","0.1188664616","main_expt","","0.3671495563","","0.3192590496","","0.04859701272","","","","","",""
"4","","bandit","364","1312559","0.0-326.0-0.0","57325242","wem/bandit_single","A3H48TMCITL94X","pain","8","","75","K","2","","0","0","1","","0.3384054944","false","289","","0.1050513492","main_expt","","0.3622055636","","0.3384054944","","0.04246321062","","","","","",""
"227","","bandit","365","1314558","0.0-327.0-0.0","57325242","wem/bandit_single","A3H48TMCITL94X","pain","8","","75","K","2","","0","0","1","","0.329366118","false","290","","0.1304324694","main_expt","","0.3616647964","","0.329366118","","0.08307379137","","","","","",""
"28","","bandit","366","1316359","0.0-328.0-0.0","57325242","wem/bandit_single","A3H48TMCITL94X","pain","8","","75","K","2","","0","0","1","","0.38061917","false","291","","0.09707891459","main_expt","","0.3521760992","","0.38061917","","0.09664054691","","","","","",""
"0","","bandit","367","1318135","0.0-329.0-0.0","57325242","wem/bandit_single","A3H48TMCITL94X","pain","8","","75","K","2","","0","1","0","","0.3703624541","false","292","","0.1166693976","main_expt","","0.3062989856","","0.3703624541","","0.1089287446","","","","","",""
"17","","bandit","368","1319929","0.0-330.0-0.0","57325242","wem/bandit_single","A3H48TMCITL94X","pain","8","","75","K","2","","0","0","1","","0.3554666564","false","293","","0.1448282665","main_expt","","0.2594623792","","0.3554666564","","0.1426967363","","","","","",""
"387","","bandit","369","1322093","0.0-331.0-0.0","57325242","wem/bandit_single","A3H48TMCITL94X","pain","8","","75","K","2","","0","1","0","","0.3976604504","false","294","","0.1486412875","main_expt","","0.2666401727","","0.3976604504","","0.08295656842","","","","","",""
"12","","bandit","370","1323891","0.0-332.0-0.0","57325242","wem/bandit_single","A3H48TMCITL94X","pain","8","","75","K","2","","0","1","0","","0.3567340825","false","295","","0.1266024918","main_expt","","0.2160621863","","0.3567340825","","0.07441347029","","","","","",""
"336","","bandit","371","1326004","0.0-333.0-0.0","57325242","wem/bandit_single","A3H48TMCITL94X","pain","8","","75","K","2","","0","0","1","","0.3802278382","false","296","","0.1499702932","main_expt","","0.1924669582","","0.3802278382","","0.08167080543","","","","","",""
"19","","bandit","372","1327800","0.0-334.0-0.0","57325242","wem/bandit_single","A3H48TMCITL94X","pain","8","","75","K","2","","0","1","0","","0.3764104085","false","297","","0.1124444021","main_expt","","0.2572135825","","0.3764104085","","0.06721412472","","","","","",""
"113","","bandit","373","1329689","0.0-335.0-0.0","57325242","wem/bandit_single","A3H48TMCITL94X","pain","8","","75","K","2","","0","1","0","","0.3801851674","false","298","","0.122133656","main_expt","","0.2660288188","","0.3801851674","","0.1106754059","","","","","",""
"102","","bandit","374","1331567","0.0-336.0-0.0","57325242","wem/bandit_single","A3H48TMCITL94X","pain","8","","75","K","2","","0","0","1","","0.37372938","false","299","","0.1064281731","main_expt","","0.2708303459","","0.37372938","","0.146580741","","","","","",""
