"rt","responses","trial_type","trial_index","time_elapsed","internal_node_id","subjID","study","MID","cond","drift","key_press","respCharCode","respKey","respChoiceNum","respChoice","gems","bombs","no_reward","GemPrChosen","BombPrChosen","practice","trial_counter","WinPr_0","LosePr_0","trial_label","WinPr_1","LosePr_1","WinPr_2","LosePr_2","WinPr_3","LosePr_3","Q0","Q1","Q2","gender","age","ethnicity"
"11059","{""Q0"":""AOGT0KZDUX8CC""}","survey-text","0","11069","0.0-0.0","60040703","wem/bandit_single","AOGT0KZDUX8CC","gain","2","","","","","","","","","","","","","","","","","","","","","","","","","","",""
"3723","","text","1","15800","0.0-1.0","60040703","wem/bandit_single","AOGT0KZDUX8CC","gain","2","32","","","","","","","","","","","","","","","","","","","","","","","","","",""
"1295","","text","2","17098","0.0-2.0","60040703","wem/bandit_single","AOGT0KZDUX8CC","gain","2","32","","","","","","","","","","","","","","","","","","","","","","","","","",""
"7123","","text","3","24223","0.0-3.0","60040703","wem/bandit_single","AOGT0KZDUX8CC","gain","2","32","","","","","","","","","","","","","","","","","","","","","","","","","",""
"6352","","text","4","30576","0.0-4.0","60040703","wem/bandit_single","AOGT0KZDUX8CC","gain","2","32","","","","","","","","","","","","","","","","","","","","","","","","","",""
"2516","","text","5","33094","0.0-5.0","60040703","wem/bandit_single","AOGT0KZDUX8CC","gain","2","32","","","","","","","","","","","","","","","","","","","","","","","","","",""
"2744","","text","6","35839","0.0-6.0","60040703","wem/bandit_single","AOGT0KZDUX8CC","gain","2","32","","","","","","","","","","","","","","","","","","","","","","","","","",""
"1775","","text","7","37617","0.0-7.0","60040703","wem/bandit_single","AOGT0KZDUX8CC","gain","2","32","","","","","","","","","","","","","","","","","","","","","","","","","",""
"2589","","text","8","40209","0.0-8.0","60040703","wem/bandit_single","AOGT0KZDUX8CC","gain","2","32","","","","","","","","","","","","","","","","","","","","","","","","","",""
"2340","","text","9","42552","0.0-9.0","60040703","wem/bandit_single","AOGT0KZDUX8CC","gain","2","32","","","","","","","","","","","","","","","","","","","","","","","","","",""
"957","","text","10","43510","0.0-10.0","60040703","wem/bandit_single","AOGT0KZDUX8CC","gain","2","32","","","","","","","","","","","","","","","","","","","","","","","","","",""
"2192","","text","11","45704","0.0-11.0","60040703","wem/bandit_single","AOGT0KZDUX8CC","gain","2","32","","","","","","","","","","","","","","","","","","","","","","","","","",""
"1737","","bandit","12","48956","0.0-12.0-0.0","60040703","wem/bandit_single","AOGT0KZDUX8CC","gain","2","","74","J","0","img/none_selected_demo.jpg","0","0","1","0","0","true","0","0","0","","","","","","","","","","","","",""
"380","","bandit","13","51092","0.0-13.0-0.0","60040703","wem/bandit_single","AOGT0KZDUX8CC","gain","2","","75","K","0","img/none_selected_demo.jpg","0","0","1","0","0","true","0","0","0","","","","","","","","","","","","",""
"2016","","text","14","53361","0.0-14.0","60040703","wem/bandit_single","AOGT0KZDUX8CC","gain","2","32","","","","","","","","","","","","","","","","","","","","","","","","","",""
"621","","text","15","53983","0.0-15.0","60040703","wem/bandit_single","AOGT0KZDUX8CC","gain","2","32","","","","","","","","","","","","","","","","","","","","","","","","","",""
"2319","","text","16","56304","0.0-16.0","60040703","wem/bandit_single","AOGT0KZDUX8CC","gain","2","32","","","","","","","","","","","","","","","","","","","","","","","","","",""
"1254","","text","17","57560","0.0-17.0","60040703","wem/bandit_single","AOGT0KZDUX8CC","gain","2","32","","","","","","","","","","","","","","","","","","","","","","","","","",""
"682","","bandit","18","59751","0.0-18.0-0.0","60040703","wem/bandit_single","AOGT0KZDUX8CC","gain","2","","75","K","1","","0","0","1","0.2","0","true","0","0.8","0","80_20_practice","0.2","0","","","","","","","","","",""
"332","","bandit","19","61837","0.0-18.0-1.0","60040703","wem/bandit_single","AOGT0KZDUX8CC","gain","2","","75","K","1","","0","0","1","0.2","0","true","0","0.8","0","80_20_practice","0.2","0","","","","","","","","","",""
"13","","bandit","20","63615","0.0-18.0-2.0","60040703","wem/bandit_single","AOGT0KZDUX8CC","gain","2","","74","J","0","img/none_selected_demo.jpg","1","0","0","0.8","0","true","0","0.8","0","80_20_practice","0.2","0","","","","","","","","","",""
"50","","bandit","21","65492","0.0-18.0-3.0","60040703","wem/bandit_single","AOGT0KZDUX8CC","gain","2","","74","J","0","img/none_selected_demo.jpg","1","0","0","0.8","0","true","0","0.8","0","80_20_practice","0.2","0","","","","","","","","","",""
"38","","bandit","22","67287","0.0-18.0-4.0","60040703","wem/bandit_single","AOGT0KZDUX8CC","gain","2","","74","J","0","img/none_selected_demo.jpg","1","0","0","0.8","0","true","0","0.8","0","80_20_practice","0.2","0","","","","","","","","","",""
"173","","bandit","23","69224","0.0-18.0-5.0","60040703","wem/bandit_single","AOGT0KZDUX8CC","gain","2","","74","J","0","img/none_selected_demo.jpg","1","0","0","0.8","0","true","0","0.8","0","80_20_practice","0.2","0","","","","","","","","","",""
"40","","bandit","24","71023","0.0-18.0-6.0","60040703","wem/bandit_single","AOGT0KZDUX8CC","gain","2","","74","J","0","img/none_selected_demo.jpg","1","0","0","0.8","0","true","0","0.8","0","80_20_practice","0.2","0","","","","","","","","","",""
"331","","bandit","25","73113","0.0-18.0-7.0","60040703","wem/bandit_single","AOGT0KZDUX8CC","gain","2","","74","J","0","img/none_selected_demo.jpg","0","0","1","0.8","0","true","0","0.8","0","80_20_practice","0.2","0","","","","","","","","","",""
"89","","bandit","26","74961","0.0-18.0-8.0","60040703","wem/bandit_single","AOGT0KZDUX8CC","gain","2","","74","J","0","img/none_selected_demo.jpg","0","0","1","0.8","0","true","0","0.8","0","80_20_practice","0.2","0","","","","","","","","","",""
"808","","bandit","27","77526","0.0-18.0-9.0","60040703","wem/bandit_single","AOGT0KZDUX8CC","gain","2","","74","J","0","img/none_selected_demo.jpg","1","0","0","0.8","0","true","0","0.8","0","80_20_practice","0.2","0","","","","","","","","","",""
"275","","bandit","28","79559","0.0-18.0-10.0","60040703","wem/bandit_single","AOGT0KZDUX8CC","gain","2","","74","J","0","img/none_selected_demo.jpg","0","0","1","0.8","0","true","0","0.8","0","80_20_practice","0.2","0","","","","","","","","","",""
"6154","","bandit","29","87472","0.0-18.0-11.0","60040703","wem/bandit_single","AOGT0KZDUX8CC","gain","2","","74","J","0","img/none_selected_demo.jpg","1","0","0","0.8","0","true","0","0.8","0","80_20_practice","0.2","0","","","","","","","","","",""
"118","","bandit","30","89350","0.0-18.0-12.0","60040703","wem/bandit_single","AOGT0KZDUX8CC","gain","2","","74","J","0","img/none_selected_demo.jpg","1","0","0","0.8","0","true","0","0.8","0","80_20_practice","0.2","0","","","","","","","","","",""
"3256","","bandit","31","94398","0.0-18.0-13.0","60040703","wem/bandit_single","AOGT0KZDUX8CC","gain","2","","74","J","0","img/none_selected_demo.jpg","1","0","0","0.8","0","true","0","0.8","0","80_20_practice","0.2","0","","","","","","","","","",""
"17","","bandit","32","96176","0.0-18.0-14.0","60040703","wem/bandit_single","AOGT0KZDUX8CC","gain","2","","74","J","0","img/none_selected_demo.jpg","1","0","0","0.8","0","true","0","0.8","0","80_20_practice","0.2","0","","","","","","","","","",""
"33","","bandit","33","97966","0.0-18.0-15.0","60040703","wem/bandit_single","AOGT0KZDUX8CC","gain","2","","74","J","0","img/none_selected_demo.jpg","1","0","0","0.8","0","true","0","0.8","0","80_20_practice","0.2","0","","","","","","","","","",""
"24","","bandit","34","101926","0.0-18.0-16.0","60040703","wem/bandit_single","AOGT0KZDUX8CC","gain","2","","74","J","0","img/none_selected_demo.jpg","0","0","1","0.8","0","true","0","0.8","0","80_20_practice","0.2","0","","","","","","","","","",""
"538","","bandit","35","104223","0.0-18.0-17.0","60040703","wem/bandit_single","AOGT0KZDUX8CC","gain","2","","74","J","0","img/none_selected_demo.jpg","1","0","0","0.8","0","true","0","0.8","0","80_20_practice","0.2","0","","","","","","","","","",""
"145","","bandit","36","106126","0.0-18.0-18.0","60040703","wem/bandit_single","AOGT0KZDUX8CC","gain","2","","74","J","0","img/none_selected_demo.jpg","1","0","0","0.8","0","true","0","0.8","0","80_20_practice","0.2","0","","","","","","","","","",""
"306","","bandit","37","108192","0.0-18.0-19.0","60040703","wem/bandit_single","AOGT0KZDUX8CC","gain","2","","74","J","0","img/none_selected_demo.jpg","1","0","0","0.8","0","true","0","0.8","0","80_20_practice","0.2","0","","","","","","","","","",""
"7124","","text","38","115572","0.0-19.0","60040703","wem/bandit_single","AOGT0KZDUX8CC","gain","2","32","","","","","","","","","","","","","","","","","","","","","","","","","",""
"1328","","bandit","39","118409","0.0-20.0-0.0","60040703","wem/bandit_single","AOGT0KZDUX8CC","gain","2","","74","J","0","img/none_selected_demo.jpg","0","0","1","0","0","true","0","0","0","","0","0","","","","","","","","","",""
"2097","","text","40","120759","0.0-21.0","60040703","wem/bandit_single","AOGT0KZDUX8CC","gain","2","32","","","","","","","","","","","","","","","","","","","","","","","","","",""
"1478","","text","41","122239","0.0-22.0","60040703","wem/bandit_single","AOGT0KZDUX8CC","gain","2","32","","","","","","","","","","","","","","","","","","","","","","","","","",""
"1965","","text","42","124207","0.0-23.0","60040703","wem/bandit_single","AOGT0KZDUX8CC","gain","2","32","","","","","","","","","","","","","","","","","","","","","","","","","",""
"1717","","text","43","125927","0.0-24.0","60040703","wem/bandit_single","AOGT0KZDUX8CC","gain","2","32","","","","","","","","","","","","","","","","","","","","","","","","","",""
"4352","","text","44","130280","0.0-25.0","60040703","wem/bandit_single","AOGT0KZDUX8CC","gain","2","32","","","","","","","","","","","","","","","","","","","","","","","","","",""
"1619","","text","45","131903","0.0-26.0","60040703","wem/bandit_single","AOGT0KZDUX8CC","gain","2","32","","","","","","","","","","","","","","","","","","","","","","","","","",""
"2997","","text","46","134903","0.0-27.0","60040703","wem/bandit_single","AOGT0KZDUX8CC","gain","2","32","","","","","","","","","","","","","","","","","","","","","","","","","",""
"1695","","text","47","136602","0.0-28.0","60040703","wem/bandit_single","AOGT0KZDUX8CC","gain","2","32","","","","","","","","","","","","","","","","","","","","","","","","","",""
"2711","","text","48","139319","0.0-29.0","60040703","wem/bandit_single","AOGT0KZDUX8CC","gain","2","32","","","","","","","","","","","","","","","","","","","","","","","","","",""
"1741","","text","49","141064","0.0-30.0","60040703","wem/bandit_single","AOGT0KZDUX8CC","gain","2","32","","","","","","","","","","","","","","","","","","","","","","","","","",""
"3764","","text","50","144831","0.0-31.0","60040703","wem/bandit_single","AOGT0KZDUX8CC","gain","2","32","","","","","","","","","","","","","","","","","","","","","","","","","",""
"756","","bandit","51","147094","0.0-32.0-0.0","60040703","wem/bandit_single","AOGT0KZDUX8CC","gain","2","","72","H","0","img/none_selected.jpg","1","0","0","0.8","0","true","0","0.8","0","full_practice","0.2","0","0.6","0","0.2","0","","","","","",""
"235","","bandit","52","149086","0.0-32.0-1.0","60040703","wem/bandit_single","AOGT0KZDUX8CC","gain","2","","72","H","0","img/none_selected.jpg","1","0","0","0.8","0","true","0","0.8","0","full_practice","0.2","0","0.6","0","0.2","0","","","","","",""
"280","","bandit","53","151126","0.0-32.0-2.0","60040703","wem/bandit_single","AOGT0KZDUX8CC","gain","2","","72","H","0","img/none_selected.jpg","1","0","0","0.8","0","true","0","0.8","0","full_practice","0.2","0","0.6","0","0.2","0","","","","","",""
"56","","bandit","54","152943","0.0-32.0-3.0","60040703","wem/bandit_single","AOGT0KZDUX8CC","gain","2","","72","H","0","img/none_selected.jpg","1","0","0","0.8","0","true","0","0.8","0","full_practice","0.2","0","0.6","0","0.2","0","","","","","",""
"516","","bandit","55","155224","0.0-32.0-4.0","60040703","wem/bandit_single","AOGT0KZDUX8CC","gain","2","","72","H","0","img/none_selected.jpg","1","0","0","0.8","0","true","0","0.8","0","full_practice","0.2","0","0.6","0","0.2","0","","","","","",""
"664","","bandit","56","157645","0.0-32.0-5.0","60040703","wem/bandit_single","AOGT0KZDUX8CC","gain","2","","72","H","0","img/none_selected.jpg","1","0","0","0.8","0","true","0","0.8","0","full_practice","0.2","0","0.6","0","0.2","0","","","","","",""
"65946","","bandit","57","225357","0.0-32.0-6.0","60040703","wem/bandit_single","AOGT0KZDUX8CC","gain","2","","72","H","0","img/none_selected.jpg","1","0","0","0.8","0","true","0","0.8","0","full_practice","0.2","0","0.6","0","0.2","0","","","","","",""
"196","","bandit","58","227317","0.0-32.0-7.0","60040703","wem/bandit_single","AOGT0KZDUX8CC","gain","2","","72","H","0","img/none_selected.jpg","1","0","0","0.8","0","true","0","0.8","0","full_practice","0.2","0","0.6","0","0.2","0","","","","","",""
"434","","bandit","59","229847","0.0-32.0-8.0","60040703","wem/bandit_single","AOGT0KZDUX8CC","gain","2","","72","H","0","img/none_selected.jpg","1","0","0","0.8","0","true","0","0.8","0","full_practice","0.2","0","0.6","0","0.2","0","","","","","",""
"965","","bandit","60","232574","0.0-32.0-9.0","60040703","wem/bandit_single","AOGT0KZDUX8CC","gain","2","","72","H","0","img/none_selected.jpg","1","0","0","0.8","0","true","0","0.8","0","full_practice","0.2","0","0.6","0","0.2","0","","","","","",""
"350","","bandit","61","234687","0.0-32.0-10.0","60040703","wem/bandit_single","AOGT0KZDUX8CC","gain","2","","72","H","0","img/none_selected.jpg","1","0","0","0.8","0","true","0","0.8","0","full_practice","0.2","0","0.6","0","0.2","0","","","","","",""
"269","","bandit","62","236719","0.0-32.0-11.0","60040703","wem/bandit_single","AOGT0KZDUX8CC","gain","2","","72","H","0","img/none_selected.jpg","1","0","0","0.8","0","true","0","0.8","0","full_practice","0.2","0","0.6","0","0.2","0","","","","","",""
"86","","bandit","63","238687","0.0-32.0-12.0","60040703","wem/bandit_single","AOGT0KZDUX8CC","gain","2","","72","H","0","img/none_selected.jpg","1","0","0","0.8","0","true","0","0.8","0","full_practice","0.2","0","0.6","0","0.2","0","","","","","",""
"129","","bandit","64","240573","0.0-32.0-13.0","60040703","wem/bandit_single","AOGT0KZDUX8CC","gain","2","","72","H","0","img/none_selected.jpg","0","0","1","0.8","0","true","0","0.8","0","full_practice","0.2","0","0.6","0","0.2","0","","","","","",""
"41","","bandit","65","242373","0.0-32.0-14.0","60040703","wem/bandit_single","AOGT0KZDUX8CC","gain","2","","74","J","1","","0","0","1","0.2","0","true","0","0.8","0","full_practice","0.2","0","0.6","0","0.2","0","","","","","",""
"39","","bandit","66","244172","0.0-32.0-15.0","60040703","wem/bandit_single","AOGT0KZDUX8CC","gain","2","","72","H","0","img/none_selected.jpg","0","0","1","0.8","0","true","0","0.8","0","full_practice","0.2","0","0.6","0","0.2","0","","","","","",""
"17","","bandit","67","245949","0.0-32.0-16.0","60040703","wem/bandit_single","AOGT0KZDUX8CC","gain","2","","75","K","2","","1","0","0","0.6","0","true","0","0.8","0","full_practice","0.2","0","0.6","0","0.2","0","","","","","",""
"56","","bandit","68","247765","0.0-32.0-17.0","60040703","wem/bandit_single","AOGT0KZDUX8CC","gain","2","","75","K","2","","1","0","0","0.6","0","true","0","0.8","0","full_practice","0.2","0","0.6","0","0.2","0","","","","","",""
"56","","bandit","69","249581","0.0-32.0-18.0","60040703","wem/bandit_single","AOGT0KZDUX8CC","gain","2","","75","K","2","","0","0","1","0.6","0","true","0","0.8","0","full_practice","0.2","0","0.6","0","0.2","0","","","","","",""
"33","","bandit","70","251373","0.0-32.0-19.0","60040703","wem/bandit_single","AOGT0KZDUX8CC","gain","2","","76","L","3","","0","0","1","0.2","0","true","0","0.8","0","full_practice","0.2","0","0.6","0","0.2","0","","","","","",""
"1091","","text","71","252726","0.0-33.0","60040703","wem/bandit_single","AOGT0KZDUX8CC","gain","2","32","","","","","","","","","","","","","","","","","","","","","","","","","",""
"10660","","text","72","264430","0.0-34.0","60040703","wem/bandit_single","AOGT0KZDUX8CC","gain","2","32","","","","","","","","","","","","","","","","","","","","","","","","","",""
"5396","","text","73","269830","0.0-35.0","60040703","wem/bandit_single","AOGT0KZDUX8CC","gain","2","32","","","","","","","","","","","","","","","","","","","","","","","","","",""
"4357","","text","74","274191","0.0-36.0","60040703","wem/bandit_single","AOGT0KZDUX8CC","gain","2","32","","","","","","","","","","","","","","","","","","","","","","","","","",""
"3019","","text","75","277214","0.0-37.0","60040703","wem/bandit_single","AOGT0KZDUX8CC","gain","2","32","","","","","","","","","","","","","","","","","","","","","","","","","",""
"611","","bandit","76","279334","0.0-38.0-0.0","60040703","wem/bandit_single","AOGT0KZDUX8CC","gain","2","","72","H","0","img/none_selected.jpg","1","0","0","0.1047922924","","false","1","0.1047922924","","main_expt","0.03692567881","","0.1473353724","","0.1196507759","","","","","","",""
"38","","bandit","77","281132","0.0-39.0-0.0","60040703","wem/bandit_single","AOGT0KZDUX8CC","gain","2","","72","H","0","img/none_selected.jpg","1","0","0","0.09232691068","","false","2","0.09232691068","","main_expt","0.0535834513","","0.1471364572","","0.1434551849","","","","","","",""
"104","","bandit","78","282997","0.0-40.0-0.0","60040703","wem/bandit_single","AOGT0KZDUX8CC","gain","2","","72","H","0","img/none_selected.jpg","1","0","0","0.07878604621","","false","3","0.07878604621","","main_expt","0.06455495551","","0.1792173289","","0.1966750378","","","","","","",""
"31","","bandit","79","284788","0.0-41.0-0.0","60040703","wem/bandit_single","AOGT0KZDUX8CC","gain","2","","72","H","0","img/none_selected.jpg","0","0","1","0.06180226224","","false","4","0.06180226224","","main_expt","0.1075220519","","0.2089457512","","0.1731728381","","","","","","",""
"27","","bandit","80","286573","0.0-42.0-0.0","60040703","wem/bandit_single","AOGT0KZDUX8CC","gain","2","","72","H","0","img/none_selected.jpg","0","0","1","0.05657605877","","false","5","0.05657605877","","main_expt","0.1459974634","","0.2627176439","","0.151671232","","","","","","",""
"220","","bandit","81","288557","0.0-43.0-0.0","60040703","wem/bandit_single","AOGT0KZDUX8CC","gain","2","","74","J","1","","0","0","1","0.1119865757","","false","6","0.03926223851","","main_expt","0.1119865757","","0.2052823447","","0.2201434377","","","","","","",""
"966","","bandit","82","291286","0.0-44.0-0.0","60040703","wem/bandit_single","AOGT0KZDUX8CC","gain","2","","74","J","1","","0","0","1","0.1135710889","","false","7","0.02952185798","","main_expt","0.1135710889","","0.2424381104","","0.1924323999","","","","","","",""
"44","","bandit","83","293091","0.0-45.0-0.0","60040703","wem/bandit_single","AOGT0KZDUX8CC","gain","2","","75","K","2","","0","0","1","0.2324683495","","false","8","0.01847757052","","main_expt","0.148696524","","0.2324683495","","0.187431757","","","","","","",""
"50","","bandit","84","294901","0.0-46.0-0.0","60040703","wem/bandit_single","AOGT0KZDUX8CC","gain","2","","75","K","2","","1","0","0","0.2440295668","","false","9","0.02695314055","","main_expt","0.1181121295","","0.2440295668","","0.197470847","","","","","","",""
"73","","bandit","85","296732","0.0-47.0-0.0","60040703","wem/bandit_single","AOGT0KZDUX8CC","gain","2","","75","K","2","","0","0","1","0.2465422232","","false","10","0.02234311218","","main_expt","0.1082266346","","0.2465422232","","0.2298270047","","","","","","",""
"6443","","bandit","86","304932","0.0-48.0-0.0","60040703","wem/bandit_single","AOGT0KZDUX8CC","gain","2","","75","K","2","","1","0","0","0.1529972956","","false","11","0.04960883058","","main_expt","0.1102162287","","0.1529972956","","0.2124937163","","","","","","",""
"153","","bandit","87","306843","0.0-49.0-0.0","60040703","wem/bandit_single","AOGT0KZDUX8CC","gain","2","","75","K","2","","0","0","1","0.1827224572","","false","12","0.06086541187","","main_expt","0.1420736562","","0.1827224572","","0.2043121782","","","","","","",""
"171","","bandit","88","308772","0.0-50.0-0.0","60040703","wem/bandit_single","AOGT0KZDUX8CC","gain","2","","76","L","3","","0","0","1","0.2122729008","","false","13","0.06603274732","","main_expt","0.1582971975","","0.1973099221","","0.2122729008","","","","","","",""
"688","","bandit","89","311220","0.0-51.0-0.0","60040703","wem/bandit_single","AOGT0KZDUX8CC","gain","2","","76","L","3","","1","0","0","0.1748916548","","false","14","0.06952645267","","main_expt","0.1278364912","","0.2002936143","","0.1748916548","","","","","","",""
"1775","","bandit","90","314756","0.0-52.0-0.0","60040703","wem/bandit_single","AOGT0KZDUX8CC","gain","2","","76","L","3","","1","0","0","0.1598041939","","false","15","0.06705093019","","main_expt","0.1389591295","","0.2100222876","","0.1598041939","","","","","","",""
"856","","bandit","91","317372","0.0-53.0-0.0","60040703","wem/bandit_single","AOGT0KZDUX8CC","gain","2","","76","L","3","","0","0","1","0.1496559895","","false","16","0.08739136862","","main_expt","0.1087507618","","0.192095419","","0.1496559895","","","","","","",""
"1328","","bandit","92","320625","0.0-54.0-0.0","60040703","wem/bandit_single","AOGT0KZDUX8CC","gain","2","","75","K","2","","1","0","0","0.2057363858","","false","17","0.0633177824","","main_expt","0.1591778588","","0.2057363858","","0.1855105105","","","","","","",""
"771","","bandit","93","323156","0.0-55.0-0.0","60040703","wem/bandit_single","AOGT0KZDUX8CC","gain","2","","75","K","2","","1","0","0","0.2142317849","","false","18","0.05969087175","","main_expt","0.1612769879","","0.2142317849","","0.180786103","","","","","","",""
"366","","bandit","94","325284","0.0-56.0-0.0","60040703","wem/bandit_single","AOGT0KZDUX8CC","gain","2","","75","K","2","","0","0","1","0.2416868574","","false","19","0.08316546351","","main_expt","0.1706614454","","0.2416868574","","0.1867551017","","","","","","",""
"649","","bandit","95","327692","0.0-57.0-0.0","60040703","wem/bandit_single","AOGT0KZDUX8CC","gain","2","","74","J","1","","0","0","1","0.2173206475","","false","20","0.08506169859","","main_expt","0.2173206475","","0.2556662882","","0.2414580321","","","","","","",""
"1890","","bandit","96","331341","0.0-58.0-0.0","60040703","wem/bandit_single","AOGT0KZDUX8CC","gain","2","","74","J","1","","1","0","0","0.2297715145","","false","21","0.08337624199","","main_expt","0.2297715145","","0.2484624222","","0.2552731096","","","","","","",""
"1049","","bandit","97","334155","0.0-59.0-0.0","60040703","wem/bandit_single","AOGT0KZDUX8CC","gain","2","","74","J","1","","1","0","0","0.2893552095","","false","22","0.09400888178","","main_expt","0.2893552095","","0.3180013331","","0.2706059063","","","","","","",""
"110","","bandit","98","336028","0.0-60.0-0.0","60040703","wem/bandit_single","AOGT0KZDUX8CC","gain","2","","74","J","1","","0","0","1","0.1756353462","","false","23","0.08373077729","","main_expt","0.1756353462","","0.3018869565","","0.2240124609","","","","","","",""
"175","","bandit","99","337965","0.0-61.0-0.0","60040703","wem/bandit_single","AOGT0KZDUX8CC","gain","2","","72","H","0","img/none_selected.jpg","0","0","1","0.07394888686","","false","24","0.07394888686","","main_expt","0.144307289","","0.3479913718","","0.2337623096","","","","","","",""
"423","","bandit","100","340148","0.0-62.0-0.0","60040703","wem/bandit_single","AOGT0KZDUX8CC","gain","2","","74","J","1","","0","0","1","0.1103761204","","false","25","0.1177231478","","main_expt","0.1103761204","","0.3851600672","","0.1992837424","","","","","","",""
"161","","bandit","101","342070","0.0-63.0-0.0","60040703","wem/bandit_single","AOGT0KZDUX8CC","gain","2","","75","K","2","","1","0","0","0.3771699284","","false","26","0.1137187285","","main_expt","0.09313295331","","0.3771699284","","0.2273902023","","","","","","",""
"461","","bandit","102","344297","0.0-64.0-0.0","60040703","wem/bandit_single","AOGT0KZDUX8CC","gain","2","","75","K","2","","0","0","1","0.3284072512","","false","27","0.1380279251","","main_expt","0.07841862492","","0.3284072512","","0.2020281611","","","","","","",""
"867","","bandit","103","346996","0.0-65.0-0.0","60040703","wem/bandit_single","AOGT0KZDUX8CC","gain","2","","75","K","2","","1","0","0","0.3708797381","","false","28","0.1926536066","","main_expt","0.0635621653","","0.3708797381","","0.2121805601","","","","","","",""
"269","","bandit","104","349029","0.0-66.0-0.0","60040703","wem/bandit_single","AOGT0KZDUX8CC","gain","2","","75","K","2","","1","0","0","0.3630760189","","false","29","0.1919064193","","main_expt","0.04349452081","","0.3630760189","","0.1986823058","","","","","","",""
"403","","bandit","105","351196","0.0-67.0-0.0","60040703","wem/bandit_single","AOGT0KZDUX8CC","gain","2","","75","K","2","","0","0","1","0.3414786107","","false","30","0.1767437005","","main_expt","0.06175929786","","0.3414786107","","0.2674628916","","","","","","",""
"308","","bandit","106","353269","0.0-68.0-0.0","60040703","wem/bandit_single","AOGT0KZDUX8CC","gain","2","","75","K","2","","0","0","1","0.3536929226","","false","31","0.2417082081","","main_expt","0.06380111671","","0.3536929226","","0.2862820789","","","","","","",""
"702","","bandit","107","355732","0.0-69.0-0.0","60040703","wem/bandit_single","AOGT0KZDUX8CC","gain","2","","76","L","3","","0","0","1","0.2895619367","","false","32","0.2312742115","","main_expt","0.08507033619","","0.3238646006","","0.2895619367","","","","","","",""
"634","","bandit","108","358129","0.0-70.0-0.0","60040703","wem/bandit_single","AOGT0KZDUX8CC","gain","2","","75","K","2","","0","0","1","0.3018803865","","false","33","0.2247834387","","main_expt","0.1242974044","","0.3018803865","","0.312502841","","","","","","",""
"345","","bandit","109","360236","0.0-71.0-0.0","60040703","wem/bandit_single","AOGT0KZDUX8CC","gain","2","","72","H","0","img/none_selected.jpg","0","0","1","0.1192543008","","false","34","0.1192543008","","main_expt","0.158311101","","0.2551449341","","0.2830864838","","","","","","",""
"158","","bandit","110","362157","0.0-72.0-0.0","60040703","wem/bandit_single","AOGT0KZDUX8CC","gain","2","","72","H","0","img/none_selected.jpg","0","0","1","0.1336327135","","false","35","0.1336327135","","main_expt","0.1293969191","","0.3200580053","","0.2489219385","","","","","","",""
"958","","bandit","111","365181","0.0-73.0-0.0","60040703","wem/bandit_single","AOGT0KZDUX8CC","gain","2","","74","J","1","","1","0","0","0.1800853883","","false","36","0.09851205292","","main_expt","0.1800853883","","0.3241899647","","0.2090346537","","","","","","",""
"188","","bandit","112","367133","0.0-74.0-0.0","60040703","wem/bandit_single","AOGT0KZDUX8CC","gain","2","","74","J","1","","1","0","0","0.1025448258","","false","37","0.05943694951","","main_expt","0.1025448258","","0.3029113802","","0.210385238","","","","","","",""
"295","","bandit","113","369188","0.0-75.0-0.0","60040703","wem/bandit_single","AOGT0KZDUX8CC","gain","2","","74","J","1","","0","0","1","0.1604021245","","false","38","0.06217728149","","main_expt","0.1604021245","","0.2958592888","","0.162227856","","","","","","",""
"400","","bandit","114","371349","0.0-76.0-0.0","60040703","wem/bandit_single","AOGT0KZDUX8CC","gain","2","","74","J","1","","1","0","0","0.1336531769","","false","39","0.08902833973","","main_expt","0.1336531769","","0.2941945884","","0.1444893634","","","","","","",""
"830","","bandit","115","373940","0.0-77.0-0.0","60040703","wem/bandit_single","AOGT0KZDUX8CC","gain","2","","74","J","1","","0","0","1","0.1356889635","","false","40","0.1098655825","","main_expt","0.1356889635","","0.2784490849","","0.1340169349","","","","","","",""
"176","","bandit","116","375877","0.0-78.0-0.0","60040703","wem/bandit_single","AOGT0KZDUX8CC","gain","2","","74","J","1","","0","0","1","0.1434276379","","false","41","0.125718056","","main_expt","0.1434276379","","0.2943099773","","0.1019114547","","","","","","",""
"709","","bandit","117","378348","0.0-79.0-0.0","60040703","wem/bandit_single","AOGT0KZDUX8CC","gain","2","","74","J","1","","0","0","1","0.1432973755","","false","42","0.07668278466","","main_expt","0.1432973755","","0.2502187242","","0.07379386716","","","","","","",""
"597","","bandit","118","380707","0.0-80.0-0.0","60040703","wem/bandit_single","AOGT0KZDUX8CC","gain","2","","75","K","2","","0","0","1","0.2691097515","","false","43","0.08403116819","","main_expt","0.1605884153","","0.2691097515","","0.08186566242","","","","","","",""
"695","","bandit","119","383164","0.0-81.0-0.0","60040703","wem/bandit_single","AOGT0KZDUX8CC","gain","2","","76","L","3","","0","0","1","0.08692603594","","false","44","0.08258467284","","main_expt","0.1396132557","","0.2601206974","","0.08692603594","","","","","","",""
"870","","bandit","120","385796","0.0-82.0-0.0","60040703","wem/bandit_single","AOGT0KZDUX8CC","gain","2","","76","L","3","","0","0","1","0.1212470101","","false","45","0.07253936928","","main_expt","0.2250933593","","0.3222012474","","0.1212470101","","","","","","",""
"848","","bandit","121","388405","0.0-83.0-0.0","60040703","wem/bandit_single","AOGT0KZDUX8CC","gain","2","","72","H","0","img/none_selected.jpg","0","0","1","0.05374479905","","false","46","0.05374479905","","main_expt","0.1826421925","","0.3060845752","","0.134661007","","","","","","",""
"334","","bandit","122","390500","0.0-84.0-0.0","60040703","wem/bandit_single","AOGT0KZDUX8CC","gain","2","","72","H","0","img/none_selected.jpg","1","0","0","0.06764850751","","false","47","0.06764850751","","main_expt","0.1706758886","","0.290950603","","0.1377890551","","","","","","",""
"199","","bandit","123","392622","0.0-85.0-0.0","60040703","wem/bandit_single","AOGT0KZDUX8CC","gain","2","","72","H","0","img/none_selected.jpg","0","0","1","0.05656727153","","false","48","0.05656727153","","main_expt","0.1686178854","","0.329307254","","0.1325860966","","","","","","",""
"53","","bandit","124","394436","0.0-86.0-0.0","60040703","wem/bandit_single","AOGT0KZDUX8CC","gain","2","","74","J","1","","1","0","0","0.1822379713","","false","49","0.08131597157","","main_expt","0.1822379713","","0.405044281","","0.1231750139","","","","","","",""
"342","","bandit","125","396544","0.0-87.0-0.0","60040703","wem/bandit_single","AOGT0KZDUX8CC","gain","2","","74","J","1","","1","0","0","0.2513484478","","false","50","0.08274267654","","main_expt","0.2513484478","","0.4121919591","","0.1565964086","","","","","","",""
"311","","bandit","126","398628","0.0-88.0-0.0","60040703","wem/bandit_single","AOGT0KZDUX8CC","gain","2","","74","J","1","","1","0","0","0.2812942615","","false","51","0.1154896937","","main_expt","0.2812942615","","0.4271607293","","0.1464659706","","","","","","",""
"946","","bandit","127","401330","0.0-89.0-0.0","60040703","wem/bandit_single","AOGT0KZDUX8CC","gain","2","","74","J","1","","0","0","1","0.2224049931","","false","52","0.07649260985","","main_expt","0.2224049931","","0.4249516559","","0.1196909414","","","","","","",""
"2921","","bandit","128","406014","0.0-90.0-0.0","60040703","wem/bandit_single","AOGT0KZDUX8CC","gain","2","","74","J","1","","0","0","1","0.2135714686","","false","53","0.06211708307","","main_expt","0.2135714686","","0.414238899","","0.1578713891","","","","","","",""
"767","","bandit","129","408539","0.0-91.0-0.0","60040703","wem/bandit_single","AOGT0KZDUX8CC","gain","2","","75","K","2","","0","0","1","0.4404827494","","false","54","0.05122165179","","main_expt","0.2471494284","","0.4404827494","","0.1420893662","","","","","","",""
"634","","bandit","130","410931","0.0-92.0-0.0","60040703","wem/bandit_single","AOGT0KZDUX8CC","gain","2","","75","K","2","","1","0","0","0.4258944343","","false","55","0.05779626682","","main_expt","0.26732004","","0.4258944343","","0.1255118638","","","","","","",""
"639","","bandit","131","413332","0.0-93.0-0.0","60040703","wem/bandit_single","AOGT0KZDUX8CC","gain","2","","75","K","2","","1","0","0","0.4058732664","","false","56","0.06578325953","","main_expt","0.258853447","","0.4058732664","","0.1040792381","","","","","","",""
"385","","bandit","132","415489","0.0-94.0-0.0","60040703","wem/bandit_single","AOGT0KZDUX8CC","gain","2","","75","K","2","","1","0","0","0.4269212616","","false","57","0.07487929626","","main_expt","0.247757255","","0.4269212616","","0.1058118143","","","","","","",""
"467","","bandit","133","417715","0.0-95.0-0.0","60040703","wem/bandit_single","AOGT0KZDUX8CC","gain","2","","75","K","2","","0","0","1","0.4120073189","","false","58","0.05601765109","","main_expt","0.2380046022","","0.4120073189","","0.08107820888","","","","","","",""
"811","","bandit","134","420291","0.0-96.0-0.0","60040703","wem/bandit_single","AOGT0KZDUX8CC","gain","2","","75","K","2","","0","0","1","0.367464959","","false","59","0.07158824907","","main_expt","0.273239949","","0.367464959","","0.115954585","","","","","","",""
"520","","bandit","135","422571","0.0-97.0-0.0","60040703","wem/bandit_single","AOGT0KZDUX8CC","gain","2","","75","K","2","","0","0","1","0.3113576115","","false","60","0.1021813758","","main_expt","0.314936794","","0.3113576115","","0.190529156","","","","","","",""
"3073","","bandit","136","427402","0.0-98.0-0.0","60040703","wem/bandit_single","AOGT0KZDUX8CC","gain","2","","76","L","3","","0","0","1","0.2024767933","","false","61","0.1422244628","","main_expt","0.3361315769","","0.3217665369","","0.2024767933","","","","","","",""
"233","","bandit","137","429403","0.0-99.0-0.0","60040703","wem/bandit_single","AOGT0KZDUX8CC","gain","2","","75","K","2","","0","0","1","0.3396020841","","false","62","0.1543762338","","main_expt","0.3012470308","","0.3396020841","","0.1478811465","","","","","","",""
"642","","bandit","138","431802","0.0-100.0-0.0","60040703","wem/bandit_single","AOGT0KZDUX8CC","gain","2","","74","J","1","","1","0","0","0.3035933772","","false","63","0.1957871903","","main_expt","0.3035933772","","0.3326008901","","0.1472080331","","","","","","",""
"620","","bandit","139","434179","0.0-101.0-0.0","60040703","wem/bandit_single","AOGT0KZDUX8CC","gain","2","","74","J","1","","0","0","1","0.3061864711","","false","64","0.1998827037","","main_expt","0.3061864711","","0.2759567044","","0.1523556625","","","","","","",""
"359","","bandit","140","436299","0.0-102.0-0.0","60040703","wem/bandit_single","AOGT0KZDUX8CC","gain","2","","74","J","1","","1","0","0","0.2795045379","","false","65","0.2229124218","","main_expt","0.2795045379","","0.330340259","","0.1640586258","","","","","","",""
"169","","bandit","141","438300","0.0-103.0-0.0","60040703","wem/bandit_single","AOGT0KZDUX8CC","gain","2","","74","J","1","","0","0","1","0.2624990872","","false","66","0.2821528041","","main_expt","0.2624990872","","0.394496842","","0.1559289375","","","","","","",""
"985","","bandit","142","441043","0.0-104.0-0.0","60040703","wem/bandit_single","AOGT0KZDUX8CC","gain","2","","74","J","1","","0","0","1","0.2316809648","","false","67","0.2228434199","","main_expt","0.2316809648","","0.3780229448","","0.09042099393","","","","","","",""
"687","","bandit","143","443629","0.0-105.0-0.0","60040703","wem/bandit_single","AOGT0KZDUX8CC","gain","2","","74","J","1","","0","0","1","0.2266776066","","false","68","0.2039549584","","main_expt","0.2266776066","","0.313258317","","0.08874767337","","","","","","",""
"542","","bandit","144","445932","0.0-106.0-0.0","60040703","wem/bandit_single","AOGT0KZDUX8CC","gain","2","","74","J","1","","0","0","1","0.1734363374","","false","69","0.1998164138","","main_expt","0.1734363374","","0.3466590849","","0.09103688118","","","","","","",""
"43","","bandit","145","447738","0.0-107.0-0.0","60040703","wem/bandit_single","AOGT0KZDUX8CC","gain","2","","74","J","1","","0","0","1","0.1469163378","","false","70","0.1936545157","","main_expt","0.1469163378","","0.3389702644","","0.139461016","","","","","","",""
"1774","","bandit","146","451274","0.0-108.0-0.0","60040703","wem/bandit_single","AOGT0KZDUX8CC","gain","2","","74","J","1","","0","0","1","0.1903103683","","false","71","0.1875420319","","main_expt","0.1903103683","","0.3037518088","","0.1269809057","","","","","","",""
"163","","bandit","147","453195","0.0-109.0-0.0","60040703","wem/bandit_single","AOGT0KZDUX8CC","gain","2","","74","J","1","","1","0","0","0.2364630875","","false","72","0.2275961541","","main_expt","0.2364630875","","0.3007282465","","0.1541032278","","","","","","",""
"657","","bandit","148","455610","0.0-110.0-0.0","60040703","wem/bandit_single","AOGT0KZDUX8CC","gain","2","","74","J","1","","0","0","1","0.2715971604","","false","73","0.2485431464","","main_expt","0.2715971604","","0.2796446257","","0.1618198783","","","","","","",""
"1190","","bandit","149","458684","0.0-111.0-0.0","60040703","wem/bandit_single","AOGT0KZDUX8CC","gain","2","","74","J","1","","0","0","1","0.2716254876","","false","74","0.2394527842","","main_expt","0.2716254876","","0.2729876577","","0.1428156761","","","","","","",""
"591","","bandit","150","461036","0.0-112.0-0.0","60040703","wem/bandit_single","AOGT0KZDUX8CC","gain","2","","74","J","1","","0","0","1","0.2998540279","","false","75","0.2074684787","","main_expt","0.2998540279","","0.2067723694","","0.1312504708","","","","","","",""
"2064","","bandit","151","464858","0.0-113.0-0.0","60040703","wem/bandit_single","AOGT0KZDUX8CC","gain","2","","74","J","1","","0","0","1","0.3195890579","","false","76","0.178133335","","main_expt","0.3195890579","","0.2130899639","","0.1002429729","","","","","","",""
"305","","bandit","152","466923","0.0-114.0-0.0","60040703","wem/bandit_single","AOGT0KZDUX8CC","gain","2","","74","J","1","","0","0","1","0.2856322382","","false","77","0.1788248706","","main_expt","0.2856322382","","0.2109525889","","0.07543037954","","","","","","",""
"535","","bandit","153","469228","0.0-115.0-0.0","60040703","wem/bandit_single","AOGT0KZDUX8CC","gain","2","","75","K","2","","1","0","0","0.1884332626","","false","78","0.1530293784","","main_expt","0.2919105172","","0.1884332626","","0.1153668935","","","","","","",""
"310","","bandit","154","471300","0.0-116.0-0.0","60040703","wem/bandit_single","AOGT0KZDUX8CC","gain","2","","75","K","2","","0","0","1","0.1883433777","","false","79","0.1593806387","","main_expt","0.2567181874","","0.1883433777","","0.07716777456","","","","","","",""
"141","","bandit","155","473207","0.0-117.0-0.0","60040703","wem/bandit_single","AOGT0KZDUX8CC","gain","2","","75","K","2","","0","0","1","0.1998795799","","false","80","0.1428411119","","main_expt","0.3200023444","","0.1998795799","","0.08058819474","","","","","","",""
"564","","bandit","156","477429","0.0-118.0-0.0","60040703","wem/bandit_single","AOGT0KZDUX8CC","gain","2","","75","K","2","","0","0","1","0.1651756375","","false","81","0.1982686668","","main_expt","0.3117755618","","0.1651756375","","0.09856946308","","","","","","",""
"577","","bandit","157","479765","0.0-119.0-0.0","60040703","wem/bandit_single","AOGT0KZDUX8CC","gain","2","","74","J","1","","0","0","1","0.3379160562","","false","82","0.2291501313","","main_expt","0.3379160562","","0.2235829688","","0.1000946235","","","","","","",""
"2001","","bandit","158","483534","0.0-120.0-0.0","60040703","wem/bandit_single","AOGT0KZDUX8CC","gain","2","","75","K","2","","1","0","0","0.2456561592","","false","83","0.2259362275","","main_expt","0.3620865136","","0.2456561592","","0.06687408093","","","","","","",""
"222","","bandit","159","485514","0.0-121.0-0.0","60040703","wem/bandit_single","AOGT0KZDUX8CC","gain","2","","75","K","2","","0","0","1","0.2790354554","","false","84","0.1733031115","","main_expt","0.3904685548","","0.2790354554","","0.06463964557","","","","","","",""
"188","","bandit","160","490366","0.0-122.0-0.0","60040703","wem/bandit_single","AOGT0KZDUX8CC","gain","2","","76","L","3","","0","0","1","0.09044174456","","false","85","0.1577379057","","main_expt","0.4201611698","","0.2389339959","","0.09044174456","","","","","","",""
"206","","bandit","161","492331","0.0-123.0-0.0","60040703","wem/bandit_single","AOGT0KZDUX8CC","gain","2","","76","L","3","","0","0","1","0.07242924321","","false","86","0.1646880331","","main_expt","0.4544588035","","0.2905830411","","0.07242924321","","","","","","",""
"117","","bandit","162","494211","0.0-124.0-0.0","60040703","wem/bandit_single","AOGT0KZDUX8CC","gain","2","","75","K","2","","0","0","1","0.3336128518","","false","87","0.157008097","","main_expt","0.4444110865","","0.3336128518","","0.06356931104","","","","","","",""
"157","","bandit","163","496613","0.0-125.0-0.0","60040703","wem/bandit_single","AOGT0KZDUX8CC","gain","2","","72","H","0","img/none_selected.jpg","0","0","1","0.14663069","","false","88","0.14663069","","main_expt","0.4276611285","","0.3720796031","","0.08819972964","","","","","","",""
"87","","bandit","164","498458","0.0-126.0-0.0","60040703","wem/bandit_single","AOGT0KZDUX8CC","gain","2","","72","H","0","img/none_selected.jpg","0","0","1","0.1510377787","","false","89","0.1510377787","","main_expt","0.395063318","","0.3383028484","","0.09388884115","","","","","","",""
"95","","bandit","165","500322","0.0-127.0-0.0","60040703","wem/bandit_single","AOGT0KZDUX8CC","gain","2","","74","J","1","","0","0","1","0.3790569413","","false","90","0.1600185234","","main_expt","0.3790569413","","0.3550100304","","0.1265583984","","","","","","",""
"73","","bandit","166","502156","0.0-128.0-0.0","60040703","wem/bandit_single","AOGT0KZDUX8CC","gain","2","","74","J","1","","0","0","1","0.3763017738","","false","91","0.1618321768","","main_expt","0.3763017738","","0.4198742783","","0.09433033469","","","","","","",""
"385","","bandit","167","504506","0.0-129.0-0.0","60040703","wem/bandit_single","AOGT0KZDUX8CC","gain","2","","75","K","2","","1","0","0","0.4522920775","","false","92","0.1408839615","","main_expt","0.3829045729","","0.4522920775","","0.05111462501","","","","","","",""
"28","","bandit","168","506289","0.0-130.0-0.0","60040703","wem/bandit_single","AOGT0KZDUX8CC","gain","2","","75","K","2","","0","0","1","0.4572096334","","false","93","0.1675332925","","main_expt","0.4155552038","","0.4572096334","","0.05378689714","","","","","","",""
"17","","bandit","169","508067","0.0-131.0-0.0","60040703","wem/bandit_single","AOGT0KZDUX8CC","gain","2","","75","K","2","","0","0","1","0.457248447","","false","94","0.2154783406","","main_expt","0.3964247486","","0.457248447","","0.04385487208","","","","","","",""
"45","","bandit","170","509873","0.0-132.0-0.0","60040703","wem/bandit_single","AOGT0KZDUX8CC","gain","2","","75","K","2","","0","0","1","0.4284600246","","false","95","0.2434825378","","main_expt","0.4028729744","","0.4284600246","","0.02374316345","","","","","","",""
"29","","bandit","171","511670","0.0-133.0-0.0","60040703","wem/bandit_single","AOGT0KZDUX8CC","gain","2","","75","K","2","","1","0","0","0.4213934208","","false","96","0.300751002","","main_expt","0.3937220057","","0.4213934208","","0.01119532444","","","","","","",""
"105","","bandit","172","513539","0.0-134.0-0.0","60040703","wem/bandit_single","AOGT0KZDUX8CC","gain","2","","75","K","2","","1","0","0","0.4093218277","","false","97","0.2390268827","","main_expt","0.3951408858","","0.4093218277","","0.01205949719","","","","","","",""
"11","","bandit","173","515305","0.0-135.0-0.0","60040703","wem/bandit_single","AOGT0KZDUX8CC","gain","2","","75","K","2","","0","0","1","0.4011771953","","false","98","0.1872158766","","main_expt","0.3872505806","","0.4011771953","","0.02530753644","","","","","","",""
"25","","bandit","174","517090","0.0-136.0-0.0","60040703","wem/bandit_single","AOGT0KZDUX8CC","gain","2","","75","K","2","","0","0","1","0.4319140629","","false","99","0.2281726053","","main_expt","0.3237376228","","0.4319140629","","0.02318317113","","","","","","",""
"40","","bandit","175","518892","0.0-137.0-0.0","60040703","wem/bandit_single","AOGT0KZDUX8CC","gain","2","","75","K","2","","0","0","1","0.4388591553","","false","100","0.2322026393","","main_expt","0.3840854176","","0.4388591553","","0.01577819671","","","","","","",""
"60","","bandit","176","520718","0.0-138.0-0.0","60040703","wem/bandit_single","AOGT0KZDUX8CC","gain","2","","75","K","2","","0","0","1","0.4405661836","","false","101","0.2675158553","","main_expt","0.4043087267","","0.4405661836","","0.03767304301","","","","","","",""
"49","","bandit","177","522530","0.0-139.0-0.0","60040703","wem/bandit_single","AOGT0KZDUX8CC","gain","2","","75","K","2","","0","0","1","0.4155134761","","false","102","0.2334450153","","main_expt","0.423372456","","0.4155134761","","0.03003558128","","","","","","",""
"57","","bandit","178","524348","0.0-140.0-0.0","60040703","wem/bandit_single","AOGT0KZDUX8CC","gain","2","","76","L","3","","0","0","1","0.04748945294","","false","103","0.2546104349","","main_expt","0.4305794097","","0.4079284656","","0.04748945294","","","","","","",""
"47","","bandit","179","526226","0.0-141.0-0.0","60040703","wem/bandit_single","AOGT0KZDUX8CC","gain","2","","72","H","0","img/none_selected.jpg","0","0","1","0.2657782481","","false","104","0.2657782481","","main_expt","0.4515631957","","0.3827156199","","0.06674284653","","","","","","",""
"34","","bandit","180","528027","0.0-142.0-0.0","60040703","wem/bandit_single","AOGT0KZDUX8CC","gain","2","","72","H","0","img/none_selected.jpg","0","0","1","0.2397797145","","false","105","0.2397797145","","main_expt","0.454723383","","0.3892206975","","0.0806059128","","","","","","",""
"20","","bandit","181","529811","0.0-143.0-0.0","60040703","wem/bandit_single","AOGT0KZDUX8CC","gain","2","","72","H","0","img/none_selected.jpg","0","0","1","0.1744994936","","false","106","0.1744994936","","main_expt","0.4487898282","","0.3499671591","","0.1147522423","","","","","","",""
"620","","bandit","182","532193","0.0-144.0-0.0","60040703","wem/bandit_single","AOGT0KZDUX8CC","gain","2","","74","J","1","","1","0","0","0.4300484018","","false","107","0.2004436591","","main_expt","0.4300484018","","0.3378870415","","0.1225979079","","","","","","",""
"26","","bandit","183","533979","0.0-145.0-0.0","60040703","wem/bandit_single","AOGT0KZDUX8CC","gain","2","","74","J","1","","0","0","1","0.4056187414","","false","108","0.1781349215","","main_expt","0.4056187414","","0.3206855754","","0.1808232933","","","","","","",""
"485","","bandit","184","536226","0.0-146.0-0.0","60040703","wem/bandit_single","AOGT0KZDUX8CC","gain","2","","74","J","1","","0","0","1","0.4145536126","","false","109","0.1603989886","","main_expt","0.4145536126","","0.3412252333","","0.2004688742","","","","","","",""
"1844","","bandit","185","539978","0.0-147.0-0.0","60040703","wem/bandit_single","AOGT0KZDUX8CC","gain","2","","74","J","1","","0","0","1","0.3897928763","","false","110","0.1300992081","","main_expt","0.3897928763","","0.3650365033","","0.2261403934","","","","","","",""
"98","","bandit","186","541842","0.0-148.0-0.0","60040703","wem/bandit_single","AOGT0KZDUX8CC","gain","2","","74","J","1","","1","0","0","0.4150540561","","false","111","0.1740321776","","main_expt","0.4150540561","","0.341048274","","0.1612973213","","","","","","",""
"101","","bandit","187","543726","0.0-149.0-0.0","60040703","wem/bandit_single","AOGT0KZDUX8CC","gain","2","","74","J","1","","1","0","0","0.4394636757","","false","112","0.2444477537","","main_expt","0.4394636757","","0.3254027875","","0.1655724556","","","","","","",""
"1670","","bandit","188","547155","0.0-150.0-0.0","60040703","wem/bandit_single","AOGT0KZDUX8CC","gain","2","","74","J","1","","1","0","0","0.4301961846","","false","113","0.2195244909","","main_expt","0.4301961846","","0.308059901","","0.1319876284","","","","","","",""
"585","","bandit","189","549627","0.0-151.0-0.0","60040703","wem/bandit_single","AOGT0KZDUX8CC","gain","2","","74","J","1","","1","0","0","0.4497687286","","false","114","0.2719971232","","main_expt","0.4497687286","","0.3238695313","","0.1147934267","","","","","","",""
"146","","bandit","190","551538","0.0-152.0-0.0","60040703","wem/bandit_single","AOGT0KZDUX8CC","gain","2","","74","J","1","","0","0","1","0.4448888627","","false","115","0.2447677414","","main_expt","0.4448888627","","0.3315084933","","0.1301750396","","","","","","",""
"912","","bandit","191","554210","0.0-153.0-0.0","60040703","wem/bandit_single","AOGT0KZDUX8CC","gain","2","","74","J","1","","0","0","1","0.3905844751","","false","116","0.2296513069","","main_expt","0.3905844751","","0.3234657333","","0.130185029","","","","","","",""
"637","","bandit","192","556770","0.0-154.0-0.0","60040703","wem/bandit_single","AOGT0KZDUX8CC","gain","2","","74","J","1","","0","0","1","0.424359093","","false","117","0.2151266314","","main_expt","0.424359093","","0.300593156","","0.1548944576","","","","","","",""
"620","","bandit","193","559156","0.0-155.0-0.0","60040703","wem/bandit_single","AOGT0KZDUX8CC","gain","2","","74","J","1","","1","0","0","0.4121010571","","false","118","0.1311834018","","main_expt","0.4121010571","","0.3585138177","","0.172903741","","","","","","",""
"141","","bandit","194","561057","0.0-156.0-0.0","60040703","wem/bandit_single","AOGT0KZDUX8CC","gain","2","","74","J","1","","0","0","1","0.4117558181","","false","119","0.1190099868","","main_expt","0.4117558181","","0.3062020697","","0.1707570171","","","","","","",""
"511","","bandit","195","563339","0.0-157.0-0.0","60040703","wem/bandit_single","AOGT0KZDUX8CC","gain","2","","74","J","1","","0","0","1","0.4275669698","","false","120","0.1117686876","","main_expt","0.4275669698","","0.3312553157","","0.1870802187","","","","","","",""
"105","","bandit","196","565211","0.0-158.0-0.0","60040703","wem/bandit_single","AOGT0KZDUX8CC","gain","2","","74","J","1","","0","0","1","0.4428986123","","false","121","0.1415869423","","main_expt","0.4428986123","","0.3892509988","","0.1870161021","","","","","","",""
"72","","bandit","197","567042","0.0-159.0-0.0","60040703","wem/bandit_single","AOGT0KZDUX8CC","gain","2","","74","J","1","","1","0","0","0.4376246318","","false","122","0.1398412585","","main_expt","0.4376246318","","0.4330036483","","0.1926804843","","","","","","",""
"17","","bandit","198","568826","0.0-160.0-0.0","60040703","wem/bandit_single","AOGT0KZDUX8CC","gain","2","","74","J","1","","0","0","1","0.4153394585","","false","123","0.1163210087","","main_expt","0.4153394585","","0.4555957022","","0.2057615037","","","","","","",""
"89","","bandit","199","570675","0.0-161.0-0.0","60040703","wem/bandit_single","AOGT0KZDUX8CC","gain","2","","74","J","1","","1","0","0","0.4203389285","","false","124","0.07344578178","","main_expt","0.4203389285","","0.4565029776","","0.2639565913","","","","","","",""
"32","","bandit","200","572625","0.0-162.0-0.0","60040703","wem/bandit_single","AOGT0KZDUX8CC","gain","2","","74","J","1","","0","0","1","0.3710029205","","false","125","0.08752025541","","main_expt","0.3710029205","","0.4511527373","","0.3672341475","","","","","","",""
"31","","bandit","201","574418","0.0-163.0-0.0","60040703","wem/bandit_single","AOGT0KZDUX8CC","gain","2","","74","J","1","","0","0","1","0.3465273485","","false","126","0.1064058914","","main_expt","0.3465273485","","0.4426171603","","0.3606148775","","","","","","",""
"64","","bandit","202","576242","0.0-164.0-0.0","60040703","wem/bandit_single","AOGT0KZDUX8CC","gain","2","","74","J","1","","1","0","0","0.4106613481","","false","127","0.1103525866","","main_expt","0.4106613481","","0.4259104728","","0.4079700646","","","","","","",""
"103","","bandit","203","578110","0.0-165.0-0.0","60040703","wem/bandit_single","AOGT0KZDUX8CC","gain","2","","74","J","1","","0","0","1","0.4377707947","","false","128","0.1060480298","","main_expt","0.4377707947","","0.4543754413","","0.4204919645","","","","","","",""
"629","","bandit","204","580498","0.0-166.0-0.0","60040703","wem/bandit_single","AOGT0KZDUX8CC","gain","2","","74","J","1","","0","0","1","0.4481781661","","false","129","0.1332603285","","main_expt","0.4481781661","","0.4587533269","","0.4040923387","","","","","","",""
"296","","bandit","205","582555","0.0-167.0-0.0","60040703","wem/bandit_single","AOGT0KZDUX8CC","gain","2","","74","J","1","","1","0","0","0.4301237728","","false","130","0.09182468565","","main_expt","0.4301237728","","0.4618517855","","0.3906791758","","","","","","",""
"51","","bandit","206","584372","0.0-168.0-0.0","60040703","wem/bandit_single","AOGT0KZDUX8CC","gain","2","","74","J","1","","0","0","1","0.4457858875","","false","131","0.09388333002","","main_expt","0.4457858875","","0.4622878414","","0.380553204","","","","","","",""
"68","","bandit","207","586202","0.0-169.0-0.0","60040703","wem/bandit_single","AOGT0KZDUX8CC","gain","2","","74","J","1","","0","0","1","0.4732894157","","false","132","0.07277513685","","main_expt","0.4732894157","","0.4624711794","","0.4000467043","","","","","","",""
"416","","bandit","208","588387","0.0-170.0-0.0","60040703","wem/bandit_single","AOGT0KZDUX8CC","gain","2","","74","J","1","","0","0","1","0.4607838047","","false","133","0.1108266248","","main_expt","0.4607838047","","0.4794526202","","0.3929100345","","","","","","",""
"251","","bandit","209","590403","0.0-171.0-0.0","60040703","wem/bandit_single","AOGT0KZDUX8CC","gain","2","","75","K","2","","1","0","0","0.481632873","","false","134","0.1466671782","","main_expt","0.4663808264","","0.481632873","","0.4009617203","","","","","","",""
"259","","bandit","210","592458","0.0-172.0-0.0","60040703","wem/bandit_single","AOGT0KZDUX8CC","gain","2","","75","K","2","","1","0","0","0.4667599148","","false","135","0.1625995743","","main_expt","0.4625615306","","0.4667599148","","0.3859426802","","","","","","",""
"57","","bandit","211","594274","0.0-173.0-0.0","60040703","wem/bandit_single","AOGT0KZDUX8CC","gain","2","","75","K","2","","1","0","0","0.4468402508","","false","136","0.1555673637","","main_expt","0.4629143089","","0.4468402508","","0.4089350186","","","","","","",""
"33","","bandit","212","596070","0.0-174.0-0.0","60040703","wem/bandit_single","AOGT0KZDUX8CC","gain","2","","75","K","2","","0","0","1","0.4331537256","","false","137","0.1395554881","","main_expt","0.4644074349","","0.4331537256","","0.4009707033","","","","","","",""
"779","","bandit","213","598619","0.0-175.0-0.0","60040703","wem/bandit_single","AOGT0KZDUX8CC","gain","2","","75","K","2","","0","0","1","0.4578477473","","false","138","0.1387442451","","main_expt","0.4741213624","","0.4578477473","","0.4116224971","","","","","","",""
"541","","bandit","214","600923","0.0-176.0-0.0","60040703","wem/bandit_single","AOGT0KZDUX8CC","gain","2","","75","K","2","","1","0","0","0.464919911","","false","139","0.1693780048","","main_expt","0.4736492243","","0.464919911","","0.4129411324","","","","","","",""
"20","","bandit","215","602705","0.0-177.0-0.0","60040703","wem/bandit_single","AOGT0KZDUX8CC","gain","2","","75","K","2","","0","0","1","0.4614371154","","false","140","0.1753437518","","main_expt","0.4752570035","","0.4614371154","","0.4494235083","","","","","","",""
"48","","bandit","216","604516","0.0-178.0-0.0","60040703","wem/bandit_single","AOGT0KZDUX8CC","gain","2","","75","K","2","","0","0","1","0.4747872093","","false","141","0.2288512635","","main_expt","0.4857055712","","0.4747872093","","0.4453484197","","","","","","",""
"21","","bandit","217","606305","0.0-179.0-0.0","60040703","wem/bandit_single","AOGT0KZDUX8CC","gain","2","","75","K","2","","0","0","1","0.4513335087","","false","142","0.2579513082","","main_expt","0.4792724089","","0.4513335087","","0.4604546146","","","","","","",""
"1","","bandit","218","608077","0.0-180.0-0.0","60040703","wem/bandit_single","AOGT0KZDUX8CC","gain","2","","75","K","2","","1","0","0","0.4198830698","","false","143","0.21432658","","main_expt","0.48057755","","0.4198830698","","0.4826245684","","","","","","",""
"398","","bandit","219","610241","0.0-181.0-0.0","60040703","wem/bandit_single","AOGT0KZDUX8CC","gain","2","","75","K","2","","0","0","1","0.3673231636","","false","144","0.1938021535","","main_expt","0.4777600445","","0.3673231636","","0.4890981767","","","","","","",""
"69","","bandit","220","612074","0.0-182.0-0.0","60040703","wem/bandit_single","AOGT0KZDUX8CC","gain","2","","75","K","2","","0","0","1","0.3772368795","","false","145","0.206497324","","main_expt","0.4735071841","","0.3772368795","","0.4680822138","","","","","","",""
"348","","bandit","221","614187","0.0-183.0-0.0","60040703","wem/bandit_single","AOGT0KZDUX8CC","gain","2","","74","J","1","","0","0","1","0.4598241197","","false","146","0.1857351915","","main_expt","0.4598241197","","0.3767069828","","0.4660155258","","","","","","",""
"304","","bandit","222","616427","0.0-184.0-0.0","60040703","wem/bandit_single","AOGT0KZDUX8CC","gain","2","","76","L","3","","0","0","1","0.4723880167","","false","147","0.1046475439","","main_expt","0.4279993213","","0.4039806626","","0.4723880167","","","","","","",""
"35","","bandit","223","618225","0.0-185.0-0.0","60040703","wem/bandit_single","AOGT0KZDUX8CC","gain","2","","76","L","3","","0","0","1","0.4692947112","","false","148","0.1098111678","","main_expt","0.4422782314","","0.4178396587","","0.4692947112","","","","","","",""
"57","","bandit","224","620049","0.0-186.0-0.0","60040703","wem/bandit_single","AOGT0KZDUX8CC","gain","2","","75","K","2","","1","0","0","0.3932004216","","false","149","0.1221971929","","main_expt","0.4514785706","","0.3932004216","","0.4702562614","","","","","","",""
"65","","bandit","225","621873","0.0-187.0-0.0","60040703","wem/bandit_single","AOGT0KZDUX8CC","gain","2","","75","K","2","","1","0","0","0.4103897693","","false","150","0.1354034315","","main_expt","0.4189864991","","0.4103897693","","0.4714094479","","","","","","",""
"40","","bandit","226","623673","0.0-188.0-0.0","60040703","wem/bandit_single","AOGT0KZDUX8CC","gain","2","","75","K","2","","1","0","0","0.4122179041","","false","151","0.1041822367","","main_expt","0.4389233528","","0.4122179041","","0.4761401221","","","","","","",""
"418","","bandit","227","625853","0.0-189.0-0.0","60040703","wem/bandit_single","AOGT0KZDUX8CC","gain","2","","75","K","2","","0","0","1","0.3952463752","","false","152","0.09038071171","","main_expt","0.4244236929","","0.3952463752","","0.4697737123","","","","","","",""
"516","","bandit","228","628132","0.0-190.0-0.0","60040703","wem/bandit_single","AOGT0KZDUX8CC","gain","2","","75","K","2","","0","0","1","0.3877384472","","false","153","0.08460578514","","main_expt","0.4476471014","","0.3877384472","","0.446753433","","","","","","",""
"194","","bandit","229","630090","0.0-191.0-0.0","60040703","wem/bandit_single","AOGT0KZDUX8CC","gain","2","","74","J","1","","0","0","1","0.4505336387","","false","154","0.06957086972","","main_expt","0.4505336387","","0.3551427127","","0.4588815304","","","","","","",""
"29","","bandit","230","631880","0.0-192.0-0.0","60040703","wem/bandit_single","AOGT0KZDUX8CC","gain","2","","75","K","2","","0","0","1","0.3027898514","","false","155","0.07570805595","","main_expt","0.466992112","","0.3027898514","","0.4483664475","","","","","","",""
"70","","bandit","231","633729","0.0-193.0-0.0","60040703","wem/bandit_single","AOGT0KZDUX8CC","gain","2","","75","K","2","","1","0","0","0.3245978035","","false","156","0.1010055374","","main_expt","0.4383448919","","0.3245978035","","0.4383670719","","","","","","",""
"15","","bandit","232","635509","0.0-194.0-0.0","60040703","wem/bandit_single","AOGT0KZDUX8CC","gain","2","","75","K","2","","1","0","0","0.3293821827","","false","157","0.09959580587","","main_expt","0.4181306447","","0.3293821827","","0.42990192","","","","","","",""
"396","","bandit","233","637667","0.0-195.0-0.0","60040703","wem/bandit_single","AOGT0KZDUX8CC","gain","2","","75","K","2","","0","0","1","0.3053991167","","false","158","0.09130540219","","main_expt","0.4322591637","","0.3053991167","","0.4112902825","","","","","","",""
"8","","bandit","234","640741","0.0-196.0-0.0","60040703","wem/bandit_single","AOGT0KZDUX8CC","gain","2","","75","K","2","","1","0","0","0.3475565739","","false","159","0.07080299429","","main_expt","0.4129829621","","0.3475565739","","0.4085113589","","","","","","",""
"9","","bandit","235","642512","0.0-197.0-0.0","60040703","wem/bandit_single","AOGT0KZDUX8CC","gain","2","","75","K","2","","1","0","0","0.327393219","","false","160","0.05017383151","","main_expt","0.4094933958","","0.327393219","","0.4079314082","","","","","","",""
"443","","bandit","236","644722","0.0-198.0-0.0","60040703","wem/bandit_single","AOGT0KZDUX8CC","gain","2","","75","K","2","","0","0","1","0.303429729","","false","161","0.03820476969","","main_expt","0.404058003","","0.303429729","","0.3631501835","","","","","","",""
"103","","bandit","237","649561","0.0-199.0-0.0","60040703","wem/bandit_single","AOGT0KZDUX8CC","gain","2","","75","K","2","","1","0","0","0.3079210788","","false","162","0.02512507724","","main_expt","0.3846726044","","0.3079210788","","0.3470346279","","","","","","",""
"58","","bandit","238","651386","0.0-200.0-0.0","60040703","wem/bandit_single","AOGT0KZDUX8CC","gain","2","","75","K","2","","1","0","0","0.3004483846","","false","163","0.03932379445","","main_expt","0.4016559577","","0.3004483846","","0.372656257","","","","","","",""
"288","","bandit","239","653433","0.0-201.0-0.0","60040703","wem/bandit_single","AOGT0KZDUX8CC","gain","2","","75","K","2","","1","0","0","0.2886014424","","false","164","0.01829840099","","main_expt","0.3566256613","","0.2886014424","","0.3802753243","","","","","","",""
"147","","bandit","240","656463","0.0-202.0-0.0","60040703","wem/bandit_single","AOGT0KZDUX8CC","gain","2","","75","K","2","","0","0","1","0.2088325088","","false","165","0.02415252971","","main_expt","0.3509524146","","0.2088325088","","0.3881672334","","","","","","",""
"291","","bandit","241","658513","0.0-203.0-0.0","60040703","wem/bandit_single","AOGT0KZDUX8CC","gain","2","","75","K","2","","0","0","1","0.2160195985","","false","166","0.02185778449","","main_expt","0.2773632025","","0.2160195985","","0.359536632","","","","","","",""
"168","","bandit","242","660450","0.0-204.0-0.0","60040703","wem/bandit_single","AOGT0KZDUX8CC","gain","2","","75","K","2","","0","0","1","0.1836534764","","false","167","0.02761124673","","main_expt","0.3022689801","","0.1836534764","","0.3693034809","","","","","","",""
"82","","bandit","243","662305","0.0-205.0-0.0","60040703","wem/bandit_single","AOGT0KZDUX8CC","gain","2","","75","K","2","","0","0","1","0.1701024481","","false","168","0.02160611799","","main_expt","0.2937690027","","0.1701024481","","0.3449050916","","","","","","",""
"176","","bandit","244","665892","0.0-206.0-0.0","60040703","wem/bandit_single","AOGT0KZDUX8CC","gain","2","","75","K","2","","0","0","1","0.1896079261","","false","169","0.02113437328","","main_expt","0.2488586406","","0.1896079261","","0.3515710367","","","","","","",""
"354","","bandit","245","668010","0.0-207.0-0.0","60040703","wem/bandit_single","AOGT0KZDUX8CC","gain","2","","75","K","2","","0","0","1","0.2377789273","","false","170","0.01292956957","","main_expt","0.2112819205","","0.2377789273","","0.3233833909","","","","","","",""
"693","","bandit","246","672300","0.0-208.0-0.0","60040703","wem/bandit_single","AOGT0KZDUX8CC","gain","2","","74","J","1","","0","0","1","0.2217900108","","false","171","0.01989811998","","main_expt","0.2217900108","","0.2640247014","","0.2468086364","","","","","","",""
"73","","bandit","247","674145","0.0-209.0-0.0","60040703","wem/bandit_single","AOGT0KZDUX8CC","gain","2","","74","J","1","","0","0","1","0.2387596097","","false","172","0.0296351857","","main_expt","0.2387596097","","0.2055846389","","0.3408906282","","","","","","",""
"67","","bandit","248","675978","0.0-210.0-0.0","60040703","wem/bandit_single","AOGT0KZDUX8CC","gain","2","","72","H","0","img/none_selected.jpg","0","0","1","0.03540771295","","false","173","0.03540771295","","main_expt","0.2602125502","","0.2438181894","","0.3252944763","","","","","","",""
"50","","bandit","249","679520","0.0-211.0-0.0","60040703","wem/bandit_single","AOGT0KZDUX8CC","gain","2","","72","H","0","img/none_selected.jpg","0","0","1","0.03725130304","","false","174","0.03725130304","","main_expt","0.2202846771","","0.2733147352","","0.3200904142","","","","","","",""
"518","","bandit","250","681801","0.0-212.0-0.0","60040703","wem/bandit_single","AOGT0KZDUX8CC","gain","2","","75","K","2","","1","0","0","0.2767671147","","false","175","0.03242602151","","main_expt","0.233285157","","0.2767671147","","0.3622659173","","","","","","",""
"143","","bandit","251","683704","0.0-213.0-0.0","60040703","wem/bandit_single","AOGT0KZDUX8CC","gain","2","","75","K","2","","0","0","1","0.2195478827","","false","176","0.04697917163","","main_expt","0.2264555061","","0.2195478827","","0.2937007374","","","","","","",""
"290","","bandit","252","685754","0.0-214.0-0.0","60040703","wem/bandit_single","AOGT0KZDUX8CC","gain","2","","75","K","2","","0","0","1","0.1515864758","","false","177","0.04124559051","","main_expt","0.241841845","","0.1515864758","","0.2513366018","","","","","","",""
"94","","bandit","253","687619","0.0-215.0-0.0","60040703","wem/bandit_single","AOGT0KZDUX8CC","gain","2","","75","K","2","","0","0","1","0.1618037694","","false","178","0.06205026603","","main_expt","0.2423953475","","0.1618037694","","0.3159509921","","","","","","",""
"125","","bandit","254","689505","0.0-216.0-0.0","60040703","wem/bandit_single","AOGT0KZDUX8CC","gain","2","","74","J","1","","0","0","1","0.2523089652","","false","179","0.08412795639","","main_expt","0.2523089652","","0.1653326191","","0.2899582247","","","","","","",""
"312","","bandit","255","691586","0.0-217.0-0.0","60040703","wem/bandit_single","AOGT0KZDUX8CC","gain","2","","76","L","3","","0","0","1","0.3371390753","","false","180","0.1304099397","","main_expt","0.2223981335","","0.1751853148","","0.3371390753","","","","","","",""
"79","","bandit","256","693426","0.0-218.0-0.0","60040703","wem/bandit_single","AOGT0KZDUX8CC","gain","2","","76","L","3","","0","0","1","0.3365963609","","false","181","0.1801801058","","main_expt","0.2319473409","","0.211978586","","0.3365963609","","","","","","",""
"16","","bandit","257","695202","0.0-219.0-0.0","60040703","wem/bandit_single","AOGT0KZDUX8CC","gain","2","","75","K","2","","0","0","1","0.2323199139","","false","182","0.1951504204","","main_expt","0.2338578761","","0.2323199139","","0.2643366398","","","","","","",""
"79","","bandit","258","697083","0.0-220.0-0.0","60040703","wem/bandit_single","AOGT0KZDUX8CC","gain","2","","75","K","2","","1","0","0","0.2252803731","","false","183","0.2330781564","","main_expt","0.265472663","","0.2252803731","","0.2464000872","","","","","","",""
"39","","bandit","259","698880","0.0-221.0-0.0","60040703","wem/bandit_single","AOGT0KZDUX8CC","gain","2","","75","K","2","","0","0","1","0.1614269484","","false","184","0.2711395555","","main_expt","0.2826161147","","0.1614269484","","0.3039071009","","","","","","",""
"137","","bandit","260","700776","0.0-222.0-0.0","60040703","wem/bandit_single","AOGT0KZDUX8CC","gain","2","","75","K","2","","1","0","0","0.1636939604","","false","185","0.2182249031","","main_expt","0.2542525597","","0.1636939604","","0.3100879913","","","","","","",""
"65","","bandit","261","702614","0.0-223.0-0.0","60040703","wem/bandit_single","AOGT0KZDUX8CC","gain","2","","75","K","2","","0","0","1","0.1744134641","","false","186","0.2609412602","","main_expt","0.260460085","","0.1744134641","","0.28505789","","","","","","",""
"26","","bandit","262","704402","0.0-224.0-0.0","60040703","wem/bandit_single","AOGT0KZDUX8CC","gain","2","","75","K","2","","0","0","1","0.1955069844","","false","187","0.2242136054","","main_expt","0.2119714508","","0.1955069844","","0.2698122055","","","","","","",""
"191","","bandit","263","706361","0.0-225.0-0.0","60040703","wem/bandit_single","AOGT0KZDUX8CC","gain","2","","75","K","2","","0","0","1","0.2289740151","","false","188","0.2404864381","","main_expt","0.1887053186","","0.2289740151","","0.2270240414","","","","","","",""
"989","","bandit","264","709114","0.0-226.0-0.0","60040703","wem/bandit_single","AOGT0KZDUX8CC","gain","2","","75","K","2","","0","0","1","0.2495887903","","false","189","0.2177927796","","main_expt","0.1944753942","","0.2495887903","","0.2182158859","","","","","","",""
"112","","bandit","265","710985","0.0-227.0-0.0","60040703","wem/bandit_single","AOGT0KZDUX8CC","gain","2","","75","K","2","","1","0","0","0.2815424982","","false","190","0.2445379922","","main_expt","0.2163673671","","0.2815424982","","0.2445882628","","","","","","",""
"18","","bandit","266","712769","0.0-228.0-0.0","60040703","wem/bandit_single","AOGT0KZDUX8CC","gain","2","","75","K","2","","0","0","1","0.2401402076","","false","191","0.2910265903","","main_expt","0.2584180811","","0.2401402076","","0.2733302752","","","","","","",""
"87","","bandit","267","714652","0.0-229.0-0.0","60040703","wem/bandit_single","AOGT0KZDUX8CC","gain","2","","75","K","2","","0","0","1","0.2510809658","","false","192","0.3095983682","","main_expt","0.2555063139","","0.2510809658","","0.2776932955","","","","","","",""
"948","","bandit","268","717362","0.0-230.0-0.0","60040703","wem/bandit_single","AOGT0KZDUX8CC","gain","2","","75","K","2","","0","0","1","0.2875405407","","false","193","0.3217156539","","main_expt","0.2694863875","","0.2875405407","","0.3335190616","","","","","","",""
"52","","bandit","269","719185","0.0-231.0-0.0","60040703","wem/bandit_single","AOGT0KZDUX8CC","gain","2","","74","J","1","","0","0","1","0.2894821148","","false","194","0.278878796","","main_expt","0.2894821148","","0.2183543786","","0.3308991278","","","","","","",""
"65","","bandit","270","721017","0.0-232.0-0.0","60040703","wem/bandit_single","AOGT0KZDUX8CC","gain","2","","74","J","1","","0","0","1","0.3028339589","","false","195","0.2738334973","","main_expt","0.3028339589","","0.2626349305","","0.3676749275","","","","","","",""
"137","","bandit","271","722915","0.0-233.0-0.0","60040703","wem/bandit_single","AOGT0KZDUX8CC","gain","2","","72","H","0","img/none_selected.jpg","0","0","1","0.2494818112","","false","196","0.2494818112","","main_expt","0.3051171059","","0.2046446137","","0.3523241719","","","","","","",""
"430","","bandit","272","725106","0.0-234.0-0.0","60040703","wem/bandit_single","AOGT0KZDUX8CC","gain","2","","72","H","0","img/none_selected.jpg","0","0","1","0.2620473779","","false","197","0.2620473779","","main_expt","0.2901305303","","0.2122082762","","0.3874168703","","","","","","",""
"36","","bandit","273","726904","0.0-235.0-0.0","60040703","wem/bandit_single","AOGT0KZDUX8CC","gain","2","","72","H","0","img/none_selected.jpg","1","0","0","0.3153682745","","false","198","0.3153682745","","main_expt","0.2403600488","","0.1962120249","","0.4072223947","","","","","","",""
"401","","bandit","274","729064","0.0-236.0-0.0","60040703","wem/bandit_single","AOGT0KZDUX8CC","gain","2","","72","H","0","img/none_selected.jpg","0","0","1","0.2424407548","","false","199","0.2424407548","","main_expt","0.2034733728","","0.1840541487","","0.4284861426","","","","","","",""
"72","","bandit","275","730903","0.0-237.0-0.0","60040703","wem/bandit_single","AOGT0KZDUX8CC","gain","2","","72","H","0","img/none_selected.jpg","1","0","0","0.2692586032","","false","200","0.2692586032","","main_expt","0.2193557146","","0.1575563837","","0.4181746593","","","","","","",""
"142","","bandit","276","732809","0.0-238.0-0.0","60040703","wem/bandit_single","AOGT0KZDUX8CC","gain","2","","72","H","0","img/none_selected.jpg","1","0","0","0.2605377594","","false","201","0.2605377594","","main_expt","0.2412650678","","0.138860739","","0.4134190678","","","","","","",""
"34","","bandit","277","734609","0.0-239.0-0.0","60040703","wem/bandit_single","AOGT0KZDUX8CC","gain","2","","72","H","0","img/none_selected.jpg","0","0","1","0.2372211354","","false","202","0.2372211354","","main_expt","0.2106041824","","0.1216759056","","0.4255663607","","","","","","",""
"1355","","bandit","278","737745","0.0-240.0-0.0","60040703","wem/bandit_single","AOGT0KZDUX8CC","gain","2","","72","H","0","img/none_selected.jpg","1","0","0","0.20896917","","false","203","0.20896917","","main_expt","0.2182463191","","0.1085797693","","0.4267176133","","","","","","",""
"897","","bandit","279","740402","0.0-241.0-0.0","60040703","wem/bandit_single","AOGT0KZDUX8CC","gain","2","","72","H","0","img/none_selected.jpg","0","0","1","0.2277156902","","false","204","0.2277156902","","main_expt","0.2060997213","","0.08750272662","","0.460819217","","","","","","",""
"1010","","bandit","280","743175","0.0-242.0-0.0","60040703","wem/bandit_single","AOGT0KZDUX8CC","gain","2","","72","H","0","img/none_selected.jpg","0","0","1","0.2096017385","","false","205","0.2096017385","","main_expt","0.2179237498","","0.1119911725","","0.4797370756","","","","","","",""
"221","","bandit","281","745161","0.0-243.0-0.0","60040703","wem/bandit_single","AOGT0KZDUX8CC","gain","2","","72","H","0","img/none_selected.jpg","0","0","1","0.2293009918","","false","206","0.2293009918","","main_expt","0.194566176","","0.105166696","","0.4850202511","","","","","","",""
"6957","","bandit","282","753883","0.0-244.0-0.0","60040703","wem/bandit_single","AOGT0KZDUX8CC","gain","2","","72","H","0","img/none_selected.jpg","0","0","1","0.2613461541","","false","207","0.2613461541","","main_expt","0.2540459421","","0.07428909222","","0.4588339162","","","","","","",""
"737","","bandit","283","756385","0.0-245.0-0.0","60040703","wem/bandit_single","AOGT0KZDUX8CC","gain","2","","72","H","0","img/none_selected.jpg","1","0","0","0.2921374763","","false","208","0.2921374763","","main_expt","0.2165425212","","0.08415887516","","0.4704498371","","","","","","",""
"52","","bandit","284","758233","0.0-246.0-0.0","60040703","wem/bandit_single","AOGT0KZDUX8CC","gain","2","","72","H","0","img/none_selected.jpg","0","0","1","0.2679345114","","false","209","0.2679345114","","main_expt","0.1808740619","","0.05558253146","","0.4498430745","","","","","","",""
"116","","bandit","285","760114","0.0-247.0-0.0","60040703","wem/bandit_single","AOGT0KZDUX8CC","gain","2","","72","H","0","img/none_selected.jpg","1","0","0","0.2356021564","","false","210","0.2356021564","","main_expt","0.2298827717","","0.04914985493","","0.4463117693","","","","","","",""
"271","","bandit","286","762152","0.0-248.0-0.0","60040703","wem/bandit_single","AOGT0KZDUX8CC","gain","2","","72","H","0","img/none_selected.jpg","1","0","0","0.2152320876","","false","211","0.2152320876","","main_expt","0.2533880575","","0.03798033643","","0.422163821","","","","","","",""
"163","","bandit","287","764082","0.0-249.0-0.0","60040703","wem/bandit_single","AOGT0KZDUX8CC","gain","2","","72","H","0","img/none_selected.jpg","1","0","0","0.2216595069","","false","212","0.2216595069","","main_expt","0.2771241442","","0.03974322714","","0.3852039581","","","","","","",""
"40","","bandit","288","765889","0.0-250.0-0.0","60040703","wem/bandit_single","AOGT0KZDUX8CC","gain","2","","72","H","0","img/none_selected.jpg","0","0","1","0.2150176613","","false","213","0.2150176613","","main_expt","0.3010302337","","0.02384455773","","0.3822954745","","","","","","",""
"33","","bandit","289","767688","0.0-251.0-0.0","60040703","wem/bandit_single","AOGT0KZDUX8CC","gain","2","","72","H","0","img/none_selected.jpg","0","0","1","0.1772129937","","false","214","0.1772129937","","main_expt","0.3409008015","","0.03216660231","","0.3608549874","","","","","","",""
"40","","bandit","290","769495","0.0-252.0-0.0","60040703","wem/bandit_single","AOGT0KZDUX8CC","gain","2","","72","H","0","img/none_selected.jpg","0","0","1","0.1584975441","","false","215","0.1584975441","","main_expt","0.3227810677","","0.03095464101","","0.3621739951","","","","","","",""
"58","","bandit","291","771320","0.0-253.0-0.0","60040703","wem/bandit_single","AOGT0KZDUX8CC","gain","2","","72","H","0","img/none_selected.jpg","0","0","1","0.1256434713","","false","216","0.1256434713","","main_expt","0.3636386285","","0.04011500866","","0.3733564142","","","","","","",""
"14904","","bandit","292","787990","0.0-254.0-0.0","60040703","wem/bandit_single","AOGT0KZDUX8CC","gain","2","","72","H","0","img/none_selected.jpg","0","0","1","0.1601534085","","false","217","0.1601534085","","main_expt","0.3649758886","","0.02351309264","","0.3856473275","","","","","","",""
"104","","bandit","293","789856","0.0-255.0-0.0","60040703","wem/bandit_single","AOGT0KZDUX8CC","gain","2","","72","H","0","img/none_selected.jpg","0","0","1","0.1514518834","","false","218","0.1514518834","","main_expt","0.3641131336","","0.01650540734","","0.3645608201","","","","","","",""
"121","","bandit","294","791743","0.0-256.0-0.0","60040703","wem/bandit_single","AOGT0KZDUX8CC","gain","2","","72","H","0","img/none_selected.jpg","1","0","0","0.2415223947","","false","219","0.2415223947","","main_expt","0.341156599","","0.03577324375","","0.3851453746","","","","","","",""
"215","","bandit","295","793720","0.0-257.0-0.0","60040703","wem/bandit_single","AOGT0KZDUX8CC","gain","2","","72","H","0","img/none_selected.jpg","1","0","0","0.2248182851","","false","220","0.2248182851","","main_expt","0.266049218","","0.03655385126","","0.4075423229","","","","","","",""
"96","","bandit","296","795601","0.0-258.0-0.0","60040703","wem/bandit_single","AOGT0KZDUX8CC","gain","2","","72","H","0","img/none_selected.jpg","1","0","0","0.2588925836","","false","221","0.2588925836","","main_expt","0.2359154628","","0.03282050992","","0.4083347012","","","","","","",""
"23","","bandit","297","797383","0.0-259.0-0.0","60040703","wem/bandit_single","AOGT0KZDUX8CC","gain","2","","72","H","0","img/none_selected.jpg","0","0","1","0.2025188389","","false","222","0.2025188389","","main_expt","0.2640726019","","0.02558717114","","0.4083223781","","","","","","",""
"394","","bandit","298","799545","0.0-260.0-0.0","60040703","wem/bandit_single","AOGT0KZDUX8CC","gain","2","","72","H","0","img/none_selected.jpg","1","0","0","0.1609755914","","false","223","0.1609755914","","main_expt","0.1860418506","","0.04788205671","","0.4240474742","","","","","","",""
"49","","bandit","299","801360","0.0-261.0-0.0","60040703","wem/bandit_single","AOGT0KZDUX8CC","gain","2","","72","H","0","img/none_selected.jpg","0","0","1","0.2316748255","","false","224","0.2316748255","","main_expt","0.151875944","","0.05498715651","","0.4346876605","","","","","","",""
"128","","bandit","300","803255","0.0-262.0-0.0","60040703","wem/bandit_single","AOGT0KZDUX8CC","gain","2","","72","H","0","img/none_selected.jpg","0","0","1","0.1605893144","","false","225","0.1605893144","","main_expt","0.1209973656","","0.056476577","","0.4541072866","","","","","","",""
"166","","bandit","301","805191","0.0-263.0-0.0","60040703","wem/bandit_single","AOGT0KZDUX8CC","gain","2","","72","H","0","img/none_selected.jpg","0","0","1","0.1389366963","","false","226","0.1389366963","","main_expt","0.1503457952","","0.06361054401","","0.4239515892","","","","","","",""
"266","","bandit","302","807223","0.0-264.0-0.0","60040703","wem/bandit_single","AOGT0KZDUX8CC","gain","2","","72","H","0","img/none_selected.jpg","0","0","1","0.09987042713","","false","227","0.09987042713","","main_expt","0.1784166707","","0.03819722012","","0.4122914309","","","","","","",""
"1186","","bandit","303","810313","0.0-265.0-0.0","60040703","wem/bandit_single","AOGT0KZDUX8CC","gain","2","","72","H","0","img/none_selected.jpg","1","0","0","0.1511988136","","false","228","0.1511988136","","main_expt","0.1729157366","","0.03706892342","","0.4022765074","","","","","","",""
"313","","bandit","304","812391","0.0-266.0-0.0","60040703","wem/bandit_single","AOGT0KZDUX8CC","gain","2","","72","H","0","img/none_selected.jpg","0","0","1","0.1165125066","","false","229","0.1165125066","","main_expt","0.2035050609","","0.05619366589","","0.3991813765","","","","","","",""
"179","","bandit","305","814335","0.0-267.0-0.0","60040703","wem/bandit_single","AOGT0KZDUX8CC","gain","2","","72","H","0","img/none_selected.jpg","0","0","1","0.09058018373","","false","230","0.09058018373","","main_expt","0.1677195288","","0.02398835026","","0.3771825363","","","","","","",""
"148","","bandit","306","816247","0.0-268.0-0.0","60040703","wem/bandit_single","AOGT0KZDUX8CC","gain","2","","72","H","0","img/none_selected.jpg","0","0","1","0.1254599363","","false","231","0.1254599363","","main_expt","0.1568417205","","0.01087418165","","0.4081115595","","","","","","",""
"216","","bandit","307","818234","0.0-269.0-0.0","60040703","wem/bandit_single","AOGT0KZDUX8CC","gain","2","","75","K","2","","0","0","1","0.005667282796","","false","232","0.09699218641","","main_expt","0.1733774055","","0.005667282796","","0.4227202023","","","","","","",""
"24","","bandit","308","820023","0.0-270.0-0.0","60040703","wem/bandit_single","AOGT0KZDUX8CC","gain","2","","72","H","0","img/none_selected.jpg","0","0","1","0.07122003092","","false","233","0.07122003092","","main_expt","0.2318808439","","0.00711790457","","0.4267606383","","","","","","",""
"144","","bandit","309","821937","0.0-271.0-0.0","60040703","wem/bandit_single","AOGT0KZDUX8CC","gain","2","","72","H","0","img/none_selected.jpg","0","0","1","0.07078025717","","false","234","0.07078025717","","main_expt","0.2728484722","","0.01087448681","","0.4076790224","","","","","","",""
"58","","bandit","310","823767","0.0-272.0-0.0","60040703","wem/bandit_single","AOGT0KZDUX8CC","gain","2","","72","H","0","img/none_selected.jpg","0","0","1","0.04546889639","","false","235","0.04546889639","","main_expt","0.230842538","","0.008183852991","","0.3750136452","","","","","","",""
"58","","bandit","311","825591","0.0-273.0-0.0","60040703","wem/bandit_single","AOGT0KZDUX8CC","gain","2","","74","J","1","","0","0","1","0.2565969246","","false","236","0.07949547843","","main_expt","0.2565969246","","0.00957014591","","0.3579900966","","","","","","",""
"106","","bandit","312","827463","0.0-274.0-0.0","60040703","wem/bandit_single","AOGT0KZDUX8CC","gain","2","","74","J","1","","0","0","1","0.2661079812","","false","237","0.06498208703","","main_expt","0.2661079812","","0.02345003211","","0.3685919787","","","","","","",""
"80","","bandit","313","829311","0.0-275.0-0.0","60040703","wem/bandit_single","AOGT0KZDUX8CC","gain","2","","74","J","1","","1","0","0","0.3192940022","","false","238","0.07283675032","","main_expt","0.3192940022","","0.02056264696","","0.3220789964","","","","","","",""
"4816","","bandit","314","836056","0.0-276.0-0.0","60040703","wem/bandit_single","AOGT0KZDUX8CC","gain","2","","74","J","1","","0","0","1","0.3150738333","","false","239","0.08723568047","","main_expt","0.3150738333","","0.02436326326","","0.3059519391","","","","","","",""
"81","","bandit","315","837904","0.0-277.0-0.0","60040703","wem/bandit_single","AOGT0KZDUX8CC","gain","2","","74","J","1","","0","0","1","0.3008600842","","false","240","0.06404566497","","main_expt","0.3008600842","","0.0242835944","","0.3168560559","","","","","","",""
"324","","bandit","316","839999","0.0-278.0-0.0","60040703","wem/bandit_single","AOGT0KZDUX8CC","gain","2","","74","J","1","","1","0","0","0.2677087501","","false","241","0.05187051438","","main_expt","0.2677087501","","0.02652021178","","0.269391424","","","","","","",""
"573","","bandit","317","842336","0.0-279.0-0.0","60040703","wem/bandit_single","AOGT0KZDUX8CC","gain","2","","74","J","1","","1","0","0","0.2645585527","","false","242","0.04056120823","","main_expt","0.2645585527","","0.0264543433","","0.2061132751","","","","","","",""
"146","","bandit","318","844256","0.0-280.0-0.0","60040703","wem/bandit_single","AOGT0KZDUX8CC","gain","2","","74","J","1","","0","0","1","0.2793098336","","false","243","0.02806248696","","main_expt","0.2793098336","","0.02176476481","","0.1996760118","","","","","","",""
"539","","bandit","319","846565","0.0-281.0-0.0","60040703","wem/bandit_single","AOGT0KZDUX8CC","gain","2","","74","J","1","","0","0","1","0.285685864","","false","244","0.04063524207","","main_expt","0.285685864","","0.01301534777","","0.1719334629","","","","","","",""
"1328","","bandit","320","849663","0.0-282.0-0.0","60040703","wem/bandit_single","AOGT0KZDUX8CC","gain","2","","74","J","1","","1","0","0","0.2792363563","","false","245","0.03258124644","","main_expt","0.2792363563","","0.02332936253","","0.2264626889","","","","","","",""
"287","","bandit","321","851718","0.0-283.0-0.0","60040703","wem/bandit_single","AOGT0KZDUX8CC","gain","2","","74","J","1","","0","0","1","0.2721020884","","false","246","0.034431304","","main_expt","0.2721020884","","0.02379131239","","0.2097999869","","","","","","",""
"186","","bandit","322","853676","0.0-284.0-0.0","60040703","wem/bandit_single","AOGT0KZDUX8CC","gain","2","","74","J","1","","0","0","1","0.2784836582","","false","247","0.0335896152","","main_expt","0.2784836582","","0.02988301985","","0.2190078117","","","","","","",""
"3227","","bandit","323","858664","0.0-285.0-0.0","60040703","wem/bandit_single","AOGT0KZDUX8CC","gain","2","","74","J","1","","0","0","1","0.2155360038","","false","248","0.0373608022","","main_expt","0.2155360038","","0.04121629219","","0.214739415","","","","","","",""
"1929","","bandit","324","862360","0.0-286.0-0.0","60040703","wem/bandit_single","AOGT0KZDUX8CC","gain","2","","74","J","1","","0","0","1","0.2182269439","","false","249","0.04629433077","","main_expt","0.2182269439","","0.03081548873","","0.2361668487","","","","","","",""
"166","","bandit","325","864295","0.0-287.0-0.0","60040703","wem/bandit_single","AOGT0KZDUX8CC","gain","2","","74","J","1","","0","0","1","0.2794373206","","false","250","0.04794370872","","main_expt","0.2794373206","","0.02831669856","","0.2730147117","","","","","","",""
"2174","","bandit","326","868239","0.0-288.0-0.0","60040703","wem/bandit_single","AOGT0KZDUX8CC","gain","2","","74","J","1","","0","0","1","0.2925698281","","false","251","0.06568157066","","main_expt","0.2925698281","","0.02600870455","","0.2591269664","","","","","","",""
"166","","bandit","327","870177","0.0-289.0-0.0","60040703","wem/bandit_single","AOGT0KZDUX8CC","gain","2","","74","J","1","","0","0","1","0.2727886948","","false","252","0.07567030371","","main_expt","0.2727886948","","0.02705961599","","0.3091321407","","","","","","",""
"814","","bandit","328","872759","0.0-290.0-0.0","60040703","wem/bandit_single","AOGT0KZDUX8CC","gain","2","","74","J","1","","0","0","1","0.2470803404","","false","253","0.06628052114","","main_expt","0.2470803404","","0.01805963102","","0.2284010385","","","","","","",""
"319","","bandit","329","874848","0.0-291.0-0.0","60040703","wem/bandit_single","AOGT0KZDUX8CC","gain","2","","74","J","1","","0","0","1","0.3366881304","","false","254","0.08321976201","","main_expt","0.3366881304","","0.01631706542","","0.2452739286","","","","","","",""
"430","","bandit","330","877047","0.0-292.0-0.0","60040703","wem/bandit_single","AOGT0KZDUX8CC","gain","2","","74","J","1","","1","0","0","0.3781216995","","false","255","0.1379446817","","main_expt","0.3781216995","","0.01966147099","","0.2769296881","","","","","","",""
"674","","bandit","331","879489","0.0-293.0-0.0","60040703","wem/bandit_single","AOGT0KZDUX8CC","gain","2","","74","J","1","","1","0","0","0.3565974786","","false","256","0.1104053019","","main_expt","0.3565974786","","0.02801527349","","0.222598086","","","","","","",""
"136","","bandit","332","881392","0.0-294.0-0.0","60040703","wem/bandit_single","AOGT0KZDUX8CC","gain","2","","74","J","1","","1","0","0","0.3668333327","","false","257","0.110095483","","main_expt","0.3668333327","","0.02393064904","","0.2497605863","","","","","","",""
"303","","bandit","333","883462","0.0-295.0-0.0","60040703","wem/bandit_single","AOGT0KZDUX8CC","gain","2","","74","J","1","","0","0","1","0.3978392262","","false","258","0.09250214804","","main_expt","0.3978392262","","0.01715644076","","0.248028097","","","","","","",""
"199","","bandit","334","885493","0.0-296.0-0.0","60040703","wem/bandit_single","AOGT0KZDUX8CC","gain","2","","74","J","1","","0","0","1","0.3892622443","","false","259","0.1288972452","","main_expt","0.3892622443","","0.01812234738","","0.210079309","","","","","","",""
"129","","bandit","335","887391","0.0-297.0-0.0","60040703","wem/bandit_single","AOGT0KZDUX8CC","gain","2","","74","J","1","","1","0","0","0.3787635018","","false","260","0.127844668","","main_expt","0.3787635018","","0.01699252537","","0.1785868889","","","","","","",""
"1424","","bandit","336","890583","0.0-298.0-0.0","60040703","wem/bandit_single","AOGT0KZDUX8CC","gain","2","","74","J","1","","0","0","1","0.4151771386","","false","261","0.1408125104","","main_expt","0.4151771386","","0.02027773674","","0.1855690742","","","","","","",""
"178","","bandit","337","892529","0.0-299.0-0.0","60040703","wem/bandit_single","AOGT0KZDUX8CC","gain","2","","74","J","1","","0","0","1","0.4184001904","","false","262","0.1423762304","","main_expt","0.4184001904","","0.008159173947","","0.2454672077","","","","","","",""
"820","","bandit","338","895120","0.0-300.0-0.0","60040703","wem/bandit_single","AOGT0KZDUX8CC","gain","2","","74","J","1","","1","0","0","0.4397427278","","false","263","0.1237094287","","main_expt","0.4397427278","","0.00730364875","","0.2423041147","","","","","","",""
"575","","bandit","339","897463","0.0-301.0-0.0","60040703","wem/bandit_single","AOGT0KZDUX8CC","gain","2","","74","J","1","","0","0","1","0.4308816061","","false","264","0.1110826985","","main_expt","0.4308816061","","0.008891010149","","0.2771483686","","","","","","",""
"461","","bandit","340","899695","0.0-302.0-0.0","60040703","wem/bandit_single","AOGT0KZDUX8CC","gain","2","","74","J","1","","1","0","0","0.4310956018","","false","265","0.09816719149","","main_expt","0.4310956018","","0.009434589262","","0.2066329382","","","","","","",""
"379","","bandit","341","901839","0.0-303.0-0.0","60040703","wem/bandit_single","AOGT0KZDUX8CC","gain","2","","74","J","1","","0","0","1","0.4462346174","","false","266","0.1313615454","","main_expt","0.4462346174","","0.009503255165","","0.1954640054","","","","","","",""
"169","","bandit","342","903775","0.0-304.0-0.0","60040703","wem/bandit_single","AOGT0KZDUX8CC","gain","2","","74","J","1","","1","0","0","0.4649068607","","false","267","0.1039649444","","main_expt","0.4649068607","","0.01294763698","","0.132533774","","","","","","",""
"186","","bandit","343","905727","0.0-305.0-0.0","60040703","wem/bandit_single","AOGT0KZDUX8CC","gain","2","","74","J","1","","0","0","1","0.4499385749","","false","268","0.0758663636","","main_expt","0.4499385749","","0.01002763249","","0.1212355483","","","","","","",""
"582","","bandit","344","908079","0.0-306.0-0.0","60040703","wem/bandit_single","AOGT0KZDUX8CC","gain","2","","74","J","1","","0","0","1","0.4702815535","","false","269","0.08641939852","","main_expt","0.4702815535","","0.009339874814","","0.1363236216","","","","","","",""
"295","","bandit","345","911699","0.0-307.0-0.0","60040703","wem/bandit_single","AOGT0KZDUX8CC","gain","2","","74","J","1","","0","0","1","0.4738293899","","false","270","0.08694739741","","main_expt","0.4738293899","","0.0101894737","","0.1061923246","","","","","","",""
"180","","bandit","346","913647","0.0-308.0-0.0","60040703","wem/bandit_single","AOGT0KZDUX8CC","gain","2","","74","J","1","","0","0","1","0.4552130477","","false","271","0.07507278363","","main_expt","0.4552130477","","0.0101062795","","0.09682021381","","","","","","",""
"546","","bandit","347","915968","0.0-309.0-0.0","60040703","wem/bandit_single","AOGT0KZDUX8CC","gain","2","","74","J","1","","1","0","0","0.4571227508","","false","272","0.09002305832","","main_expt","0.4571227508","","0.009276773287","","0.0728164368","","","","","","",""
"527","","bandit","348","918262","0.0-310.0-0.0","60040703","wem/bandit_single","AOGT0KZDUX8CC","gain","2","","74","J","1","","0","0","1","0.4262778794","","false","273","0.07941117108","","main_expt","0.4262778794","","0.0113492324","","0.1026255411","","","","","","",""
"342","","bandit","349","920368","0.0-311.0-0.0","60040703","wem/bandit_single","AOGT0KZDUX8CC","gain","2","","74","J","1","","1","0","0","0.4017895895","","false","274","0.09301171309","","main_expt","0.4017895895","","0.005483919941","","0.08683802548","","","","","","",""
"525","","bandit","350","922662","0.0-312.0-0.0","60040703","wem/bandit_single","AOGT0KZDUX8CC","gain","2","","74","J","1","","1","0","0","0.4017548056","","false","275","0.1012072593","","main_expt","0.4017548056","","0.00462874381","","0.08250982893","","","","","","",""
"427","","bandit","351","924855","0.0-313.0-0.0","60040703","wem/bandit_single","AOGT0KZDUX8CC","gain","2","","74","J","1","","1","0","0","0.4072561249","","false","276","0.1230964009","","main_expt","0.4072561249","","0.009610611089","","0.06031930624","","","","","","",""
"199","","bandit","352","926823","0.0-314.0-0.0","60040703","wem/bandit_single","AOGT0KZDUX8CC","gain","2","","74","J","1","","0","0","1","0.3248287115","","false","277","0.1320105939","","main_expt","0.3248287115","","0.01319252808","","0.07169075363","","","","","","",""
"22","","bandit","353","928623","0.0-315.0-0.0","60040703","wem/bandit_single","AOGT0KZDUX8CC","gain","2","","74","J","1","","0","0","1","0.2954662343","","false","278","0.100271112","","main_expt","0.2954662343","","0.008560453299","","0.119525529","","","","","","",""
"102","","bandit","354","930494","0.0-316.0-0.0","60040703","wem/bandit_single","AOGT0KZDUX8CC","gain","2","","74","J","1","","0","0","1","0.3430788315","","false","279","0.0752783975","","main_expt","0.3430788315","","0.02270234009","","0.05136608794","","","","","","",""
"568","","bandit","355","932831","0.0-317.0-0.0","60040703","wem/bandit_single","AOGT0KZDUX8CC","gain","2","","74","J","1","","1","0","0","0.298888987","","false","280","0.04609407158","","main_expt","0.298888987","","0.01842994591","","0.06692305053","","","","","","",""
"348","","bandit","356","934950","0.0-318.0-0.0","60040703","wem/bandit_single","AOGT0KZDUX8CC","gain","2","","74","J","1","","0","0","1","0.317374049","","false","281","0.05874754036","","main_expt","0.317374049","","0.01750385803","","0.08594942048","","","","","","",""
"527","","bandit","357","937248","0.0-319.0-0.0","60040703","wem/bandit_single","AOGT0KZDUX8CC","gain","2","","74","J","1","","0","0","1","0.2905756231","","false","282","0.05911354127","","main_expt","0.2905756231","","0.01075771148","","0.08562343316","","","","","","",""
"663","","bandit","358","939679","0.0-320.0-0.0","60040703","wem/bandit_single","AOGT0KZDUX8CC","gain","2","","74","J","1","","0","0","1","0.335540713","","false","283","0.0444902615","","main_expt","0.335540713","","0.009487342711","","0.06507866554","","","","","","",""
"201","","bandit","359","941646","0.0-321.0-0.0","60040703","wem/bandit_single","AOGT0KZDUX8CC","gain","2","","74","J","1","","0","0","1","0.3569674754","","false","284","0.03666520406","","main_expt","0.3569674754","","0.01035814212","","0.05738126215","","","","","","",""
"1717","","bandit","360","945134","0.0-322.0-0.0","60040703","wem/bandit_single","AOGT0KZDUX8CC","gain","2","","74","J","1","","1","0","0","0.4068019922","","false","285","0.02451873239","","main_expt","0.4068019922","","0.01056818013","","0.06337296056","","","","","","",""
"1264","","bandit","361","948168","0.0-323.0-0.0","60040703","wem/bandit_single","AOGT0KZDUX8CC","gain","2","","74","J","1","","1","0","0","0.432978486","","false","286","0.02877547985","","main_expt","0.432978486","","0.007821227136","","0.04649068967","","","","","","",""
"447","","bandit","362","950384","0.0-324.0-0.0","60040703","wem/bandit_single","AOGT0KZDUX8CC","gain","2","","74","J","1","","0","0","1","0.4213006965","","false","287","0.03331393821","","main_expt","0.4213006965","","0.01039042452","","0.04946639224","","","","","","",""
"245","","bandit","363","952399","0.0-325.0-0.0","60040703","wem/bandit_single","AOGT0KZDUX8CC","gain","2","","74","J","1","","0","0","1","0.4094413186","","false","288","0.02363643209","","main_expt","0.4094413186","","0.02141961277","","0.03962947871","","","","","","",""
"233","","bandit","364","954399","0.0-326.0-0.0","60040703","wem/bandit_single","AOGT0KZDUX8CC","gain","2","","74","J","1","","0","0","1","0.3731302572","","false","289","0.0366455232","","main_expt","0.3731302572","","0.02062414181","","0.05295486238","","","","","","",""
"52","","bandit","365","956214","0.0-327.0-0.0","60040703","wem/bandit_single","AOGT0KZDUX8CC","gain","2","","74","J","1","","0","0","1","0.4076032329","","false","290","0.04887184979","","main_expt","0.4076032329","","0.01411690602","","0.06311332932","","","","","","",""
"221495","","bandit","366","1180415","0.0-328.0-0.0","60040703","wem/bandit_single","AOGT0KZDUX8CC","gain","2","","74","J","1","","0","0","1","0.4134699565","","false","291","0.03783642248","","main_expt","0.4134699565","","0.03188260643","","0.07741633782","","","","","","",""
"92","","bandit","367","1182277","0.0-329.0-0.0","60040703","wem/bandit_single","AOGT0KZDUX8CC","gain","2","","74","J","1","","1","0","0","0.3827884258","","false","292","0.07820299584","","main_expt","0.3827884258","","0.03429620073","","0.09064252153","","","","","","",""
"23","","bandit","368","1184063","0.0-330.0-0.0","60040703","wem/bandit_single","AOGT0KZDUX8CC","gain","2","","74","J","1","","0","0","1","0.4162015812","","false","293","0.07060894185","","main_expt","0.4162015812","","0.030392347","","0.07659126906","","","","","","",""
"32","","bandit","369","1185871","0.0-331.0-0.0","60040703","wem/bandit_single","AOGT0KZDUX8CC","gain","2","","74","J","1","","0","0","1","0.447674372","","false","294","0.1051632986","","main_expt","0.447674372","","0.04782046051","","0.08042624432","","","","","","",""
"40","","bandit","370","1187677","0.0-332.0-0.0","60040703","wem/bandit_single","AOGT0KZDUX8CC","gain","2","","74","J","1","","1","0","0","0.4402126752","","false","295","0.06624019153","","main_expt","0.4402126752","","0.06309063339","","0.1216640212","","","","","","",""
"200","","bandit","371","1189645","0.0-333.0-0.0","60040703","wem/bandit_single","AOGT0KZDUX8CC","gain","2","","74","J","1","","0","0","1","0.4378891161","","false","296","0.07088700909","","main_expt","0.4378891161","","0.09511663338","","0.1058257345","","","","","","",""
"578","","bandit","372","1191989","0.0-334.0-0.0","60040703","wem/bandit_single","AOGT0KZDUX8CC","gain","2","","74","J","1","","0","0","1","0.468153315","","false","297","0.0529580871","","main_expt","0.468153315","","0.07325770628","","0.1101311263","","","","","","",""
"84","","bandit","373","1193845","0.0-335.0-0.0","60040703","wem/bandit_single","AOGT0KZDUX8CC","gain","2","","74","J","1","","1","0","0","0.4538992283","","false","298","0.04256970448","","main_expt","0.4538992283","","0.06352452747","","0.1117004815","","","","","","",""
"314","","bandit","374","1195927","0.0-336.0-0.0","60040703","wem/bandit_single","AOGT0KZDUX8CC","gain","2","","74","J","1","","0","0","1","0.4653276232","","false","299","0.02772245328","","main_expt","0.4653276232","","0.09466520998","","0.1201211159","","","","","","",""
