"rt","responses","trial_type","trial_index","time_elapsed","internal_node_id","subjID","study","MID","cond","drift","key_press","respCharCode","respKey","respChoiceNum","respChoice","gems","bombs","no_reward","GemPrChosen","BombPrChosen","practice","trial_counter","WinPr_0","LosePr_0","trial_label","WinPr_1","LosePr_1","WinPr_2","LosePr_2","WinPr_3","LosePr_3","Q0","Q1","Q2","gender","age","ethnicity"
"14034","{""Q0"":""A2WH3GIS2KF8LU""}","survey-text","0","14040","0.0-0.0","60255104","wem/bandit_single","A2WH3GIS2KF8LU","pain","1","","","","","","","","","","","","","","","","","","","","","","","","","","",""
"2167","","text","1","17212","0.0-1.0","60255104","wem/bandit_single","A2WH3GIS2KF8LU","pain","1","32","","","","","","","","","","","","","","","","","","","","","","","","","",""
"3763","","text","2","20979","0.0-2.0","60255104","wem/bandit_single","A2WH3GIS2KF8LU","pain","1","32","","","","","","","","","","","","","","","","","","","","","","","","","",""
"18881","","text","3","39863","0.0-3.0","60255104","wem/bandit_single","A2WH3GIS2KF8LU","pain","1","32","","","","","","","","","","","","","","","","","","","","","","","","","",""
"12224","","text","4","52091","0.0-4.0","60255104","wem/bandit_single","A2WH3GIS2KF8LU","pain","1","32","","","","","","","","","","","","","","","","","","","","","","","","","",""
"7500","","text","5","59594","0.0-5.0","60255104","wem/bandit_single","A2WH3GIS2KF8LU","pain","1","32","","","","","","","","","","","","","","","","","","","","","","","","","",""
"5342","","text","6","64941","0.0-6.0","60255104","wem/bandit_single","A2WH3GIS2KF8LU","pain","1","32","","","","","","","","","","","","","","","","","","","","","","","","","",""
"4520","","text","7","69466","0.0-7.0","60255104","wem/bandit_single","A2WH3GIS2KF8LU","pain","1","32","","","","","","","","","","","","","","","","","","","","","","","","","",""
"2749","","text","8","72217","0.0-8.0","60255104","wem/bandit_single","A2WH3GIS2KF8LU","pain","1","32","","","","","","","","","","","","","","","","","","","","","","","","","",""
"2170","","text","9","74393","0.0-9.0","60255104","wem/bandit_single","A2WH3GIS2KF8LU","pain","1","32","","","","","","","","","","","","","","","","","","","","","","","","","",""
"4546","","text","10","78951","0.0-10.0","60255104","wem/bandit_single","A2WH3GIS2KF8LU","pain","1","32","","","","","","","","","","","","","","","","","","","","","","","","","",""
"7966","","text","11","86935","0.0-11.0","60255104","wem/bandit_single","A2WH3GIS2KF8LU","pain","1","32","","","","","","","","","","","","","","","","","","","","","","","","","",""
"1858","","bandit","12","90329","0.0-12.0-0.0","60255104","wem/bandit_single","A2WH3GIS2KF8LU","pain","1","","74","J","0","img/none_selected_demo.jpg","0","0","1","0","0","true","0","0","0","","","","","","","","","","","","",""
"197","","bandit","13","92288","0.0-13.0-0.0","60255104","wem/bandit_single","A2WH3GIS2KF8LU","pain","1","","75","K","0","img/none_selected_demo.jpg","0","0","1","0","0","true","0","0","0","","","","","","","","","","","","",""
"1469","","text","14","94027","0.0-14.0","60255104","wem/bandit_single","A2WH3GIS2KF8LU","pain","1","32","","","","","","","","","","","","","","","","","","","","","","","","","",""
"1122","","text","15","95154","0.0-15.0","60255104","wem/bandit_single","A2WH3GIS2KF8LU","pain","1","32","","","","","","","","","","","","","","","","","","","","","","","","","",""
"2511","","text","16","97667","0.0-16.0","60255104","wem/bandit_single","A2WH3GIS2KF8LU","pain","1","32","","","","","","","","","","","","","","","","","","","","","","","","","",""
"3332","","text","17","101003","0.0-17.0","60255104","wem/bandit_single","A2WH3GIS2KF8LU","pain","1","32","","","","","","","","","","","","","","","","","","","","","","","","","",""
"689","","bandit","18","103206","0.0-18.0-0.0","60255104","wem/bandit_single","A2WH3GIS2KF8LU","pain","1","","74","J","0","img/none_selected_demo.jpg","0","1","0","0","0.8","true","0","0","0.8","80_20_practice","0","0.2","","","","","","","","","",""
"119","","bandit","19","105094","0.0-18.0-1.0","60255104","wem/bandit_single","A2WH3GIS2KF8LU","pain","1","","75","K","1","","0","1","0","0","0.2","true","0","0","0.8","80_20_practice","0","0.2","","","","","","","","","",""
"773","","bandit","20","107631","0.0-18.0-2.0","60255104","wem/bandit_single","A2WH3GIS2KF8LU","pain","1","","74","J","0","img/none_selected_demo.jpg","0","1","0","0","0.8","true","0","0","0.8","80_20_practice","0","0.2","","","","","","","","","",""
"602","","bandit","21","109994","0.0-18.0-3.0","60255104","wem/bandit_single","A2WH3GIS2KF8LU","pain","1","","75","K","1","","0","0","1","0","0.2","true","0","0","0.8","80_20_practice","0","0.2","","","","","","","","","",""
"9","","bandit","22","111795","0.0-18.0-4.0","60255104","wem/bandit_single","A2WH3GIS2KF8LU","pain","1","","74","J","0","img/none_selected_demo.jpg","0","1","0","0","0.8","true","0","0","0.8","80_20_practice","0","0.2","","","","","","","","","",""
"8","","bandit","23","113569","0.0-18.0-5.0","60255104","wem/bandit_single","A2WH3GIS2KF8LU","pain","1","","74","J","0","img/none_selected_demo.jpg","0","1","0","0","0.8","true","0","0","0.8","80_20_practice","0","0.2","","","","","","","","","",""
"41","","bandit","24","115374","0.0-18.0-6.0","60255104","wem/bandit_single","A2WH3GIS2KF8LU","pain","1","","74","J","0","img/none_selected_demo.jpg","0","0","1","0","0.8","true","0","0","0.8","80_20_practice","0","0.2","","","","","","","","","",""
"3","","bandit","25","117140","0.0-18.0-7.0","60255104","wem/bandit_single","A2WH3GIS2KF8LU","pain","1","","74","J","0","img/none_selected_demo.jpg","0","1","0","0","0.8","true","0","0","0.8","80_20_practice","0","0.2","","","","","","","","","",""
"529","","bandit","26","119442","0.0-18.0-8.0","60255104","wem/bandit_single","A2WH3GIS2KF8LU","pain","1","","74","J","0","img/none_selected_demo.jpg","0","1","0","0","0.8","true","0","0","0.8","80_20_practice","0","0.2","","","","","","","","","",""
"1","","bandit","27","121208","0.0-18.0-9.0","60255104","wem/bandit_single","A2WH3GIS2KF8LU","pain","1","","74","J","0","img/none_selected_demo.jpg","0","1","0","0","0.8","true","0","0","0.8","80_20_practice","0","0.2","","","","","","","","","",""
"48","","bandit","28","123020","0.0-18.0-10.0","60255104","wem/bandit_single","A2WH3GIS2KF8LU","pain","1","","74","J","0","img/none_selected_demo.jpg","0","0","1","0","0.8","true","0","0","0.8","80_20_practice","0","0.2","","","","","","","","","",""
"36","","bandit","29","124822","0.0-18.0-11.0","60255104","wem/bandit_single","A2WH3GIS2KF8LU","pain","1","","74","J","0","img/none_selected_demo.jpg","0","1","0","0","0.8","true","0","0","0.8","80_20_practice","0","0.2","","","","","","","","","",""
"514","","bandit","30","127098","0.0-18.0-12.0","60255104","wem/bandit_single","A2WH3GIS2KF8LU","pain","1","","74","J","0","img/none_selected_demo.jpg","0","1","0","0","0.8","true","0","0","0.8","80_20_practice","0","0.2","","","","","","","","","",""
"35","","bandit","31","128903","0.0-18.0-13.0","60255104","wem/bandit_single","A2WH3GIS2KF8LU","pain","1","","74","J","0","img/none_selected_demo.jpg","0","1","0","0","0.8","true","0","0","0.8","80_20_practice","0","0.2","","","","","","","","","",""
"35","","bandit","32","130707","0.0-18.0-14.0","60255104","wem/bandit_single","A2WH3GIS2KF8LU","pain","1","","74","J","0","img/none_selected_demo.jpg","0","1","0","0","0.8","true","0","0","0.8","80_20_practice","0","0.2","","","","","","","","","",""
"17","","bandit","33","132492","0.0-18.0-15.0","60255104","wem/bandit_single","A2WH3GIS2KF8LU","pain","1","","74","J","0","img/none_selected_demo.jpg","0","1","0","0","0.8","true","0","0","0.8","80_20_practice","0","0.2","","","","","","","","","",""
"27","","bandit","34","134289","0.0-18.0-16.0","60255104","wem/bandit_single","A2WH3GIS2KF8LU","pain","1","","74","J","0","img/none_selected_demo.jpg","0","1","0","0","0.8","true","0","0","0.8","80_20_practice","0","0.2","","","","","","","","","",""
"392","","bandit","35","136441","0.0-18.0-17.0","60255104","wem/bandit_single","A2WH3GIS2KF8LU","pain","1","","74","J","0","img/none_selected_demo.jpg","0","1","0","0","0.8","true","0","0","0.8","80_20_practice","0","0.2","","","","","","","","","",""
"681","","bandit","36","138885","0.0-18.0-18.0","60255104","wem/bandit_single","A2WH3GIS2KF8LU","pain","1","","74","J","0","img/none_selected_demo.jpg","0","1","0","0","0.8","true","0","0","0.8","80_20_practice","0","0.2","","","","","","","","","",""
"26","","bandit","37","140672","0.0-18.0-19.0","60255104","wem/bandit_single","A2WH3GIS2KF8LU","pain","1","","74","J","0","img/none_selected_demo.jpg","0","1","0","0","0.8","true","0","0","0.8","80_20_practice","0","0.2","","","","","","","","","",""
"1838","","text","38","142765","0.0-19.0","60255104","wem/bandit_single","A2WH3GIS2KF8LU","pain","1","32","","","","","","","","","","","","","","","","","","","","","","","","","",""
"1303","","bandit","39","145588","0.0-20.0-0.0","60255104","wem/bandit_single","A2WH3GIS2KF8LU","pain","1","","74","J","0","img/none_selected_demo.jpg","0","0","1","0","0","true","0","0","0","","0","0","","","","","","","","","",""
"5377","","text","40","151220","0.0-21.0","60255104","wem/bandit_single","A2WH3GIS2KF8LU","pain","1","32","","","","","","","","","","","","","","","","","","","","","","","","","",""
"1674","","text","41","152895","0.0-22.0","60255104","wem/bandit_single","A2WH3GIS2KF8LU","pain","1","32","","","","","","","","","","","","","","","","","","","","","","","","","",""
"1594","","text","42","154500","0.0-23.0","60255104","wem/bandit_single","A2WH3GIS2KF8LU","pain","1","32","","","","","","","","","","","","","","","","","","","","","","","","","",""
"2639","","text","43","157144","0.0-24.0","60255104","wem/bandit_single","A2WH3GIS2KF8LU","pain","1","32","","","","","","","","","","","","","","","","","","","","","","","","","",""
"8354","","text","44","165501","0.0-25.0","60255104","wem/bandit_single","A2WH3GIS2KF8LU","pain","1","32","","","","","","","","","","","","","","","","","","","","","","","","","",""
"2202","","text","45","167710","0.0-26.0","60255104","wem/bandit_single","A2WH3GIS2KF8LU","pain","1","32","","","","","","","","","","","","","","","","","","","","","","","","","",""
"1498","","text","46","169214","0.0-27.0","60255104","wem/bandit_single","A2WH3GIS2KF8LU","pain","1","32","","","","","","","","","","","","","","","","","","","","","","","","","",""
"2438","","text","47","171658","0.0-28.0","60255104","wem/bandit_single","A2WH3GIS2KF8LU","pain","1","32","","","","","","","","","","","","","","","","","","","","","","","","","",""
"3261","","text","48","174923","0.0-29.0","60255104","wem/bandit_single","A2WH3GIS2KF8LU","pain","1","32","","","","","","","","","","","","","","","","","","","","","","","","","",""
"1642","","text","49","176570","0.0-30.0","60255104","wem/bandit_single","A2WH3GIS2KF8LU","pain","1","32","","","","","","","","","","","","","","","","","","","","","","","","","",""
"3267","","text","50","179844","0.0-31.0","60255104","wem/bandit_single","A2WH3GIS2KF8LU","pain","1","32","","","","","","","","","","","","","","","","","","","","","","","","","",""
"414","","bandit","51","181771","0.0-32.0-0.0","60255104","wem/bandit_single","A2WH3GIS2KF8LU","pain","1","","72","H","0","img/none_selected.jpg","0","1","0","0","0.8","true","0","0","0.8","full_practice","0","0.2","0","0.6","0","0.2","","","","","",""
"22","","bandit","52","183575","0.0-32.0-1.0","60255104","wem/bandit_single","A2WH3GIS2KF8LU","pain","1","","74","J","1","","0","0","1","0","0.2","true","0","0","0.8","full_practice","0","0.2","0","0.6","0","0.2","","","","","",""
"683","","bandit","53","186023","0.0-32.0-2.0","60255104","wem/bandit_single","A2WH3GIS2KF8LU","pain","1","","75","K","2","","0","0","1","0","0.6","true","0","0","0.8","full_practice","0","0.2","0","0.6","0","0.2","","","","","",""
"557","","bandit","54","188370","0.0-32.0-3.0","60255104","wem/bandit_single","A2WH3GIS2KF8LU","pain","1","","72","H","0","img/none_selected.jpg","0","0","1","0","0.8","true","0","0","0.8","full_practice","0","0.2","0","0.6","0","0.2","","","","","",""
"91","","bandit","55","190223","0.0-32.0-4.0","60255104","wem/bandit_single","A2WH3GIS2KF8LU","pain","1","","76","L","3","","0","0","1","0","0.2","true","0","0","0.8","full_practice","0","0.2","0","0.6","0","0.2","","","","","",""
"381","","bandit","56","192369","0.0-32.0-5.0","60255104","wem/bandit_single","A2WH3GIS2KF8LU","pain","1","","72","H","0","img/none_selected.jpg","0","1","0","0","0.8","true","0","0","0.8","full_practice","0","0.2","0","0.6","0","0.2","","","","","",""
"38","","bandit","57","194173","0.0-32.0-6.0","60255104","wem/bandit_single","A2WH3GIS2KF8LU","pain","1","","72","H","0","img/none_selected.jpg","0","1","0","0","0.8","true","0","0","0.8","full_practice","0","0.2","0","0.6","0","0.2","","","","","",""
"10","","bandit","58","195949","0.0-32.0-7.0","60255104","wem/bandit_single","A2WH3GIS2KF8LU","pain","1","","72","H","0","img/none_selected.jpg","0","1","0","0","0.8","true","0","0","0.8","full_practice","0","0.2","0","0.6","0","0.2","","","","","",""
"16","","bandit","59","197728","0.0-32.0-8.0","60255104","wem/bandit_single","A2WH3GIS2KF8LU","pain","1","","72","H","0","img/none_selected.jpg","0","1","0","0","0.8","true","0","0","0.8","full_practice","0","0.2","0","0.6","0","0.2","","","","","",""
"560","","bandit","60","200064","0.0-32.0-9.0","60255104","wem/bandit_single","A2WH3GIS2KF8LU","pain","1","","72","H","0","img/none_selected.jpg","0","0","1","0","0.8","true","0","0","0.8","full_practice","0","0.2","0","0.6","0","0.2","","","","","",""
"22","","bandit","61","201863","0.0-32.0-10.0","60255104","wem/bandit_single","A2WH3GIS2KF8LU","pain","1","","72","H","0","img/none_selected.jpg","0","1","0","0","0.8","true","0","0","0.8","full_practice","0","0.2","0","0.6","0","0.2","","","","","",""
"330","","bandit","62","203964","0.0-32.0-11.0","60255104","wem/bandit_single","A2WH3GIS2KF8LU","pain","1","","72","H","0","img/none_selected.jpg","0","1","0","0","0.8","true","0","0","0.8","full_practice","0","0.2","0","0.6","0","0.2","","","","","",""
"50","","bandit","63","205781","0.0-32.0-12.0","60255104","wem/bandit_single","A2WH3GIS2KF8LU","pain","1","","72","H","0","img/none_selected.jpg","0","1","0","0","0.8","true","0","0","0.8","full_practice","0","0.2","0","0.6","0","0.2","","","","","",""
"4","","bandit","64","207554","0.0-32.0-13.0","60255104","wem/bandit_single","A2WH3GIS2KF8LU","pain","1","","72","H","0","img/none_selected.jpg","0","1","0","0","0.8","true","0","0","0.8","full_practice","0","0.2","0","0.6","0","0.2","","","","","",""
"417","","bandit","65","209763","0.0-32.0-14.0","60255104","wem/bandit_single","A2WH3GIS2KF8LU","pain","1","","72","H","0","img/none_selected.jpg","0","1","0","0","0.8","true","0","0","0.8","full_practice","0","0.2","0","0.6","0","0.2","","","","","",""
"44","","bandit","66","211576","0.0-32.0-15.0","60255104","wem/bandit_single","A2WH3GIS2KF8LU","pain","1","","72","H","0","img/none_selected.jpg","0","0","1","0","0.8","true","0","0","0.8","full_practice","0","0.2","0","0.6","0","0.2","","","","","",""
"190","","bandit","67","213535","0.0-32.0-16.0","60255104","wem/bandit_single","A2WH3GIS2KF8LU","pain","1","","72","H","0","img/none_selected.jpg","0","0","1","0","0.8","true","0","0","0.8","full_practice","0","0.2","0","0.6","0","0.2","","","","","",""
"22","","bandit","68","215327","0.0-32.0-17.0","60255104","wem/bandit_single","A2WH3GIS2KF8LU","pain","1","","74","J","1","","0","0","1","0","0.2","true","0","0","0.8","full_practice","0","0.2","0","0.6","0","0.2","","","","","",""
"44","","bandit","69","217135","0.0-32.0-18.0","60255104","wem/bandit_single","A2WH3GIS2KF8LU","pain","1","","75","K","2","","0","1","0","0","0.6","true","0","0","0.8","full_practice","0","0.2","0","0.6","0","0.2","","","","","",""
"77","","bandit","70","218976","0.0-32.0-19.0","60255104","wem/bandit_single","A2WH3GIS2KF8LU","pain","1","","75","K","2","","0","1","0","0","0.6","true","0","0","0.8","full_practice","0","0.2","0","0.6","0","0.2","","","","","",""
"2859","","text","71","222101","0.0-33.0","60255104","wem/bandit_single","A2WH3GIS2KF8LU","pain","1","32","","","","","","","","","","","","","","","","","","","","","","","","","",""
"9278","","text","72","232385","0.0-34.0","60255104","wem/bandit_single","A2WH3GIS2KF8LU","pain","1","32","","","","","","","","","","","","","","","","","","","","","","","","","",""
"4221","","text","73","236617","0.0-35.0","60255104","wem/bandit_single","A2WH3GIS2KF8LU","pain","1","32","","","","","","","","","","","","","","","","","","","","","","","","","",""
"6132","","text","74","242752","0.0-36.0","60255104","wem/bandit_single","A2WH3GIS2KF8LU","pain","1","32","","","","","","","","","","","","","","","","","","","","","","","","","",""
"4025","","text","75","246781","0.0-37.0","60255104","wem/bandit_single","A2WH3GIS2KF8LU","pain","1","32","","","","","","","","","","","","","","","","","","","","","","","","","",""
"739","","bandit","76","249031","0.0-38.0-0.0","60255104","wem/bandit_single","A2WH3GIS2KF8LU","pain","1","","72","H","0","img/none_selected.jpg","0","0","1","","0.1765468105","false","1","","0.1765468105","main_expt","","0.433486002","","0.1079408374","","0.04371116513","","","","","",""
"72","","bandit","77","250874","0.0-39.0-0.0","60255104","wem/bandit_single","A2WH3GIS2KF8LU","pain","1","","74","J","1","","0","0","1","","0.4446307222","false","2","","0.1569258514","main_expt","","0.4446307222","","0.1605706499","","0.0204546363","","","","","",""
"50","","bandit","78","252689","0.0-40.0-0.0","60255104","wem/bandit_single","A2WH3GIS2KF8LU","pain","1","","75","K","2","","0","0","1","","0.1829447669","false","3","","0.1639246388","main_expt","","0.4522438858","","0.1829447669","","0.02109221713","","","","","",""
"41","","bandit","79","254496","0.0-41.0-0.0","60255104","wem/bandit_single","A2WH3GIS2KF8LU","pain","1","","76","L","3","","0","0","1","","0.04448829896","false","4","","0.2130332657","main_expt","","0.4330109471","","0.1756642407","","0.04448829896","","","","","",""
"14","","bandit","80","256274","0.0-42.0-0.0","60255104","wem/bandit_single","A2WH3GIS2KF8LU","pain","1","","74","J","1","","0","0","1","","0.4678508314","false","5","","0.1939577492","main_expt","","0.4678508314","","0.1349544936","","0.03824555068","","","","","",""
"36","","bandit","81","258071","0.0-43.0-0.0","60255104","wem/bandit_single","A2WH3GIS2KF8LU","pain","1","","75","K","2","","0","0","1","","0.1356037804","false","6","","0.2419857306","main_expt","","0.4644602632","","0.1356037804","","0.03028715703","","","","","",""
"9","","bandit","82","259848","0.0-44.0-0.0","60255104","wem/bandit_single","A2WH3GIS2KF8LU","pain","1","","72","H","0","img/none_selected.jpg","0","0","1","","0.2437977828","false","7","","0.2437977828","main_expt","","0.4575746565","","0.1731738011","","0.0280090558","","","","","",""
"1","","bandit","83","261629","0.0-45.0-0.0","60255104","wem/bandit_single","A2WH3GIS2KF8LU","pain","1","","76","L","3","","0","0","1","","0.01994926529","false","8","","0.2910779813","main_expt","","0.4508833002","","0.1697830552","","0.01994926529","","","","","",""
"64","","bandit","84","263465","0.0-46.0-0.0","60255104","wem/bandit_single","A2WH3GIS2KF8LU","pain","1","","72","H","0","img/none_selected.jpg","0","0","1","","0.3043628405","false","9","","0.3043628405","main_expt","","0.446295775","","0.1792782501","","0.02255652904","","","","","",""
"10","","bandit","85","265246","0.0-47.0-0.0","60255104","wem/bandit_single","A2WH3GIS2KF8LU","pain","1","","76","L","3","","0","0","1","","0.02794315976","false","10","","0.3568141906","main_expt","","0.4564580261","","0.1705688187","","0.02794315976","","","","","",""
"291","","bandit","86","267303","0.0-48.0-0.0","60255104","wem/bandit_single","A2WH3GIS2KF8LU","pain","1","","75","K","2","","0","0","1","","0.1974022207","false","11","","0.3439843329","main_expt","","0.4233437492","","0.1974022207","","0.02289966844","","","","","",""
"501","","bandit","87","269607","0.0-49.0-0.0","60255104","wem/bandit_single","A2WH3GIS2KF8LU","pain","1","","74","J","1","","0","0","1","","0.4129107721","false","12","","0.2959247237","main_expt","","0.4129107721","","0.1753487428","","0.01510656417","","","","","",""
"63","","bandit","88","271437","0.0-50.0-0.0","60255104","wem/bandit_single","A2WH3GIS2KF8LU","pain","1","","72","H","0","img/none_selected.jpg","0","0","1","","0.2711511111","false","13","","0.2711511111","main_expt","","0.4188058581","","0.1858973774","","0.01475809492","","","","","",""
"26","","bandit","89","273234","0.0-51.0-0.0","60255104","wem/bandit_single","A2WH3GIS2KF8LU","pain","1","","74","J","1","","0","0","1","","0.4542155744","false","14","","0.2351285692","main_expt","","0.4542155744","","0.1873997244","","0.00909265887","","","","","",""
"434","","bandit","90","275450","0.0-52.0-0.0","60255104","wem/bandit_single","A2WH3GIS2KF8LU","pain","1","","75","K","2","","0","0","1","","0.2079034381","false","15","","0.3299180318","main_expt","","0.4436127815","","0.2079034381","","0.004683339805","","","","","",""
"63","","bandit","91","277277","0.0-53.0-0.0","60255104","wem/bandit_single","A2WH3GIS2KF8LU","pain","1","","76","L","3","","0","0","1","","0.007493295572","false","16","","0.3382291528","main_expt","","0.4255220112","","0.2116662278","","0.007493295572","","","","","",""
"42","","bandit","92","279081","0.0-54.0-0.0","60255104","wem/bandit_single","A2WH3GIS2KF8LU","pain","1","","72","H","0","img/none_selected.jpg","0","0","1","","0.3890963744","false","17","","0.3890963744","main_expt","","0.4221090449","","0.2460799228","","0.009835384986","","","","","",""
"2","","bandit","93","280850","0.0-55.0-0.0","60255104","wem/bandit_single","A2WH3GIS2KF8LU","pain","1","","74","J","1","","0","0","1","","0.4157246332","false","18","","0.3102907615","main_expt","","0.4157246332","","0.2725156425","","0.01282838009","","","","","",""
"77","","bandit","94","282693","0.0-56.0-0.0","60255104","wem/bandit_single","A2WH3GIS2KF8LU","pain","1","","75","K","2","","0","1","0","","0.319312936","false","19","","0.2734902963","main_expt","","0.4000612909","","0.319312936","","0.03935122736","","","","","",""
"47","","bandit","95","284505","0.0-57.0-0.0","60255104","wem/bandit_single","A2WH3GIS2KF8LU","pain","1","","75","K","2","","0","0","1","","0.3449168397","false","20","","0.2157414593","main_expt","","0.4116546581","","0.3449168397","","0.03712672215","","","","","",""
"113","","bandit","96","286383","0.0-58.0-0.0","60255104","wem/bandit_single","A2WH3GIS2KF8LU","pain","1","","76","L","3","","0","0","1","","0.02631596187","false","21","","0.2148325275","main_expt","","0.4276829816","","0.2668327531","","0.02631596187","","","","","",""
"453","","bandit","97","288603","0.0-59.0-0.0","60255104","wem/bandit_single","A2WH3GIS2KF8LU","pain","1","","75","K","2","","0","0","1","","0.2786929748","false","22","","0.1819582271","main_expt","","0.3861543943","","0.2786929748","","0.0338100911","","","","","",""
"31","","bandit","98","290405","0.0-60.0-0.0","60255104","wem/bandit_single","A2WH3GIS2KF8LU","pain","1","","72","H","0","img/none_selected.jpg","0","0","1","","0.1776669961","false","23","","0.1776669961","main_expt","","0.3815006395","","0.2012253143","","0.06132921526","","","","","",""
"305","","bandit","99","292482","0.0-61.0-0.0","60255104","wem/bandit_single","A2WH3GIS2KF8LU","pain","1","","74","J","1","","0","1","0","","0.4063144844","false","24","","0.2595803745","main_expt","","0.4063144844","","0.1363446769","","0.06546003458","","","","","",""
"448","","bandit","100","294705","0.0-62.0-0.0","60255104","wem/bandit_single","A2WH3GIS2KF8LU","pain","1","","74","J","1","","0","0","1","","0.3218764758","false","25","","0.2184946748","main_expt","","0.3218764758","","0.1395957504","","0.08327489459","","","","","",""
"186","","bandit","101","296657","0.0-63.0-0.0","60255104","wem/bandit_single","A2WH3GIS2KF8LU","pain","1","","76","L","3","","0","0","1","","0.06117167893","false","26","","0.2382025465","main_expt","","0.3190898414","","0.1095431569","","0.06117167893","","","","","",""
"15","","bandit","102","298440","0.0-64.0-0.0","60255104","wem/bandit_single","A2WH3GIS2KF8LU","pain","1","","74","J","1","","0","1","0","","0.361309168","false","27","","0.2249508913","main_expt","","0.361309168","","0.1290148999","","0.03494965278","","","","","",""
"350","","bandit","103","300563","0.0-65.0-0.0","60255104","wem/bandit_single","A2WH3GIS2KF8LU","pain","1","","74","J","1","","0","0","1","","0.3247985582","false","28","","0.2388683754","main_expt","","0.3247985582","","0.09304199486","","0.02964638986","","","","","",""
"46","","bandit","104","302384","0.0-66.0-0.0","60255104","wem/bandit_single","A2WH3GIS2KF8LU","pain","1","","74","J","1","","0","1","0","","0.3358989687","false","29","","0.238121012","main_expt","","0.3358989687","","0.1042487788","","0.03498116837","","","","","",""
"35","","bandit","105","304184","0.0-67.0-0.0","60255104","wem/bandit_single","A2WH3GIS2KF8LU","pain","1","","74","J","1","","0","0","1","","0.3833706669","false","30","","0.2995264376","main_expt","","0.3833706669","","0.1177759499","","0.04244048525","","","","","",""
"35","","bandit","106","305992","0.0-68.0-0.0","60255104","wem/bandit_single","A2WH3GIS2KF8LU","pain","1","","74","J","1","","0","0","1","","0.365606812","false","31","","0.2738636663","main_expt","","0.365606812","","0.1177925617","","0.06152315655","","","","","",""
"35","","bandit","107","307801","0.0-69.0-0.0","60255104","wem/bandit_single","A2WH3GIS2KF8LU","pain","1","","74","J","1","","0","0","1","","0.3376656117","false","32","","0.3185168498","main_expt","","0.3376656117","","0.08495919706","","0.04890303061","","","","","",""
"23","","bandit","108","309594","0.0-70.0-0.0","60255104","wem/bandit_single","A2WH3GIS2KF8LU","pain","1","","75","K","2","","0","0","1","","0.09918690981","false","33","","0.3160257618","main_expt","","0.3632929272","","0.09918690981","","0.06913310411","","","","","",""
"130","","bandit","109","311499","0.0-71.0-0.0","60255104","wem/bandit_single","A2WH3GIS2KF8LU","pain","1","","72","H","0","img/none_selected.jpg","0","1","0","","0.3411570355","false","34","","0.3411570355","main_expt","","0.4008603673","","0.1267106232","","0.07311713639","","","","","",""
"9","","bandit","110","313272","0.0-72.0-0.0","60255104","wem/bandit_single","A2WH3GIS2KF8LU","pain","1","","72","H","0","img/none_selected.jpg","0","0","1","","0.3190481916","false","35","","0.3190481916","main_expt","","0.4024879816","","0.1076928618","","0.08374615962","","","","","",""
"860","","bandit","111","315902","0.0-73.0-0.0","60255104","wem/bandit_single","A2WH3GIS2KF8LU","pain","1","","72","H","0","img/none_selected.jpg","0","0","1","","0.3264142162","false","36","","0.3264142162","main_expt","","0.3740303516","","0.1298816773","","0.08182693844","","","","","",""
"33","","bandit","112","317694","0.0-74.0-0.0","60255104","wem/bandit_single","A2WH3GIS2KF8LU","pain","1","","76","L","3","","0","0","1","","0.1343371601","false","37","","0.3198880486","main_expt","","0.3728306432","","0.1459487567","","0.1343371601","","","","","",""
"362","","bandit","113","319856","0.0-75.0-0.0","60255104","wem/bandit_single","A2WH3GIS2KF8LU","pain","1","","75","K","2","","0","0","1","","0.1339045699","false","38","","0.3683112265","main_expt","","0.3805434418","","0.1339045699","","0.155986589","","","","","",""
"8","","bandit","114","321627","0.0-76.0-0.0","60255104","wem/bandit_single","A2WH3GIS2KF8LU","pain","1","","74","J","1","","0","1","0","","0.3969568822","false","39","","0.3427238384","main_expt","","0.3969568822","","0.1345127174","","0.1477757124","","","","","",""
"20","","bandit","115","323422","0.0-77.0-0.0","60255104","wem/bandit_single","A2WH3GIS2KF8LU","pain","1","","74","J","1","","0","1","0","","0.3988554294","false","40","","0.3218453083","main_expt","","0.3988554294","","0.1283460502","","0.1673850924","","","","","",""
"405","","bandit","116","325595","0.0-78.0-0.0","60255104","wem/bandit_single","A2WH3GIS2KF8LU","pain","1","","74","J","1","","0","1","0","","0.4510691137","false","41","","0.3085515908","main_expt","","0.4510691137","","0.120913883","","0.1798739011","","","","","",""
"9","","bandit","117","327372","0.0-79.0-0.0","60255104","wem/bandit_single","A2WH3GIS2KF8LU","pain","1","","74","J","1","","0","1","0","","0.4575220824","false","42","","0.3072415044","main_expt","","0.4575220824","","0.1045942129","","0.1559165864","","","","","",""
"6","","bandit","118","329153","0.0-80.0-0.0","60255104","wem/bandit_single","A2WH3GIS2KF8LU","pain","1","","74","J","1","","0","0","1","","0.4425049573","false","43","","0.272500382","main_expt","","0.4425049573","","0.09432917568","","0.1058033922","","","","","",""
"387","","bandit","119","331308","0.0-81.0-0.0","60255104","wem/bandit_single","A2WH3GIS2KF8LU","pain","1","","74","J","1","","0","0","1","","0.4232077065","false","44","","0.2865836788","main_expt","","0.4232077065","","0.07221407183","","0.08489334424","","","","","",""
"51","","bandit","120","333128","0.0-82.0-0.0","60255104","wem/bandit_single","A2WH3GIS2KF8LU","pain","1","","74","J","1","","0","0","1","","0.4098430077","false","45","","0.2991622886","main_expt","","0.4098430077","","0.05666738762","","0.05905190464","","","","","",""
"21","","bandit","121","334914","0.0-83.0-0.0","60255104","wem/bandit_single","A2WH3GIS2KF8LU","pain","1","","72","H","0","img/none_selected.jpg","0","1","0","","0.2531917612","false","46","","0.2531917612","main_expt","","0.4038708701","","0.03432969329","","0.06331323714","","","","","",""
"33","","bandit","122","336720","0.0-84.0-0.0","60255104","wem/bandit_single","A2WH3GIS2KF8LU","pain","1","","72","H","0","img/none_selected.jpg","0","0","1","","0.174020607","false","47","","0.174020607","main_expt","","0.4162646915","","0.03955917442","","0.05657329797","","","","","",""
"14","","bandit","123","338514","0.0-85.0-0.0","60255104","wem/bandit_single","A2WH3GIS2KF8LU","pain","1","","72","H","0","img/none_selected.jpg","0","0","1","","0.1890064997","false","48","","0.1890064997","main_expt","","0.4188900116","","0.02792503423","","0.04718629669","","","","","",""
"267","","bandit","124","340554","0.0-86.0-0.0","60255104","wem/bandit_single","A2WH3GIS2KF8LU","pain","1","","74","J","1","","0","0","1","","0.4566014176","false","49","","0.218442061","main_expt","","0.4566014176","","0.03726959289","","0.03289244517","","","","","",""
"17","","bandit","125","342344","0.0-87.0-0.0","60255104","wem/bandit_single","A2WH3GIS2KF8LU","pain","1","","75","K","2","","0","0","1","","0.03358305353","false","50","","0.1635183119","main_expt","","0.4447058567","","0.03358305353","","0.03266450512","","","","","",""
"356","","bandit","126","344474","0.0-88.0-0.0","60255104","wem/bandit_single","A2WH3GIS2KF8LU","pain","1","","76","L","3","","0","0","1","","0.03026904774","false","51","","0.1366577914","main_expt","","0.4304926469","","0.03344521258","","0.03026904774","","","","","",""
"390","","bandit","127","346653","0.0-89.0-0.0","60255104","wem/bandit_single","A2WH3GIS2KF8LU","pain","1","","75","K","2","","0","0","1","","0.04269272659","false","52","","0.1797398031","main_expt","","0.4221781581","","0.04269272659","","0.03251993274","","","","","",""
"233","","bandit","128","348656","0.0-90.0-0.0","60255104","wem/bandit_single","A2WH3GIS2KF8LU","pain","1","","76","L","3","","0","0","1","","0.03960602941","false","53","","0.2893410322","main_expt","","0.3687481665","","0.023815337","","0.03960602941","","","","","",""
"16","","bandit","129","350435","0.0-91.0-0.0","60255104","wem/bandit_single","A2WH3GIS2KF8LU","pain","1","","74","J","1","","0","0","1","","0.3458934235","false","54","","0.2985665456","main_expt","","0.3458934235","","0.02455785224","","0.05707063203","","","","","",""
"78","","bandit","130","352276","0.0-92.0-0.0","60255104","wem/bandit_single","A2WH3GIS2KF8LU","pain","1","","72","H","0","img/none_selected.jpg","0","1","0","","0.3336948264","false","55","","0.3336948264","main_expt","","0.4042580408","","0.03998391886","","0.04044117434","","","","","",""
"328","","bandit","131","354382","0.0-93.0-0.0","60255104","wem/bandit_single","A2WH3GIS2KF8LU","pain","1","","72","H","0","img/none_selected.jpg","0","0","1","","0.282194417","false","56","","0.282194417","main_expt","","0.4471112694","","0.06538112884","","0.05627119328","","","","","",""
"7","","bandit","132","356155","0.0-94.0-0.0","60255104","wem/bandit_single","A2WH3GIS2KF8LU","pain","1","","72","H","0","img/none_selected.jpg","0","1","0","","0.3239389597","false","57","","0.3239389597","main_expt","","0.4640351361","","0.08662171517","","0.06172895681","","","","","",""
"10","","bandit","133","357926","0.0-95.0-0.0","60255104","wem/bandit_single","A2WH3GIS2KF8LU","pain","1","","72","H","0","img/none_selected.jpg","0","1","0","","0.3114288274","false","58","","0.3114288274","main_expt","","0.4654795878","","0.08191290536","","0.0708730922","","","","","",""
"361","","bandit","134","360054","0.0-96.0-0.0","60255104","wem/bandit_single","A2WH3GIS2KF8LU","pain","1","","72","H","0","img/none_selected.jpg","0","0","1","","0.3090129124","false","59","","0.3090129124","main_expt","","0.477644797","","0.06359390603","","0.06307994893","","","","","",""
"402","","bandit","135","362228","0.0-97.0-0.0","60255104","wem/bandit_single","A2WH3GIS2KF8LU","pain","1","","72","H","0","img/none_selected.jpg","0","1","0","","0.3273240357","false","60","","0.3273240357","main_expt","","0.4637057102","","0.1113565871","","0.06865221942","","","","","",""
"261","","bandit","136","364262","0.0-98.0-0.0","60255104","wem/bandit_single","A2WH3GIS2KF8LU","pain","1","","72","H","0","img/none_selected.jpg","0","0","1","","0.333760802","false","61","","0.333760802","main_expt","","0.4575353452","","0.1224908949","","0.04710261487","","","","","",""
"365","","bandit","137","366399","0.0-99.0-0.0","60255104","wem/bandit_single","A2WH3GIS2KF8LU","pain","1","","72","H","0","img/none_selected.jpg","0","1","0","","0.3721083552","false","62","","0.3721083552","main_expt","","0.4511824808","","0.1011510181","","0.04180279512","","","","","",""
"54","","bandit","138","368223","0.0-100.0-0.0","60255104","wem/bandit_single","A2WH3GIS2KF8LU","pain","1","","72","H","0","img/none_selected.jpg","0","0","1","","0.3366911892","false","63","","0.3366911892","main_expt","","0.4522744543","","0.1241823521","","0.04669584184","","","","","",""
"7","","bandit","139","370004","0.0-101.0-0.0","60255104","wem/bandit_single","A2WH3GIS2KF8LU","pain","1","","72","H","0","img/none_selected.jpg","0","0","1","","0.352845708","false","64","","0.352845708","main_expt","","0.4534383651","","0.1277445844","","0.04699929359","","","","","",""
"3","","bandit","140","371822","0.0-102.0-0.0","60255104","wem/bandit_single","A2WH3GIS2KF8LU","pain","1","","72","H","0","img/none_selected.jpg","0","0","1","","0.3797865956","false","65","","0.3797865956","main_expt","","0.4578128414","","0.1594820305","","0.06422912444","","","","","",""
"359","","bandit","141","373950","0.0-103.0-0.0","60255104","wem/bandit_single","A2WH3GIS2KF8LU","pain","1","","74","J","1","","0","0","1","","0.4675149648","false","66","","0.3776123686","main_expt","","0.4675149648","","0.1902728197","","0.09107067683","","","","","",""
"253","","bandit","142","376010","0.0-104.0-0.0","60255104","wem/bandit_single","A2WH3GIS2KF8LU","pain","1","","74","J","1","","0","1","0","","0.4801185054","false","67","","0.3520302909","main_expt","","0.4801185054","","0.1915604568","","0.1295134299","","","","","",""
"15","","bandit","143","377795","0.0-105.0-0.0","60255104","wem/bandit_single","A2WH3GIS2KF8LU","pain","1","","74","J","1","","0","0","1","","0.4853911876","false","68","","0.3563070861","main_expt","","0.4853911876","","0.2292904293","","0.1501953896","","","","","",""
"324","","bandit","144","379892","0.0-106.0-0.0","60255104","wem/bandit_single","A2WH3GIS2KF8LU","pain","1","","74","J","1","","0","0","1","","0.45952887","false","69","","0.3773129781","main_expt","","0.45952887","","0.2982444272","","0.2120393587","","","","","",""
"257","","bandit","145","381913","0.0-107.0-0.0","60255104","wem/bandit_single","A2WH3GIS2KF8LU","pain","1","","74","J","1","","0","0","1","","0.4519788387","false","70","","0.3620092878","main_expt","","0.4519788387","","0.2038928517","","0.2046372205","","","","","",""
"8","","bandit","146","383689","0.0-108.0-0.0","60255104","wem/bandit_single","A2WH3GIS2KF8LU","pain","1","","72","H","0","img/none_selected.jpg","0","0","1","","0.3689610789","false","71","","0.3689610789","main_expt","","0.4644284496","","0.2470144531","","0.1711657315","","","","","",""
"1","","bandit","147","385457","0.0-109.0-0.0","60255104","wem/bandit_single","A2WH3GIS2KF8LU","pain","1","","72","H","0","img/none_selected.jpg","0","0","1","","0.335535794","false","72","","0.335535794","main_expt","","0.4275080271","","0.2339224101","","0.1804367846","","","","","",""
"19","","bandit","148","387240","0.0-110.0-0.0","60255104","wem/bandit_single","A2WH3GIS2KF8LU","pain","1","","75","K","2","","0","0","1","","0.198403553","false","73","","0.3669127126","main_expt","","0.4333248441","","0.198403553","","0.1582310148","","","","","",""
"47","","bandit","149","389060","0.0-111.0-0.0","60255104","wem/bandit_single","A2WH3GIS2KF8LU","pain","1","","75","K","2","","0","0","1","","0.2162510441","false","74","","0.3360165716","main_expt","","0.4272577829","","0.2162510441","","0.1300952354","","","","","",""
"9","","bandit","150","390846","0.0-112.0-0.0","60255104","wem/bandit_single","A2WH3GIS2KF8LU","pain","1","","76","L","3","","0","0","1","","0.1414689969","false","75","","0.3379177146","main_expt","","0.353629049","","0.2467290531","","0.1414689969","","","","","",""
"58","","bandit","151","392669","0.0-113.0-0.0","60255104","wem/bandit_single","A2WH3GIS2KF8LU","pain","1","","76","L","3","","0","0","1","","0.1315789974","false","76","","0.3489784935","main_expt","","0.3526453175","","0.2199510863","","0.1315789974","","","","","",""
"19","","bandit","152","394463","0.0-114.0-0.0","60255104","wem/bandit_single","A2WH3GIS2KF8LU","pain","1","","74","J","1","","0","0","1","","0.397337216","false","77","","0.2843927136","main_expt","","0.397337216","","0.1600424727","","0.1054244057","","","","","",""
"33","","bandit","153","396283","0.0-115.0-0.0","60255104","wem/bandit_single","A2WH3GIS2KF8LU","pain","1","","74","J","1","","0","1","0","","0.3747850168","false","78","","0.2585585406","main_expt","","0.3747850168","","0.1366877547","","0.1028875903","","","","","",""
"18","","bandit","154","398064","0.0-116.0-0.0","60255104","wem/bandit_single","A2WH3GIS2KF8LU","pain","1","","74","J","1","","0","0","1","","0.3500135026","false","79","","0.2211992803","main_expt","","0.3500135026","","0.1608027171","","0.1010795136","","","","","",""
"818","","bandit","155","400670","0.0-117.0-0.0","60255104","wem/bandit_single","A2WH3GIS2KF8LU","pain","1","","74","J","1","","0","1","0","","0.3362224365","false","80","","0.1670678668","main_expt","","0.3362224365","","0.2004121585","","0.09661145037","","","","","",""
"82","","bandit","156","402531","0.0-118.0-0.0","60255104","wem/bandit_single","A2WH3GIS2KF8LU","pain","1","","74","J","1","","0","0","1","","0.3626400229","false","81","","0.1536487801","main_expt","","0.3626400229","","0.2100463009","","0.06079528701","","","","","",""
"123","","bandit","157","404423","0.0-119.0-0.0","60255104","wem/bandit_single","A2WH3GIS2KF8LU","pain","1","","74","J","1","","0","0","1","","0.3433004166","false","82","","0.164055667","main_expt","","0.3433004166","","0.2313995655","","0.0561923849","","","","","",""
"30","","bandit","158","406226","0.0-120.0-0.0","60255104","wem/bandit_single","A2WH3GIS2KF8LU","pain","1","","72","H","0","img/none_selected.jpg","0","0","1","","0.1795096781","false","83","","0.1795096781","main_expt","","0.3564809269","","0.1805974068","","0.05471979201","","","","","",""
"60","","bandit","159","408047","0.0-121.0-0.0","60255104","wem/bandit_single","A2WH3GIS2KF8LU","pain","1","","72","H","0","img/none_selected.jpg","0","0","1","","0.1568762326","false","84","","0.1568762326","main_expt","","0.3403656385","","0.1351257884","","0.04961315052","","","","","",""
"477","","bandit","160","410303","0.0-122.0-0.0","60255104","wem/bandit_single","A2WH3GIS2KF8LU","pain","1","","76","L","3","","0","0","1","","0.05195310968","false","85","","0.1857208284","main_expt","","0.3009252634","","0.1372280885","","0.05195310968","","","","","",""
"32","","bandit","161","412107","0.0-123.0-0.0","60255104","wem/bandit_single","A2WH3GIS2KF8LU","pain","1","","76","L","3","","0","0","1","","0.05385113756","false","86","","0.2180329602","main_expt","","0.3067316121","","0.1685840628","","0.05385113756","","","","","",""
"18","","bandit","162","413891","0.0-124.0-0.0","60255104","wem/bandit_single","A2WH3GIS2KF8LU","pain","1","","75","K","2","","0","0","1","","0.1654340797","false","87","","0.1893737279","main_expt","","0.3073916088","","0.1654340797","","0.08202519069","","","","","",""
"18","","bandit","163","415674","0.0-125.0-0.0","60255104","wem/bandit_single","A2WH3GIS2KF8LU","pain","1","","75","K","2","","0","0","1","","0.1870328522","false","88","","0.2309201776","main_expt","","0.301504441","","0.1870328522","","0.04873944257","","","","","",""
"24","","bandit","164","417466","0.0-126.0-0.0","60255104","wem/bandit_single","A2WH3GIS2KF8LU","pain","1","","74","J","1","","0","0","1","","0.3324072184","false","89","","0.2368651839","main_expt","","0.3324072184","","0.1786415591","","0.05553778571","","","","","",""
"779","","bandit","165","420036","0.0-127.0-0.0","60255104","wem/bandit_single","A2WH3GIS2KF8LU","pain","1","","74","J","1","","0","0","1","","0.3245139686","false","90","","0.2459093935","main_expt","","0.3245139686","","0.2293974223","","0.04980790846","","","","","",""
"394","","bandit","166","422198","0.0-128.0-0.0","60255104","wem/bandit_single","A2WH3GIS2KF8LU","pain","1","","72","H","0","img/none_selected.jpg","0","0","1","","0.2371609774","false","91","","0.2371609774","main_expt","","0.3310751299","","0.2407797963","","0.05804880768","","","","","",""
"72","","bandit","167","424045","0.0-129.0-0.0","60255104","wem/bandit_single","A2WH3GIS2KF8LU","pain","1","","72","H","0","img/none_selected.jpg","0","0","1","","0.260478489","false","92","","0.260478489","main_expt","","0.3717444616","","0.2337544695","","0.0614883172","","","","","",""
"71","","bandit","168","425893","0.0-130.0-0.0","60255104","wem/bandit_single","A2WH3GIS2KF8LU","pain","1","","74","J","1","","0","1","0","","0.3846532122","false","93","","0.2595992258","main_expt","","0.3846532122","","0.2589688886","","0.0764333552","","","","","",""
"29","","bandit","169","427682","0.0-131.0-0.0","60255104","wem/bandit_single","A2WH3GIS2KF8LU","pain","1","","74","J","1","","0","0","1","","0.4017211595","false","94","","0.206568391","main_expt","","0.4017211595","","0.2699529923","","0.1280824273","","","","","",""
"95","","bandit","170","429556","0.0-132.0-0.0","60255104","wem/bandit_single","A2WH3GIS2KF8LU","pain","1","","74","J","1","","0","1","0","","0.3736639641","false","95","","0.1846794781","main_expt","","0.3736639641","","0.2626559999","","0.1191245721","","","","","",""
"12","","bandit","171","431351","0.0-133.0-0.0","60255104","wem/bandit_single","A2WH3GIS2KF8LU","pain","1","","74","J","1","","0","1","0","","0.3220453652","false","96","","0.2484851932","main_expt","","0.3220453652","","0.2196428224","","0.08526153109","","","","","",""
"69","","bandit","172","433182","0.0-134.0-0.0","60255104","wem/bandit_single","A2WH3GIS2KF8LU","pain","1","","74","J","1","","0","1","0","","0.2964534367","false","97","","0.198145661","main_expt","","0.2964534367","","0.1922289922","","0.0775518538","","","","","",""
"13","","bandit","173","434994","0.0-135.0-0.0","60255104","wem/bandit_single","A2WH3GIS2KF8LU","pain","1","","74","J","1","","0","0","1","","0.3388366936","false","98","","0.1738253929","main_expt","","0.3388366936","","0.2328023708","","0.08824897118","","","","","",""
"1254","","bandit","174","438059","0.0-136.0-0.0","60255104","wem/bandit_single","A2WH3GIS2KF8LU","pain","1","","74","J","1","","0","0","1","","0.4233536788","false","99","","0.1261523865","main_expt","","0.4233536788","","0.2606341713","","0.08912321317","","","","","",""
"1","","bandit","175","439829","0.0-137.0-0.0","60255104","wem/bandit_single","A2WH3GIS2KF8LU","pain","1","","74","J","1","","0","0","1","","0.3799029244","false","100","","0.1368684177","main_expt","","0.3799029244","","0.310387162","","0.1217067293","","","","","",""
"801","","bandit","176","442415","0.0-138.0-0.0","60255104","wem/bandit_single","A2WH3GIS2KF8LU","pain","1","","74","J","1","","0","1","0","","0.3644029447","false","101","","0.1262970555","main_expt","","0.3644029447","","0.3802628165","","0.08537200695","","","","","",""
"31","","bandit","177","444213","0.0-139.0-0.0","60255104","wem/bandit_single","A2WH3GIS2KF8LU","pain","1","","74","J","1","","0","0","1","","0.3414838768","false","102","","0.1022564356","main_expt","","0.3414838768","","0.4133848668","","0.09606980913","","","","","",""
"38","","bandit","178","446030","0.0-140.0-0.0","60255104","wem/bandit_single","A2WH3GIS2KF8LU","pain","1","","74","J","1","","0","1","0","","0.3691073091","false","103","","0.07046703442","main_expt","","0.3691073091","","0.4352089555","","0.09968925047","","","","","",""
"134","","bandit","179","447928","0.0-141.0-0.0","60255104","wem/bandit_single","A2WH3GIS2KF8LU","pain","1","","74","J","1","","0","0","1","","0.3386210986","false","104","","0.08582175226","main_expt","","0.3386210986","","0.4248252031","","0.1070137741","","","","","",""
"49","","bandit","180","449755","0.0-142.0-0.0","60255104","wem/bandit_single","A2WH3GIS2KF8LU","pain","1","","74","J","1","","0","1","0","","0.3517858304","false","105","","0.08910626196","main_expt","","0.3517858304","","0.4382512542","","0.1086060941","","","","","",""
"283","","bandit","181","451811","0.0-143.0-0.0","60255104","wem/bandit_single","A2WH3GIS2KF8LU","pain","1","","74","J","1","","0","0","1","","0.4016578568","false","106","","0.09380004764","main_expt","","0.4016578568","","0.4551412652","","0.1006724549","","","","","",""
"17","","bandit","182","453608","0.0-144.0-0.0","60255104","wem/bandit_single","A2WH3GIS2KF8LU","pain","1","","74","J","1","","0","1","0","","0.3951748439","false","107","","0.08916311959","main_expt","","0.3951748439","","0.4481373055","","0.07769839914","","","","","",""
"254","","bandit","183","455669","0.0-145.0-0.0","60255104","wem/bandit_single","A2WH3GIS2KF8LU","pain","1","","74","J","1","","0","1","0","","0.3933810371","false","108","","0.1635033392","main_expt","","0.3933810371","","0.4611843773","","0.09470950607","","","","","",""
"97","","bandit","184","457535","0.0-146.0-0.0","60255104","wem/bandit_single","A2WH3GIS2KF8LU","pain","1","","74","J","1","","0","0","1","","0.3961603237","false","109","","0.1923408453","main_expt","","0.3961603237","","0.416280782","","0.1117426234","","","","","",""
"6","","bandit","185","459323","0.0-147.0-0.0","60255104","wem/bandit_single","A2WH3GIS2KF8LU","pain","1","","74","J","1","","0","1","0","","0.3933476799","false","110","","0.1668397223","main_expt","","0.3933476799","","0.3959176693","","0.1190643529","","","","","",""
"6","","bandit","186","461105","0.0-148.0-0.0","60255104","wem/bandit_single","A2WH3GIS2KF8LU","pain","1","","74","J","1","","0","0","1","","0.3953313537","false","111","","0.1254506171","main_expt","","0.3953313537","","0.3881072513","","0.1605091549","","","","","",""
"321","","bandit","187","463190","0.0-149.0-0.0","60255104","wem/bandit_single","A2WH3GIS2KF8LU","pain","1","","74","J","1","","0","1","0","","0.3398422341","false","112","","0.1596839241","main_expt","","0.3398422341","","0.3430735849","","0.1531505469","","","","","",""
"53","","bandit","188","465022","0.0-150.0-0.0","60255104","wem/bandit_single","A2WH3GIS2KF8LU","pain","1","","74","J","1","","0","1","0","","0.375538402","false","113","","0.1986187203","main_expt","","0.375538402","","0.3036143476","","0.1796188848","","","","","",""
"3","","bandit","189","466834","0.0-151.0-0.0","60255104","wem/bandit_single","A2WH3GIS2KF8LU","pain","1","","74","J","1","","0","1","0","","0.3629483147","false","114","","0.2334514198","main_expt","","0.3629483147","","0.3581708668","","0.1820080726","","","","","",""
"8","","bandit","190","468608","0.0-152.0-0.0","60255104","wem/bandit_single","A2WH3GIS2KF8LU","pain","1","","74","J","1","","0","0","1","","0.2969550108","false","115","","0.1892672839","main_expt","","0.2969550108","","0.2948471219","","0.2050936175","","","","","",""
"1","","bandit","191","470408","0.0-153.0-0.0","60255104","wem/bandit_single","A2WH3GIS2KF8LU","pain","1","","74","J","1","","0","0","1","","0.260261953","false","116","","0.1507180646","main_expt","","0.260261953","","0.2711132382","","0.2071503316","","","","","",""
"14","","bandit","192","472202","0.0-154.0-0.0","60255104","wem/bandit_single","A2WH3GIS2KF8LU","pain","1","","74","J","1","","0","0","1","","0.2626326191","false","117","","0.1830546279","main_expt","","0.2626326191","","0.3124997295","","0.2359882763","","","","","",""
"1","","bandit","193","473988","0.0-155.0-0.0","60255104","wem/bandit_single","A2WH3GIS2KF8LU","pain","1","","74","J","1","","0","1","0","","0.2933310536","false","118","","0.1415506149","main_expt","","0.2933310536","","0.3888019654","","0.2388261631","","","","","",""
"22","","bandit","194","475778","0.0-156.0-0.0","60255104","wem/bandit_single","A2WH3GIS2KF8LU","pain","1","","74","J","1","","0","1","0","","0.2469992957","false","119","","0.1814909568","main_expt","","0.2469992957","","0.3695751837","","0.2470137322","","","","","",""
"394","","bandit","195","477948","0.0-157.0-0.0","60255104","wem/bandit_single","A2WH3GIS2KF8LU","pain","1","","74","J","1","","0","0","1","","0.2186909282","false","120","","0.1900691043","main_expt","","0.2186909282","","0.3471196364","","0.209676098","","","","","",""
"357","","bandit","196","480076","0.0-158.0-0.0","60255104","wem/bandit_single","A2WH3GIS2KF8LU","pain","1","","74","J","1","","0","0","1","","0.1915374776","false","121","","0.2002257321","main_expt","","0.1915374776","","0.3164400491","","0.2058519679","","","","","",""
"19","","bandit","197","481866","0.0-159.0-0.0","60255104","wem/bandit_single","A2WH3GIS2KF8LU","pain","1","","74","J","1","","0","1","0","","0.1666700693","false","122","","0.2000360786","main_expt","","0.1666700693","","0.3565888941","","0.1409467191","","","","","",""
"247","","bandit","198","483913","0.0-160.0-0.0","60255104","wem/bandit_single","A2WH3GIS2KF8LU","pain","1","","74","J","1","","0","1","0","","0.1779758636","false","123","","0.1656706666","main_expt","","0.1779758636","","0.3293983066","","0.08785727187","","","","","",""
"83","","bandit","199","485764","0.0-161.0-0.0","60255104","wem/bandit_single","A2WH3GIS2KF8LU","pain","1","","74","J","1","","0","1","0","","0.2483730269","false","124","","0.2433115295","main_expt","","0.2483730269","","0.3202360925","","0.1153756664","","","","","",""
"205","","bandit","200","487802","0.0-162.0-0.0","60255104","wem/bandit_single","A2WH3GIS2KF8LU","pain","1","","74","J","1","","0","0","1","","0.2274485556","false","125","","0.1810024247","main_expt","","0.2274485556","","0.3478690395","","0.1211147435","","","","","",""
"112","","bandit","201","489704","0.0-163.0-0.0","60255104","wem/bandit_single","A2WH3GIS2KF8LU","pain","1","","74","J","1","","0","0","1","","0.2506805994","false","126","","0.2138299762","main_expt","","0.2506805994","","0.3312811416","","0.1434737457","","","","","",""
"60","","bandit","202","491542","0.0-164.0-0.0","60255104","wem/bandit_single","A2WH3GIS2KF8LU","pain","1","","74","J","1","","0","0","1","","0.2520497492","false","127","","0.1993304114","main_expt","","0.2520497492","","0.2641060438","","0.1970801631","","","","","",""
"67","","bandit","203","493379","0.0-165.0-0.0","60255104","wem/bandit_single","A2WH3GIS2KF8LU","pain","1","","74","J","1","","0","0","1","","0.1948091286","false","128","","0.2602773644","main_expt","","0.1948091286","","0.2239657692","","0.2891253811","","","","","",""
"57","","bandit","204","495203","0.0-166.0-0.0","60255104","wem/bandit_single","A2WH3GIS2KF8LU","pain","1","","72","H","0","img/none_selected.jpg","0","0","1","","0.2960784606","false","129","","0.2960784606","main_expt","","0.1749799719","","0.2243581634","","0.2389970352","","","","","",""
"49","","bandit","205","497031","0.0-167.0-0.0","60255104","wem/bandit_single","A2WH3GIS2KF8LU","pain","1","","72","H","0","img/none_selected.jpg","0","1","0","","0.2720271615","false","130","","0.2720271615","main_expt","","0.1950546205","","0.2215765871","","0.2613596901","","","","","",""
"66","","bandit","206","498878","0.0-168.0-0.0","60255104","wem/bandit_single","A2WH3GIS2KF8LU","pain","1","","72","H","0","img/none_selected.jpg","0","1","0","","0.2403459828","false","131","","0.2403459828","main_expt","","0.2501377387","","0.1796651873","","0.2254289723","","","","","",""
"1","","bandit","207","500652","0.0-169.0-0.0","60255104","wem/bandit_single","A2WH3GIS2KF8LU","pain","1","","72","H","0","img/none_selected.jpg","0","0","1","","0.2261584059","false","132","","0.2261584059","main_expt","","0.2275015869","","0.1946412172","","0.2759434303","","","","","",""
"359","","bandit","208","502790","0.0-170.0-0.0","60255104","wem/bandit_single","A2WH3GIS2KF8LU","pain","1","","72","H","0","img/none_selected.jpg","0","0","1","","0.225512635","false","133","","0.225512635","main_expt","","0.1961271051","","0.2390261597","","0.3153186182","","","","","",""
"3","","bandit","209","504575","0.0-171.0-0.0","60255104","wem/bandit_single","A2WH3GIS2KF8LU","pain","1","","72","H","0","img/none_selected.jpg","0","0","1","","0.2119287539","false","134","","0.2119287539","main_expt","","0.2508816485","","0.227958871","","0.2950667763","","","","","",""
"59","","bandit","210","506407","0.0-172.0-0.0","60255104","wem/bandit_single","A2WH3GIS2KF8LU","pain","1","","72","H","0","img/none_selected.jpg","0","0","1","","0.1980603764","false","135","","0.1980603764","main_expt","","0.3394706536","","0.2312014448","","0.3307223606","","","","","",""
"92","","bandit","211","508278","0.0-173.0-0.0","60255104","wem/bandit_single","A2WH3GIS2KF8LU","pain","1","","75","K","2","","0","0","1","","0.27599984","false","136","","0.2325476757","main_expt","","0.2837829406","","0.27599984","","0.3298223854","","","","","",""
"26","","bandit","212","510079","0.0-174.0-0.0","60255104","wem/bandit_single","A2WH3GIS2KF8LU","pain","1","","75","K","2","","0","0","1","","0.2313694212","false","137","","0.2334264213","main_expt","","0.3024244849","","0.2313694212","","0.3330531331","","","","","",""
"283","","bandit","213","512144","0.0-175.0-0.0","60255104","wem/bandit_single","A2WH3GIS2KF8LU","pain","1","","75","K","2","","0","0","1","","0.1816115857","false","138","","0.3107735177","main_expt","","0.3473265679","","0.1816115857","","0.292929501","","","","","",""
"33","","bandit","214","513960","0.0-176.0-0.0","60255104","wem/bandit_single","A2WH3GIS2KF8LU","pain","1","","76","L","3","","0","0","1","","0.2849421758","false","139","","0.3374098654","main_expt","","0.2828336224","","0.1658496667","","0.2849421758","","","","","",""
"24","","bandit","215","515774","0.0-177.0-0.0","60255104","wem/bandit_single","A2WH3GIS2KF8LU","pain","1","","76","L","3","","0","0","1","","0.3149573531","false","140","","0.3401298673","main_expt","","0.3238397914","","0.1644365985","","0.3149573531","","","","","",""
"2","","bandit","216","517573","0.0-178.0-0.0","60255104","wem/bandit_single","A2WH3GIS2KF8LU","pain","1","","76","L","3","","0","1","0","","0.2937847178","false","141","","0.363539884","main_expt","","0.3490905252","","0.16055167","","0.2937847178","","","","","",""
"174","","bandit","217","519527","0.0-179.0-0.0","60255104","wem/bandit_single","A2WH3GIS2KF8LU","pain","1","","76","L","3","","0","0","1","","0.2695919138","false","142","","0.3207651517","main_expt","","0.337853111","","0.1426499966","","0.2695919138","","","","","",""
"30","","bandit","218","521339","0.0-180.0-0.0","60255104","wem/bandit_single","A2WH3GIS2KF8LU","pain","1","","76","L","3","","0","1","0","","0.206179854","false","143","","0.2976941359","main_expt","","0.3475703167","","0.1133276474","","0.206179854","","","","","",""
"45","","bandit","219","523158","0.0-181.0-0.0","60255104","wem/bandit_single","A2WH3GIS2KF8LU","pain","1","","76","L","3","","0","0","1","","0.2123329462","false","144","","0.2405576463","main_expt","","0.3809945211","","0.1351054788","","0.2123329462","","","","","",""
"402","","bandit","220","525339","0.0-182.0-0.0","60255104","wem/bandit_single","A2WH3GIS2KF8LU","pain","1","","76","L","3","","0","0","1","","0.2144195617","false","145","","0.2513929943","main_expt","","0.3842622547","","0.1703546958","","0.2144195617","","","","","",""
"491","","bandit","221","527616","0.0-183.0-0.0","60255104","wem/bandit_single","A2WH3GIS2KF8LU","pain","1","","76","L","3","","0","0","1","","0.2264269311","false","146","","0.2665850657","main_expt","","0.4068715463","","0.1382352341","","0.2264269311","","","","","",""
"43","","bandit","222","529433","0.0-184.0-0.0","60255104","wem/bandit_single","A2WH3GIS2KF8LU","pain","1","","76","L","3","","0","0","1","","0.2458089499","false","147","","0.2742171136","main_expt","","0.3690267696","","0.1111211324","","0.2458089499","","","","","",""
"279","","bandit","223","531485","0.0-185.0-0.0","60255104","wem/bandit_single","A2WH3GIS2KF8LU","pain","1","","75","K","2","","0","0","1","","0.1046256567","false","148","","0.2504516377","main_expt","","0.3999465919","","0.1046256567","","0.2581131455","","","","","",""
"434","","bandit","224","533691","0.0-186.0-0.0","60255104","wem/bandit_single","A2WH3GIS2KF8LU","pain","1","","74","J","1","","0","0","1","","0.3823047489","false","149","","0.2749888299","main_expt","","0.3823047489","","0.09450025474","","0.2055420423","","","","","",""
"162","","bandit","225","535638","0.0-187.0-0.0","60255104","wem/bandit_single","A2WH3GIS2KF8LU","pain","1","","74","J","1","","0","1","0","","0.3970301866","false","150","","0.2199302859","main_expt","","0.3970301866","","0.08682851814","","0.2196547661","","","","","",""
"68","","bandit","226","537489","0.0-188.0-0.0","60255104","wem/bandit_single","A2WH3GIS2KF8LU","pain","1","","74","J","1","","0","0","1","","0.4141828336","false","151","","0.228921305","main_expt","","0.4141828336","","0.0775356828","","0.2311854424","","","","","",""
"34","","bandit","227","539291","0.0-189.0-0.0","60255104","wem/bandit_single","A2WH3GIS2KF8LU","pain","1","","74","J","1","","0","0","1","","0.4233092002","false","152","","0.1858313389","main_expt","","0.4233092002","","0.08719832593","","0.2692750042","","","","","",""
"21","","bandit","228","541092","0.0-190.0-0.0","60255104","wem/bandit_single","A2WH3GIS2KF8LU","pain","1","","74","J","1","","0","0","1","","0.3961827626","false","153","","0.2253380596","main_expt","","0.3961827626","","0.06950392785","","0.3209664266","","","","","",""
"373","","bandit","229","543224","0.0-191.0-0.0","60255104","wem/bandit_single","A2WH3GIS2KF8LU","pain","1","","74","J","1","","0","1","0","","0.4023640633","false","154","","0.1787374968","main_expt","","0.4023640633","","0.09734883616","","0.2633096479","","","","","",""
"77","","bandit","230","545068","0.0-192.0-0.0","60255104","wem/bandit_single","A2WH3GIS2KF8LU","pain","1","","74","J","1","","0","0","1","","0.3927422998","false","155","","0.1026625787","main_expt","","0.3927422998","","0.1078867986","","0.2611493198","","","","","",""
"1253","","bandit","231","548099","0.0-193.0-0.0","60255104","wem/bandit_single","A2WH3GIS2KF8LU","pain","1","","74","J","1","","0","0","1","","0.3696188161","false","156","","0.1201393653","main_expt","","0.3696188161","","0.09294383108","","0.2556392324","","","","","",""
"382","","bandit","232","550257","0.0-194.0-0.0","60255104","wem/bandit_single","A2WH3GIS2KF8LU","pain","1","","74","J","1","","0","0","1","","0.3562863837","false","157","","0.1601810659","main_expt","","0.3562863837","","0.1344904143","","0.2237912435","","","","","",""
"60","","bandit","233","552081","0.0-195.0-0.0","60255104","wem/bandit_single","A2WH3GIS2KF8LU","pain","1","","74","J","1","","0","1","0","","0.3891013447","false","158","","0.2178666355","main_expt","","0.3891013447","","0.1682501471","","0.2269937079","","","","","",""
"32","","bandit","234","553902","0.0-196.0-0.0","60255104","wem/bandit_single","A2WH3GIS2KF8LU","pain","1","","74","J","1","","0","0","1","","0.3771509201","false","159","","0.2088119712","main_expt","","0.3771509201","","0.1859978291","","0.2244600926","","","","","",""
"11","","bandit","235","555700","0.0-197.0-0.0","60255104","wem/bandit_single","A2WH3GIS2KF8LU","pain","1","","74","J","1","","0","0","1","","0.3677966378","false","160","","0.2853399033","main_expt","","0.3677966378","","0.1169857497","","0.231654425","","","","","",""
"34","","bandit","236","557535","0.0-198.0-0.0","60255104","wem/bandit_single","A2WH3GIS2KF8LU","pain","1","","74","J","1","","0","1","0","","0.3691576932","false","161","","0.2755093387","main_expt","","0.3691576932","","0.1131976547","","0.2415747561","","","","","",""
"440","","bandit","237","559757","0.0-199.0-0.0","60255104","wem/bandit_single","A2WH3GIS2KF8LU","pain","1","","74","J","1","","0","0","1","","0.3102253273","false","162","","0.2706635439","main_expt","","0.3102253273","","0.1560378341","","0.1807921844","","","","","",""
"236","","bandit","238","561777","0.0-200.0-0.0","60255104","wem/bandit_single","A2WH3GIS2KF8LU","pain","1","","74","J","1","","0","1","0","","0.3361037566","false","163","","0.2856851073","main_expt","","0.3361037566","","0.1200759877","","0.1986212186","","","","","",""
"199","","bandit","239","563747","0.0-201.0-0.0","60255104","wem/bandit_single","A2WH3GIS2KF8LU","pain","1","","74","J","1","","0","0","1","","0.3097300036","false","164","","0.3188827228","main_expt","","0.3097300036","","0.1198838954","","0.1799022971","","","","","",""
"114","","bandit","240","565644","0.0-202.0-0.0","60255104","wem/bandit_single","A2WH3GIS2KF8LU","pain","1","","74","J","1","","0","1","0","","0.3234169084","false","165","","0.3258940933","main_expt","","0.3234169084","","0.1397308529","","0.2610149466","","","","","",""
"348","","bandit","241","567774","0.0-203.0-0.0","60255104","wem/bandit_single","A2WH3GIS2KF8LU","pain","1","","74","J","1","","0","1","0","","0.3201458278","false","166","","0.3525092479","main_expt","","0.3201458278","","0.1506282743","","0.2673729835","","","","","",""
"47","","bandit","242","569620","0.0-204.0-0.0","60255104","wem/bandit_single","A2WH3GIS2KF8LU","pain","1","","74","J","1","","0","0","1","","0.366643239","false","167","","0.3919017073","main_expt","","0.366643239","","0.1407574557","","0.169486101","","","","","",""
"1","","bandit","243","571389","0.0-205.0-0.0","60255104","wem/bandit_single","A2WH3GIS2KF8LU","pain","1","","74","J","1","","0","0","1","","0.3877512758","false","168","","0.3855955566","main_expt","","0.3877512758","","0.1217255528","","0.1997030364","","","","","",""
"27","","bandit","244","573192","0.0-206.0-0.0","60255104","wem/bandit_single","A2WH3GIS2KF8LU","pain","1","","74","J","1","","0","1","0","","0.3733196812","false","169","","0.3882436634","main_expt","","0.3733196812","","0.118108524","","0.2391799942","","","","","",""
"9","","bandit","245","574996","0.0-207.0-0.0","60255104","wem/bandit_single","A2WH3GIS2KF8LU","pain","1","","74","J","1","","0","0","1","","0.3616719183","false","170","","0.4096789578","main_expt","","0.3616719183","","0.0750780909","","0.2239577552","","","","","",""
"48","","bandit","246","576821","0.0-208.0-0.0","60255104","wem/bandit_single","A2WH3GIS2KF8LU","pain","1","","74","J","1","","0","0","1","","0.3222484871","false","171","","0.4326257363","main_expt","","0.3222484871","","0.07048665386","","0.2175962327","","","","","",""
"146","","bandit","247","578732","0.0-209.0-0.0","60255104","wem/bandit_single","A2WH3GIS2KF8LU","pain","1","","74","J","1","","0","1","0","","0.2849842628","false","172","","0.4381189537","main_expt","","0.2849842628","","0.09439478605","","0.2061205584","","","","","",""
"1027","","bandit","248","581528","0.0-210.0-0.0","60255104","wem/bandit_single","A2WH3GIS2KF8LU","pain","1","","74","J","1","","0","0","1","","0.2896949147","false","173","","0.3823577146","main_expt","","0.2896949147","","0.05932603211","","0.1787022686","","","","","",""
"113","","bandit","249","583451","0.0-211.0-0.0","60255104","wem/bandit_single","A2WH3GIS2KF8LU","pain","1","","74","J","1","","0","0","1","","0.260829927","false","174","","0.4155511425","main_expt","","0.260829927","","0.1019229976","","0.1782801474","","","","","",""
"56","","bandit","250","585276","0.0-212.0-0.0","60255104","wem/bandit_single","A2WH3GIS2KF8LU","pain","1","","74","J","1","","0","0","1","","0.1608433896","false","175","","0.4391025654","main_expt","","0.1608433896","","0.1270031357","","0.1723114597","","","","","",""
"74","","bandit","251","587131","0.0-213.0-0.0","60255104","wem/bandit_single","A2WH3GIS2KF8LU","pain","1","","74","J","1","","0","1","0","","0.1924323662","false","176","","0.4654332747","main_expt","","0.1924323662","","0.1519507126","","0.1714247165","","","","","",""
"656","","bandit","252","589555","0.0-214.0-0.0","60255104","wem/bandit_single","A2WH3GIS2KF8LU","pain","1","","74","J","1","","0","0","1","","0.1942299772","false","177","","0.4862166952","main_expt","","0.1942299772","","0.2645819263","","0.2003569552","","","","","",""
"20","","bandit","253","591361","0.0-215.0-0.0","60255104","wem/bandit_single","A2WH3GIS2KF8LU","pain","1","","74","J","1","","0","1","0","","0.2266891382","false","178","","0.4878504479","main_expt","","0.2266891382","","0.2497033982","","0.1848954505","","","","","",""
"67","","bandit","254","593195","0.0-216.0-0.0","60255104","wem/bandit_single","A2WH3GIS2KF8LU","pain","1","","74","J","1","","0","0","1","","0.193755509","false","179","","0.4925433574","main_expt","","0.193755509","","0.2464833147","","0.120488448","","","","","",""
"555","","bandit","255","595538","0.0-217.0-0.0","60255104","wem/bandit_single","A2WH3GIS2KF8LU","pain","1","","74","J","1","","0","0","1","","0.2143300014","false","180","","0.4863546804","main_expt","","0.2143300014","","0.191435525","","0.09518531587","","","","","",""
"15","","bandit","256","597331","0.0-218.0-0.0","60255104","wem/bandit_single","A2WH3GIS2KF8LU","pain","1","","74","J","1","","0","1","0","","0.1996101457","false","181","","0.4898831258","main_expt","","0.1996101457","","0.2095150634","","0.1110105533","","","","","",""
"10","","bandit","257","599110","0.0-219.0-0.0","60255104","wem/bandit_single","A2WH3GIS2KF8LU","pain","1","","74","J","1","","0","0","1","","0.220362663","false","182","","0.4702328405","main_expt","","0.220362663","","0.2238619417","","0.1321710188","","","","","",""
"682","","bandit","258","601576","0.0-220.0-0.0","60255104","wem/bandit_single","A2WH3GIS2KF8LU","pain","1","","74","J","1","","0","0","1","","0.2087999581","false","183","","0.4443650637","main_expt","","0.2087999581","","0.172430875","","0.07205074818","","","","","",""
"98","","bandit","259","603457","0.0-221.0-0.0","60255104","wem/bandit_single","A2WH3GIS2KF8LU","pain","1","","74","J","1","","0","1","0","","0.2693368533","false","184","","0.4395551327","main_expt","","0.2693368533","","0.1537152065","","0.08140980564","","","","","",""
"554","","bandit","260","605790","0.0-222.0-0.0","60255104","wem/bandit_single","A2WH3GIS2KF8LU","pain","1","","74","J","1","","0","1","0","","0.3177788722","false","185","","0.427498872","main_expt","","0.3177788722","","0.1089078126","","0.07005875891","","","","","",""
"23","","bandit","261","607578","0.0-223.0-0.0","60255104","wem/bandit_single","A2WH3GIS2KF8LU","pain","1","","74","J","1","","0","1","0","","0.3093747324","false","186","","0.4126395781","main_expt","","0.3093747324","","0.1150542287","","0.04712836877","","","","","",""
"36","","bandit","262","609431","0.0-224.0-0.0","60255104","wem/bandit_single","A2WH3GIS2KF8LU","pain","1","","74","J","1","","0","0","1","","0.3361469263","false","187","","0.4059631444","main_expt","","0.3361469263","","0.07877539194","","0.07097221374","","","","","",""
"470","","bandit","263","611670","0.0-225.0-0.0","60255104","wem/bandit_single","A2WH3GIS2KF8LU","pain","1","","74","J","1","","0","1","0","","0.3096611705","false","188","","0.4007853126","main_expt","","0.3096611705","","0.06234325246","","0.04255461481","","","","","",""
"452","","bandit","264","613893","0.0-226.0-0.0","60255104","wem/bandit_single","A2WH3GIS2KF8LU","pain","1","","74","J","1","","0","1","0","","0.298651231","false","189","","0.4208201059","main_expt","","0.298651231","","0.07748383332","","0.03834091028","","","","","",""
"30","","bandit","265","615721","0.0-227.0-0.0","60255104","wem/bandit_single","A2WH3GIS2KF8LU","pain","1","","74","J","1","","0","0","1","","0.3361123746","false","190","","0.4249824956","main_expt","","0.3361123746","","0.08864116925","","0.03101500858","","","","","",""
"8","","bandit","266","617516","0.0-228.0-0.0","60255104","wem/bandit_single","A2WH3GIS2KF8LU","pain","1","","74","J","1","","0","0","1","","0.3529126189","false","191","","0.4519194686","main_expt","","0.3529126189","","0.1114019665","","0.05137759752","","","","","",""
"395","","bandit","267","619699","0.0-229.0-0.0","60255104","wem/bandit_single","A2WH3GIS2KF8LU","pain","1","","74","J","1","","0","1","0","","0.3806900048","false","192","","0.449072141","main_expt","","0.3806900048","","0.0944181321","","0.05101019331","","","","","",""
"130","","bandit","268","621618","0.0-230.0-0.0","60255104","wem/bandit_single","A2WH3GIS2KF8LU","pain","1","","74","J","1","","0","0","1","","0.3191299148","false","193","","0.4069092802","main_expt","","0.3191299148","","0.09015445577","","0.0408087357","","","","","",""
"15","","bandit","269","623399","0.0-231.0-0.0","60255104","wem/bandit_single","A2WH3GIS2KF8LU","pain","1","","74","J","1","","0","0","1","","0.3350705725","false","194","","0.399300076","main_expt","","0.3350705725","","0.09569888082","","0.04787233925","","","","","",""
"8","","bandit","270","625197","0.0-232.0-0.0","60255104","wem/bandit_single","A2WH3GIS2KF8LU","pain","1","","74","J","1","","0","1","0","","0.3579412151","false","195","","0.4028519225","main_expt","","0.3579412151","","0.1521563302","","0.07297342555","","","","","",""
"18","","bandit","271","627016","0.0-233.0-0.0","60255104","wem/bandit_single","A2WH3GIS2KF8LU","pain","1","","74","J","1","","0","1","0","","0.4135102269","false","196","","0.3708283831","main_expt","","0.4135102269","","0.1612876033","","0.1090796252","","","","","",""
"388","","bandit","272","629184","0.0-234.0-0.0","60255104","wem/bandit_single","A2WH3GIS2KF8LU","pain","1","","74","J","1","","0","1","0","","0.4368922102","false","197","","0.3992028251","main_expt","","0.4368922102","","0.1818980103","","0.1141593934","","","","","",""
"114","","bandit","273","631077","0.0-235.0-0.0","60255104","wem/bandit_single","A2WH3GIS2KF8LU","pain","1","","74","J","1","","0","1","0","","0.4329908538","false","198","","0.3662313723","main_expt","","0.4329908538","","0.1426991491","","0.1247063377","","","","","",""
"37","","bandit","274","632876","0.0-236.0-0.0","60255104","wem/bandit_single","A2WH3GIS2KF8LU","pain","1","","74","J","1","","0","0","1","","0.4458308372","false","199","","0.3667285709","main_expt","","0.4458308372","","0.1339470975","","0.1324590526","","","","","",""
"61","","bandit","275","634708","0.0-237.0-0.0","60255104","wem/bandit_single","A2WH3GIS2KF8LU","pain","1","","74","J","1","","0","1","0","","0.4535445428","false","200","","0.365396467","main_expt","","0.4535445428","","0.1615481579","","0.1062358191","","","","","",""
"3","","bandit","276","636487","0.0-238.0-0.0","60255104","wem/bandit_single","A2WH3GIS2KF8LU","pain","1","","74","J","1","","0","1","0","","0.4258040833","false","201","","0.3413602931","main_expt","","0.4258040833","","0.1889616495","","0.1027729413","","","","","",""
"133","","bandit","277","638391","0.0-239.0-0.0","60255104","wem/bandit_single","A2WH3GIS2KF8LU","pain","1","","74","J","1","","0","0","1","","0.413157784","false","202","","0.3655369163","main_expt","","0.413157784","","0.2043886565","","0.09207086273","","","","","",""
"92","","bandit","278","640258","0.0-240.0-0.0","60255104","wem/bandit_single","A2WH3GIS2KF8LU","pain","1","","74","J","1","","0","0","1","","0.358983575","false","203","","0.3301706169","main_expt","","0.358983575","","0.2274570119","","0.1409949376","","","","","",""
"52","","bandit","279","642120","0.0-241.0-0.0","60255104","wem/bandit_single","A2WH3GIS2KF8LU","pain","1","","74","J","1","","0","1","0","","0.3354839288","false","204","","0.3305557625","main_expt","","0.3354839288","","0.1795680912","","0.2067441942","","","","","",""
"1834","","bandit","280","645724","0.0-242.0-0.0","60255104","wem/bandit_single","A2WH3GIS2KF8LU","pain","1","","72","H","0","img/none_selected.jpg","0","1","0","","0.3332543728","false","205","","0.3332543728","main_expt","","0.3814446138","","0.1823506393","","0.2171549514","","","","","",""
"100","","bandit","281","647610","0.0-243.0-0.0","60255104","wem/bandit_single","A2WH3GIS2KF8LU","pain","1","","72","H","0","img/none_selected.jpg","0","0","1","","0.270761893","false","206","","0.270761893","main_expt","","0.4069937863","","0.1401809595","","0.1399251859","","","","","",""
"482","","bandit","282","649880","0.0-244.0-0.0","60255104","wem/bandit_single","A2WH3GIS2KF8LU","pain","1","","72","H","0","img/none_selected.jpg","0","0","1","","0.2595670132","false","207","","0.2595670132","main_expt","","0.4261201247","","0.1651993972","","0.1700254018","","","","","",""
"7","","bandit","283","651665","0.0-245.0-0.0","60255104","wem/bandit_single","A2WH3GIS2KF8LU","pain","1","","72","H","0","img/none_selected.jpg","0","0","1","","0.2772442529","false","208","","0.2772442529","main_expt","","0.4105702951","","0.1803987852","","0.1831619311","","","","","",""
"5","","bandit","284","653472","0.0-246.0-0.0","60255104","wem/bandit_single","A2WH3GIS2KF8LU","pain","1","","72","H","0","img/none_selected.jpg","0","0","1","","0.2654441326","false","209","","0.2654441326","main_expt","","0.402481318","","0.1470434113","","0.151215806","","","","","",""
"420","","bandit","285","655717","0.0-247.0-0.0","60255104","wem/bandit_single","A2WH3GIS2KF8LU","pain","1","","72","H","0","img/none_selected.jpg","0","0","1","","0.2475709295","false","210","","0.2475709295","main_expt","","0.4378094136","","0.1375860563","","0.1841878728","","","","","",""
"50","","bandit","286","657538","0.0-248.0-0.0","60255104","wem/bandit_single","A2WH3GIS2KF8LU","pain","1","","75","K","2","","0","0","1","","0.1181257803","false","211","","0.1836637302","main_expt","","0.4174257438","","0.1181257803","","0.190591144","","","","","",""
"8","","bandit","287","659320","0.0-249.0-0.0","60255104","wem/bandit_single","A2WH3GIS2KF8LU","pain","1","","75","K","2","","0","0","1","","0.1284194295","false","212","","0.2018671691","main_expt","","0.4235695044","","0.1284194295","","0.2024219406","","","","","",""
"326","","bandit","288","661419","0.0-250.0-0.0","60255104","wem/bandit_single","A2WH3GIS2KF8LU","pain","1","","75","K","2","","0","0","1","","0.1088774305","false","213","","0.1807811906","main_expt","","0.4112054282","","0.1088774305","","0.1985525674","","","","","",""
"25","","bandit","289","663223","0.0-251.0-0.0","60255104","wem/bandit_single","A2WH3GIS2KF8LU","pain","1","","76","L","3","","0","0","1","","0.1940352924","false","214","","0.2432807767","main_expt","","0.3986702209","","0.07230623063","","0.1940352924","","","","","",""
"351","","bandit","290","665342","0.0-252.0-0.0","60255104","wem/bandit_single","A2WH3GIS2KF8LU","pain","1","","76","L","3","","0","0","1","","0.1155678072","false","215","","0.2167976264","main_expt","","0.4379561577","","0.07963887701","","0.1155678072","","","","","",""
"25","","bandit","291","667180","0.0-253.0-0.0","60255104","wem/bandit_single","A2WH3GIS2KF8LU","pain","1","","76","L","3","","0","0","1","","0.08288275022","false","216","","0.2963745884","main_expt","","0.425003275","","0.0792987172","","0.08288275022","","","","","",""
"86","","bandit","292","669040","0.0-254.0-0.0","60255104","wem/bandit_single","A2WH3GIS2KF8LU","pain","1","","74","J","1","","0","0","1","","0.4398514333","false","217","","0.2704200786","main_expt","","0.4398514333","","0.07576557353","","0.1108164962","","","","","",""
"75","","bandit","293","670903","0.0-255.0-0.0","60255104","wem/bandit_single","A2WH3GIS2KF8LU","pain","1","","74","J","1","","0","0","1","","0.4307107256","false","218","","0.2057322541","main_expt","","0.4307107256","","0.05946619603","","0.1166222362","","","","","",""
"183","","bandit","294","672849","0.0-256.0-0.0","60255104","wem/bandit_single","A2WH3GIS2KF8LU","pain","1","","74","J","1","","0","1","0","","0.4236121262","false","219","","0.2143414454","main_expt","","0.4236121262","","0.07419684477","","0.1441412427","","","","","",""
"17","","bandit","295","674654","0.0-257.0-0.0","60255104","wem/bandit_single","A2WH3GIS2KF8LU","pain","1","","74","J","1","","0","1","0","","0.4020148519","false","220","","0.1630835619","main_expt","","0.4020148519","","0.09297922461","","0.1460318591","","","","","",""
"388","","bandit","296","676838","0.0-258.0-0.0","60255104","wem/bandit_single","A2WH3GIS2KF8LU","pain","1","","74","J","1","","0","0","1","","0.4073181559","false","221","","0.1536312793","main_expt","","0.4073181559","","0.1429286242","","0.1068666799","","","","","",""
"78","","bandit","297","678702","0.0-259.0-0.0","60255104","wem/bandit_single","A2WH3GIS2KF8LU","pain","1","","74","J","1","","0","0","1","","0.3651123295","false","222","","0.2214617817","main_expt","","0.3651123295","","0.1708286753","","0.1101844092","","","","","",""
"34","","bandit","298","680513","0.0-260.0-0.0","60255104","wem/bandit_single","A2WH3GIS2KF8LU","pain","1","","74","J","1","","0","0","1","","0.3836441325","false","223","","0.2273662723","main_expt","","0.3836441325","","0.1461267001","","0.0707480467","","","","","",""
"55","","bandit","299","682342","0.0-261.0-0.0","60255104","wem/bandit_single","A2WH3GIS2KF8LU","pain","1","","74","J","1","","0","1","0","","0.3982756155","false","224","","0.1894352557","main_expt","","0.3982756155","","0.144808321","","0.06117493494","","","","","",""
"238","","bandit","300","684362","0.0-262.0-0.0","60255104","wem/bandit_single","A2WH3GIS2KF8LU","pain","1","","74","J","1","","0","1","0","","0.3942448394","false","225","","0.1292085382","main_expt","","0.3942448394","","0.1890777341","","0.0615688762","","","","","",""
"90","","bandit","301","686230","0.0-263.0-0.0","60255104","wem/bandit_single","A2WH3GIS2KF8LU","pain","1","","74","J","1","","0","1","0","","0.4169515918","false","226","","0.1530858041","main_expt","","0.4169515918","","0.1442837472","","0.05052633559","","","","","",""
"111","","bandit","302","688124","0.0-264.0-0.0","60255104","wem/bandit_single","A2WH3GIS2KF8LU","pain","1","","74","J","1","","0","1","0","","0.4204191544","false","227","","0.1593334253","main_expt","","0.4204191544","","0.1425852804","","0.05726050712","","","","","",""
"31","","bandit","303","689936","0.0-265.0-0.0","60255104","wem/bandit_single","A2WH3GIS2KF8LU","pain","1","","74","J","1","","0","0","1","","0.4091886","false","228","","0.1247523642","main_expt","","0.4091886","","0.1116716659","","0.0758768547","","","","","",""
"43","","bandit","304","691773","0.0-266.0-0.0","60255104","wem/bandit_single","A2WH3GIS2KF8LU","pain","1","","74","J","1","","0","1","0","","0.407276644","false","229","","0.1463700977","main_expt","","0.407276644","","0.1206121499","","0.07022353505","","","","","",""
"28","","bandit","305","693588","0.0-267.0-0.0","60255104","wem/bandit_single","A2WH3GIS2KF8LU","pain","1","","74","J","1","","0","0","1","","0.4254558538","false","230","","0.1402324221","main_expt","","0.4254558538","","0.1168532629","","0.06577032649","","","","","",""
"27","","bandit","306","695397","0.0-268.0-0.0","60255104","wem/bandit_single","A2WH3GIS2KF8LU","pain","1","","74","J","1","","0","1","0","","0.4259586803","false","231","","0.1914784592","main_expt","","0.4259586803","","0.0916199044","","0.06313303242","","","","","",""
"440","","bandit","307","697626","0.0-269.0-0.0","60255104","wem/bandit_single","A2WH3GIS2KF8LU","pain","1","","74","J","1","","0","0","1","","0.4429649496","false","232","","0.1507361932","main_expt","","0.4429649496","","0.09573807812","","0.05490827263","","","","","",""
"43","","bandit","308","699458","0.0-270.0-0.0","60255104","wem/bandit_single","A2WH3GIS2KF8LU","pain","1","","74","J","1","","0","1","0","","0.4456598826","false","233","","0.1902650793","main_expt","","0.4456598826","","0.1246926578","","0.04200611561","","","","","",""
"17","","bandit","309","701262","0.0-271.0-0.0","60255104","wem/bandit_single","A2WH3GIS2KF8LU","pain","1","","74","J","1","","0","1","0","","0.4504169918","false","234","","0.2663902881","main_expt","","0.4504169918","","0.122457211","","0.0550058871","","","","","",""
"45","","bandit","310","703070","0.0-272.0-0.0","60255104","wem/bandit_single","A2WH3GIS2KF8LU","pain","1","","74","J","1","","0","1","0","","0.4255816076","false","235","","0.257874652","main_expt","","0.4255816076","","0.1561374187","","0.06273227262","","","","","",""
"44","","bandit","311","704916","0.0-273.0-0.0","60255104","wem/bandit_single","A2WH3GIS2KF8LU","pain","1","","74","J","1","","0","0","1","","0.4262424011","false","236","","0.2134416149","main_expt","","0.4262424011","","0.1726763947","","0.09869136657","","","","","",""
"480","","bandit","312","707184","0.0-274.0-0.0","60255104","wem/bandit_single","A2WH3GIS2KF8LU","pain","1","","74","J","1","","0","1","0","","0.4314914545","false","237","","0.1655180868","main_expt","","0.4314914545","","0.163453789","","0.06464195797","","","","","",""
"19","","bandit","313","708993","0.0-275.0-0.0","60255104","wem/bandit_single","A2WH3GIS2KF8LU","pain","1","","74","J","1","","0","0","1","","0.4580147213","false","238","","0.1528926348","main_expt","","0.4580147213","","0.1511244057","","0.1092425733","","","","","",""
"130","","bandit","314","710913","0.0-276.0-0.0","60255104","wem/bandit_single","A2WH3GIS2KF8LU","pain","1","","74","J","1","","0","0","1","","0.4437162142","false","239","","0.1594670864","main_expt","","0.4437162142","","0.1170855371","","0.08920017271","","","","","",""
"5","","bandit","315","712681","0.0-277.0-0.0","60255104","wem/bandit_single","A2WH3GIS2KF8LU","pain","1","","74","J","1","","0","1","0","","0.4423909474","false","240","","0.104293197","main_expt","","0.4423909474","","0.1281478965","","0.138477068","","","","","",""
"69","","bandit","316","714536","0.0-278.0-0.0","60255104","wem/bandit_single","A2WH3GIS2KF8LU","pain","1","","74","J","1","","0","0","1","","0.4542424264","false","241","","0.07968297136","main_expt","","0.4542424264","","0.1579661802","","0.1249513709","","","","","",""
"94","","bandit","317","716397","0.0-279.0-0.0","60255104","wem/bandit_single","A2WH3GIS2KF8LU","pain","1","","74","J","1","","0","1","0","","0.4659063812","false","242","","0.07079416442","main_expt","","0.4659063812","","0.1345462726","","0.09754639251","","","","","",""
"119","","bandit","318","718302","0.0-280.0-0.0","60255104","wem/bandit_single","A2WH3GIS2KF8LU","pain","1","","74","J","1","","0","1","0","","0.4702771719","false","243","","0.08709770617","main_expt","","0.4702771719","","0.1793426478","","0.1223474156","","","","","",""
"6","","bandit","319","720110","0.0-281.0-0.0","60255104","wem/bandit_single","A2WH3GIS2KF8LU","pain","1","","74","J","1","","0","0","1","","0.4678480784","false","244","","0.08252109256","main_expt","","0.4678480784","","0.1623289848","","0.1004902073","","","","","",""
"885","","bandit","320","722785","0.0-282.0-0.0","60255104","wem/bandit_single","A2WH3GIS2KF8LU","pain","1","","74","J","1","","0","1","0","","0.4608336118","false","245","","0.07130924754","main_expt","","0.4608336118","","0.1638267454","","0.09372717231","","","","","",""
"54","","bandit","321","724630","0.0-283.0-0.0","60255104","wem/bandit_single","A2WH3GIS2KF8LU","pain","1","","74","J","1","","0","1","0","","0.4455928316","false","246","","0.06886742221","main_expt","","0.4455928316","","0.1794660524","","0.1004977064","","","","","",""
"30","","bandit","322","726423","0.0-284.0-0.0","60255104","wem/bandit_single","A2WH3GIS2KF8LU","pain","1","","74","J","1","","0","0","1","","0.4322927154","false","247","","0.064138504","main_expt","","0.4322927154","","0.1751092572","","0.09336015453","","","","","",""
"13","","bandit","323","728214","0.0-285.0-0.0","60255104","wem/bandit_single","A2WH3GIS2KF8LU","pain","1","","74","J","1","","0","0","1","","0.4293825987","false","248","","0.05051083443","main_expt","","0.4293825987","","0.188480637","","0.09552903486","","","","","",""
"4","","bandit","324","730012","0.0-286.0-0.0","60255104","wem/bandit_single","A2WH3GIS2KF8LU","pain","1","","74","J","1","","0","0","1","","0.4338924945","false","249","","0.05514480776","main_expt","","0.4338924945","","0.1718025207","","0.1087111068","","","","","",""
"318","","bandit","325","732127","0.0-287.0-0.0","60255104","wem/bandit_single","A2WH3GIS2KF8LU","pain","1","","74","J","1","","0","0","1","","0.4356531551","false","250","","0.02780796002","main_expt","","0.4356531551","","0.1377417152","","0.08296073337","","","","","",""
"30","","bandit","326","733935","0.0-288.0-0.0","60255104","wem/bandit_single","A2WH3GIS2KF8LU","pain","1","","74","J","1","","0","1","0","","0.4561881598","false","251","","0.02786711831","main_expt","","0.4561881598","","0.1623098307","","0.08988728922","","","","","",""
"417","","bandit","327","736135","0.0-289.0-0.0","60255104","wem/bandit_single","A2WH3GIS2KF8LU","pain","1","","74","J","1","","0","0","1","","0.4517263236","false","252","","0.03881205422","main_expt","","0.4517263236","","0.1702242208","","0.07043490844","","","","","",""
"266","","bandit","328","738166","0.0-290.0-0.0","60255104","wem/bandit_single","A2WH3GIS2KF8LU","pain","1","","74","J","1","","0","0","1","","0.4280730872","false","253","","0.03211176865","main_expt","","0.4280730872","","0.1571297736","","0.06648959932","","","","","",""
"51","","bandit","329","740009","0.0-291.0-0.0","60255104","wem/bandit_single","A2WH3GIS2KF8LU","pain","1","","74","J","1","","0","1","0","","0.3976691957","false","254","","0.02501863174","main_expt","","0.3976691957","","0.1311762281","","0.04750248463","","","","","",""
"197","","bandit","330","742024","0.0-292.0-0.0","60255104","wem/bandit_single","A2WH3GIS2KF8LU","pain","1","","74","J","1","","0","0","1","","0.3920211634","false","255","","0.03845468041","main_expt","","0.3920211634","","0.1262313745","","0.0685067328","","","","","",""
"58","","bandit","331","743891","0.0-293.0-0.0","60255104","wem/bandit_single","A2WH3GIS2KF8LU","pain","1","","74","J","1","","0","0","1","","0.3802568344","false","256","","0.03093107714","main_expt","","0.3802568344","","0.08888936201","","0.06106940649","","","","","",""
"146","","bandit","332","745805","0.0-294.0-0.0","60255104","wem/bandit_single","A2WH3GIS2KF8LU","pain","1","","74","J","1","","0","0","1","","0.4153547565","false","257","","0.02284381284","main_expt","","0.4153547565","","0.1016624202","","0.03925251802","","","","","",""
"65","","bandit","333","747655","0.0-295.0-0.0","60255104","wem/bandit_single","A2WH3GIS2KF8LU","pain","1","","74","J","1","","0","0","1","","0.412770775","false","258","","0.01195927332","main_expt","","0.412770775","","0.1201960749","","0.07528758783","","","","","",""
"28","","bandit","334","749450","0.0-296.0-0.0","60255104","wem/bandit_single","A2WH3GIS2KF8LU","pain","1","","74","J","1","","0","0","1","","0.4364469878","false","259","","0.009837890866","main_expt","","0.4364469878","","0.09869940493","","0.06168900656","","","","","",""
"70","","bandit","335","751304","0.0-297.0-0.0","60255104","wem/bandit_single","A2WH3GIS2KF8LU","pain","1","","74","J","1","","0","1","0","","0.4143686848","false","260","","0.01652501309","main_expt","","0.4143686848","","0.140367269","","0.05358732337","","","","","",""
"431","","bandit","336","753505","0.0-298.0-0.0","60255104","wem/bandit_single","A2WH3GIS2KF8LU","pain","1","","74","J","1","","0","0","1","","0.3932103286","false","261","","0.0246934762","main_expt","","0.3932103286","","0.107121031","","0.05974294151","","","","","",""
"327","","bandit","337","755611","0.0-299.0-0.0","60255104","wem/bandit_single","A2WH3GIS2KF8LU","pain","1","","74","J","1","","0","1","0","","0.4299042069","false","262","","0.02217338967","main_expt","","0.4299042069","","0.142880744","","0.0656558392","","","","","",""
"270","","bandit","338","757669","0.0-300.0-0.0","60255104","wem/bandit_single","A2WH3GIS2KF8LU","pain","1","","74","J","1","","0","0","1","","0.3864913748","false","263","","0.02538488248","main_expt","","0.3864913748","","0.1398656543","","0.08006927963","","","","","",""
"291","","bandit","339","759759","0.0-301.0-0.0","60255104","wem/bandit_single","A2WH3GIS2KF8LU","pain","1","","74","J","1","","0","0","1","","0.3721946297","false","264","","0.03542132602","main_expt","","0.3721946297","","0.185630342","","0.07803510261","","","","","",""
"212","","bandit","340","761746","0.0-302.0-0.0","60255104","wem/bandit_single","A2WH3GIS2KF8LU","pain","1","","74","J","1","","0","1","0","","0.3326379545","false","265","","0.03052618628","main_expt","","0.3326379545","","0.1483619715","","0.08917846028","","","","","",""
"160","","bandit","341","763688","0.0-303.0-0.0","60255104","wem/bandit_single","A2WH3GIS2KF8LU","pain","1","","74","J","1","","0","1","0","","0.3337002386","false","266","","0.02388326919","main_expt","","0.3337002386","","0.1677753502","","0.1562168236","","","","","",""
"13","","bandit","342","765491","0.0-304.0-0.0","60255104","wem/bandit_single","A2WH3GIS2KF8LU","pain","1","","74","J","1","","0","0","1","","0.3044940876","false","267","","0.01496915784","main_expt","","0.3044940876","","0.1748953786","","0.1873085091","","","","","",""
"68","","bandit","343","767344","0.0-305.0-0.0","60255104","wem/bandit_single","A2WH3GIS2KF8LU","pain","1","","74","J","1","","0","0","1","","0.2966269971","false","268","","0.01735494223","main_expt","","0.2966269971","","0.152215306","","0.1850807086","","","","","",""
"43","","bandit","344","769164","0.0-306.0-0.0","60255104","wem/bandit_single","A2WH3GIS2KF8LU","pain","1","","74","J","1","","0","0","1","","0.2617435325","false","269","","0.01365938384","main_expt","","0.2617435325","","0.1420691147","","0.1461958128","","","","","",""
"44","","bandit","345","770996","0.0-307.0-0.0","60255104","wem/bandit_single","A2WH3GIS2KF8LU","pain","1","","74","J","1","","0","0","1","","0.2599280147","false","270","","0.01871615964","main_expt","","0.2599280147","","0.1338049101","","0.1348565207","","","","","",""
"35","","bandit","346","772808","0.0-308.0-0.0","60255104","wem/bandit_single","A2WH3GIS2KF8LU","pain","1","","74","J","1","","0","0","1","","0.2499936179","false","271","","0.01663887187","main_expt","","0.2499936179","","0.1178923734","","0.1588166083","","","","","",""
"68","","bandit","347","774664","0.0-309.0-0.0","60255104","wem/bandit_single","A2WH3GIS2KF8LU","pain","1","","72","H","0","img/none_selected.jpg","0","0","1","","0.01973971225","false","272","","0.01973971225","main_expt","","0.2703142459","","0.1436833609","","0.1288650497","","","","","",""
"52","","bandit","348","776485","0.0-310.0-0.0","60255104","wem/bandit_single","A2WH3GIS2KF8LU","pain","1","","72","H","0","img/none_selected.jpg","0","0","1","","0.01954424634","false","273","","0.01954424634","main_expt","","0.2835249431","","0.1917782062","","0.1414039315","","","","","",""
"101","","bandit","349","778354","0.0-311.0-0.0","60255104","wem/bandit_single","A2WH3GIS2KF8LU","pain","1","","72","H","0","img/none_selected.jpg","0","0","1","","0.008862655739","false","274","","0.008862655739","main_expt","","0.2906451875","","0.1657285368","","0.1132613661","","","","","",""
"403","","bandit","350","780536","0.0-312.0-0.0","60255104","wem/bandit_single","A2WH3GIS2KF8LU","pain","1","","74","J","1","","0","0","1","","0.2670480505","false","275","","0.0094605031","main_expt","","0.2670480505","","0.1420329436","","0.1396690899","","","","","",""
"146","","bandit","351","782459","0.0-313.0-0.0","60255104","wem/bandit_single","A2WH3GIS2KF8LU","pain","1","","74","J","1","","0","1","0","","0.2358592403","false","276","","0.01191149084","main_expt","","0.2358592403","","0.1369756733","","0.1109816737","","","","","",""
"42","","bandit","352","784299","0.0-314.0-0.0","60255104","wem/bandit_single","A2WH3GIS2KF8LU","pain","1","","74","J","1","","0","0","1","","0.1877967456","false","277","","0.00904810236","main_expt","","0.1877967456","","0.1781068979","","0.08046464388","","","","","",""
"31","","bandit","353","786105","0.0-315.0-0.0","60255104","wem/bandit_single","A2WH3GIS2KF8LU","pain","1","","74","J","1","","0","0","1","","0.1537245983","false","278","","0.007795284796","main_expt","","0.1537245983","","0.248352092","","0.07407019324","","","","","",""
"13","","bandit","354","787895","0.0-316.0-0.0","60255104","wem/bandit_single","A2WH3GIS2KF8LU","pain","1","","74","J","1","","0","0","1","","0.1662011111","false","279","","0.01747653863","main_expt","","0.1662011111","","0.263219496","","0.06478755197","","","","","",""
"783","","bandit","355","790470","0.0-317.0-0.0","60255104","wem/bandit_single","A2WH3GIS2KF8LU","pain","1","","74","J","1","","0","0","1","","0.1622625537","false","280","","0.02326096521","main_expt","","0.1622625537","","0.210776847","","0.04895059186","","","","","",""
"95","","bandit","356","792344","0.0-318.0-0.0","60255104","wem/bandit_single","A2WH3GIS2KF8LU","pain","1","","74","J","1","","0","1","0","","0.2160365104","false","281","","0.03290281633","main_expt","","0.2160365104","","0.1901401854","","0.04598133094","","","","","",""
"54","","bandit","357","794175","0.0-319.0-0.0","60255104","wem/bandit_single","A2WH3GIS2KF8LU","pain","1","","74","J","1","","0","0","1","","0.2031844556","false","282","","0.03647511751","main_expt","","0.2031844556","","0.1692674388","","0.0454431083","","","","","",""
"391","","bandit","358","796372","0.0-320.0-0.0","60255104","wem/bandit_single","A2WH3GIS2KF8LU","pain","1","","74","J","1","","0","0","1","","0.236778666","false","283","","0.0381479171","main_expt","","0.236778666","","0.1697823826","","0.0377119091","","","","","",""
"24","","bandit","359","798165","0.0-321.0-0.0","60255104","wem/bandit_single","A2WH3GIS2KF8LU","pain","1","","74","J","1","","0","0","1","","0.2082896542","false","284","","0.04237273713","main_expt","","0.2082896542","","0.1647860582","","0.0346676025","","","","","",""
"42","","bandit","360","799996","0.0-322.0-0.0","60255104","wem/bandit_single","A2WH3GIS2KF8LU","pain","1","","75","K","2","","0","1","0","","0.2346467376","false","285","","0.08736605616","main_expt","","0.1682052712","","0.2346467376","","0.03394591187","","","","","",""
"67","","bandit","361","801856","0.0-323.0-0.0","60255104","wem/bandit_single","A2WH3GIS2KF8LU","pain","1","","75","K","2","","0","0","1","","0.1651037306","false","286","","0.149418319","main_expt","","0.1287852917","","0.1651037306","","0.03437308726","","","","","",""
"422","","bandit","362","804069","0.0-324.0-0.0","60255104","wem/bandit_single","A2WH3GIS2KF8LU","pain","1","","75","K","2","","0","0","1","","0.113933185","false","287","","0.2149685411","main_expt","","0.0739145169","","0.113933185","","0.043905831","","","","","",""
"66","","bandit","363","805937","0.0-325.0-0.0","60255104","wem/bandit_single","A2WH3GIS2KF8LU","pain","1","","75","K","2","","0","0","1","","0.08260993421","false","288","","0.181398065","main_expt","","0.08295252225","","0.08260993421","","0.02064047927","","","","","",""
"35","","bandit","364","807745","0.0-326.0-0.0","60255104","wem/bandit_single","A2WH3GIS2KF8LU","pain","1","","75","K","2","","0","0","1","","0.07260323305","false","289","","0.1523032639","main_expt","","0.0479508895","","0.07260323305","","0.0250169619","","","","","",""
"15","","bandit","365","809565","0.0-327.0-0.0","60255104","wem/bandit_single","A2WH3GIS2KF8LU","pain","1","","75","K","2","","0","0","1","","0.06306400378","false","290","","0.1404761367","main_expt","","0.05498143303","","0.06306400378","","0.04785043425","","","","","",""
"3","","bandit","366","811352","0.0-328.0-0.0","60255104","wem/bandit_single","A2WH3GIS2KF8LU","pain","1","","76","L","3","","0","0","1","","0.05997729544","false","291","","0.1639955189","main_expt","","0.06238518006","","0.06173149747","","0.05997729544","","","","","",""
"58","","bandit","367","813193","0.0-329.0-0.0","60255104","wem/bandit_single","A2WH3GIS2KF8LU","pain","1","","76","L","3","","0","1","0","","0.08013724224","false","292","","0.1365824739","main_expt","","0.06246846358","","0.049421281","","0.08013724224","","","","","",""
"425","","bandit","368","815418","0.0-330.0-0.0","60255104","wem/bandit_single","A2WH3GIS2KF8LU","pain","1","","76","L","3","","0","1","0","","0.08257915178","false","293","","0.2190436779","main_expt","","0.0635142122","","0.04661139695","","0.08257915178","","","","","",""
"28","","bandit","369","817241","0.0-331.0-0.0","60255104","wem/bandit_single","A2WH3GIS2KF8LU","pain","1","","76","L","3","","0","0","1","","0.07979116831","false","294","","0.2961987497","main_expt","","0.1078883856","","0.05266196286","","0.07979116831","","","","","",""
"16","","bandit","370","819039","0.0-332.0-0.0","60255104","wem/bandit_single","A2WH3GIS2KF8LU","pain","1","","76","L","3","","0","0","1","","0.1168190604","false","295","","0.3422413176","main_expt","","0.1065048767","","0.0541153793","","0.1168190604","","","","","",""
"408","","bandit","371","821242","0.0-333.0-0.0","60255104","wem/bandit_single","A2WH3GIS2KF8LU","pain","1","","76","L","3","","0","0","1","","0.1280513587","false","296","","0.3023757447","main_expt","","0.1528862056","","0.03514166697","","0.1280513587","","","","","",""
"54","","bandit","372","823062","0.0-334.0-0.0","60255104","wem/bandit_single","A2WH3GIS2KF8LU","pain","1","","76","L","3","","0","0","1","","0.1545711336","false","297","","0.3744966898","main_expt","","0.1655716118","","0.0293008482","","0.1545711336","","","","","",""
"80","","bandit","373","824941","0.0-335.0-0.0","60255104","wem/bandit_single","A2WH3GIS2KF8LU","pain","1","","76","L","3","","0","0","1","","0.1485956324","false","298","","0.3702548021","main_expt","","0.1725180782","","0.03311380314","","0.1485956324","","","","","",""
"378","","bandit","374","827119","0.0-336.0-0.0","60255104","wem/bandit_single","A2WH3GIS2KF8LU","pain","1","","76","L","3","","0","0","1","","0.1680902507","false","299","","0.3675060033","main_expt","","0.1569797065","","0.02365994183","","0.1680902507","","","","","",""
