"rt","responses","trial_type","trial_index","time_elapsed","internal_node_id","subjID","study","MID","cond","drift","key_press","respCharCode","respKey","respChoiceNum","respChoice","gems","bombs","no_reward","GemPrChosen","BombPrChosen","practice","trial_counter","WinPr_0","LosePr_0","trial_label","WinPr_1","LosePr_1","WinPr_2","LosePr_2","WinPr_3","LosePr_3","Q0","Q1","Q2","gender","age","ethnicity"
"26477","{""Q0"":""A1S6C6EN8MPKC3""}","survey-text","0","26487","0.0-0.0","61072685","wem/bandit_single","A1S6C6EN8MPKC3","gain","2","","","","","","","","","","","","","","","","","","","","","","","","","","",""
"2910","","text","1","30403","0.0-1.0","61072685","wem/bandit_single","A1S6C6EN8MPKC3","gain","2","32","","","","","","","","","","","","","","","","","","","","","","","","","",""
"4727","","text","2","35134","0.0-2.0","61072685","wem/bandit_single","A1S6C6EN8MPKC3","gain","2","32","","","","","","","","","","","","","","","","","","","","","","","","","",""
"16753","","text","3","51889","0.0-3.0","61072685","wem/bandit_single","A1S6C6EN8MPKC3","gain","2","32","","","","","","","","","","","","","","","","","","","","","","","","","",""
"21562","","text","4","73455","0.0-4.0","61072685","wem/bandit_single","A1S6C6EN8MPKC3","gain","2","32","","","","","","","","","","","","","","","","","","","","","","","","","",""
"8748","","text","5","82207","0.0-5.0","61072685","wem/bandit_single","A1S6C6EN8MPKC3","gain","2","32","","","","","","","","","","","","","","","","","","","","","","","","","",""
"6476","","text","6","88686","0.0-6.0","61072685","wem/bandit_single","A1S6C6EN8MPKC3","gain","2","32","","","","","","","","","","","","","","","","","","","","","","","","","",""
"4109","","text","7","92798","0.0-7.0","61072685","wem/bandit_single","A1S6C6EN8MPKC3","gain","2","32","","","","","","","","","","","","","","","","","","","","","","","","","",""
"4149","","text","8","96951","0.0-8.0","61072685","wem/bandit_single","A1S6C6EN8MPKC3","gain","2","32","","","","","","","","","","","","","","","","","","","","","","","","","",""
"2159","","text","9","99112","0.0-9.0","61072685","wem/bandit_single","A1S6C6EN8MPKC3","gain","2","32","","","","","","","","","","","","","","","","","","","","","","","","","",""
"9326","","text","10","108440","0.0-10.0","61072685","wem/bandit_single","A1S6C6EN8MPKC3","gain","2","32","","","","","","","","","","","","","","","","","","","","","","","","","",""
"13050","","text","11","121494","0.0-11.0","61072685","wem/bandit_single","A1S6C6EN8MPKC3","gain","2","32","","","","","","","","","","","","","","","","","","","","","","","","","",""
"356","","bandit","12","123372","0.0-12.0-0.0","61072685","wem/bandit_single","A1S6C6EN8MPKC3","gain","2","","74","J","0","img/none_selected_demo.jpg","0","0","1","0","0","true","0","0","0","","","","","","","","","","","","",""
"1564","","bandit","13","126701","0.0-13.0-0.0","61072685","wem/bandit_single","A1S6C6EN8MPKC3","gain","2","","75","K","0","img/none_selected_demo.jpg","0","0","1","0","0","true","0","0","0","","","","","","","","","","","","",""
"3283","","text","14","130240","0.0-14.0","61072685","wem/bandit_single","A1S6C6EN8MPKC3","gain","2","32","","","","","","","","","","","","","","","","","","","","","","","","","",""
"1402","","text","15","131646","0.0-15.0","61072685","wem/bandit_single","A1S6C6EN8MPKC3","gain","2","32","","","","","","","","","","","","","","","","","","","","","","","","","",""
"2390","","text","16","134040","0.0-16.0","61072685","wem/bandit_single","A1S6C6EN8MPKC3","gain","2","32","","","","","","","","","","","","","","","","","","","","","","","","","",""
"5532","","text","17","139576","0.0-17.0","61072685","wem/bandit_single","A1S6C6EN8MPKC3","gain","2","32","","","","","","","","","","","","","","","","","","","","","","","","","",""
"1656","","bandit","18","142744","0.0-18.0-0.0","61072685","wem/bandit_single","A1S6C6EN8MPKC3","gain","2","","74","J","0","img/none_selected_demo.jpg","1","0","0","0.8","0","true","0","0.8","0","80_20_practice","0.2","0","","","","","","","","","",""
"202","","bandit","19","144704","0.0-18.0-1.0","61072685","wem/bandit_single","A1S6C6EN8MPKC3","gain","2","","74","J","0","img/none_selected_demo.jpg","1","0","0","0.8","0","true","0","0.8","0","80_20_practice","0.2","0","","","","","","","","","",""
"855","","bandit","20","147316","0.0-18.0-2.0","61072685","wem/bandit_single","A1S6C6EN8MPKC3","gain","2","","74","J","0","img/none_selected_demo.jpg","1","0","0","0.8","0","true","0","0.8","0","80_20_practice","0.2","0","","","","","","","","","",""
"139","","bandit","21","149213","0.0-18.0-3.0","61072685","wem/bandit_single","A1S6C6EN8MPKC3","gain","2","","75","K","1","","0","0","1","0.2","0","true","0","0.8","0","80_20_practice","0.2","0","","","","","","","","","",""
"288","","bandit","22","151260","0.0-18.0-4.0","61072685","wem/bandit_single","A1S6C6EN8MPKC3","gain","2","","74","J","0","img/none_selected_demo.jpg","1","0","0","0.8","0","true","0","0.8","0","80_20_practice","0.2","0","","","","","","","","","",""
"73","","bandit","23","153091","0.0-18.0-5.0","61072685","wem/bandit_single","A1S6C6EN8MPKC3","gain","2","","74","J","0","img/none_selected_demo.jpg","1","0","0","0.8","0","true","0","0.8","0","80_20_practice","0.2","0","","","","","","","","","",""
"74","","bandit","24","154925","0.0-18.0-6.0","61072685","wem/bandit_single","A1S6C6EN8MPKC3","gain","2","","74","J","0","img/none_selected_demo.jpg","1","0","0","0.8","0","true","0","0.8","0","80_20_practice","0.2","0","","","","","","","","","",""
"16","","bandit","25","156702","0.0-18.0-7.0","61072685","wem/bandit_single","A1S6C6EN8MPKC3","gain","2","","74","J","0","img/none_selected_demo.jpg","0","0","1","0.8","0","true","0","0.8","0","80_20_practice","0.2","0","","","","","","","","","",""
"1262","","bandit","26","159726","0.0-18.0-8.0","61072685","wem/bandit_single","A1S6C6EN8MPKC3","gain","2","","74","J","0","img/none_selected_demo.jpg","1","0","0","0.8","0","true","0","0.8","0","80_20_practice","0.2","0","","","","","","","","","",""
"185","","bandit","27","161669","0.0-18.0-9.0","61072685","wem/bandit_single","A1S6C6EN8MPKC3","gain","2","","74","J","0","img/none_selected_demo.jpg","1","0","0","0.8","0","true","0","0.8","0","80_20_practice","0.2","0","","","","","","","","","",""
"159","","bandit","28","163588","0.0-18.0-10.0","61072685","wem/bandit_single","A1S6C6EN8MPKC3","gain","2","","74","J","0","img/none_selected_demo.jpg","0","0","1","0.8","0","true","0","0.8","0","80_20_practice","0.2","0","","","","","","","","","",""
"528","","bandit","29","165881","0.0-18.0-11.0","61072685","wem/bandit_single","A1S6C6EN8MPKC3","gain","2","","74","J","0","img/none_selected_demo.jpg","1","0","0","0.8","0","true","0","0.8","0","80_20_practice","0.2","0","","","","","","","","","",""
"92","","bandit","30","167736","0.0-18.0-12.0","61072685","wem/bandit_single","A1S6C6EN8MPKC3","gain","2","","74","J","0","img/none_selected_demo.jpg","1","0","0","0.8","0","true","0","0.8","0","80_20_practice","0.2","0","","","","","","","","","",""
"53","","bandit","31","169549","0.0-18.0-13.0","61072685","wem/bandit_single","A1S6C6EN8MPKC3","gain","2","","74","J","0","img/none_selected_demo.jpg","1","0","0","0.8","0","true","0","0.8","0","80_20_practice","0.2","0","","","","","","","","","",""
"1367","","bandit","32","172677","0.0-18.0-14.0","61072685","wem/bandit_single","A1S6C6EN8MPKC3","gain","2","","74","J","0","img/none_selected_demo.jpg","1","0","0","0.8","0","true","0","0.8","0","80_20_practice","0.2","0","","","","","","","","","",""
"224","","bandit","33","174663","0.0-18.0-15.0","61072685","wem/bandit_single","A1S6C6EN8MPKC3","gain","2","","74","J","0","img/none_selected_demo.jpg","1","0","0","0.8","0","true","0","0.8","0","80_20_practice","0.2","0","","","","","","","","","",""
"139","","bandit","34","176567","0.0-18.0-16.0","61072685","wem/bandit_single","A1S6C6EN8MPKC3","gain","2","","74","J","0","img/none_selected_demo.jpg","1","0","0","0.8","0","true","0","0.8","0","80_20_practice","0.2","0","","","","","","","","","",""
"196","","bandit","35","178525","0.0-18.0-17.0","61072685","wem/bandit_single","A1S6C6EN8MPKC3","gain","2","","75","K","1","","1","0","0","0.2","0","true","0","0.8","0","80_20_practice","0.2","0","","","","","","","","","",""
"70","","bandit","36","180358","0.0-18.0-18.0","61072685","wem/bandit_single","A1S6C6EN8MPKC3","gain","2","","74","J","0","img/none_selected_demo.jpg","1","0","0","0.8","0","true","0","0.8","0","80_20_practice","0.2","0","","","","","","","","","",""
"1128","","bandit","37","183247","0.0-18.0-19.0","61072685","wem/bandit_single","A1S6C6EN8MPKC3","gain","2","","74","J","0","img/none_selected_demo.jpg","1","0","0","0.8","0","true","0","0.8","0","80_20_practice","0.2","0","","","","","","","","","",""
"1368","","text","38","184872","0.0-19.0","61072685","wem/bandit_single","A1S6C6EN8MPKC3","gain","2","32","","","","","","","","","","","","","","","","","","","","","","","","","",""
"2310","","bandit","39","188691","0.0-20.0-0.0","61072685","wem/bandit_single","A1S6C6EN8MPKC3","gain","2","","74","J","0","img/none_selected_demo.jpg","0","0","1","0","0","true","0","0","0","","0","0","","","","","","","","","",""
"2812","","text","40","191760","0.0-21.0","61072685","wem/bandit_single","A1S6C6EN8MPKC3","gain","2","32","","","","","","","","","","","","","","","","","","","","","","","","","",""
"5470","","text","41","197241","0.0-22.0","61072685","wem/bandit_single","A1S6C6EN8MPKC3","gain","2","32","","","","","","","","","","","","","","","","","","","","","","","","","",""
"3299","","text","42","200544","0.0-23.0","61072685","wem/bandit_single","A1S6C6EN8MPKC3","gain","2","32","","","","","","","","","","","","","","","","","","","","","","","","","",""
"1905","","text","43","202455","0.0-24.0","61072685","wem/bandit_single","A1S6C6EN8MPKC3","gain","2","32","","","","","","","","","","","","","","","","","","","","","","","","","",""
"3452","","text","44","205911","0.0-25.0","61072685","wem/bandit_single","A1S6C6EN8MPKC3","gain","2","32","","","","","","","","","","","","","","","","","","","","","","","","","",""
"1910","","text","45","207825","0.0-26.0","61072685","wem/bandit_single","A1S6C6EN8MPKC3","gain","2","32","","","","","","","","","","","","","","","","","","","","","","","","","",""
"2131","","text","46","209960","0.0-27.0","61072685","wem/bandit_single","A1S6C6EN8MPKC3","gain","2","32","","","","","","","","","","","","","","","","","","","","","","","","","",""
"2130","","text","47","212095","0.0-28.0","61072685","wem/bandit_single","A1S6C6EN8MPKC3","gain","2","32","","","","","","","","","","","","","","","","","","","","","","","","","",""
"2096","","text","48","214200","0.0-29.0","61072685","wem/bandit_single","A1S6C6EN8MPKC3","gain","2","32","","","","","","","","","","","","","","","","","","","","","","","","","",""
"873","","text","49","215078","0.0-30.0","61072685","wem/bandit_single","A1S6C6EN8MPKC3","gain","2","32","","","","","","","","","","","","","","","","","","","","","","","","","",""
"4329","","text","50","219409","0.0-31.0","61072685","wem/bandit_single","A1S6C6EN8MPKC3","gain","2","32","","","","","","","","","","","","","","","","","","","","","","","","","",""
"7195","","bandit","51","228109","0.0-32.0-0.0","61072685","wem/bandit_single","A1S6C6EN8MPKC3","gain","2","","72","H","0","img/none_selected.jpg","1","0","0","0.8","0","true","0","0.8","0","full_practice","0.2","0","0.6","0","0.2","0","","","","","",""
"61","","bandit","52","229933","0.0-32.0-1.0","61072685","wem/bandit_single","A1S6C6EN8MPKC3","gain","2","","74","J","1","","1","0","0","0.2","0","true","0","0.8","0","full_practice","0.2","0","0.6","0","0.2","0","","","","","",""
"397","","bandit","53","232094","0.0-32.0-2.0","61072685","wem/bandit_single","A1S6C6EN8MPKC3","gain","2","","75","K","2","","0","0","1","0.6","0","true","0","0.8","0","full_practice","0.2","0","0.6","0","0.2","0","","","","","",""
"132","","bandit","54","233989","0.0-32.0-3.0","61072685","wem/bandit_single","A1S6C6EN8MPKC3","gain","2","","76","L","3","","1","0","0","0.2","0","true","0","0.8","0","full_practice","0.2","0","0.6","0","0.2","0","","","","","",""
"9","","bandit","55","235758","0.0-32.0-4.0","61072685","wem/bandit_single","A1S6C6EN8MPKC3","gain","2","","72","H","0","img/none_selected.jpg","1","0","0","0.8","0","true","0","0.8","0","full_practice","0.2","0","0.6","0","0.2","0","","","","","",""
"108","","bandit","56","237631","0.0-32.0-5.0","61072685","wem/bandit_single","A1S6C6EN8MPKC3","gain","2","","72","H","0","img/none_selected.jpg","1","0","0","0.8","0","true","0","0.8","0","full_practice","0.2","0","0.6","0","0.2","0","","","","","",""
"66","","bandit","57","239460","0.0-32.0-6.0","61072685","wem/bandit_single","A1S6C6EN8MPKC3","gain","2","","76","L","3","","0","0","1","0.2","0","true","0","0.8","0","full_practice","0.2","0","0.6","0","0.2","0","","","","","",""
"165","","bandit","58","241390","0.0-32.0-7.0","61072685","wem/bandit_single","A1S6C6EN8MPKC3","gain","2","","74","J","1","","0","0","1","0.2","0","true","0","0.8","0","full_practice","0.2","0","0.6","0","0.2","0","","","","","",""
"80","","bandit","59","243237","0.0-32.0-8.0","61072685","wem/bandit_single","A1S6C6EN8MPKC3","gain","2","","72","H","0","img/none_selected.jpg","0","0","1","0.8","0","true","0","0.8","0","full_practice","0.2","0","0.6","0","0.2","0","","","","","",""
"87","","bandit","60","245085","0.0-32.0-9.0","61072685","wem/bandit_single","A1S6C6EN8MPKC3","gain","2","","75","K","2","","1","0","0","0.6","0","true","0","0.8","0","full_practice","0.2","0","0.6","0","0.2","0","","","","","",""
"72","","bandit","61","246917","0.0-32.0-10.0","61072685","wem/bandit_single","A1S6C6EN8MPKC3","gain","2","","75","K","2","","1","0","0","0.6","0","true","0","0.8","0","full_practice","0.2","0","0.6","0","0.2","0","","","","","",""
"572","","bandit","62","249253","0.0-32.0-11.0","61072685","wem/bandit_single","A1S6C6EN8MPKC3","gain","2","","75","K","2","","1","0","0","0.6","0","true","0","0.8","0","full_practice","0.2","0","0.6","0","0.2","0","","","","","",""
"224","","bandit","63","251238","0.0-32.0-12.0","61072685","wem/bandit_single","A1S6C6EN8MPKC3","gain","2","","75","K","2","","1","0","0","0.6","0","true","0","0.8","0","full_practice","0.2","0","0.6","0","0.2","0","","","","","",""
"100","","bandit","64","253102","0.0-32.0-13.0","61072685","wem/bandit_single","A1S6C6EN8MPKC3","gain","2","","75","K","2","","0","0","1","0.6","0","true","0","0.8","0","full_practice","0.2","0","0.6","0","0.2","0","","","","","",""
"123","","bandit","65","254981","0.0-32.0-14.0","61072685","wem/bandit_single","A1S6C6EN8MPKC3","gain","2","","72","H","0","img/none_selected.jpg","0","0","1","0.8","0","true","0","0.8","0","full_practice","0.2","0","0.6","0","0.2","0","","","","","",""
"48","","bandit","66","256788","0.0-32.0-15.0","61072685","wem/bandit_single","A1S6C6EN8MPKC3","gain","2","","75","K","2","","1","0","0","0.6","0","true","0","0.8","0","full_practice","0.2","0","0.6","0","0.2","0","","","","","",""
"82","","bandit","67","258635","0.0-32.0-16.0","61072685","wem/bandit_single","A1S6C6EN8MPKC3","gain","2","","75","K","2","","1","0","0","0.6","0","true","0","0.8","0","full_practice","0.2","0","0.6","0","0.2","0","","","","","",""
"565","","bandit","68","260959","0.0-32.0-17.0","61072685","wem/bandit_single","A1S6C6EN8MPKC3","gain","2","","75","K","2","","1","0","0","0.6","0","true","0","0.8","0","full_practice","0.2","0","0.6","0","0.2","0","","","","","",""
"58","","bandit","69","262781","0.0-32.0-18.0","61072685","wem/bandit_single","A1S6C6EN8MPKC3","gain","2","","75","K","2","","0","0","1","0.6","0","true","0","0.8","0","full_practice","0.2","0","0.6","0","0.2","0","","","","","",""
"705","","bandit","70","265246","0.0-32.0-19.0","61072685","wem/bandit_single","A1S6C6EN8MPKC3","gain","2","","76","L","3","","0","0","1","0.2","0","true","0","0.8","0","full_practice","0.2","0","0.6","0","0.2","0","","","","","",""
"2909","","text","71","268423","0.0-33.0","61072685","wem/bandit_single","A1S6C6EN8MPKC3","gain","2","32","","","","","","","","","","","","","","","","","","","","","","","","","",""
"6202","","text","72","275631","0.0-34.0","61072685","wem/bandit_single","A1S6C6EN8MPKC3","gain","2","32","","","","","","","","","","","","","","","","","","","","","","","","","",""
"673","","text","73","276312","0.0-35.0","61072685","wem/bandit_single","A1S6C6EN8MPKC3","gain","2","32","","","","","","","","","","","","","","","","","","","","","","","","","",""
"718","","text","74","277040","0.0-36.0","61072685","wem/bandit_single","A1S6C6EN8MPKC3","gain","2","32","","","","","","","","","","","","","","","","","","","","","","","","","",""
"2599","","text","75","279647","0.0-37.0","61072685","wem/bandit_single","A1S6C6EN8MPKC3","gain","2","32","","","","","","","","","","","","","","","","","","","","","","","","","",""
"1184","","bandit","76","282344","0.0-38.0-0.0","61072685","wem/bandit_single","A1S6C6EN8MPKC3","gain","2","","74","J","1","","1","0","0","0.1473353724","","false","1","0.1047922924","","main_expt","0.1473353724","","0.03692567881","","0.1196507759","","","","","","",""
"51","","bandit","77","284155","0.0-39.0-0.0","61072685","wem/bandit_single","A1S6C6EN8MPKC3","gain","2","","74","J","1","","0","0","1","0.1471364572","","false","2","0.09232691068","","main_expt","0.1471364572","","0.0535834513","","0.1434551849","","","","","","",""
"777","","bandit","78","286693","0.0-40.0-0.0","61072685","wem/bandit_single","A1S6C6EN8MPKC3","gain","2","","75","K","2","","0","0","1","0.06455495551","","false","3","0.07878604621","","main_expt","0.1792173289","","0.06455495551","","0.1966750378","","","","","","",""
"26","","bandit","79","288489","0.0-41.0-0.0","61072685","wem/bandit_single","A1S6C6EN8MPKC3","gain","2","","76","L","3","","0","0","1","0.1731728381","","false","4","0.06180226224","","main_expt","0.2089457512","","0.1075220519","","0.1731728381","","","","","","",""
"335","","bandit","80","290588","0.0-42.0-0.0","61072685","wem/bandit_single","A1S6C6EN8MPKC3","gain","2","","74","J","1","","0","0","1","0.2627176439","","false","5","0.05657605877","","main_expt","0.2627176439","","0.1459974634","","0.151671232","","","","","","",""
"145","","bandit","81","292501","0.0-43.0-0.0","61072685","wem/bandit_single","A1S6C6EN8MPKC3","gain","2","","72","H","0","img/none_selected.jpg","0","0","1","0.03926223851","","false","6","0.03926223851","","main_expt","0.2052823447","","0.1119865757","","0.2201434377","","","","","","",""
"425","","bandit","82","294692","0.0-44.0-0.0","61072685","wem/bandit_single","A1S6C6EN8MPKC3","gain","2","","74","J","1","","0","0","1","0.2424381104","","false","7","0.02952185798","","main_expt","0.2424381104","","0.1135710889","","0.1924323999","","","","","","",""
"107","","bandit","83","296564","0.0-45.0-0.0","61072685","wem/bandit_single","A1S6C6EN8MPKC3","gain","2","","74","J","1","","1","0","0","0.2324683495","","false","8","0.01847757052","","main_expt","0.2324683495","","0.148696524","","0.187431757","","","","","","",""
"48","","bandit","84","298372","0.0-46.0-0.0","61072685","wem/bandit_single","A1S6C6EN8MPKC3","gain","2","","74","J","1","","0","0","1","0.2440295668","","false","9","0.02695314055","","main_expt","0.2440295668","","0.1181121295","","0.197470847","","","","","","",""
"53","","bandit","85","300198","0.0-47.0-0.0","61072685","wem/bandit_single","A1S6C6EN8MPKC3","gain","2","","75","K","2","","0","0","1","0.1082266346","","false","10","0.02234311218","","main_expt","0.2465422232","","0.1082266346","","0.2298270047","","","","","","",""
"96","","bandit","86","302055","0.0-48.0-0.0","61072685","wem/bandit_single","A1S6C6EN8MPKC3","gain","2","","76","L","3","","0","0","1","0.2124937163","","false","11","0.04960883058","","main_expt","0.1529972956","","0.1102162287","","0.2124937163","","","","","","",""
"1162","","bandit","87","304981","0.0-49.0-0.0","61072685","wem/bandit_single","A1S6C6EN8MPKC3","gain","2","","72","H","0","img/none_selected.jpg","0","0","1","0.06086541187","","false","12","0.06086541187","","main_expt","0.1827224572","","0.1420736562","","0.2043121782","","","","","","",""
"1562","","bandit","88","308301","0.0-50.0-0.0","61072685","wem/bandit_single","A1S6C6EN8MPKC3","gain","2","","74","J","1","","0","0","1","0.1973099221","","false","13","0.06603274732","","main_expt","0.1973099221","","0.1582971975","","0.2122729008","","","","","","",""
"1273","","bandit","89","311331","0.0-51.0-0.0","61072685","wem/bandit_single","A1S6C6EN8MPKC3","gain","2","","74","J","1","","0","0","1","0.2002936143","","false","14","0.06952645267","","main_expt","0.2002936143","","0.1278364912","","0.1748916548","","","","","","",""
"115","","bandit","90","313211","0.0-52.0-0.0","61072685","wem/bandit_single","A1S6C6EN8MPKC3","gain","2","","74","J","1","","0","0","1","0.2100222876","","false","15","0.06705093019","","main_expt","0.2100222876","","0.1389591295","","0.1598041939","","","","","","",""
"2405","","bandit","91","317375","0.0-53.0-0.0","61072685","wem/bandit_single","A1S6C6EN8MPKC3","gain","2","","76","L","3","","1","0","0","0.1496559895","","false","16","0.08739136862","","main_expt","0.192095419","","0.1087507618","","0.1496559895","","","","","","",""
"148","","bandit","92","319293","0.0-54.0-0.0","61072685","wem/bandit_single","A1S6C6EN8MPKC3","gain","2","","76","L","3","","0","0","1","0.1855105105","","false","17","0.0633177824","","main_expt","0.2057363858","","0.1591778588","","0.1855105105","","","","","","",""
"83","","bandit","93","321143","0.0-55.0-0.0","61072685","wem/bandit_single","A1S6C6EN8MPKC3","gain","2","","74","J","1","","0","0","1","0.2142317849","","false","18","0.05969087175","","main_expt","0.2142317849","","0.1612769879","","0.180786103","","","","","","",""
"97","","bandit","94","323005","0.0-56.0-0.0","61072685","wem/bandit_single","A1S6C6EN8MPKC3","gain","2","","76","L","3","","0","0","1","0.1867551017","","false","19","0.08316546351","","main_expt","0.2416868574","","0.1706614454","","0.1867551017","","","","","","",""
"285","","bandit","95","325055","0.0-57.0-0.0","61072685","wem/bandit_single","A1S6C6EN8MPKC3","gain","2","","76","L","3","","0","0","1","0.2414580321","","false","20","0.08506169859","","main_expt","0.2556662882","","0.2173206475","","0.2414580321","","","","","","",""
"296","","bandit","96","327117","0.0-58.0-0.0","61072685","wem/bandit_single","A1S6C6EN8MPKC3","gain","2","","75","K","2","","0","0","1","0.2297715145","","false","21","0.08337624199","","main_expt","0.2484624222","","0.2297715145","","0.2552731096","","","","","","",""
"401","","bandit","97","329279","0.0-59.0-0.0","61072685","wem/bandit_single","A1S6C6EN8MPKC3","gain","2","","72","H","0","img/none_selected.jpg","0","0","1","0.09400888178","","false","22","0.09400888178","","main_expt","0.3180013331","","0.2893552095","","0.2706059063","","","","","","",""
"594","","bandit","98","331644","0.0-60.0-0.0","61072685","wem/bandit_single","A1S6C6EN8MPKC3","gain","2","","76","L","3","","1","0","0","0.2240124609","","false","23","0.08373077729","","main_expt","0.3018869565","","0.1756353462","","0.2240124609","","","","","","",""
"157","","bandit","99","333566","0.0-61.0-0.0","61072685","wem/bandit_single","A1S6C6EN8MPKC3","gain","2","","76","L","3","","1","0","0","0.2337623096","","false","24","0.07394888686","","main_expt","0.3479913718","","0.144307289","","0.2337623096","","","","","","",""
"87","","bandit","100","335420","0.0-62.0-0.0","61072685","wem/bandit_single","A1S6C6EN8MPKC3","gain","2","","76","L","3","","0","0","1","0.1992837424","","false","25","0.1177231478","","main_expt","0.3851600672","","0.1103761204","","0.1992837424","","","","","","",""
"58","","bandit","101","337245","0.0-63.0-0.0","61072685","wem/bandit_single","A1S6C6EN8MPKC3","gain","2","","74","J","1","","0","0","1","0.3771699284","","false","26","0.1137187285","","main_expt","0.3771699284","","0.09313295331","","0.2273902023","","","","","","",""
"66","","bandit","102","339077","0.0-64.0-0.0","61072685","wem/bandit_single","A1S6C6EN8MPKC3","gain","2","","76","L","3","","0","0","1","0.2020281611","","false","27","0.1380279251","","main_expt","0.3284072512","","0.07841862492","","0.2020281611","","","","","","",""
"91","","bandit","103","340935","0.0-65.0-0.0","61072685","wem/bandit_single","A1S6C6EN8MPKC3","gain","2","","75","K","2","","0","0","1","0.0635621653","","false","28","0.1926536066","","main_expt","0.3708797381","","0.0635621653","","0.2121805601","","","","","","",""
"75","","bandit","104","342783","0.0-66.0-0.0","61072685","wem/bandit_single","A1S6C6EN8MPKC3","gain","2","","76","L","3","","0","0","1","0.1986823058","","false","29","0.1919064193","","main_expt","0.3630760189","","0.04349452081","","0.1986823058","","","","","","",""
"50","","bandit","105","344600","0.0-67.0-0.0","61072685","wem/bandit_single","A1S6C6EN8MPKC3","gain","2","","76","L","3","","0","0","1","0.2674628916","","false","30","0.1767437005","","main_expt","0.3414786107","","0.06175929786","","0.2674628916","","","","","","",""
"1326","","bandit","106","347692","0.0-68.0-0.0","61072685","wem/bandit_single","A1S6C6EN8MPKC3","gain","2","","76","L","3","","0","0","1","0.2862820789","","false","31","0.2417082081","","main_expt","0.3536929226","","0.06380111671","","0.2862820789","","","","","","",""
"248","","bandit","107","349701","0.0-69.0-0.0","61072685","wem/bandit_single","A1S6C6EN8MPKC3","gain","2","","72","H","0","img/none_selected.jpg","0","0","1","0.2312742115","","false","32","0.2312742115","","main_expt","0.3238646006","","0.08507033619","","0.2895619367","","","","","","",""
"759","","bandit","108","352231","0.0-70.0-0.0","61072685","wem/bandit_single","A1S6C6EN8MPKC3","gain","2","","74","J","1","","0","0","1","0.3018803865","","false","33","0.2247834387","","main_expt","0.3018803865","","0.1242974044","","0.312502841","","","","","","",""
"31","","bandit","109","354030","0.0-71.0-0.0","61072685","wem/bandit_single","A1S6C6EN8MPKC3","gain","2","","72","H","0","img/none_selected.jpg","0","0","1","0.1192543008","","false","34","0.1192543008","","main_expt","0.2551449341","","0.158311101","","0.2830864838","","","","","","",""
"52","","bandit","110","355848","0.0-72.0-0.0","61072685","wem/bandit_single","A1S6C6EN8MPKC3","gain","2","","72","H","0","img/none_selected.jpg","0","0","1","0.1336327135","","false","35","0.1336327135","","main_expt","0.3200580053","","0.1293969191","","0.2489219385","","","","","","",""
"32","","bandit","111","357644","0.0-73.0-0.0","61072685","wem/bandit_single","A1S6C6EN8MPKC3","gain","2","","75","K","2","","0","0","1","0.1800853883","","false","36","0.09851205292","","main_expt","0.3241899647","","0.1800853883","","0.2090346537","","","","","","",""
"384","","bandit","112","359790","0.0-74.0-0.0","61072685","wem/bandit_single","A1S6C6EN8MPKC3","gain","2","","75","K","2","","0","0","1","0.1025448258","","false","37","0.05943694951","","main_expt","0.3029113802","","0.1025448258","","0.210385238","","","","","","",""
"86","","bandit","113","361645","0.0-75.0-0.0","61072685","wem/bandit_single","A1S6C6EN8MPKC3","gain","2","","76","L","3","","0","0","1","0.162227856","","false","38","0.06217728149","","main_expt","0.2958592888","","0.1604021245","","0.162227856","","","","","","",""
"707","","bandit","114","364120","0.0-76.0-0.0","61072685","wem/bandit_single","A1S6C6EN8MPKC3","gain","2","","76","L","3","","0","0","1","0.1444893634","","false","39","0.08902833973","","main_expt","0.2941945884","","0.1336531769","","0.1444893634","","","","","","",""
"990","","bandit","115","366878","0.0-77.0-0.0","61072685","wem/bandit_single","A1S6C6EN8MPKC3","gain","2","","76","L","3","","1","0","0","0.1340169349","","false","40","0.1098655825","","main_expt","0.2784490849","","0.1356889635","","0.1340169349","","","","","","",""
"79","","bandit","116","368726","0.0-78.0-0.0","61072685","wem/bandit_single","A1S6C6EN8MPKC3","gain","2","","76","L","3","","0","0","1","0.1019114547","","false","41","0.125718056","","main_expt","0.2943099773","","0.1434276379","","0.1019114547","","","","","","",""
"99","","bandit","117","370589","0.0-79.0-0.0","61072685","wem/bandit_single","A1S6C6EN8MPKC3","gain","2","","76","L","3","","0","0","1","0.07379386716","","false","42","0.07668278466","","main_expt","0.2502187242","","0.1432973755","","0.07379386716","","","","","","",""
"21","","bandit","118","372376","0.0-80.0-0.0","61072685","wem/bandit_single","A1S6C6EN8MPKC3","gain","2","","74","J","1","","0","0","1","0.2691097515","","false","43","0.08403116819","","main_expt","0.2691097515","","0.1605884153","","0.08186566242","","","","","","",""
"291","","bandit","119","374440","0.0-81.0-0.0","61072685","wem/bandit_single","A1S6C6EN8MPKC3","gain","2","","74","J","1","","0","0","1","0.2601206974","","false","44","0.08258467284","","main_expt","0.2601206974","","0.1396132557","","0.08692603594","","","","","","",""
"187","","bandit","120","376396","0.0-82.0-0.0","61072685","wem/bandit_single","A1S6C6EN8MPKC3","gain","2","","75","K","2","","1","0","0","0.2250933593","","false","45","0.07253936928","","main_expt","0.3222012474","","0.2250933593","","0.1212470101","","","","","","",""
"264","","bandit","121","378425","0.0-83.0-0.0","61072685","wem/bandit_single","A1S6C6EN8MPKC3","gain","2","","76","L","3","","0","0","1","0.134661007","","false","46","0.05374479905","","main_expt","0.3060845752","","0.1826421925","","0.134661007","","","","","","",""
"79","","bandit","122","380277","0.0-84.0-0.0","61072685","wem/bandit_single","A1S6C6EN8MPKC3","gain","2","","75","K","2","","1","0","0","0.1706758886","","false","47","0.06764850751","","main_expt","0.290950603","","0.1706758886","","0.1377890551","","","","","","",""
"121","","bandit","123","382166","0.0-85.0-0.0","61072685","wem/bandit_single","A1S6C6EN8MPKC3","gain","2","","75","K","2","","0","0","1","0.1686178854","","false","48","0.05656727153","","main_expt","0.329307254","","0.1686178854","","0.1325860966","","","","","","",""
"1136","","bandit","124","385063","0.0-86.0-0.0","61072685","wem/bandit_single","A1S6C6EN8MPKC3","gain","2","","76","L","3","","0","0","1","0.1231750139","","false","49","0.08131597157","","main_expt","0.405044281","","0.1822379713","","0.1231750139","","","","","","",""
"143","","bandit","125","386974","0.0-87.0-0.0","61072685","wem/bandit_single","A1S6C6EN8MPKC3","gain","2","","76","L","3","","0","0","1","0.1565964086","","false","50","0.08274267654","","main_expt","0.4121919591","","0.2513484478","","0.1565964086","","","","","","",""
"416","","bandit","126","389156","0.0-88.0-0.0","61072685","wem/bandit_single","A1S6C6EN8MPKC3","gain","2","","76","L","3","","0","0","1","0.1464659706","","false","51","0.1154896937","","main_expt","0.4271607293","","0.2812942615","","0.1464659706","","","","","","",""
"442","","bandit","127","391360","0.0-89.0-0.0","61072685","wem/bandit_single","A1S6C6EN8MPKC3","gain","2","","75","K","2","","0","0","1","0.2224049931","","false","52","0.07649260985","","main_expt","0.4249516559","","0.2224049931","","0.1196909414","","","","","","",""
"353","","bandit","128","393487","0.0-90.0-0.0","61072685","wem/bandit_single","A1S6C6EN8MPKC3","gain","2","","72","H","0","img/none_selected.jpg","0","0","1","0.06211708307","","false","53","0.06211708307","","main_expt","0.414238899","","0.2135714686","","0.1578713891","","","","","","",""
"333","","bandit","129","395589","0.0-91.0-0.0","61072685","wem/bandit_single","A1S6C6EN8MPKC3","gain","2","","74","J","1","","1","0","0","0.4404827494","","false","54","0.05122165179","","main_expt","0.4404827494","","0.2471494284","","0.1420893662","","","","","","",""
"127","","bandit","130","397486","0.0-92.0-0.0","61072685","wem/bandit_single","A1S6C6EN8MPKC3","gain","2","","74","J","1","","0","0","1","0.4258944343","","false","55","0.05779626682","","main_expt","0.4258944343","","0.26732004","","0.1255118638","","","","","","",""
"214","","bandit","131","399470","0.0-93.0-0.0","61072685","wem/bandit_single","A1S6C6EN8MPKC3","gain","2","","76","L","3","","0","0","1","0.1040792381","","false","56","0.06578325953","","main_expt","0.4058732664","","0.258853447","","0.1040792381","","","","","","",""
"124","","bandit","132","401358","0.0-94.0-0.0","61072685","wem/bandit_single","A1S6C6EN8MPKC3","gain","2","","75","K","2","","1","0","0","0.247757255","","false","57","0.07487929626","","main_expt","0.4269212616","","0.247757255","","0.1058118143","","","","","","",""
"47","","bandit","133","403171","0.0-95.0-0.0","61072685","wem/bandit_single","A1S6C6EN8MPKC3","gain","2","","76","L","3","","0","0","1","0.08107820888","","false","58","0.05601765109","","main_expt","0.4120073189","","0.2380046022","","0.08107820888","","","","","","",""
"148","","bandit","134","405077","0.0-96.0-0.0","61072685","wem/bandit_single","A1S6C6EN8MPKC3","gain","2","","74","J","1","","1","0","0","0.367464959","","false","59","0.07158824907","","main_expt","0.367464959","","0.273239949","","0.115954585","","","","","","",""
"160","","bandit","135","407005","0.0-97.0-0.0","61072685","wem/bandit_single","A1S6C6EN8MPKC3","gain","2","","76","L","3","","0","0","1","0.190529156","","false","60","0.1021813758","","main_expt","0.3113576115","","0.314936794","","0.190529156","","","","","","",""
"59","","bandit","136","408830","0.0-98.0-0.0","61072685","wem/bandit_single","A1S6C6EN8MPKC3","gain","2","","75","K","2","","0","0","1","0.3361315769","","false","61","0.1422244628","","main_expt","0.3217665369","","0.3361315769","","0.2024767933","","","","","","",""
"362","","bandit","137","410957","0.0-99.0-0.0","61072685","wem/bandit_single","A1S6C6EN8MPKC3","gain","2","","74","J","1","","0","0","1","0.3396020841","","false","62","0.1543762338","","main_expt","0.3396020841","","0.3012470308","","0.1478811465","","","","","","",""
"61","","bandit","138","412780","0.0-100.0-0.0","61072685","wem/bandit_single","A1S6C6EN8MPKC3","gain","2","","74","J","1","","0","0","1","0.3326008901","","false","63","0.1957871903","","main_expt","0.3326008901","","0.3035933772","","0.1472080331","","","","","","",""
"51","","bandit","139","414602","0.0-101.0-0.0","61072685","wem/bandit_single","A1S6C6EN8MPKC3","gain","2","","74","J","1","","0","0","1","0.2759567044","","false","64","0.1998827037","","main_expt","0.2759567044","","0.3061864711","","0.1523556625","","","","","","",""
"256","","bandit","140","416629","0.0-102.0-0.0","61072685","wem/bandit_single","A1S6C6EN8MPKC3","gain","2","","72","H","0","img/none_selected.jpg","0","0","1","0.2229124218","","false","65","0.2229124218","","main_expt","0.330340259","","0.2795045379","","0.1640586258","","","","","","",""
"125","","bandit","141","418526","0.0-103.0-0.0","61072685","wem/bandit_single","A1S6C6EN8MPKC3","gain","2","","75","K","2","","0","0","1","0.2624990872","","false","66","0.2821528041","","main_expt","0.394496842","","0.2624990872","","0.1559289375","","","","","","",""
"83","","bandit","142","420375","0.0-104.0-0.0","61072685","wem/bandit_single","A1S6C6EN8MPKC3","gain","2","","76","L","3","","0","0","1","0.09042099393","","false","67","0.2228434199","","main_expt","0.3780229448","","0.2316809648","","0.09042099393","","","","","","",""
"285","","bandit","143","422428","0.0-105.0-0.0","61072685","wem/bandit_single","A1S6C6EN8MPKC3","gain","2","","76","L","3","","1","0","0","0.08874767337","","false","68","0.2039549584","","main_expt","0.313258317","","0.2266776066","","0.08874767337","","","","","","",""
"149","","bandit","144","424341","0.0-106.0-0.0","61072685","wem/bandit_single","A1S6C6EN8MPKC3","gain","2","","76","L","3","","0","0","1","0.09103688118","","false","69","0.1998164138","","main_expt","0.3466590849","","0.1734363374","","0.09103688118","","","","","","",""
"285","","bandit","145","426399","0.0-107.0-0.0","61072685","wem/bandit_single","A1S6C6EN8MPKC3","gain","2","","76","L","3","","0","0","1","0.139461016","","false","70","0.1936545157","","main_expt","0.3389702644","","0.1469163378","","0.139461016","","","","","","",""
"321","","bandit","146","428493","0.0-108.0-0.0","61072685","wem/bandit_single","A1S6C6EN8MPKC3","gain","2","","76","L","3","","1","0","0","0.1269809057","","false","71","0.1875420319","","main_expt","0.3037518088","","0.1903103683","","0.1269809057","","","","","","",""
"314","","bandit","147","430578","0.0-109.0-0.0","61072685","wem/bandit_single","A1S6C6EN8MPKC3","gain","2","","76","L","3","","0","0","1","0.1541032278","","false","72","0.2275961541","","main_expt","0.3007282465","","0.2364630875","","0.1541032278","","","","","","",""
"128","","bandit","148","432488","0.0-110.0-0.0","61072685","wem/bandit_single","A1S6C6EN8MPKC3","gain","2","","76","L","3","","0","0","1","0.1618198783","","false","73","0.2485431464","","main_expt","0.2796446257","","0.2715971604","","0.1618198783","","","","","","",""
"319","","bandit","149","434574","0.0-111.0-0.0","61072685","wem/bandit_single","A1S6C6EN8MPKC3","gain","2","","75","K","2","","0","0","1","0.2716254876","","false","74","0.2394527842","","main_expt","0.2729876577","","0.2716254876","","0.1428156761","","","","","","",""
"110","","bandit","150","436446","0.0-112.0-0.0","61072685","wem/bandit_single","A1S6C6EN8MPKC3","gain","2","","75","K","2","","0","0","1","0.2998540279","","false","75","0.2074684787","","main_expt","0.2067723694","","0.2998540279","","0.1312504708","","","","","","",""
"130","","bandit","151","438344","0.0-113.0-0.0","61072685","wem/bandit_single","A1S6C6EN8MPKC3","gain","2","","75","K","2","","0","0","1","0.3195890579","","false","76","0.178133335","","main_expt","0.2130899639","","0.3195890579","","0.1002429729","","","","","","",""
"367","","bandit","152","440480","0.0-114.0-0.0","61072685","wem/bandit_single","A1S6C6EN8MPKC3","gain","2","","76","L","3","","0","0","1","0.07543037954","","false","77","0.1788248706","","main_expt","0.2109525889","","0.2856322382","","0.07543037954","","","","","","",""
"172","","bandit","153","442421","0.0-115.0-0.0","61072685","wem/bandit_single","A1S6C6EN8MPKC3","gain","2","","72","H","0","img/none_selected.jpg","1","0","0","0.1530293784","","false","78","0.1530293784","","main_expt","0.1884332626","","0.2919105172","","0.1153668935","","","","","","",""
"404","","bandit","154","444592","0.0-116.0-0.0","61072685","wem/bandit_single","A1S6C6EN8MPKC3","gain","2","","76","L","3","","0","0","1","0.07716777456","","false","79","0.1593806387","","main_expt","0.1883433777","","0.2567181874","","0.07716777456","","","","","","",""
"29","","bandit","155","446391","0.0-117.0-0.0","61072685","wem/bandit_single","A1S6C6EN8MPKC3","gain","2","","75","K","2","","1","0","0","0.3200023444","","false","80","0.1428411119","","main_expt","0.1998795799","","0.3200023444","","0.08058819474","","","","","","",""
"304","","bandit","156","448469","0.0-118.0-0.0","61072685","wem/bandit_single","A1S6C6EN8MPKC3","gain","2","","74","J","1","","0","0","1","0.1651756375","","false","81","0.1982686668","","main_expt","0.1651756375","","0.3117755618","","0.09856946308","","","","","","",""
"136","","bandit","157","450368","0.0-119.0-0.0","61072685","wem/bandit_single","A1S6C6EN8MPKC3","gain","2","","76","L","3","","0","0","1","0.1000946235","","false","82","0.2291501313","","main_expt","0.2235829688","","0.3379160562","","0.1000946235","","","","","","",""
"15","","bandit","158","452151","0.0-120.0-0.0","61072685","wem/bandit_single","A1S6C6EN8MPKC3","gain","2","","75","K","2","","0","0","1","0.3620865136","","false","83","0.2259362275","","main_expt","0.2456561592","","0.3620865136","","0.06687408093","","","","","","",""
"227","","bandit","159","454148","0.0-121.0-0.0","61072685","wem/bandit_single","A1S6C6EN8MPKC3","gain","2","","75","K","2","","0","0","1","0.3904685548","","false","84","0.1733031115","","main_expt","0.2790354554","","0.3904685548","","0.06463964557","","","","","","",""
"333","","bandit","160","456253","0.0-122.0-0.0","61072685","wem/bandit_single","A1S6C6EN8MPKC3","gain","2","","72","H","0","img/none_selected.jpg","0","0","1","0.1577379057","","false","85","0.1577379057","","main_expt","0.2389339959","","0.4201611698","","0.09044174456","","","","","","",""
"406","","bandit","161","458421","0.0-123.0-0.0","61072685","wem/bandit_single","A1S6C6EN8MPKC3","gain","2","","76","L","3","","0","0","1","0.07242924321","","false","86","0.1646880331","","main_expt","0.2905830411","","0.4544588035","","0.07242924321","","","","","","",""
"225","","bandit","162","460408","0.0-124.0-0.0","61072685","wem/bandit_single","A1S6C6EN8MPKC3","gain","2","","75","K","2","","1","0","0","0.4444110865","","false","87","0.157008097","","main_expt","0.3336128518","","0.4444110865","","0.06356931104","","","","","","",""
"397","","bandit","163","462573","0.0-125.0-0.0","61072685","wem/bandit_single","A1S6C6EN8MPKC3","gain","2","","75","K","2","","0","0","1","0.4276611285","","false","88","0.14663069","","main_expt","0.3720796031","","0.4276611285","","0.08819972964","","","","","","",""
"132","","bandit","164","464478","0.0-126.0-0.0","61072685","wem/bandit_single","A1S6C6EN8MPKC3","gain","2","","75","K","2","","0","0","1","0.395063318","","false","89","0.1510377787","","main_expt","0.3383028484","","0.395063318","","0.09388884115","","","","","","",""
"195","","bandit","165","466437","0.0-127.0-0.0","61072685","wem/bandit_single","A1S6C6EN8MPKC3","gain","2","","75","K","2","","1","0","0","0.3790569413","","false","90","0.1600185234","","main_expt","0.3550100304","","0.3790569413","","0.1265583984","","","","","","",""
"178","","bandit","166","468373","0.0-128.0-0.0","61072685","wem/bandit_single","A1S6C6EN8MPKC3","gain","2","","76","L","3","","0","0","1","0.09433033469","","false","91","0.1618321768","","main_expt","0.4198742783","","0.3763017738","","0.09433033469","","","","","","",""
"30","","bandit","167","470171","0.0-129.0-0.0","61072685","wem/bandit_single","A1S6C6EN8MPKC3","gain","2","","74","J","1","","1","0","0","0.4522920775","","false","92","0.1408839615","","main_expt","0.4522920775","","0.3829045729","","0.05111462501","","","","","","",""
"112","","bandit","168","472044","0.0-130.0-0.0","61072685","wem/bandit_single","A1S6C6EN8MPKC3","gain","2","","75","K","2","","0","0","1","0.4155552038","","false","93","0.1675332925","","main_expt","0.4572096334","","0.4155552038","","0.05378689714","","","","","","",""
"45","","bandit","169","473861","0.0-131.0-0.0","61072685","wem/bandit_single","A1S6C6EN8MPKC3","gain","2","","74","J","1","","1","0","0","0.457248447","","false","94","0.2154783406","","main_expt","0.457248447","","0.3964247486","","0.04385487208","","","","","","",""
"534","","bandit","170","476170","0.0-132.0-0.0","61072685","wem/bandit_single","A1S6C6EN8MPKC3","gain","2","","76","L","3","","0","0","1","0.02374316345","","false","95","0.2434825378","","main_expt","0.4284600246","","0.4028729744","","0.02374316345","","","","","","",""
"113","","bandit","171","478057","0.0-133.0-0.0","61072685","wem/bandit_single","A1S6C6EN8MPKC3","gain","2","","74","J","1","","1","0","0","0.4213934208","","false","96","0.300751002","","main_expt","0.4213934208","","0.3937220057","","0.01119532444","","","","","","",""
"234","","bandit","172","480055","0.0-134.0-0.0","61072685","wem/bandit_single","A1S6C6EN8MPKC3","gain","2","","74","J","1","","1","0","0","0.4093218277","","false","97","0.2390268827","","main_expt","0.4093218277","","0.3951408858","","0.01205949719","","","","","","",""
"820","","bandit","173","482636","0.0-135.0-0.0","61072685","wem/bandit_single","A1S6C6EN8MPKC3","gain","2","","74","J","1","","1","0","0","0.4011771953","","false","98","0.1872158766","","main_expt","0.4011771953","","0.3872505806","","0.02530753644","","","","","","",""
"406","","bandit","174","484806","0.0-136.0-0.0","61072685","wem/bandit_single","A1S6C6EN8MPKC3","gain","2","","74","J","1","","0","0","1","0.4319140629","","false","99","0.2281726053","","main_expt","0.4319140629","","0.3237376228","","0.02318317113","","","","","","",""
"115","","bandit","175","486687","0.0-137.0-0.0","61072685","wem/bandit_single","A1S6C6EN8MPKC3","gain","2","","74","J","1","","0","0","1","0.4388591553","","false","100","0.2322026393","","main_expt","0.4388591553","","0.3840854176","","0.01577819671","","","","","","",""
"116","","bandit","176","488574","0.0-138.0-0.0","61072685","wem/bandit_single","A1S6C6EN8MPKC3","gain","2","","75","K","2","","1","0","0","0.4043087267","","false","101","0.2675158553","","main_expt","0.4405661836","","0.4043087267","","0.03767304301","","","","","","",""
"120","","bandit","177","490469","0.0-139.0-0.0","61072685","wem/bandit_single","A1S6C6EN8MPKC3","gain","2","","76","L","3","","0","0","1","0.03003558128","","false","102","0.2334450153","","main_expt","0.4155134761","","0.423372456","","0.03003558128","","","","","","",""
"123","","bandit","178","492358","0.0-140.0-0.0","61072685","wem/bandit_single","A1S6C6EN8MPKC3","gain","2","","74","J","1","","0","0","1","0.4079284656","","false","103","0.2546104349","","main_expt","0.4079284656","","0.4305794097","","0.04748945294","","","","","","",""
"252","","bandit","179","494385","0.0-141.0-0.0","61072685","wem/bandit_single","A1S6C6EN8MPKC3","gain","2","","75","K","2","","0","0","1","0.4515631957","","false","104","0.2657782481","","main_expt","0.3827156199","","0.4515631957","","0.06674284653","","","","","","",""
"176","","bandit","180","496334","0.0-142.0-0.0","61072685","wem/bandit_single","A1S6C6EN8MPKC3","gain","2","","76","L","3","","1","0","0","0.0806059128","","false","105","0.2397797145","","main_expt","0.3892206975","","0.454723383","","0.0806059128","","","","","","",""
"228","","bandit","181","498341","0.0-143.0-0.0","61072685","wem/bandit_single","A1S6C6EN8MPKC3","gain","2","","72","H","0","img/none_selected.jpg","0","0","1","0.1744994936","","false","106","0.1744994936","","main_expt","0.3499671591","","0.4487898282","","0.1147522423","","","","","","",""
"628","","bandit","182","500742","0.0-144.0-0.0","61072685","wem/bandit_single","A1S6C6EN8MPKC3","gain","2","","74","J","1","","1","0","0","0.3378870415","","false","107","0.2004436591","","main_expt","0.3378870415","","0.4300484018","","0.1225979079","","","","","","",""
"266","","bandit","183","502783","0.0-145.0-0.0","61072685","wem/bandit_single","A1S6C6EN8MPKC3","gain","2","","76","L","3","","1","0","0","0.1808232933","","false","108","0.1781349215","","main_expt","0.3206855754","","0.4056187414","","0.1808232933","","","","","","",""
"65","","bandit","184","504620","0.0-146.0-0.0","61072685","wem/bandit_single","A1S6C6EN8MPKC3","gain","2","","74","J","1","","0","0","1","0.3412252333","","false","109","0.1603989886","","main_expt","0.3412252333","","0.4145536126","","0.2004688742","","","","","","",""
"452","","bandit","185","506837","0.0-147.0-0.0","61072685","wem/bandit_single","A1S6C6EN8MPKC3","gain","2","","75","K","2","","1","0","0","0.3897928763","","false","110","0.1300992081","","main_expt","0.3650365033","","0.3897928763","","0.2261403934","","","","","","",""
"109","","bandit","186","508709","0.0-148.0-0.0","61072685","wem/bandit_single","A1S6C6EN8MPKC3","gain","2","","76","L","3","","0","0","1","0.1612973213","","false","111","0.1740321776","","main_expt","0.341048274","","0.4150540561","","0.1612973213","","","","","","",""
"73","","bandit","187","510557","0.0-149.0-0.0","61072685","wem/bandit_single","A1S6C6EN8MPKC3","gain","2","","75","K","2","","1","0","0","0.4394636757","","false","112","0.2444477537","","main_expt","0.3254027875","","0.4394636757","","0.1655724556","","","","","","",""
"337","","bandit","188","512670","0.0-150.0-0.0","61072685","wem/bandit_single","A1S6C6EN8MPKC3","gain","2","","75","K","2","","0","0","1","0.4301961846","","false","113","0.2195244909","","main_expt","0.308059901","","0.4301961846","","0.1319876284","","","","","","",""
"15","","bandit","189","514453","0.0-151.0-0.0","61072685","wem/bandit_single","A1S6C6EN8MPKC3","gain","2","","74","J","1","","0","0","1","0.3238695313","","false","114","0.2719971232","","main_expt","0.3238695313","","0.4497687286","","0.1147934267","","","","","","",""
"133","","bandit","190","516348","0.0-152.0-0.0","61072685","wem/bandit_single","A1S6C6EN8MPKC3","gain","2","","76","L","3","","1","0","0","0.1301750396","","false","115","0.2447677414","","main_expt","0.3315084933","","0.4448888627","","0.1301750396","","","","","","",""
"438","","bandit","191","518550","0.0-153.0-0.0","61072685","wem/bandit_single","A1S6C6EN8MPKC3","gain","2","","76","L","3","","0","0","1","0.130185029","","false","116","0.2296513069","","main_expt","0.3234657333","","0.3905844751","","0.130185029","","","","","","",""
"60","","bandit","192","520381","0.0-154.0-0.0","61072685","wem/bandit_single","A1S6C6EN8MPKC3","gain","2","","76","L","3","","1","0","0","0.1548944576","","false","117","0.2151266314","","main_expt","0.300593156","","0.424359093","","0.1548944576","","","","","","",""
"269","","bandit","193","522438","0.0-155.0-0.0","61072685","wem/bandit_single","A1S6C6EN8MPKC3","gain","2","","76","L","3","","0","0","1","0.172903741","","false","118","0.1311834018","","main_expt","0.3585138177","","0.4121010571","","0.172903741","","","","","","",""
"77","","bandit","194","524277","0.0-156.0-0.0","61072685","wem/bandit_single","A1S6C6EN8MPKC3","gain","2","","76","L","3","","0","0","1","0.1707570171","","false","119","0.1190099868","","main_expt","0.3062020697","","0.4117558181","","0.1707570171","","","","","","",""
"880","","bandit","195","526926","0.0-157.0-0.0","61072685","wem/bandit_single","A1S6C6EN8MPKC3","gain","2","","74","J","1","","1","0","0","0.3312553157","","false","120","0.1117686876","","main_expt","0.3312553157","","0.4275669698","","0.1870802187","","","","","","",""
"335","","bandit","196","529035","0.0-158.0-0.0","61072685","wem/bandit_single","A1S6C6EN8MPKC3","gain","2","","76","L","3","","0","0","1","0.1870161021","","false","121","0.1415869423","","main_expt","0.3892509988","","0.4428986123","","0.1870161021","","","","","","",""
"394","","bandit","197","531192","0.0-159.0-0.0","61072685","wem/bandit_single","A1S6C6EN8MPKC3","gain","2","","75","K","2","","0","0","1","0.4376246318","","false","122","0.1398412585","","main_expt","0.4330036483","","0.4376246318","","0.1926804843","","","","","","",""
"7","","bandit","198","532965","0.0-160.0-0.0","61072685","wem/bandit_single","A1S6C6EN8MPKC3","gain","2","","74","J","1","","0","0","1","0.4555957022","","false","123","0.1163210087","","main_expt","0.4555957022","","0.4153394585","","0.2057615037","","","","","","",""
"376","","bandit","199","535100","0.0-161.0-0.0","61072685","wem/bandit_single","A1S6C6EN8MPKC3","gain","2","","76","L","3","","0","0","1","0.2639565913","","false","124","0.07344578178","","main_expt","0.4565029776","","0.4203389285","","0.2639565913","","","","","","",""
"1039","","bandit","200","537901","0.0-162.0-0.0","61072685","wem/bandit_single","A1S6C6EN8MPKC3","gain","2","","76","L","3","","0","0","1","0.3672341475","","false","125","0.08752025541","","main_expt","0.4511527373","","0.3710029205","","0.3672341475","","","","","","",""
"1081","","bandit","201","540757","0.0-163.0-0.0","61072685","wem/bandit_single","A1S6C6EN8MPKC3","gain","2","","76","L","3","","0","0","1","0.3606148775","","false","126","0.1064058914","","main_expt","0.4426171603","","0.3465273485","","0.3606148775","","","","","","",""
"1066","","bandit","202","543596","0.0-164.0-0.0","61072685","wem/bandit_single","A1S6C6EN8MPKC3","gain","2","","75","K","2","","1","0","0","0.4106613481","","false","127","0.1103525866","","main_expt","0.4259104728","","0.4106613481","","0.4079700646","","","","","","",""
"127","","bandit","203","545501","0.0-165.0-0.0","61072685","wem/bandit_single","A1S6C6EN8MPKC3","gain","2","","74","J","1","","1","0","0","0.4543754413","","false","128","0.1060480298","","main_expt","0.4543754413","","0.4377707947","","0.4204919645","","","","","","",""
"113","","bandit","204","547389","0.0-166.0-0.0","61072685","wem/bandit_single","A1S6C6EN8MPKC3","gain","2","","76","L","3","","1","0","0","0.4040923387","","false","129","0.1332603285","","main_expt","0.4587533269","","0.4481781661","","0.4040923387","","","","","","",""
"59","","bandit","205","549212","0.0-167.0-0.0","61072685","wem/bandit_single","A1S6C6EN8MPKC3","gain","2","","74","J","1","","0","0","1","0.4618517855","","false","130","0.09182468565","","main_expt","0.4618517855","","0.4301237728","","0.3906791758","","","","","","",""
"116","","bandit","206","551093","0.0-168.0-0.0","61072685","wem/bandit_single","A1S6C6EN8MPKC3","gain","2","","75","K","2","","0","0","1","0.4457858875","","false","131","0.09388333002","","main_expt","0.4622878414","","0.4457858875","","0.380553204","","","","","","",""
"150","","bandit","207","553007","0.0-169.0-0.0","61072685","wem/bandit_single","A1S6C6EN8MPKC3","gain","2","","76","L","3","","1","0","0","0.4000467043","","false","132","0.07277513685","","main_expt","0.4624711794","","0.4732894157","","0.4000467043","","","","","","",""
"12","","bandit","208","554789","0.0-170.0-0.0","61072685","wem/bandit_single","A1S6C6EN8MPKC3","gain","2","","76","L","3","","0","0","1","0.3929100345","","false","133","0.1108266248","","main_expt","0.4794526202","","0.4607838047","","0.3929100345","","","","","","",""
"1177","","bandit","209","557740","0.0-171.0-0.0","61072685","wem/bandit_single","A1S6C6EN8MPKC3","gain","2","","72","H","0","img/none_selected.jpg","1","0","0","0.1466671782","","false","134","0.1466671782","","main_expt","0.481632873","","0.4663808264","","0.4009617203","","","","","","",""
"111","","bandit","210","559630","0.0-172.0-0.0","61072685","wem/bandit_single","A1S6C6EN8MPKC3","gain","2","","76","L","3","","0","0","1","0.3859426802","","false","135","0.1625995743","","main_expt","0.4667599148","","0.4625615306","","0.3859426802","","","","","","",""
"31","","bandit","211","561439","0.0-173.0-0.0","61072685","wem/bandit_single","A1S6C6EN8MPKC3","gain","2","","75","K","2","","1","0","0","0.4629143089","","false","136","0.1555673637","","main_expt","0.4468402508","","0.4629143089","","0.4089350186","","","","","","",""
"110","","bandit","212","563325","0.0-174.0-0.0","61072685","wem/bandit_single","A1S6C6EN8MPKC3","gain","2","","75","K","2","","0","0","1","0.4644074349","","false","137","0.1395554881","","main_expt","0.4331537256","","0.4644074349","","0.4009707033","","","","","","",""
"93","","bandit","213","565182","0.0-175.0-0.0","61072685","wem/bandit_single","A1S6C6EN8MPKC3","gain","2","","76","L","3","","1","0","0","0.4116224971","","false","138","0.1387442451","","main_expt","0.4578477473","","0.4741213624","","0.4116224971","","","","","","",""
"342","","bandit","214","567301","0.0-176.0-0.0","61072685","wem/bandit_single","A1S6C6EN8MPKC3","gain","2","","76","L","3","","0","0","1","0.4129411324","","false","139","0.1693780048","","main_expt","0.464919911","","0.4736492243","","0.4129411324","","","","","","",""
"19","","bandit","215","569094","0.0-177.0-0.0","61072685","wem/bandit_single","A1S6C6EN8MPKC3","gain","2","","75","K","2","","1","0","0","0.4752570035","","false","140","0.1753437518","","main_expt","0.4614371154","","0.4752570035","","0.4494235083","","","","","","",""
"42","","bandit","216","570902","0.0-178.0-0.0","61072685","wem/bandit_single","A1S6C6EN8MPKC3","gain","2","","74","J","1","","0","0","1","0.4747872093","","false","141","0.2288512635","","main_expt","0.4747872093","","0.4857055712","","0.4453484197","","","","","","",""
"79","","bandit","217","572757","0.0-179.0-0.0","61072685","wem/bandit_single","A1S6C6EN8MPKC3","gain","2","","75","K","2","","1","0","0","0.4792724089","","false","142","0.2579513082","","main_expt","0.4513335087","","0.4792724089","","0.4604546146","","","","","","",""
"72","","bandit","218","574603","0.0-180.0-0.0","61072685","wem/bandit_single","A1S6C6EN8MPKC3","gain","2","","72","H","0","img/none_selected.jpg","0","0","1","0.21432658","","false","143","0.21432658","","main_expt","0.4198830698","","0.48057755","","0.4826245684","","","","","","",""
"61","","bandit","219","576429","0.0-181.0-0.0","61072685","wem/bandit_single","A1S6C6EN8MPKC3","gain","2","","75","K","2","","0","0","1","0.4777600445","","false","144","0.1938021535","","main_expt","0.3673231636","","0.4777600445","","0.4890981767","","","","","","",""
"103","","bandit","220","578317","0.0-182.0-0.0","61072685","wem/bandit_single","A1S6C6EN8MPKC3","gain","2","","75","K","2","","1","0","0","0.4735071841","","false","145","0.206497324","","main_expt","0.3772368795","","0.4735071841","","0.4680822138","","","","","","",""
"110","","bandit","221","580203","0.0-183.0-0.0","61072685","wem/bandit_single","A1S6C6EN8MPKC3","gain","2","","75","K","2","","0","0","1","0.4598241197","","false","146","0.1857351915","","main_expt","0.3767069828","","0.4598241197","","0.4660155258","","","","","","",""
"56","","bandit","222","582021","0.0-184.0-0.0","61072685","wem/bandit_single","A1S6C6EN8MPKC3","gain","2","","75","K","2","","1","0","0","0.4279993213","","false","147","0.1046475439","","main_expt","0.4039806626","","0.4279993213","","0.4723880167","","","","","","",""
"75","","bandit","223","583867","0.0-185.0-0.0","61072685","wem/bandit_single","A1S6C6EN8MPKC3","gain","2","","76","L","3","","1","0","0","0.4692947112","","false","148","0.1098111678","","main_expt","0.4178396587","","0.4422782314","","0.4692947112","","","","","","",""
"50","","bandit","224","585694","0.0-186.0-0.0","61072685","wem/bandit_single","A1S6C6EN8MPKC3","gain","2","","75","K","2","","1","0","0","0.4514785706","","false","149","0.1221971929","","main_expt","0.3932004216","","0.4514785706","","0.4702562614","","","","","","",""
"32","","bandit","225","587499","0.0-187.0-0.0","61072685","wem/bandit_single","A1S6C6EN8MPKC3","gain","2","","76","L","3","","0","0","1","0.4714094479","","false","150","0.1354034315","","main_expt","0.4103897693","","0.4189864991","","0.4714094479","","","","","","",""
"49","","bandit","226","589317","0.0-188.0-0.0","61072685","wem/bandit_single","A1S6C6EN8MPKC3","gain","2","","75","K","2","","0","0","1","0.4389233528","","false","151","0.1041822367","","main_expt","0.4122179041","","0.4389233528","","0.4761401221","","","","","","",""
"129","","bandit","227","591219","0.0-189.0-0.0","61072685","wem/bandit_single","A1S6C6EN8MPKC3","gain","2","","75","K","2","","1","0","0","0.4244236929","","false","152","0.09038071171","","main_expt","0.3952463752","","0.4244236929","","0.4697737123","","","","","","",""
"84","","bandit","228","593068","0.0-190.0-0.0","61072685","wem/bandit_single","A1S6C6EN8MPKC3","gain","2","","74","J","1","","0","0","1","0.3877384472","","false","153","0.08460578514","","main_expt","0.3877384472","","0.4476471014","","0.446753433","","","","","","",""
"87","","bandit","229","594917","0.0-191.0-0.0","61072685","wem/bandit_single","A1S6C6EN8MPKC3","gain","2","","75","K","2","","0","0","1","0.4505336387","","false","154","0.06957086972","","main_expt","0.3551427127","","0.4505336387","","0.4588815304","","","","","","",""
"278","","bandit","230","596971","0.0-192.0-0.0","61072685","wem/bandit_single","A1S6C6EN8MPKC3","gain","2","","75","K","2","","1","0","0","0.466992112","","false","155","0.07570805595","","main_expt","0.3027898514","","0.466992112","","0.4483664475","","","","","","",""
"11","","bandit","231","598757","0.0-193.0-0.0","61072685","wem/bandit_single","A1S6C6EN8MPKC3","gain","2","","76","L","3","","1","0","0","0.4383670719","","false","156","0.1010055374","","main_expt","0.3245978035","","0.4383448919","","0.4383670719","","","","","","",""
"200","","bandit","232","600742","0.0-194.0-0.0","61072685","wem/bandit_single","A1S6C6EN8MPKC3","gain","2","","75","K","2","","0","0","1","0.4181306447","","false","157","0.09959580587","","main_expt","0.3293821827","","0.4181306447","","0.42990192","","","","","","",""
"230","","bandit","233","602749","0.0-195.0-0.0","61072685","wem/bandit_single","A1S6C6EN8MPKC3","gain","2","","76","L","3","","0","0","1","0.4112902825","","false","158","0.09130540219","","main_expt","0.3053991167","","0.4322591637","","0.4112902825","","","","","","",""
"11","","bandit","234","604540","0.0-196.0-0.0","61072685","wem/bandit_single","A1S6C6EN8MPKC3","gain","2","","76","L","3","","1","0","0","0.4085113589","","false","159","0.07080299429","","main_expt","0.3475565739","","0.4129829621","","0.4085113589","","","","","","",""
"35","","bandit","235","606348","0.0-197.0-0.0","61072685","wem/bandit_single","A1S6C6EN8MPKC3","gain","2","","75","K","2","","0","0","1","0.4094933958","","false","160","0.05017383151","","main_expt","0.327393219","","0.4094933958","","0.4079314082","","","","","","",""
"35","","bandit","236","608162","0.0-198.0-0.0","61072685","wem/bandit_single","A1S6C6EN8MPKC3","gain","2","","75","K","2","","0","0","1","0.404058003","","false","161","0.03820476969","","main_expt","0.303429729","","0.404058003","","0.3631501835","","","","","","",""
"67","","bandit","237","609991","0.0-199.0-0.0","61072685","wem/bandit_single","A1S6C6EN8MPKC3","gain","2","","72","H","0","img/none_selected.jpg","0","0","1","0.02512507724","","false","162","0.02512507724","","main_expt","0.3079210788","","0.3846726044","","0.3470346279","","","","","","",""
"95","","bandit","238","611869","0.0-200.0-0.0","61072685","wem/bandit_single","A1S6C6EN8MPKC3","gain","2","","75","K","2","","0","0","1","0.4016559577","","false","163","0.03932379445","","main_expt","0.3004483846","","0.4016559577","","0.372656257","","","","","","",""
"12","","bandit","239","613646","0.0-201.0-0.0","61072685","wem/bandit_single","A1S6C6EN8MPKC3","gain","2","","76","L","3","","0","0","1","0.3802753243","","false","164","0.01829840099","","main_expt","0.2886014424","","0.3566256613","","0.3802753243","","","","","","",""
"210","","bandit","240","615640","0.0-202.0-0.0","61072685","wem/bandit_single","A1S6C6EN8MPKC3","gain","2","","74","J","1","","0","0","1","0.2088325088","","false","165","0.02415252971","","main_expt","0.2088325088","","0.3509524146","","0.3881672334","","","","","","",""
"37","","bandit","241","617454","0.0-203.0-0.0","61072685","wem/bandit_single","A1S6C6EN8MPKC3","gain","2","","75","K","2","","0","0","1","0.2773632025","","false","166","0.02185778449","","main_expt","0.2160195985","","0.2773632025","","0.359536632","","","","","","",""
"163","","bandit","242","619389","0.0-204.0-0.0","61072685","wem/bandit_single","A1S6C6EN8MPKC3","gain","2","","75","K","2","","0","0","1","0.3022689801","","false","167","0.02761124673","","main_expt","0.1836534764","","0.3022689801","","0.3693034809","","","","","","",""
"31","","bandit","243","621197","0.0-205.0-0.0","61072685","wem/bandit_single","A1S6C6EN8MPKC3","gain","2","","76","L","3","","1","0","0","0.3449050916","","false","168","0.02160611799","","main_expt","0.1701024481","","0.2937690027","","0.3449050916","","","","","","",""
"143","","bandit","244","623100","0.0-206.0-0.0","61072685","wem/bandit_single","A1S6C6EN8MPKC3","gain","2","","75","K","2","","0","0","1","0.2488586406","","false","169","0.02113437328","","main_expt","0.1896079261","","0.2488586406","","0.3515710367","","","","","","",""
"134","","bandit","245","624997","0.0-207.0-0.0","61072685","wem/bandit_single","A1S6C6EN8MPKC3","gain","2","","76","L","3","","1","0","0","0.3233833909","","false","170","0.01292956957","","main_expt","0.2377789273","","0.2112819205","","0.3233833909","","","","","","",""
"514","","bandit","246","627292","0.0-208.0-0.0","61072685","wem/bandit_single","A1S6C6EN8MPKC3","gain","2","","76","L","3","","0","0","1","0.2468086364","","false","171","0.01989811998","","main_expt","0.2640247014","","0.2217900108","","0.2468086364","","","","","","",""
"159","","bandit","247","629230","0.0-209.0-0.0","61072685","wem/bandit_single","A1S6C6EN8MPKC3","gain","2","","76","L","3","","1","0","0","0.3408906282","","false","172","0.0296351857","","main_expt","0.2055846389","","0.2387596097","","0.3408906282","","","","","","",""
"31","","bandit","248","631036","0.0-210.0-0.0","61072685","wem/bandit_single","A1S6C6EN8MPKC3","gain","2","","75","K","2","","0","0","1","0.2602125502","","false","173","0.03540771295","","main_expt","0.2438181894","","0.2602125502","","0.3252944763","","","","","","",""
"84","","bandit","249","632886","0.0-211.0-0.0","61072685","wem/bandit_single","A1S6C6EN8MPKC3","gain","2","","72","H","0","img/none_selected.jpg","0","0","1","0.03725130304","","false","174","0.03725130304","","main_expt","0.2733147352","","0.2202846771","","0.3200904142","","","","","","",""
"66","","bandit","250","634733","0.0-212.0-0.0","61072685","wem/bandit_single","A1S6C6EN8MPKC3","gain","2","","74","J","1","","1","0","0","0.2767671147","","false","175","0.03242602151","","main_expt","0.2767671147","","0.233285157","","0.3622659173","","","","","","",""
"200","","bandit","251","636701","0.0-213.0-0.0","61072685","wem/bandit_single","A1S6C6EN8MPKC3","gain","2","","76","L","3","","0","0","1","0.2937007374","","false","176","0.04697917163","","main_expt","0.2195478827","","0.2264555061","","0.2937007374","","","","","","",""
"150","","bandit","252","638628","0.0-214.0-0.0","61072685","wem/bandit_single","A1S6C6EN8MPKC3","gain","2","","74","J","1","","0","0","1","0.1515864758","","false","177","0.04124559051","","main_expt","0.1515864758","","0.241841845","","0.2513366018","","","","","","",""
"452","","bandit","253","640847","0.0-215.0-0.0","61072685","wem/bandit_single","A1S6C6EN8MPKC3","gain","2","","75","K","2","","0","0","1","0.2423953475","","false","178","0.06205026603","","main_expt","0.1618037694","","0.2423953475","","0.3159509921","","","","","","",""
"519","","bandit","254","643139","0.0-216.0-0.0","61072685","wem/bandit_single","A1S6C6EN8MPKC3","gain","2","","76","L","3","","0","0","1","0.2899582247","","false","179","0.08412795639","","main_expt","0.1653326191","","0.2523089652","","0.2899582247","","","","","","",""
"72","","bandit","255","644975","0.0-217.0-0.0","61072685","wem/bandit_single","A1S6C6EN8MPKC3","gain","2","","74","J","1","","0","0","1","0.1751853148","","false","180","0.1304099397","","main_expt","0.1751853148","","0.2223981335","","0.3371390753","","","","","","",""
"61","","bandit","256","646796","0.0-218.0-0.0","61072685","wem/bandit_single","A1S6C6EN8MPKC3","gain","2","","76","L","3","","0","0","1","0.3365963609","","false","181","0.1801801058","","main_expt","0.211978586","","0.2319473409","","0.3365963609","","","","","","",""
"120","","bandit","257","648687","0.0-219.0-0.0","61072685","wem/bandit_single","A1S6C6EN8MPKC3","gain","2","","74","J","1","","0","0","1","0.2323199139","","false","182","0.1951504204","","main_expt","0.2323199139","","0.2338578761","","0.2643366398","","","","","","",""
"29","","bandit","258","650503","0.0-220.0-0.0","61072685","wem/bandit_single","A1S6C6EN8MPKC3","gain","2","","75","K","2","","0","0","1","0.265472663","","false","183","0.2330781564","","main_expt","0.2252803731","","0.265472663","","0.2464000872","","","","","","",""
"1465","","bandit","259","653748","0.0-221.0-0.0","61072685","wem/bandit_single","A1S6C6EN8MPKC3","gain","2","","76","L","3","","0","0","1","0.3039071009","","false","184","0.2711395555","","main_expt","0.1614269484","","0.2826161147","","0.3039071009","","","","","","",""
"595","","bandit","260","656110","0.0-222.0-0.0","61072685","wem/bandit_single","A1S6C6EN8MPKC3","gain","2","","75","K","2","","0","0","1","0.2542525597","","false","185","0.2182249031","","main_expt","0.1636939604","","0.2542525597","","0.3100879913","","","","","","",""
"199","","bandit","261","658086","0.0-223.0-0.0","61072685","wem/bandit_single","A1S6C6EN8MPKC3","gain","2","","74","J","1","","0","0","1","0.1744134641","","false","186","0.2609412602","","main_expt","0.1744134641","","0.260460085","","0.28505789","","","","","","",""
"92","","bandit","262","659949","0.0-224.0-0.0","61072685","wem/bandit_single","A1S6C6EN8MPKC3","gain","2","","76","L","3","","0","0","1","0.2698122055","","false","187","0.2242136054","","main_expt","0.1955069844","","0.2119714508","","0.2698122055","","","","","","",""
"265","","bandit","263","661990","0.0-225.0-0.0","61072685","wem/bandit_single","A1S6C6EN8MPKC3","gain","2","","72","H","0","img/none_selected.jpg","1","0","0","0.2404864381","","false","188","0.2404864381","","main_expt","0.2289740151","","0.1887053186","","0.2270240414","","","","","","",""
"495","","bandit","264","664270","0.0-226.0-0.0","61072685","wem/bandit_single","A1S6C6EN8MPKC3","gain","2","","76","L","3","","0","0","1","0.2182158859","","false","189","0.2177927796","","main_expt","0.2495887903","","0.1944753942","","0.2182158859","","","","","","",""
"363","","bandit","265","666414","0.0-227.0-0.0","61072685","wem/bandit_single","A1S6C6EN8MPKC3","gain","2","","75","K","2","","0","0","1","0.2163673671","","false","190","0.2445379922","","main_expt","0.2815424982","","0.2163673671","","0.2445882628","","","","","","",""
"72","","bandit","266","668252","0.0-228.0-0.0","61072685","wem/bandit_single","A1S6C6EN8MPKC3","gain","2","","76","L","3","","1","0","0","0.2733302752","","false","191","0.2910265903","","main_expt","0.2401402076","","0.2584180811","","0.2733302752","","","","","","",""
"1586","","bandit","267","671604","0.0-229.0-0.0","61072685","wem/bandit_single","A1S6C6EN8MPKC3","gain","2","","74","J","1","","0","0","1","0.2510809658","","false","192","0.3095983682","","main_expt","0.2510809658","","0.2555063139","","0.2776932955","","","","","","",""
"135","","bandit","268","673527","0.0-230.0-0.0","61072685","wem/bandit_single","A1S6C6EN8MPKC3","gain","2","","76","L","3","","0","0","1","0.3335190616","","false","193","0.3217156539","","main_expt","0.2875405407","","0.2694863875","","0.3335190616","","","","","","",""
"117","","bandit","269","675421","0.0-231.0-0.0","61072685","wem/bandit_single","A1S6C6EN8MPKC3","gain","2","","75","K","2","","0","0","1","0.2894821148","","false","194","0.278878796","","main_expt","0.2183543786","","0.2894821148","","0.3308991278","","","","","","",""
"262","","bandit","270","677471","0.0-232.0-0.0","61072685","wem/bandit_single","A1S6C6EN8MPKC3","gain","2","","76","L","3","","0","0","1","0.3676749275","","false","195","0.2738334973","","main_expt","0.2626349305","","0.3028339589","","0.3676749275","","","","","","",""
"191","","bandit","271","679436","0.0-233.0-0.0","61072685","wem/bandit_single","A1S6C6EN8MPKC3","gain","2","","74","J","1","","0","0","1","0.2046446137","","false","196","0.2494818112","","main_expt","0.2046446137","","0.3051171059","","0.3523241719","","","","","","",""
"146","","bandit","272","681350","0.0-234.0-0.0","61072685","wem/bandit_single","A1S6C6EN8MPKC3","gain","2","","72","H","0","img/none_selected.jpg","0","0","1","0.2620473779","","false","197","0.2620473779","","main_expt","0.2122082762","","0.2901305303","","0.3874168703","","","","","","",""
"238","","bandit","273","683366","0.0-235.0-0.0","61072685","wem/bandit_single","A1S6C6EN8MPKC3","gain","2","","75","K","2","","0","0","1","0.2403600488","","false","198","0.3153682745","","main_expt","0.1962120249","","0.2403600488","","0.4072223947","","","","","","",""
"330","","bandit","274","685479","0.0-236.0-0.0","61072685","wem/bandit_single","A1S6C6EN8MPKC3","gain","2","","76","L","3","","0","0","1","0.4284861426","","false","199","0.2424407548","","main_expt","0.1840541487","","0.2034733728","","0.4284861426","","","","","","",""
"34","","bandit","275","687295","0.0-237.0-0.0","61072685","wem/bandit_single","A1S6C6EN8MPKC3","gain","2","","75","K","2","","0","0","1","0.2193557146","","false","200","0.2692586032","","main_expt","0.1575563837","","0.2193557146","","0.4181746593","","","","","","",""
"102","","bandit","276","689179","0.0-238.0-0.0","61072685","wem/bandit_single","A1S6C6EN8MPKC3","gain","2","","76","L","3","","0","0","1","0.4134190678","","false","201","0.2605377594","","main_expt","0.138860739","","0.2412650678","","0.4134190678","","","","","","",""
"175","","bandit","277","691133","0.0-239.0-0.0","61072685","wem/bandit_single","A1S6C6EN8MPKC3","gain","2","","74","J","1","","0","0","1","0.1216759056","","false","202","0.2372211354","","main_expt","0.1216759056","","0.2106041824","","0.4255663607","","","","","","",""
"38","","bandit","278","692940","0.0-240.0-0.0","61072685","wem/bandit_single","A1S6C6EN8MPKC3","gain","2","","75","K","2","","1","0","0","0.2182463191","","false","203","0.20896917","","main_expt","0.1085797693","","0.2182463191","","0.4267176133","","","","","","",""
"92","","bandit","279","694813","0.0-241.0-0.0","61072685","wem/bandit_single","A1S6C6EN8MPKC3","gain","2","","75","K","2","","0","0","1","0.2060997213","","false","204","0.2277156902","","main_expt","0.08750272662","","0.2060997213","","0.460819217","","","","","","",""
"93","","bandit","280","696669","0.0-242.0-0.0","61072685","wem/bandit_single","A1S6C6EN8MPKC3","gain","2","","76","L","3","","0","0","1","0.4797370756","","false","205","0.2096017385","","main_expt","0.1119911725","","0.2179237498","","0.4797370756","","","","","","",""
"139","","bandit","281","698589","0.0-243.0-0.0","61072685","wem/bandit_single","A1S6C6EN8MPKC3","gain","2","","75","K","2","","0","0","1","0.194566176","","false","206","0.2293009918","","main_expt","0.105166696","","0.194566176","","0.4850202511","","","","","","",""
"36","","bandit","282","700406","0.0-244.0-0.0","61072685","wem/bandit_single","A1S6C6EN8MPKC3","gain","2","","72","H","0","img/none_selected.jpg","0","0","1","0.2613461541","","false","207","0.2613461541","","main_expt","0.07428909222","","0.2540459421","","0.4588339162","","","","","","",""
"73","","bandit","283","702246","0.0-245.0-0.0","61072685","wem/bandit_single","A1S6C6EN8MPKC3","gain","2","","74","J","1","","0","0","1","0.08415887516","","false","208","0.2921374763","","main_expt","0.08415887516","","0.2165425212","","0.4704498371","","","","","","",""
"88","","bandit","284","704120","0.0-246.0-0.0","61072685","wem/bandit_single","A1S6C6EN8MPKC3","gain","2","","74","J","1","","0","0","1","0.05558253146","","false","209","0.2679345114","","main_expt","0.05558253146","","0.1808740619","","0.4498430745","","","","","","",""
"210","","bandit","285","706110","0.0-247.0-0.0","61072685","wem/bandit_single","A1S6C6EN8MPKC3","gain","2","","75","K","2","","0","0","1","0.2298827717","","false","210","0.2356021564","","main_expt","0.04914985493","","0.2298827717","","0.4463117693","","","","","","",""
"482","","bandit","286","708372","0.0-248.0-0.0","61072685","wem/bandit_single","A1S6C6EN8MPKC3","gain","2","","75","K","2","","0","0","1","0.2533880575","","false","211","0.2152320876","","main_expt","0.03798033643","","0.2533880575","","0.422163821","","","","","","",""
"130","","bandit","287","710268","0.0-249.0-0.0","61072685","wem/bandit_single","A1S6C6EN8MPKC3","gain","2","","75","K","2","","0","0","1","0.2771241442","","false","212","0.2216595069","","main_expt","0.03974322714","","0.2771241442","","0.3852039581","","","","","","",""
"75","","bandit","288","712112","0.0-250.0-0.0","61072685","wem/bandit_single","A1S6C6EN8MPKC3","gain","2","","76","L","3","","0","0","1","0.3822954745","","false","213","0.2150176613","","main_expt","0.02384455773","","0.3010302337","","0.3822954745","","","","","","",""
"49","","bandit","289","713941","0.0-251.0-0.0","61072685","wem/bandit_single","A1S6C6EN8MPKC3","gain","2","","75","K","2","","0","0","1","0.3409008015","","false","214","0.1772129937","","main_expt","0.03216660231","","0.3409008015","","0.3608549874","","","","","","",""
"59","","bandit","290","715785","0.0-252.0-0.0","61072685","wem/bandit_single","A1S6C6EN8MPKC3","gain","2","","76","L","3","","0","0","1","0.3621739951","","false","215","0.1584975441","","main_expt","0.03095464101","","0.3227810677","","0.3621739951","","","","","","",""
"243","","bandit","291","717805","0.0-253.0-0.0","61072685","wem/bandit_single","A1S6C6EN8MPKC3","gain","2","","76","L","3","","0","0","1","0.3733564142","","false","216","0.1256434713","","main_expt","0.04011500866","","0.3636386285","","0.3733564142","","","","","","",""
"20","","bandit","292","719606","0.0-254.0-0.0","61072685","wem/bandit_single","A1S6C6EN8MPKC3","gain","2","","76","L","3","","1","0","0","0.3856473275","","false","217","0.1601534085","","main_expt","0.02351309264","","0.3649758886","","0.3856473275","","","","","","",""
"162","","bandit","293","721537","0.0-255.0-0.0","61072685","wem/bandit_single","A1S6C6EN8MPKC3","gain","2","","76","L","3","","0","0","1","0.3645608201","","false","218","0.1514518834","","main_expt","0.01650540734","","0.3641131336","","0.3645608201","","","","","","",""
"35","","bandit","294","723350","0.0-256.0-0.0","61072685","wem/bandit_single","A1S6C6EN8MPKC3","gain","2","","76","L","3","","0","0","1","0.3851453746","","false","219","0.2415223947","","main_expt","0.03577324375","","0.341156599","","0.3851453746","","","","","","",""
"41","","bandit","295","725171","0.0-257.0-0.0","61072685","wem/bandit_single","A1S6C6EN8MPKC3","gain","2","","75","K","2","","1","0","0","0.266049218","","false","220","0.2248182851","","main_expt","0.03655385126","","0.266049218","","0.4075423229","","","","","","",""
"46","","bandit","296","726985","0.0-258.0-0.0","61072685","wem/bandit_single","A1S6C6EN8MPKC3","gain","2","","75","K","2","","0","0","1","0.2359154628","","false","221","0.2588925836","","main_expt","0.03282050992","","0.2359154628","","0.4083347012","","","","","","",""
"66","","bandit","297","728839","0.0-259.0-0.0","61072685","wem/bandit_single","A1S6C6EN8MPKC3","gain","2","","75","K","2","","0","0","1","0.2640726019","","false","222","0.2025188389","","main_expt","0.02558717114","","0.2640726019","","0.4083223781","","","","","","",""
"31","","bandit","298","730653","0.0-260.0-0.0","61072685","wem/bandit_single","A1S6C6EN8MPKC3","gain","2","","76","L","3","","0","0","1","0.4240474742","","false","223","0.1609755914","","main_expt","0.04788205671","","0.1860418506","","0.4240474742","","","","","","",""
"450","","bandit","299","732888","0.0-261.0-0.0","61072685","wem/bandit_single","A1S6C6EN8MPKC3","gain","2","","75","K","2","","0","0","1","0.151875944","","false","224","0.2316748255","","main_expt","0.05498715651","","0.151875944","","0.4346876605","","","","","","",""
"200","","bandit","300","734868","0.0-262.0-0.0","61072685","wem/bandit_single","A1S6C6EN8MPKC3","gain","2","","74","J","1","","0","0","1","0.056476577","","false","225","0.1605893144","","main_expt","0.056476577","","0.1209973656","","0.4541072866","","","","","","",""
"238","","bandit","301","736884","0.0-263.0-0.0","61072685","wem/bandit_single","A1S6C6EN8MPKC3","gain","2","","72","H","0","img/none_selected.jpg","0","0","1","0.1389366963","","false","226","0.1389366963","","main_expt","0.06361054401","","0.1503457952","","0.4239515892","","","","","","",""
"438","","bandit","302","739101","0.0-264.0-0.0","61072685","wem/bandit_single","A1S6C6EN8MPKC3","gain","2","","72","H","0","img/none_selected.jpg","0","0","1","0.09987042713","","false","227","0.09987042713","","main_expt","0.03819722012","","0.1784166707","","0.4122914309","","","","","","",""
"42","","bandit","303","740908","0.0-265.0-0.0","61072685","wem/bandit_single","A1S6C6EN8MPKC3","gain","2","","72","H","0","img/none_selected.jpg","0","0","1","0.1511988136","","false","228","0.1511988136","","main_expt","0.03706892342","","0.1729157366","","0.4022765074","","","","","","",""
"78","","bandit","304","742769","0.0-266.0-0.0","61072685","wem/bandit_single","A1S6C6EN8MPKC3","gain","2","","75","K","2","","0","0","1","0.2035050609","","false","229","0.1165125066","","main_expt","0.05619366589","","0.2035050609","","0.3991813765","","","","","","",""
"487","","bandit","305","745038","0.0-267.0-0.0","61072685","wem/bandit_single","A1S6C6EN8MPKC3","gain","2","","76","L","3","","0","0","1","0.3771825363","","false","230","0.09058018373","","main_expt","0.02398835026","","0.1677195288","","0.3771825363","","","","","","",""
"403","","bandit","306","747229","0.0-268.0-0.0","61072685","wem/bandit_single","A1S6C6EN8MPKC3","gain","2","","74","J","1","","0","0","1","0.01087418165","","false","231","0.1254599363","","main_expt","0.01087418165","","0.1568417205","","0.4081115595","","","","","","",""
"179","","bandit","307","749173","0.0-269.0-0.0","61072685","wem/bandit_single","A1S6C6EN8MPKC3","gain","2","","75","K","2","","0","0","1","0.1733774055","","false","232","0.09699218641","","main_expt","0.005667282796","","0.1733774055","","0.4227202023","","","","","","",""
"31","","bandit","308","750971","0.0-270.0-0.0","61072685","wem/bandit_single","A1S6C6EN8MPKC3","gain","2","","75","K","2","","1","0","0","0.2318808439","","false","233","0.07122003092","","main_expt","0.00711790457","","0.2318808439","","0.4267606383","","","","","","",""
"115","","bandit","309","752851","0.0-271.0-0.0","61072685","wem/bandit_single","A1S6C6EN8MPKC3","gain","2","","75","K","2","","0","0","1","0.2728484722","","false","234","0.07078025717","","main_expt","0.01087448681","","0.2728484722","","0.4076790224","","","","","","",""
"356","","bandit","310","754972","0.0-272.0-0.0","61072685","wem/bandit_single","A1S6C6EN8MPKC3","gain","2","","75","K","2","","0","0","1","0.230842538","","false","235","0.04546889639","","main_expt","0.008183852991","","0.230842538","","0.3750136452","","","","","","",""
"189","","bandit","311","756951","0.0-273.0-0.0","61072685","wem/bandit_single","A1S6C6EN8MPKC3","gain","2","","75","K","2","","0","0","1","0.2565969246","","false","236","0.07949547843","","main_expt","0.00957014591","","0.2565969246","","0.3579900966","","","","","","",""
"488","","bandit","312","759214","0.0-274.0-0.0","61072685","wem/bandit_single","A1S6C6EN8MPKC3","gain","2","","75","K","2","","0","0","1","0.2661079812","","false","237","0.06498208703","","main_expt","0.02345003211","","0.2661079812","","0.3685919787","","","","","","",""
"542","","bandit","313","761520","0.0-275.0-0.0","61072685","wem/bandit_single","A1S6C6EN8MPKC3","gain","2","","75","K","2","","1","0","0","0.3192940022","","false","238","0.07283675032","","main_expt","0.02056264696","","0.3192940022","","0.3220789964","","","","","","",""
"35","","bandit","314","763342","0.0-276.0-0.0","61072685","wem/bandit_single","A1S6C6EN8MPKC3","gain","2","","76","L","3","","0","0","1","0.3059519391","","false","239","0.08723568047","","main_expt","0.02436326326","","0.3150738333","","0.3059519391","","","","","","",""
"66","","bandit","315","765195","0.0-277.0-0.0","61072685","wem/bandit_single","A1S6C6EN8MPKC3","gain","2","","76","L","3","","0","0","1","0.3168560559","","false","240","0.06404566497","","main_expt","0.0242835944","","0.3008600842","","0.3168560559","","","","","","",""
"54","","bandit","316","767023","0.0-278.0-0.0","61072685","wem/bandit_single","A1S6C6EN8MPKC3","gain","2","","75","K","2","","0","0","1","0.2677087501","","false","241","0.05187051438","","main_expt","0.02652021178","","0.2677087501","","0.269391424","","","","","","",""
"14","","bandit","317","768817","0.0-279.0-0.0","61072685","wem/bandit_single","A1S6C6EN8MPKC3","gain","2","","75","K","2","","0","0","1","0.2645585527","","false","242","0.04056120823","","main_expt","0.0264543433","","0.2645585527","","0.2061132751","","","","","","",""
"1","","bandit","318","770599","0.0-280.0-0.0","61072685","wem/bandit_single","A1S6C6EN8MPKC3","gain","2","","74","J","1","","0","0","1","0.02176476481","","false","243","0.02806248696","","main_expt","0.02176476481","","0.2793098336","","0.1996760118","","","","","","",""
"87","","bandit","319","772464","0.0-281.0-0.0","61072685","wem/bandit_single","A1S6C6EN8MPKC3","gain","2","","76","L","3","","0","0","1","0.1719334629","","false","244","0.04063524207","","main_expt","0.01301534777","","0.285685864","","0.1719334629","","","","","","",""
"109","","bandit","320","774358","0.0-282.0-0.0","61072685","wem/bandit_single","A1S6C6EN8MPKC3","gain","2","","76","L","3","","0","0","1","0.2264626889","","false","245","0.03258124644","","main_expt","0.02332936253","","0.2792363563","","0.2264626889","","","","","","",""
"16","","bandit","321","776159","0.0-283.0-0.0","61072685","wem/bandit_single","A1S6C6EN8MPKC3","gain","2","","75","K","2","","1","0","0","0.2721020884","","false","246","0.034431304","","main_expt","0.02379131239","","0.2721020884","","0.2097999869","","","","","","",""
"44","","bandit","322","777991","0.0-284.0-0.0","61072685","wem/bandit_single","A1S6C6EN8MPKC3","gain","2","","72","H","0","img/none_selected.jpg","0","0","1","0.0335896152","","false","247","0.0335896152","","main_expt","0.02988301985","","0.2784836582","","0.2190078117","","","","","","",""
"115","","bandit","323","779899","0.0-285.0-0.0","61072685","wem/bandit_single","A1S6C6EN8MPKC3","gain","2","","76","L","3","","0","0","1","0.214739415","","false","248","0.0373608022","","main_expt","0.04121629219","","0.2155360038","","0.214739415","","","","","","",""
"59","","bandit","324","781744","0.0-286.0-0.0","61072685","wem/bandit_single","A1S6C6EN8MPKC3","gain","2","","72","H","0","img/none_selected.jpg","0","0","1","0.04629433077","","false","249","0.04629433077","","main_expt","0.03081548873","","0.2182269439","","0.2361668487","","","","","","",""
"294","","bandit","325","783820","0.0-287.0-0.0","61072685","wem/bandit_single","A1S6C6EN8MPKC3","gain","2","","74","J","1","","0","0","1","0.02831669856","","false","250","0.04794370872","","main_expt","0.02831669856","","0.2794373206","","0.2730147117","","","","","","",""
"161","","bandit","326","785750","0.0-288.0-0.0","61072685","wem/bandit_single","A1S6C6EN8MPKC3","gain","2","","75","K","2","","1","0","0","0.2925698281","","false","251","0.06568157066","","main_expt","0.02600870455","","0.2925698281","","0.2591269664","","","","","","",""
"91","","bandit","327","787661","0.0-289.0-0.0","61072685","wem/bandit_single","A1S6C6EN8MPKC3","gain","2","","75","K","2","","0","0","1","0.2727886948","","false","252","0.07567030371","","main_expt","0.02705961599","","0.2727886948","","0.3091321407","","","","","","",""
"221","","bandit","328","789669","0.0-290.0-0.0","61072685","wem/bandit_single","A1S6C6EN8MPKC3","gain","2","","75","K","2","","0","0","1","0.2470803404","","false","253","0.06628052114","","main_expt","0.01805963102","","0.2470803404","","0.2284010385","","","","","","",""
"261","","bandit","329","791709","0.0-291.0-0.0","61072685","wem/bandit_single","A1S6C6EN8MPKC3","gain","2","","76","L","3","","1","0","0","0.2452739286","","false","254","0.08321976201","","main_expt","0.01631706542","","0.3366881304","","0.2452739286","","","","","","",""
"355","","bandit","330","793846","0.0-292.0-0.0","61072685","wem/bandit_single","A1S6C6EN8MPKC3","gain","2","","75","K","2","","0","0","1","0.3781216995","","false","255","0.1379446817","","main_expt","0.01966147099","","0.3781216995","","0.2769296881","","","","","","",""
"235","","bandit","331","795869","0.0-293.0-0.0","61072685","wem/bandit_single","A1S6C6EN8MPKC3","gain","2","","72","H","0","img/none_selected.jpg","0","0","1","0.1104053019","","false","256","0.1104053019","","main_expt","0.02801527349","","0.3565974786","","0.222598086","","","","","","",""
"80","","bandit","332","797733","0.0-294.0-0.0","61072685","wem/bandit_single","A1S6C6EN8MPKC3","gain","2","","74","J","1","","0","0","1","0.02393064904","","false","257","0.110095483","","main_expt","0.02393064904","","0.3668333327","","0.2497605863","","","","","","",""
"49","","bandit","333","799565","0.0-295.0-0.0","61072685","wem/bandit_single","A1S6C6EN8MPKC3","gain","2","","75","K","2","","0","0","1","0.3978392262","","false","258","0.09250214804","","main_expt","0.01715644076","","0.3978392262","","0.248028097","","","","","","",""
"85","","bandit","334","801411","0.0-296.0-0.0","61072685","wem/bandit_single","A1S6C6EN8MPKC3","gain","2","","76","L","3","","0","0","1","0.210079309","","false","259","0.1288972452","","main_expt","0.01812234738","","0.3892622443","","0.210079309","","","","","","",""
"15","","bandit","335","803190","0.0-297.0-0.0","61072685","wem/bandit_single","A1S6C6EN8MPKC3","gain","2","","75","K","2","","0","0","1","0.3787635018","","false","260","0.127844668","","main_expt","0.01699252537","","0.3787635018","","0.1785868889","","","","","","",""
"14","","bandit","336","804994","0.0-298.0-0.0","61072685","wem/bandit_single","A1S6C6EN8MPKC3","gain","2","","75","K","2","","1","0","0","0.4151771386","","false","261","0.1408125104","","main_expt","0.02027773674","","0.4151771386","","0.1855690742","","","","","","",""
"51","","bandit","337","806828","0.0-299.0-0.0","61072685","wem/bandit_single","A1S6C6EN8MPKC3","gain","2","","75","K","2","","0","0","1","0.4184001904","","false","262","0.1423762304","","main_expt","0.008159173947","","0.4184001904","","0.2454672077","","","","","","",""
"98","","bandit","338","808693","0.0-300.0-0.0","61072685","wem/bandit_single","A1S6C6EN8MPKC3","gain","2","","75","K","2","","0","0","1","0.4397427278","","false","263","0.1237094287","","main_expt","0.00730364875","","0.4397427278","","0.2423041147","","","","","","",""
"136","","bandit","339","810613","0.0-301.0-0.0","61072685","wem/bandit_single","A1S6C6EN8MPKC3","gain","2","","75","K","2","","0","0","1","0.4308816061","","false","264","0.1110826985","","main_expt","0.008891010149","","0.4308816061","","0.2771483686","","","","","","",""
"62","","bandit","340","812453","0.0-302.0-0.0","61072685","wem/bandit_single","A1S6C6EN8MPKC3","gain","2","","75","K","2","","0","0","1","0.4310956018","","false","265","0.09816719149","","main_expt","0.009434589262","","0.4310956018","","0.2066329382","","","","","","",""
"108","","bandit","341","814341","0.0-303.0-0.0","61072685","wem/bandit_single","A1S6C6EN8MPKC3","gain","2","","75","K","2","","1","0","0","0.4462346174","","false","266","0.1313615454","","main_expt","0.009503255165","","0.4462346174","","0.1954640054","","","","","","",""
"58","","bandit","342","816185","0.0-304.0-0.0","61072685","wem/bandit_single","A1S6C6EN8MPKC3","gain","2","","76","L","3","","0","0","1","0.132533774","","false","267","0.1039649444","","main_expt","0.01294763698","","0.4649068607","","0.132533774","","","","","","",""
"92","","bandit","343","818059","0.0-305.0-0.0","61072685","wem/bandit_single","A1S6C6EN8MPKC3","gain","2","","76","L","3","","0","0","1","0.1212355483","","false","268","0.0758663636","","main_expt","0.01002763249","","0.4499385749","","0.1212355483","","","","","","",""
"116","","bandit","344","819942","0.0-306.0-0.0","61072685","wem/bandit_single","A1S6C6EN8MPKC3","gain","2","","76","L","3","","0","0","1","0.1363236216","","false","269","0.08641939852","","main_expt","0.009339874814","","0.4702815535","","0.1363236216","","","","","","",""
"241","","bandit","345","821965","0.0-307.0-0.0","61072685","wem/bandit_single","A1S6C6EN8MPKC3","gain","2","","76","L","3","","0","0","1","0.1061923246","","false","270","0.08694739741","","main_expt","0.0101894737","","0.4738293899","","0.1061923246","","","","","","",""
"150","","bandit","346","823899","0.0-308.0-0.0","61072685","wem/bandit_single","A1S6C6EN8MPKC3","gain","2","","76","L","3","","0","0","1","0.09682021381","","false","271","0.07507278363","","main_expt","0.0101062795","","0.4552130477","","0.09682021381","","","","","","",""
"176","","bandit","347","825845","0.0-309.0-0.0","61072685","wem/bandit_single","A1S6C6EN8MPKC3","gain","2","","76","L","3","","1","0","0","0.0728164368","","false","272","0.09002305832","","main_expt","0.009276773287","","0.4571227508","","0.0728164368","","","","","","",""
"963","","bandit","348","828589","0.0-310.0-0.0","61072685","wem/bandit_single","A1S6C6EN8MPKC3","gain","2","","75","K","2","","0","0","1","0.4262778794","","false","273","0.07941117108","","main_expt","0.0113492324","","0.4262778794","","0.1026255411","","","","","","",""
"285","","bandit","349","830646","0.0-311.0-0.0","61072685","wem/bandit_single","A1S6C6EN8MPKC3","gain","2","","74","J","1","","0","0","1","0.005483919941","","false","274","0.09301171309","","main_expt","0.005483919941","","0.4017895895","","0.08683802548","","","","","","",""
"13","","bandit","350","832448","0.0-312.0-0.0","61072685","wem/bandit_single","A1S6C6EN8MPKC3","gain","2","","72","H","0","img/none_selected.jpg","0","0","1","0.1012072593","","false","275","0.1012072593","","main_expt","0.00462874381","","0.4017548056","","0.08250982893","","","","","","",""
"33","","bandit","351","834259","0.0-313.0-0.0","61072685","wem/bandit_single","A1S6C6EN8MPKC3","gain","2","","76","L","3","","0","0","1","0.06031930624","","false","276","0.1230964009","","main_expt","0.009610611089","","0.4072561249","","0.06031930624","","","","","","",""
"537","","bandit","352","836566","0.0-314.0-0.0","61072685","wem/bandit_single","A1S6C6EN8MPKC3","gain","2","","75","K","2","","0","0","1","0.3248287115","","false","277","0.1320105939","","main_expt","0.01319252808","","0.3248287115","","0.07169075363","","","","","","",""
"87","","bandit","353","838421","0.0-315.0-0.0","61072685","wem/bandit_single","A1S6C6EN8MPKC3","gain","2","","75","K","2","","0","0","1","0.2954662343","","false","278","0.100271112","","main_expt","0.008560453299","","0.2954662343","","0.119525529","","","","","","",""
"112","","bandit","354","840305","0.0-316.0-0.0","61072685","wem/bandit_single","A1S6C6EN8MPKC3","gain","2","","75","K","2","","1","0","0","0.3430788315","","false","279","0.0752783975","","main_expt","0.02270234009","","0.3430788315","","0.05136608794","","","","","","",""
"427","","bandit","355","842516","0.0-317.0-0.0","61072685","wem/bandit_single","A1S6C6EN8MPKC3","gain","2","","75","K","2","","0","0","1","0.298888987","","false","280","0.04609407158","","main_expt","0.01842994591","","0.298888987","","0.06692305053","","","","","","",""
"441","","bandit","356","844726","0.0-318.0-0.0","61072685","wem/bandit_single","A1S6C6EN8MPKC3","gain","2","","75","K","2","","1","0","0","0.317374049","","false","281","0.05874754036","","main_expt","0.01750385803","","0.317374049","","0.08594942048","","","","","","",""
"62","","bandit","357","846572","0.0-319.0-0.0","61072685","wem/bandit_single","A1S6C6EN8MPKC3","gain","2","","75","K","2","","0","0","1","0.2905756231","","false","282","0.05911354127","","main_expt","0.01075771148","","0.2905756231","","0.08562343316","","","","","","",""
"176","","bandit","358","848534","0.0-320.0-0.0","61072685","wem/bandit_single","A1S6C6EN8MPKC3","gain","2","","74","J","1","","0","0","1","0.009487342711","","false","283","0.0444902615","","main_expt","0.009487342711","","0.335540713","","0.06507866554","","","","","","",""
"424","","bandit","359","850740","0.0-321.0-0.0","61072685","wem/bandit_single","A1S6C6EN8MPKC3","gain","2","","76","L","3","","0","0","1","0.05738126215","","false","284","0.03666520406","","main_expt","0.01035814212","","0.3569674754","","0.05738126215","","","","","","",""
"54","","bandit","360","852567","0.0-322.0-0.0","61072685","wem/bandit_single","A1S6C6EN8MPKC3","gain","2","","76","L","3","","0","0","1","0.06337296056","","false","285","0.02451873239","","main_expt","0.01056818013","","0.4068019922","","0.06337296056","","","","","","",""
"140","","bandit","361","854496","0.0-323.0-0.0","61072685","wem/bandit_single","A1S6C6EN8MPKC3","gain","2","","76","L","3","","0","0","1","0.04649068967","","false","286","0.02877547985","","main_expt","0.007821227136","","0.432978486","","0.04649068967","","","","","","",""
"77","","bandit","362","856357","0.0-324.0-0.0","61072685","wem/bandit_single","A1S6C6EN8MPKC3","gain","2","","76","L","3","","0","0","1","0.04946639224","","false","287","0.03331393821","","main_expt","0.01039042452","","0.4213006965","","0.04946639224","","","","","","",""
"16","","bandit","363","858139","0.0-325.0-0.0","61072685","wem/bandit_single","A1S6C6EN8MPKC3","gain","2","","75","K","2","","0","0","1","0.4094413186","","false","288","0.02363643209","","main_expt","0.02141961277","","0.4094413186","","0.03962947871","","","","","","",""
"23","","bandit","364","859937","0.0-326.0-0.0","61072685","wem/bandit_single","A1S6C6EN8MPKC3","gain","2","","72","H","0","img/none_selected.jpg","0","0","1","0.0366455232","","false","289","0.0366455232","","main_expt","0.02062414181","","0.3731302572","","0.05295486238","","","","","","",""
"56","","bandit","365","861759","0.0-327.0-0.0","61072685","wem/bandit_single","A1S6C6EN8MPKC3","gain","2","","76","L","3","","0","0","1","0.06311332932","","false","290","0.04887184979","","main_expt","0.01411690602","","0.4076032329","","0.06311332932","","","","","","",""
"93","","bandit","366","863640","0.0-328.0-0.0","61072685","wem/bandit_single","A1S6C6EN8MPKC3","gain","2","","76","L","3","","0","0","1","0.07741633782","","false","291","0.03783642248","","main_expt","0.03188260643","","0.4134699565","","0.07741633782","","","","","","",""
"257","","bandit","367","865683","0.0-329.0-0.0","61072685","wem/bandit_single","A1S6C6EN8MPKC3","gain","2","","75","K","2","","0","0","1","0.3827884258","","false","292","0.07820299584","","main_expt","0.03429620073","","0.3827884258","","0.09064252153","","","","","","",""
"17","","bandit","368","867471","0.0-330.0-0.0","61072685","wem/bandit_single","A1S6C6EN8MPKC3","gain","2","","76","L","3","","0","0","1","0.07659126906","","false","293","0.07060894185","","main_expt","0.030392347","","0.4162015812","","0.07659126906","","","","","","",""
"397","","bandit","369","869636","0.0-331.0-0.0","61072685","wem/bandit_single","A1S6C6EN8MPKC3","gain","2","","76","L","3","","0","0","1","0.08042624432","","false","294","0.1051632986","","main_expt","0.04782046051","","0.447674372","","0.08042624432","","","","","","",""
"118","","bandit","370","871524","0.0-332.0-0.0","61072685","wem/bandit_single","A1S6C6EN8MPKC3","gain","2","","76","L","3","","0","0","1","0.1216640212","","false","295","0.06624019153","","main_expt","0.06309063339","","0.4402126752","","0.1216640212","","","","","","",""
"378","","bandit","371","873692","0.0-333.0-0.0","61072685","wem/bandit_single","A1S6C6EN8MPKC3","gain","2","","75","K","2","","0","0","1","0.4378891161","","false","296","0.07088700909","","main_expt","0.09511663338","","0.4378891161","","0.1058257345","","","","","","",""
"122","","bandit","372","875595","0.0-334.0-0.0","61072685","wem/bandit_single","A1S6C6EN8MPKC3","gain","2","","75","K","2","","0","0","1","0.468153315","","false","297","0.0529580871","","main_expt","0.07325770628","","0.468153315","","0.1101311263","","","","","","",""
"505","","bandit","373","877865","0.0-335.0-0.0","61072685","wem/bandit_single","A1S6C6EN8MPKC3","gain","2","","75","K","2","","1","0","0","0.4538992283","","false","298","0.04256970448","","main_expt","0.06352452747","","0.4538992283","","0.1117004815","","","","","","",""
"645","","bandit","374","880293","0.0-336.0-0.0","61072685","wem/bandit_single","A1S6C6EN8MPKC3","gain","2","","75","K","2","","0","0","1","0.4653276232","","false","299","0.02772245328","","main_expt","0.09466520998","","0.4653276232","","0.1201211159","","","","","","",""
"277","","bandit","375","882355","0.0-337.0-0.0","61072685","wem/bandit_single","A1S6C6EN8MPKC3","gain","2","","75","K","2","","0","0","1","0.4727191718","","false","300","0.05668959023","","main_expt","0.09054341503","","0.4727191718","","0.1548602856","","","","","","",""
"24","","bandit","376","884165","0.0-338.0-0.0","61072685","wem/bandit_single","A1S6C6EN8MPKC3","gain","2","","75","K","2","","1","0","0","0.4699586111","","false","301","0.06293517541","","main_expt","0.08155240912","","0.4699586111","","0.108656421","","","","","","",""
