"rt","responses","trial_type","trial_index","time_elapsed","internal_node_id","subjID","study","MID","cond","drift","key_press","respCharCode","respKey","respChoiceNum","respChoice","gems","bombs","no_reward","GemPrChosen","BombPrChosen","practice","trial_counter","WinPr_0","LosePr_0","trial_label","WinPr_1","LosePr_1","WinPr_2","LosePr_2","WinPr_3","LosePr_3","Q0","Q1","Q2","gender","age","ethnicity"
"39878","{""Q0"":""A1HN2V46HTHYT5""}","survey-text","0","39893","0.0-0.0","61354225","wem/bandit_single","A1HN2V46HTHYT5","pain","4","","","","","","","","","","","","","","","","","","","","","","","","","","",""
"5067","","text","1","45967","0.0-1.0","61354225","wem/bandit_single","A1HN2V46HTHYT5","pain","4","32","","","","","","","","","","","","","","","","","","","","","","","","","",""
"6324","","text","2","52296","0.0-2.0","61354225","wem/bandit_single","A1HN2V46HTHYT5","pain","4","32","","","","","","","","","","","","","","","","","","","","","","","","","",""
"26111","","text","3","78416","0.0-3.0","61354225","wem/bandit_single","A1HN2V46HTHYT5","pain","4","32","","","","","","","","","","","","","","","","","","","","","","","","","",""
"16445","","text","4","94869","0.0-4.0","61354225","wem/bandit_single","A1HN2V46HTHYT5","pain","4","32","","","","","","","","","","","","","","","","","","","","","","","","","",""
"15987","","text","5","110862","0.0-5.0","61354225","wem/bandit_single","A1HN2V46HTHYT5","pain","4","32","","","","","","","","","","","","","","","","","","","","","","","","","",""
"8180","","text","6","119047","0.0-6.0","61354225","wem/bandit_single","A1HN2V46HTHYT5","pain","4","32","","","","","","","","","","","","","","","","","","","","","","","","","",""
"9533","","text","7","128585","0.0-7.0","61354225","wem/bandit_single","A1HN2V46HTHYT5","pain","4","32","","","","","","","","","","","","","","","","","","","","","","","","","",""
"3407","","text","8","131996","0.0-8.0","61354225","wem/bandit_single","A1HN2V46HTHYT5","pain","4","32","","","","","","","","","","","","","","","","","","","","","","","","","",""
"8348","","text","9","140347","0.0-9.0","61354225","wem/bandit_single","A1HN2V46HTHYT5","pain","4","32","","","","","","","","","","","","","","","","","","","","","","","","","",""
"3815","","text","10","144164","0.0-10.0","61354225","wem/bandit_single","A1HN2V46HTHYT5","pain","4","32","","","","","","","","","","","","","","","","","","","","","","","","","",""
"3303","","text","11","147469","0.0-11.0","61354225","wem/bandit_single","A1HN2V46HTHYT5","pain","4","32","","","","","","","","","","","","","","","","","","","","","","","","","",""
"1636","","bandit","12","150624","0.0-12.0-0.0","61354225","wem/bandit_single","A1HN2V46HTHYT5","pain","4","","74","J","0","img/none_selected_demo.jpg","0","0","1","0","0","true","0","0","0","","","","","","","","","","","","",""
"1774","","bandit","13","154193","0.0-13.0-0.0","61354225","wem/bandit_single","A1HN2V46HTHYT5","pain","4","","75","K","0","img/none_selected_demo.jpg","0","0","1","0","0","true","0","0","0","","","","","","","","","","","","",""
"5418","","text","14","159867","0.0-14.0","61354225","wem/bandit_single","A1HN2V46HTHYT5","pain","4","32","","","","","","","","","","","","","","","","","","","","","","","","","",""
"1069","","text","15","160936","0.0-15.0","61354225","wem/bandit_single","A1HN2V46HTHYT5","pain","4","32","","","","","","","","","","","","","","","","","","","","","","","","","",""
"9139","","text","16","170077","0.0-16.0","61354225","wem/bandit_single","A1HN2V46HTHYT5","pain","4","32","","","","","","","","","","","","","","","","","","","","","","","","","",""
"5602","","text","17","175682","0.0-17.0","61354225","wem/bandit_single","A1HN2V46HTHYT5","pain","4","32","","","","","","","","","","","","","","","","","","","","","","","","","",""
"1747","","bandit","18","180185","0.0-18.0-0.0","61354225","wem/bandit_single","A1HN2V46HTHYT5","pain","4","","74","J","0","img/none_selected_demo.jpg","0","1","0","0","0.8","true","0","0","0.8","80_20_practice","0","0.2","","","","","","","","","",""
"673","","bandit","19","182723","0.0-18.0-1.0","61354225","wem/bandit_single","A1HN2V46HTHYT5","pain","4","","75","K","1","","0","0","1","0","0.2","true","0","0","0.8","80_20_practice","0","0.2","","","","","","","","","",""
"877","","bandit","20","185387","0.0-18.0-2.0","61354225","wem/bandit_single","A1HN2V46HTHYT5","pain","4","","74","J","0","img/none_selected_demo.jpg","0","1","0","0","0.8","true","0","0","0.8","80_20_practice","0","0.2","","","","","","","","","",""
"367","","bandit","21","187524","0.0-18.0-3.0","61354225","wem/bandit_single","A1HN2V46HTHYT5","pain","4","","74","J","0","img/none_selected_demo.jpg","0","1","0","0","0.8","true","0","0","0.8","80_20_practice","0","0.2","","","","","","","","","",""
"1669","","bandit","22","190964","0.0-18.0-4.0","61354225","wem/bandit_single","A1HN2V46HTHYT5","pain","4","","74","J","0","img/none_selected_demo.jpg","0","1","0","0","0.8","true","0","0","0.8","80_20_practice","0","0.2","","","","","","","","","",""
"2640","","bandit","23","195376","0.0-18.0-5.0","61354225","wem/bandit_single","A1HN2V46HTHYT5","pain","4","","75","K","1","","0","0","1","0","0.2","true","0","0","0.8","80_20_practice","0","0.2","","","","","","","","","",""
"930","","bandit","24","198082","0.0-18.0-6.0","61354225","wem/bandit_single","A1HN2V46HTHYT5","pain","4","","75","K","1","","0","0","1","0","0.2","true","0","0","0.8","80_20_practice","0","0.2","","","","","","","","","",""
"614","","bandit","25","200465","0.0-18.0-7.0","61354225","wem/bandit_single","A1HN2V46HTHYT5","pain","4","","74","J","0","img/none_selected_demo.jpg","0","1","0","0","0.8","true","0","0","0.8","80_20_practice","0","0.2","","","","","","","","","",""
"186","","bandit","26","202423","0.0-18.0-8.0","61354225","wem/bandit_single","A1HN2V46HTHYT5","pain","4","","74","J","0","img/none_selected_demo.jpg","0","1","0","0","0.8","true","0","0","0.8","80_20_practice","0","0.2","","","","","","","","","",""
"376","","bandit","27","204569","0.0-18.0-9.0","61354225","wem/bandit_single","A1HN2V46HTHYT5","pain","4","","74","J","0","img/none_selected_demo.jpg","0","1","0","0","0.8","true","0","0","0.8","80_20_practice","0","0.2","","","","","","","","","",""
"4509","","bandit","28","210854","0.0-18.0-10.0","61354225","wem/bandit_single","A1HN2V46HTHYT5","pain","4","","74","J","0","img/none_selected_demo.jpg","0","1","0","0","0.8","true","0","0","0.8","80_20_practice","0","0.2","","","","","","","","","",""
"1650","","bandit","29","214272","0.0-18.0-11.0","61354225","wem/bandit_single","A1HN2V46HTHYT5","pain","4","","74","J","0","img/none_selected_demo.jpg","0","1","0","0","0.8","true","0","0","0.8","80_20_practice","0","0.2","","","","","","","","","",""
"3014","","bandit","30","219048","0.0-18.0-12.0","61354225","wem/bandit_single","A1HN2V46HTHYT5","pain","4","","75","K","1","","0","0","1","0","0.2","true","0","0","0.8","80_20_practice","0","0.2","","","","","","","","","",""
"162","","bandit","31","220979","0.0-18.0-13.0","61354225","wem/bandit_single","A1HN2V46HTHYT5","pain","4","","75","K","1","","0","0","1","0","0.2","true","0","0","0.8","80_20_practice","0","0.2","","","","","","","","","",""
"4714","","bandit","32","227456","0.0-18.0-14.0","61354225","wem/bandit_single","A1HN2V46HTHYT5","pain","4","","75","K","1","","0","0","1","0","0.2","true","0","0","0.8","80_20_practice","0","0.2","","","","","","","","","",""
"2330","","bandit","33","231556","0.0-18.0-15.0","61354225","wem/bandit_single","A1HN2V46HTHYT5","pain","4","","74","J","0","img/none_selected_demo.jpg","0","1","0","0","0.8","true","0","0","0.8","80_20_practice","0","0.2","","","","","","","","","",""
"3230","","bandit","34","236560","0.0-18.0-16.0","61354225","wem/bandit_single","A1HN2V46HTHYT5","pain","4","","75","K","1","","0","0","1","0","0.2","true","0","0","0.8","80_20_practice","0","0.2","","","","","","","","","",""
"56","","bandit","35","238594","0.0-18.0-17.0","61354225","wem/bandit_single","A1HN2V46HTHYT5","pain","4","","75","K","1","","0","0","1","0","0.2","true","0","0","0.8","80_20_practice","0","0.2","","","","","","","","","",""
"345","","bandit","36","240757","0.0-18.0-18.0","61354225","wem/bandit_single","A1HN2V46HTHYT5","pain","4","","75","K","1","","0","1","0","0","0.2","true","0","0","0.8","80_20_practice","0","0.2","","","","","","","","","",""
"88","","bandit","37","242620","0.0-18.0-19.0","61354225","wem/bandit_single","A1HN2V46HTHYT5","pain","4","","75","K","1","","0","1","0","0","0.2","true","0","0","0.8","80_20_practice","0","0.2","","","","","","","","","",""
"3522","","text","38","246405","0.0-19.0","61354225","wem/bandit_single","A1HN2V46HTHYT5","pain","4","32","","","","","","","","","","","","","","","","","","","","","","","","","",""
"4847","","bandit","39","252828","0.0-20.0-0.0","61354225","wem/bandit_single","A1HN2V46HTHYT5","pain","4","","74","J","0","img/none_selected_demo.jpg","0","0","1","0","0","true","0","0","0","","0","0","","","","","","","","","",""
"13299","","text","40","266385","0.0-21.0","61354225","wem/bandit_single","A1HN2V46HTHYT5","pain","4","32","","","","","","","","","","","","","","","","","","","","","","","","","",""
"3068","","text","41","269459","0.0-22.0","61354225","wem/bandit_single","A1HN2V46HTHYT5","pain","4","32","","","","","","","","","","","","","","","","","","","","","","","","","",""
"3864","","text","42","273327","0.0-23.0","61354225","wem/bandit_single","A1HN2V46HTHYT5","pain","4","32","","","","","","","","","","","","","","","","","","","","","","","","","",""
"3241","","text","43","276572","0.0-24.0","61354225","wem/bandit_single","A1HN2V46HTHYT5","pain","4","32","","","","","","","","","","","","","","","","","","","","","","","","","",""
"7640","","text","44","284215","0.0-25.0","61354225","wem/bandit_single","A1HN2V46HTHYT5","pain","4","32","","","","","","","","","","","","","","","","","","","","","","","","","",""
"6453","","text","45","290671","0.0-26.0","61354225","wem/bandit_single","A1HN2V46HTHYT5","pain","4","32","","","","","","","","","","","","","","","","","","","","","","","","","",""
"4102","","text","46","294779","0.0-27.0","61354225","wem/bandit_single","A1HN2V46HTHYT5","pain","4","32","","","","","","","","","","","","","","","","","","","","","","","","","",""
"4171","","text","47","298959","0.0-28.0","61354225","wem/bandit_single","A1HN2V46HTHYT5","pain","4","32","","","","","","","","","","","","","","","","","","","","","","","","","",""
"4576","","text","48","303537","0.0-29.0","61354225","wem/bandit_single","A1HN2V46HTHYT5","pain","4","32","","","","","","","","","","","","","","","","","","","","","","","","","",""
"1509","","text","49","305051","0.0-30.0","61354225","wem/bandit_single","A1HN2V46HTHYT5","pain","4","32","","","","","","","","","","","","","","","","","","","","","","","","","",""
"3792","","text","50","308848","0.0-31.0","61354225","wem/bandit_single","A1HN2V46HTHYT5","pain","4","32","","","","","","","","","","","","","","","","","","","","","","","","","",""
"1373","","bandit","51","311806","0.0-32.0-0.0","61354225","wem/bandit_single","A1HN2V46HTHYT5","pain","4","","72","H","0","img/none_selected.jpg","0","1","0","0","0.8","true","0","0","0.8","full_practice","0","0.2","0","0.6","0","0.2","","","","","",""
"403","","bandit","52","314024","0.0-32.0-1.0","61354225","wem/bandit_single","A1HN2V46HTHYT5","pain","4","","74","J","1","","0","0","1","0","0.2","true","0","0","0.8","full_practice","0","0.2","0","0.6","0","0.2","","","","","",""
"691","","bandit","53","316501","0.0-32.0-2.0","61354225","wem/bandit_single","A1HN2V46HTHYT5","pain","4","","75","K","2","","0","1","0","0","0.6","true","0","0","0.8","full_practice","0","0.2","0","0.6","0","0.2","","","","","",""
"260","","bandit","54","318603","0.0-32.0-3.0","61354225","wem/bandit_single","A1HN2V46HTHYT5","pain","4","","76","L","3","","0","0","1","0","0.2","true","0","0","0.8","full_practice","0","0.2","0","0.6","0","0.2","","","","","",""
"85","","bandit","55","320458","0.0-32.0-4.0","61354225","wem/bandit_single","A1HN2V46HTHYT5","pain","4","","76","L","3","","0","1","0","0","0.2","true","0","0","0.8","full_practice","0","0.2","0","0.6","0","0.2","","","","","",""
"300","","bandit","56","322546","0.0-32.0-5.0","61354225","wem/bandit_single","A1HN2V46HTHYT5","pain","4","","76","L","3","","0","0","1","0","0.2","true","0","0","0.8","full_practice","0","0.2","0","0.6","0","0.2","","","","","",""
"125","","bandit","57","324443","0.0-32.0-6.0","61354225","wem/bandit_single","A1HN2V46HTHYT5","pain","4","","76","L","3","","0","1","0","0","0.2","true","0","0","0.8","full_practice","0","0.2","0","0.6","0","0.2","","","","","",""
"262","","bandit","58","326489","0.0-32.0-7.0","61354225","wem/bandit_single","A1HN2V46HTHYT5","pain","4","","75","K","2","","0","1","0","0","0.6","true","0","0","0.8","full_practice","0","0.2","0","0.6","0","0.2","","","","","",""
"240","","bandit","59","328532","0.0-32.0-8.0","61354225","wem/bandit_single","A1HN2V46HTHYT5","pain","4","","75","K","2","","0","1","0","0","0.6","true","0","0","0.8","full_practice","0","0.2","0","0.6","0","0.2","","","","","",""
"1321","","bandit","60","331892","0.0-32.0-9.0","61354225","wem/bandit_single","A1HN2V46HTHYT5","pain","4","","75","K","2","","0","0","1","0","0.6","true","0","0","0.8","full_practice","0","0.2","0","0.6","0","0.2","","","","","",""
"276","","bandit","61","333936","0.0-32.0-10.0","61354225","wem/bandit_single","A1HN2V46HTHYT5","pain","4","","75","K","2","","0","1","0","0","0.6","true","0","0","0.8","full_practice","0","0.2","0","0.6","0","0.2","","","","","",""
"256","","bandit","62","335959","0.0-32.0-11.0","61354225","wem/bandit_single","A1HN2V46HTHYT5","pain","4","","74","J","1","","0","0","1","0","0.2","true","0","0","0.8","full_practice","0","0.2","0","0.6","0","0.2","","","","","",""
"188","","bandit","63","338097","0.0-32.0-12.0","61354225","wem/bandit_single","A1HN2V46HTHYT5","pain","4","","74","J","1","","0","1","0","0","0.2","true","0","0","0.8","full_practice","0","0.2","0","0.6","0","0.2","","","","","",""
"220","","bandit","64","340083","0.0-32.0-13.0","61354225","wem/bandit_single","A1HN2V46HTHYT5","pain","4","","74","J","1","","0","0","1","0","0.2","true","0","0","0.8","full_practice","0","0.2","0","0.6","0","0.2","","","","","",""
"2159","","bandit","65","344012","0.0-32.0-14.0","61354225","wem/bandit_single","A1HN2V46HTHYT5","pain","4","","74","J","1","","0","0","1","0","0.2","true","0","0","0.8","full_practice","0","0.2","0","0.6","0","0.2","","","","","",""
"358","","bandit","66","346138","0.0-32.0-15.0","61354225","wem/bandit_single","A1HN2V46HTHYT5","pain","4","","72","H","0","img/none_selected.jpg","0","1","0","0","0.8","true","0","0","0.8","full_practice","0","0.2","0","0.6","0","0.2","","","","","",""
"727","","bandit","67","348633","0.0-32.0-16.0","61354225","wem/bandit_single","A1HN2V46HTHYT5","pain","4","","72","H","0","img/none_selected.jpg","0","1","0","0","0.8","true","0","0","0.8","full_practice","0","0.2","0","0.6","0","0.2","","","","","",""
"2618","","bandit","68","353023","0.0-32.0-17.0","61354225","wem/bandit_single","A1HN2V46HTHYT5","pain","4","","72","H","0","img/none_selected.jpg","0","0","1","0","0.8","true","0","0","0.8","full_practice","0","0.2","0","0.6","0","0.2","","","","","",""
"1040","","bandit","69","355835","0.0-32.0-18.0","61354225","wem/bandit_single","A1HN2V46HTHYT5","pain","4","","72","H","0","img/none_selected.jpg","0","1","0","0","0.8","true","0","0","0.8","full_practice","0","0.2","0","0.6","0","0.2","","","","","",""
"1052","","bandit","70","359331","0.0-32.0-19.0","61354225","wem/bandit_single","A1HN2V46HTHYT5","pain","4","","72","H","0","img/none_selected.jpg","0","1","0","0","0.8","true","0","0","0.8","full_practice","0","0.2","0","0.6","0","0.2","","","","","",""
"8760","","text","71","368509","0.0-33.0","61354225","wem/bandit_single","A1HN2V46HTHYT5","pain","4","32","","","","","","","","","","","","","","","","","","","","","","","","","",""
"25708","","text","72","395229","0.0-34.0","61354225","wem/bandit_single","A1HN2V46HTHYT5","pain","4","32","","","","","","","","","","","","","","","","","","","","","","","","","",""
"3525","","text","73","398768","0.0-35.0","61354225","wem/bandit_single","A1HN2V46HTHYT5","pain","4","32","","","","","","","","","","","","","","","","","","","","","","","","","",""
"4486","","text","74","403267","0.0-36.0","61354225","wem/bandit_single","A1HN2V46HTHYT5","pain","4","32","","","","","","","","","","","","","","","","","","","","","","","","","",""
"3760","","text","75","407034","0.0-37.0","61354225","wem/bandit_single","A1HN2V46HTHYT5","pain","4","32","","","","","","","","","","","","","","","","","","","","","","","","","",""
"1116","","bandit","76","409668","0.0-38.0-0.0","61354225","wem/bandit_single","A1HN2V46HTHYT5","pain","4","","76","L","3","","0","0","1","","0.1530555908","false","1","","0.1534711312","main_expt","","0.2633340886","","0.04789219489","","0.1530555908","","","","","",""
"869","","bandit","77","412315","0.0-39.0-0.0","61354225","wem/bandit_single","A1HN2V46HTHYT5","pain","4","","76","L","3","","0","0","1","","0.103598712","false","2","","0.1140054314","main_expt","","0.288049036","","0.06526788736","","0.103598712","","","","","",""
"376","","bandit","78","414455","0.0-40.0-0.0","61354225","wem/bandit_single","A1HN2V46HTHYT5","pain","4","","75","K","2","","0","0","1","","0.04764418461","false","3","","0.1012650834","main_expt","","0.2979487298","","0.04764418461","","0.08136741005","","","","","",""
"762","","bandit","79","416992","0.0-41.0-0.0","61354225","wem/bandit_single","A1HN2V46HTHYT5","pain","4","","75","K","2","","0","0","1","","0.05056035824","false","4","","0.09541256236","main_expt","","0.3306303211","","0.05056035824","","0.08723083084","","","","","",""
"166","","bandit","80","419687","0.0-42.0-0.0","61354225","wem/bandit_single","A1HN2V46HTHYT5","pain","4","","74","J","1","","0","0","1","","0.2438199519","false","5","","0.07842998328","main_expt","","0.2438199519","","0.05944929255","","0.1255982651","","","","","",""
"252","","bandit","81","421707","0.0-43.0-0.0","61354225","wem/bandit_single","A1HN2V46HTHYT5","pain","4","","74","J","1","","0","1","0","","0.2362074668","false","6","","0.09158282766","main_expt","","0.2362074668","","0.09562353852","","0.09044777998","","","","","",""
"356","","bandit","82","423884","0.0-44.0-0.0","61354225","wem/bandit_single","A1HN2V46HTHYT5","pain","4","","74","J","1","","0","0","1","","0.2591683673","false","7","","0.09712353232","main_expt","","0.2591683673","","0.08069121891","","0.1067491613","","","","","",""
"72","","bandit","83","425747","0.0-45.0-0.0","61354225","wem/bandit_single","A1HN2V46HTHYT5","pain","4","","72","H","0","img/none_selected.jpg","0","0","1","","0.08440361392","false","8","","0.08440361392","main_expt","","0.2299415188","","0.07203927837","","0.15597148","","","","","",""
"2","","bandit","84","427521","0.0-46.0-0.0","61354225","wem/bandit_single","A1HN2V46HTHYT5","pain","4","","72","H","0","img/none_selected.jpg","0","0","1","","0.102519384","false","9","","0.102519384","main_expt","","0.2057198223","","0.08219025907","","0.2250404859","","","","","",""
"249","","bandit","85","429539","0.0-47.0-0.0","61354225","wem/bandit_single","A1HN2V46HTHYT5","pain","4","","72","H","0","img/none_selected.jpg","0","0","1","","0.06157476224","false","10","","0.06157476224","main_expt","","0.2002554128","","0.06517742799","","0.2205918947","","","","","",""
"406","","bandit","86","431718","0.0-48.0-0.0","61354225","wem/bandit_single","A1HN2V46HTHYT5","pain","4","","72","H","0","img/none_selected.jpg","0","0","1","","0.05516119966","false","11","","0.05516119966","main_expt","","0.2390702858","","0.0549201251","","0.1999173076","","","","","",""
"269","","bandit","87","433752","0.0-49.0-0.0","61354225","wem/bandit_single","A1HN2V46HTHYT5","pain","4","","74","J","1","","0","0","1","","0.2309669968","false","12","","0.04311537102","main_expt","","0.2309669968","","0.0630283727","","0.2006159367","","","","","",""
"193","","bandit","88","435710","0.0-50.0-0.0","61354225","wem/bandit_single","A1HN2V46HTHYT5","pain","4","","74","J","1","","0","0","1","","0.2667386483","false","13","","0.03895599675","main_expt","","0.2667386483","","0.07136250487","","0.202674457","","","","","",""
"177","","bandit","89","437653","0.0-51.0-0.0","61354225","wem/bandit_single","A1HN2V46HTHYT5","pain","4","","74","J","1","","0","0","1","","0.2057326914","false","14","","0.03256744162","main_expt","","0.2057326914","","0.07333211558","","0.152812741","","","","","",""
"248","","bandit","90","439672","0.0-52.0-0.0","61354225","wem/bandit_single","A1HN2V46HTHYT5","pain","4","","74","J","1","","0","0","1","","0.2081585857","false","15","","0.01982065674","main_expt","","0.2081585857","","0.1154740655","","0.1648564856","","","","","",""
"302","","bandit","91","441741","0.0-53.0-0.0","61354225","wem/bandit_single","A1HN2V46HTHYT5","pain","4","","75","K","2","","0","0","1","","0.1011313391","false","16","","0.04082574049","main_expt","","0.1909184248","","0.1011313391","","0.1619055423","","","","","",""
"178","","bandit","92","443693","0.0-54.0-0.0","61354225","wem/bandit_single","A1HN2V46HTHYT5","pain","4","","75","K","2","","0","0","1","","0.1447019112","false","17","","0.0363298649","main_expt","","0.2198432556","","0.1447019112","","0.1651197045","","","","","",""
"135","","bandit","93","445609","0.0-55.0-0.0","61354225","wem/bandit_single","A1HN2V46HTHYT5","pain","4","","75","K","2","","0","0","1","","0.1039364862","false","18","","0.07917382237","main_expt","","0.2347766335","","0.1039364862","","0.1079041081","","","","","",""
"815","","bandit","94","448229","0.0-56.0-0.0","61354225","wem/bandit_single","A1HN2V46HTHYT5","pain","4","","75","K","2","","0","0","1","","0.08759831402","false","19","","0.08476555987","main_expt","","0.24668571","","0.08759831402","","0.1059999363","","","","","",""
"195","","bandit","95","450191","0.0-57.0-0.0","61354225","wem/bandit_single","A1HN2V46HTHYT5","pain","4","","75","K","2","","0","0","1","","0.08010338479","false","20","","0.04047152317","main_expt","","0.2355281317","","0.08010338479","","0.1197169881","","","","","",""
"42","","bandit","96","452050","0.0-58.0-0.0","61354225","wem/bandit_single","A1HN2V46HTHYT5","pain","4","","76","L","3","","0","0","1","","0.1338215077","false","21","","0.07021106672","main_expt","","0.2290721377","","0.07820488182","","0.1338215077","","","","","",""
"96","","bandit","97","453974","0.0-59.0-0.0","61354225","wem/bandit_single","A1HN2V46HTHYT5","pain","4","","76","L","3","","0","0","1","","0.1691749215","false","22","","0.08794503477","main_expt","","0.1982968879","","0.06301774499","","0.1691749215","","","","","",""
"286","","bandit","98","456040","0.0-60.0-0.0","61354225","wem/bandit_single","A1HN2V46HTHYT5","pain","4","","76","L","3","","0","1","0","","0.2100599157","false","23","","0.07274518233","main_expt","","0.1991555028","","0.04380944514","","0.2100599157","","","","","",""
"191","","bandit","99","458004","0.0-61.0-0.0","61354225","wem/bandit_single","A1HN2V46HTHYT5","pain","4","","76","L","3","","0","0","1","","0.1763606332","false","24","","0.09602528561","main_expt","","0.1700743611","","0.04485861341","","0.1763606332","","","","","",""
"206","","bandit","100","459998","0.0-62.0-0.0","61354225","wem/bandit_single","A1HN2V46HTHYT5","pain","4","","76","L","3","","0","0","1","","0.1155065599","false","25","","0.07148754983","main_expt","","0.2303117276","","0.08350983839","","0.1155065599","","","","","",""
"111","","bandit","101","461921","0.0-63.0-0.0","61354225","wem/bandit_single","A1HN2V46HTHYT5","pain","4","","76","L","3","","0","1","0","","0.08411514459","false","26","","0.05591681381","main_expt","","0.2615068669","","0.04946014148","","0.08411514459","","","","","",""
"723","","bandit","102","464423","0.0-64.0-0.0","61354225","wem/bandit_single","A1HN2V46HTHYT5","pain","4","","76","L","3","","0","0","1","","0.1192049255","false","27","","0.06488914964","main_expt","","0.2108316327","","0.07008172503","","0.1192049255","","","","","",""
"189","","bandit","103","466389","0.0-65.0-0.0","61354225","wem/bandit_single","A1HN2V46HTHYT5","pain","4","","76","L","3","","0","0","1","","0.1530516972","false","28","","0.07067710387","main_expt","","0.2616222854","","0.09766989806","","0.1530516972","","","","","",""
"65","","bandit","104","468223","0.0-66.0-0.0","61354225","wem/bandit_single","A1HN2V46HTHYT5","pain","4","","76","L","3","","0","0","1","","0.1243035263","false","29","","0.06184318105","main_expt","","0.2754145478","","0.1020433103","","0.1243035263","","","","","",""
"115","","bandit","105","470138","0.0-67.0-0.0","61354225","wem/bandit_single","A1HN2V46HTHYT5","pain","4","","76","L","3","","0","0","1","","0.2106934108","false","30","","0.06562203124","main_expt","","0.3091083038","","0.1128186897","","0.2106934108","","","","","",""
"793","","bandit","106","472703","0.0-68.0-0.0","61354225","wem/bandit_single","A1HN2V46HTHYT5","pain","4","","76","L","3","","0","0","1","","0.269819176","false","31","","0.06340423818","main_expt","","0.3032558385","","0.1021038766","","0.269819176","","","","","",""
"487","","bandit","107","474956","0.0-69.0-0.0","61354225","wem/bandit_single","A1HN2V46HTHYT5","pain","4","","76","L","3","","0","0","1","","0.2415851803","false","32","","0.08582013972","main_expt","","0.3160124579","","0.1010238501","","0.2415851803","","","","","",""
"890","","bandit","108","477822","0.0-70.0-0.0","61354225","wem/bandit_single","A1HN2V46HTHYT5","pain","4","","76","L","3","","0","0","1","","0.2754451294","false","33","","0.1020351259","main_expt","","0.355825184","","0.0674926465","","0.2754451294","","","","","",""
"871","","bandit","109","481664","0.0-71.0-0.0","61354225","wem/bandit_single","A1HN2V46HTHYT5","pain","4","","74","J","1","","0","0","1","","0.3380280112","false","34","","0.07925884201","main_expt","","0.3380280112","","0.1007783216","","0.3566428969","","","","","",""
"144","","bandit","110","483571","0.0-72.0-0.0","61354225","wem/bandit_single","A1HN2V46HTHYT5","pain","4","","74","J","1","","0","0","1","","0.3772093912","false","35","","0.06071167626","main_expt","","0.3772093912","","0.09542819821","","0.2652811253","","","","","",""
"74","","bandit","111","485423","0.0-73.0-0.0","61354225","wem/bandit_single","A1HN2V46HTHYT5","pain","4","","74","J","1","","0","1","0","","0.3916459715","false","36","","0.05331310492","main_expt","","0.3916459715","","0.07425724813","","0.2472166127","","","","","",""
"226","","bandit","112","487415","0.0-74.0-0.0","61354225","wem/bandit_single","A1HN2V46HTHYT5","pain","4","","74","J","1","","0","0","1","","0.3724196513","false","37","","0.08395737389","main_expt","","0.3724196513","","0.07325651263","","0.2941536534","","","","","",""
"242","","bandit","113","489429","0.0-75.0-0.0","61354225","wem/bandit_single","A1HN2V46HTHYT5","pain","4","","74","J","1","","0","0","1","","0.3885064771","false","38","","0.07562804978","main_expt","","0.3885064771","","0.06058557764","","0.2850199379","","","","","",""
"726","","bandit","114","491924","0.0-76.0-0.0","61354225","wem/bandit_single","A1HN2V46HTHYT5","pain","4","","74","J","1","","0","0","1","","0.4332305888","false","39","","0.06339693541","main_expt","","0.4332305888","","0.05480529152","","0.2308750992","","","","","",""
"129","","bandit","115","493829","0.0-77.0-0.0","61354225","wem/bandit_single","A1HN2V46HTHYT5","pain","4","","74","J","1","","0","1","0","","0.4320021358","false","40","","0.07741261751","main_expt","","0.4320021358","","0.08480448704","","0.2166928419","","","","","",""
"217","","bandit","116","495820","0.0-78.0-0.0","61354225","wem/bandit_single","A1HN2V46HTHYT5","pain","4","","74","J","1","","0","0","1","","0.4378374231","false","41","","0.08199889575","main_expt","","0.4378374231","","0.07863220129","","0.222341992","","","","","",""
"249","","bandit","117","497837","0.0-79.0-0.0","61354225","wem/bandit_single","A1HN2V46HTHYT5","pain","4","","74","J","1","","0","1","0","","0.4138470733","false","42","","0.1252939417","main_expt","","0.4138470733","","0.07947159818","","0.2420609394","","","","","",""
"201","","bandit","118","499805","0.0-80.0-0.0","61354225","wem/bandit_single","A1HN2V46HTHYT5","pain","4","","74","J","1","","0","0","1","","0.3618848001","false","43","","0.1464491551","main_expt","","0.3618848001","","0.0747194724","","0.2683234569","","","","","",""
"152","","bandit","119","501731","0.0-81.0-0.0","61354225","wem/bandit_single","A1HN2V46HTHYT5","pain","4","","74","J","1","","0","0","1","","0.3902132048","false","44","","0.1846315016","main_expt","","0.3902132048","","0.06873866496","","0.2592073096","","","","","",""
"825","","bandit","120","504328","0.0-82.0-0.0","61354225","wem/bandit_single","A1HN2V46HTHYT5","pain","4","","74","J","1","","0","1","0","","0.370584769","false","45","","0.1454302639","main_expt","","0.370584769","","0.05624711086","","0.258850709","","","","","",""
"1116","","bandit","121","507208","0.0-83.0-0.0","61354225","wem/bandit_single","A1HN2V46HTHYT5","pain","4","","74","J","1","","0","0","1","","0.3416192418","false","46","","0.1420401956","main_expt","","0.3416192418","","0.06710767933","","0.2162528617","","","","","",""
"88","","bandit","122","509061","0.0-84.0-0.0","61354225","wem/bandit_single","A1HN2V46HTHYT5","pain","4","","74","J","1","","0","0","1","","0.3254497978","false","47","","0.2049545467","main_expt","","0.3254497978","","0.05828218186","","0.1380472806","","","","","",""
"174","","bandit","123","511004","0.0-85.0-0.0","61354225","wem/bandit_single","A1HN2V46HTHYT5","pain","4","","74","J","1","","0","0","1","","0.3438960799","false","48","","0.1608881285","main_expt","","0.3438960799","","0.1161016377","","0.1673270425","","","","","",""
"140","","bandit","124","512910","0.0-86.0-0.0","61354225","wem/bandit_single","A1HN2V46HTHYT5","pain","4","","74","J","1","","0","0","1","","0.3405395495","false","49","","0.2001806823","main_expt","","0.3405395495","","0.1135844416","","0.1637821127","","","","","",""
"109","","bandit","125","514787","0.0-87.0-0.0","61354225","wem/bandit_single","A1HN2V46HTHYT5","pain","4","","74","J","1","","0","0","1","","0.3305224856","false","50","","0.2061381611","main_expt","","0.3305224856","","0.1646239324","","0.1826101584","","","","","",""
"272","","bandit","126","516928","0.0-88.0-0.0","61354225","wem/bandit_single","A1HN2V46HTHYT5","pain","4","","72","H","0","img/none_selected.jpg","0","0","1","","0.2369791141","false","51","","0.2369791141","main_expt","","0.2304924019","","0.1699716213","","0.2270371056","","","","","",""
"198","","bandit","127","518930","0.0-89.0-0.0","61354225","wem/bandit_single","A1HN2V46HTHYT5","pain","4","","72","H","0","img/none_selected.jpg","0","1","0","","0.2378663067","false","52","","0.2378663067","main_expt","","0.2832256505","","0.1762937123","","0.2203225001","","","","","",""
"152","","bandit","128","520926","0.0-90.0-0.0","61354225","wem/bandit_single","A1HN2V46HTHYT5","pain","4","","72","H","0","img/none_selected.jpg","0","0","1","","0.2063519028","false","53","","0.2063519028","main_expt","","0.2391441838","","0.2287193473","","0.2776849753","","","","","",""
"150","","bandit","129","522861","0.0-91.0-0.0","61354225","wem/bandit_single","A1HN2V46HTHYT5","pain","4","","72","H","0","img/none_selected.jpg","0","1","0","","0.2439582882","false","54","","0.2439582882","main_expt","","0.2697071588","","0.2356834932","","0.2454572706","","","","","",""
"126","","bandit","130","524938","0.0-92.0-0.0","61354225","wem/bandit_single","A1HN2V46HTHYT5","pain","4","","72","H","0","img/none_selected.jpg","0","0","1","","0.2381950618","false","55","","0.2381950618","main_expt","","0.2875326611","","0.306547883","","0.2382153161","","","","","",""
"85","","bandit","131","526806","0.0-93.0-0.0","61354225","wem/bandit_single","A1HN2V46HTHYT5","pain","4","","72","H","0","img/none_selected.jpg","0","1","0","","0.1800346575","false","56","","0.1800346575","main_expt","","0.2854258916","","0.2853582168","","0.1960908288","","","","","",""
"132","","bandit","132","528712","0.0-94.0-0.0","61354225","wem/bandit_single","A1HN2V46HTHYT5","pain","4","","72","H","0","img/none_selected.jpg","0","1","0","","0.2336203315","false","57","","0.2336203315","main_expt","","0.3445045135","","0.2834250679","","0.2042340564","","","","","",""
"113","","bandit","133","530625","0.0-95.0-0.0","61354225","wem/bandit_single","A1HN2V46HTHYT5","pain","4","","72","H","0","img/none_selected.jpg","0","0","1","","0.189887459","false","58","","0.189887459","main_expt","","0.3390226593","","0.2690284398","","0.1490893454","","","","","",""
"86","","bandit","134","532491","0.0-96.0-0.0","61354225","wem/bandit_single","A1HN2V46HTHYT5","pain","4","","72","H","0","img/none_selected.jpg","0","0","1","","0.1548607402","false","59","","0.1548607402","main_expt","","0.2666291788","","0.2616697142","","0.1581154669","","","","","",""
"112","","bandit","135","534384","0.0-97.0-0.0","61354225","wem/bandit_single","A1HN2V46HTHYT5","pain","4","","72","H","0","img/none_selected.jpg","0","0","1","","0.1233285174","false","60","","0.1233285174","main_expt","","0.246985882","","0.2704186185","","0.1715954381","","","","","",""
"315","","bandit","136","536478","0.0-98.0-0.0","61354225","wem/bandit_single","A1HN2V46HTHYT5","pain","4","","72","H","0","img/none_selected.jpg","0","0","1","","0.186549837","false","61","","0.186549837","main_expt","","0.2171589204","","0.3376037184","","0.1999420892","","","","","",""
"115","","bandit","137","538995","0.0-99.0-0.0","61354225","wem/bandit_single","A1HN2V46HTHYT5","pain","4","","72","H","0","img/none_selected.jpg","0","0","1","","0.1420872584","false","62","","0.1420872584","main_expt","","0.2677831299","","0.3098521258","","0.1539309088","","","","","",""
"231","","bandit","138","541133","0.0-100.0-0.0","61354225","wem/bandit_single","A1HN2V46HTHYT5","pain","4","","74","J","1","","0","0","1","","0.2303454974","false","63","","0.151707711","main_expt","","0.2303454974","","0.3137631198","","0.1085632924","","","","","",""
"3319","","bandit","139","546222","0.0-101.0-0.0","61354225","wem/bandit_single","A1HN2V46HTHYT5","pain","4","","74","J","1","","0","0","1","","0.196947777","false","64","","0.1474827626","main_expt","","0.196947777","","0.3179430645","","0.1370187426","","","","","",""
"2113","","bandit","140","550103","0.0-102.0-0.0","61354225","wem/bandit_single","A1HN2V46HTHYT5","pain","4","","74","J","1","","0","0","1","","0.1645630622","false","65","","0.1746529425","main_expt","","0.1645630622","","0.2980330155","","0.1322062037","","","","","",""
"475","","bandit","141","552344","0.0-103.0-0.0","61354225","wem/bandit_single","A1HN2V46HTHYT5","pain","4","","75","K","2","","0","0","1","","0.2537140377","false","66","","0.1310865155","main_expt","","0.1533283495","","0.2537140377","","0.1496501041","","","","","",""
"265","","bandit","142","554389","0.0-104.0-0.0","61354225","wem/bandit_single","A1HN2V46HTHYT5","pain","4","","75","K","2","","0","0","1","","0.2153704701","false","67","","0.1370872981","main_expt","","0.1708403009","","0.2153704701","","0.1626820295","","","","","",""
"285","","bandit","143","556448","0.0-105.0-0.0","61354225","wem/bandit_single","A1HN2V46HTHYT5","pain","4","","75","K","2","","0","0","1","","0.2417705853","false","68","","0.09914494933","main_expt","","0.1887917493","","0.2417705853","","0.1989514297","","","","","",""
"302","","bandit","144","558523","0.0-106.0-0.0","61354225","wem/bandit_single","A1HN2V46HTHYT5","pain","4","","75","K","2","","0","0","1","","0.3235463827","false","69","","0.1092411584","main_expt","","0.2160515082","","0.3235463827","","0.1888867792","","","","","",""
"137","","bandit","145","560452","0.0-107.0-0.0","61354225","wem/bandit_single","A1HN2V46HTHYT5","pain","4","","75","K","2","","0","0","1","","0.3647615206","false","70","","0.1213917008","main_expt","","0.2778565133","","0.3647615206","","0.1767550628","","","","","",""
"254","","bandit","146","562472","0.0-108.0-0.0","61354225","wem/bandit_single","A1HN2V46HTHYT5","pain","4","","76","L","3","","0","0","1","","0.1253641033","false","71","","0.1479005197","main_expt","","0.2623699359","","0.3472934012","","0.1253641033","","","","","",""
"132","","bandit","147","564373","0.0-109.0-0.0","61354225","wem/bandit_single","A1HN2V46HTHYT5","pain","4","","76","L","3","","0","0","1","","0.1319365506","false","72","","0.1931369739","main_expt","","0.2574081817","","0.2965124106","","0.1319365506","","","","","",""
"140","","bandit","148","566285","0.0-110.0-0.0","61354225","wem/bandit_single","A1HN2V46HTHYT5","pain","4","","76","L","3","","0","0","1","","0.1061905376","false","73","","0.1900103681","main_expt","","0.2503470883","","0.2823595977","","0.1061905376","","","","","",""
"322","","bandit","149","568389","0.0-111.0-0.0","61354225","wem/bandit_single","A1HN2V46HTHYT5","pain","4","","76","L","3","","0","0","1","","0.1303083533","false","74","","0.1344428369","main_expt","","0.2710758316","","0.2835749375","","0.1303083533","","","","","",""
"257","","bandit","150","570432","0.0-112.0-0.0","61354225","wem/bandit_single","A1HN2V46HTHYT5","pain","4","","76","L","3","","0","0","1","","0.1359111238","false","75","","0.1528357022","main_expt","","0.260759121","","0.3526847528","","0.1359111238","","","","","",""
"178","","bandit","151","572378","0.0-113.0-0.0","61354225","wem/bandit_single","A1HN2V46HTHYT5","pain","4","","76","L","3","","0","0","1","","0.1128391495","false","76","","0.1898592508","main_expt","","0.2610050464","","0.3434196486","","0.1128391495","","","","","",""
"191","","bandit","152","574334","0.0-114.0-0.0","61354225","wem/bandit_single","A1HN2V46HTHYT5","pain","4","","76","L","3","","0","0","1","","0.1118044987","false","77","","0.191464519","main_expt","","0.1920601856","","0.3073782559","","0.1118044987","","","","","",""
"467","","bandit","153","576583","0.0-115.0-0.0","61354225","wem/bandit_single","A1HN2V46HTHYT5","pain","4","","75","K","2","","0","0","1","","0.3200097729","false","78","","0.2665821314","main_expt","","0.1726035312","","0.3200097729","","0.1315400358","","","","","",""
"121","","bandit","154","578472","0.0-116.0-0.0","61354225","wem/bandit_single","A1HN2V46HTHYT5","pain","4","","75","K","2","","0","0","1","","0.3406321397","false","79","","0.2510402579","main_expt","","0.1974193715","","0.3406321397","","0.1421279646","","","","","",""
"2593","","bandit","155","582843","0.0-117.0-0.0","61354225","wem/bandit_single","A1HN2V46HTHYT5","pain","4","","75","K","2","","0","0","1","","0.2934749235","false","80","","0.2803090616","main_expt","","0.1771423485","","0.2934749235","","0.1666910293","","","","","",""
"962","","bandit","156","585630","0.0-118.0-0.0","61354225","wem/bandit_single","A1HN2V46HTHYT5","pain","4","","75","K","2","","0","1","0","","0.3080678564","false","81","","0.3053401272","main_expt","","0.1689426189","","0.3080678564","","0.1514130178","","","","","",""
"12406","","bandit","157","599872","0.0-119.0-0.0","61354225","wem/bandit_single","A1HN2V46HTHYT5","pain","4","","75","K","2","","0","1","0","","0.3118316764","false","82","","0.3079009489","main_expt","","0.2008945118","","0.3118316764","","0.1667518413","","","","","",""
"1059","","bandit","158","602711","0.0-120.0-0.0","61354225","wem/bandit_single","A1HN2V46HTHYT5","pain","4","","75","K","2","","0","0","1","","0.2539803618","false","83","","0.3294465445","main_expt","","0.2679993971","","0.2539803618","","0.1620161121","","","","","",""
"298","","bandit","159","604783","0.0-121.0-0.0","61354225","wem/bandit_single","A1HN2V46HTHYT5","pain","4","","75","K","2","","0","0","1","","0.2665148507","false","84","","0.3567704092","main_expt","","0.2187304288","","0.2665148507","","0.1920696542","","","","","",""
"3308","","bandit","160","609860","0.0-122.0-0.0","61354225","wem/bandit_single","A1HN2V46HTHYT5","pain","4","","75","K","2","","0","0","1","","0.2638978108","false","85","","0.3637986046","main_expt","","0.2668074714","","0.2638978108","","0.1790321084","","","","","",""
"2797","","bandit","161","614427","0.0-123.0-0.0","61354225","wem/bandit_single","A1HN2V46HTHYT5","pain","4","","75","K","2","","0","0","1","","0.2430370424","false","86","","0.3661817966","main_expt","","0.3011617684","","0.2430370424","","0.1644507099","","","","","",""
"200","","bandit","162","616397","0.0-124.0-0.0","61354225","wem/bandit_single","A1HN2V46HTHYT5","pain","4","","75","K","2","","0","0","1","","0.2369050713","false","87","","0.349996741","main_expt","","0.2866912597","","0.2369050713","","0.1731377232","","","","","",""
"55","","bandit","163","618225","0.0-125.0-0.0","61354225","wem/bandit_single","A1HN2V46HTHYT5","pain","4","","74","J","1","","0","0","1","","0.2921806028","false","88","","0.3021468993","main_expt","","0.2921806028","","0.2322244834","","0.1562940882","","","","","",""
"571","","bandit","164","620579","0.0-126.0-0.0","61354225","wem/bandit_single","A1HN2V46HTHYT5","pain","4","","74","J","1","","0","0","1","","0.2877077994","false","89","","0.2752269066","main_expt","","0.2877077994","","0.214722025","","0.1344734597","","","","","",""
"33","","bandit","165","622393","0.0-127.0-0.0","61354225","wem/bandit_single","A1HN2V46HTHYT5","pain","4","","74","J","1","","0","0","1","","0.2390413286","false","90","","0.3172240337","main_expt","","0.2390413286","","0.1767670318","","0.1192135027","","","","","",""
"510","","bandit","166","624681","0.0-128.0-0.0","61354225","wem/bandit_single","A1HN2V46HTHYT5","pain","4","","74","J","1","","0","1","0","","0.2582098676","false","91","","0.3049723864","main_expt","","0.2582098676","","0.1391375388","","0.1639104845","","","","","",""
"230","","bandit","167","626684","0.0-129.0-0.0","61354225","wem/bandit_single","A1HN2V46HTHYT5","pain","4","","74","J","1","","0","0","1","","0.3066747335","false","92","","0.3261529518","main_expt","","0.3066747335","","0.1283323985","","0.1960431165","","","","","",""
"183","","bandit","168","628653","0.0-130.0-0.0","61354225","wem/bandit_single","A1HN2V46HTHYT5","pain","4","","74","J","1","","0","1","0","","0.3051362106","false","93","","0.3550538726","main_expt","","0.3051362106","","0.07538544447","","0.2137056669","","","","","",""
"239","","bandit","169","630670","0.0-131.0-0.0","61354225","wem/bandit_single","A1HN2V46HTHYT5","pain","4","","74","J","1","","0","0","1","","0.3433649514","false","94","","0.3335231974","main_expt","","0.3433649514","","0.07407963518","","0.2188004936","","","","","",""
"461","","bandit","170","632906","0.0-132.0-0.0","61354225","wem/bandit_single","A1HN2V46HTHYT5","pain","4","","74","J","1","","0","1","0","","0.3638642947","false","95","","0.3060397856","main_expt","","0.3638642947","","0.06265185683","","0.2442185641","","","","","",""
"2728","","bandit","171","637401","0.0-133.0-0.0","61354225","wem/bandit_single","A1HN2V46HTHYT5","pain","4","","74","J","1","","0","0","1","","0.3433071503","false","96","","0.3420618169","main_expt","","0.3433071503","","0.0626930361","","0.2062156096","","","","","",""
"1463","","bandit","172","640636","0.0-134.0-0.0","61354225","wem/bandit_single","A1HN2V46HTHYT5","pain","4","","74","J","1","","0","1","0","","0.3287523936","false","97","","0.3451805041","main_expt","","0.3287523936","","0.03702031205","","0.1824441478","","","","","",""
"1131","","bandit","173","643534","0.0-135.0-0.0","61354225","wem/bandit_single","A1HN2V46HTHYT5","pain","4","","74","J","1","","0","0","1","","0.3384657171","false","98","","0.3067376926","main_expt","","0.3384657171","","0.02896114516","","0.1741419228","","","","","",""
"297","","bandit","174","645604","0.0-136.0-0.0","61354225","wem/bandit_single","A1HN2V46HTHYT5","pain","4","","74","J","1","","0","1","0","","0.3929596429","false","99","","0.2980645096","main_expt","","0.3929596429","","0.04301278827","","0.1402348549","","","","","",""
"479","","bandit","175","647893","0.0-137.0-0.0","61354225","wem/bandit_single","A1HN2V46HTHYT5","pain","4","","74","J","1","","0","1","0","","0.3972918561","false","100","","0.2862788702","main_expt","","0.3972918561","","0.03198738169","","0.1856728267","","","","","",""
"1565","","bandit","176","651246","0.0-138.0-0.0","61354225","wem/bandit_single","A1HN2V46HTHYT5","pain","4","","74","J","1","","0","1","0","","0.4064604032","false","101","","0.2622165861","main_expt","","0.4064604032","","0.03387094668","","0.1731032509","","","","","",""
"1676","","bandit","177","654737","0.0-139.0-0.0","61354225","wem/bandit_single","A1HN2V46HTHYT5","pain","4","","74","J","1","","0","1","0","","0.4273413635","false","102","","0.3261799811","main_expt","","0.4273413635","","0.0235124197","","0.1387116465","","","","","",""
"393","","bandit","178","656925","0.0-140.0-0.0","61354225","wem/bandit_single","A1HN2V46HTHYT5","pain","4","","74","J","1","","0","1","0","","0.4566487837","false","103","","0.334814711","main_expt","","0.4566487837","","0.02482610326","","0.1880660303","","","","","",""
"735","","bandit","179","660700","0.0-141.0-0.0","61354225","wem/bandit_single","A1HN2V46HTHYT5","pain","4","","74","J","1","","0","1","0","","0.459539636","false","104","","0.3486298313","main_expt","","0.459539636","","0.03330094042","","0.142060421","","","","","",""
"278","","bandit","180","662830","0.0-142.0-0.0","61354225","wem/bandit_single","A1HN2V46HTHYT5","pain","4","","74","J","1","","0","0","1","","0.4462881264","false","105","","0.3538911629","main_expt","","0.4462881264","","0.06543537915","","0.1839839798","","","","","",""
"42","","bandit","181","664658","0.0-143.0-0.0","61354225","wem/bandit_single","A1HN2V46HTHYT5","pain","4","","74","J","1","","0","0","1","","0.4417011126","false","106","","0.3886974852","main_expt","","0.4417011126","","0.07051160025","","0.1691947451","","","","","",""
"894","","bandit","182","667324","0.0-144.0-0.0","61354225","wem/bandit_single","A1HN2V46HTHYT5","pain","4","","74","J","1","","0","0","1","","0.4419194373","false","107","","0.3489433712","main_expt","","0.4419194373","","0.08830456602","","0.180010917","","","","","",""
"1259","","bandit","183","670356","0.0-145.0-0.0","61354225","wem/bandit_single","A1HN2V46HTHYT5","pain","4","","74","J","1","","0","0","1","","0.4061848383","false","108","","0.3901728218","main_expt","","0.4061848383","","0.05921849724","","0.1338722415","","","","","",""
"526","","bandit","184","672689","0.0-146.0-0.0","61354225","wem/bandit_single","A1HN2V46HTHYT5","pain","4","","74","J","1","","0","0","1","","0.3906669636","false","109","","0.4006799949","main_expt","","0.3906669636","","0.04581125366","","0.1350853679","","","","","",""
"2168","","bandit","185","676626","0.0-147.0-0.0","61354225","wem/bandit_single","A1HN2V46HTHYT5","pain","4","","72","H","0","img/none_selected.jpg","0","0","1","","0.3867714499","false","110","","0.3867714499","main_expt","","0.3969614195","","0.08345510588","","0.184551263","","","","","",""
"541","","bandit","186","678938","0.0-148.0-0.0","61354225","wem/bandit_single","A1HN2V46HTHYT5","pain","4","","72","H","0","img/none_selected.jpg","0","0","1","","0.4252141842","false","111","","0.4252141842","main_expt","","0.370186674","","0.07355878572","","0.2635344293","","","","","",""
"187","","bandit","187","680903","0.0-149.0-0.0","61354225","wem/bandit_single","A1HN2V46HTHYT5","pain","4","","72","H","0","img/none_selected.jpg","0","0","1","","0.4197282726","false","112","","0.4197282726","main_expt","","0.3488043283","","0.09226575929","","0.2972025743","","","","","",""
"223","","bandit","188","682923","0.0-150.0-0.0","61354225","wem/bandit_single","A1HN2V46HTHYT5","pain","4","","72","H","0","img/none_selected.jpg","0","1","0","","0.4371411526","false","113","","0.4371411526","main_expt","","0.2886117592","","0.07711661396","","0.2853398636","","","","","",""
"352","","bandit","189","685042","0.0-151.0-0.0","61354225","wem/bandit_single","A1HN2V46HTHYT5","pain","4","","72","H","0","img/none_selected.jpg","0","1","0","","0.4523407119","false","114","","0.4523407119","main_expt","","0.3507025671","","0.09366406151","","0.2354235092","","","","","",""
"367","","bandit","190","687193","0.0-152.0-0.0","61354225","wem/bandit_single","A1HN2V46HTHYT5","pain","4","","72","H","0","img/none_selected.jpg","0","1","0","","0.4544977282","false","115","","0.4544977282","main_expt","","0.3308051733","","0.09297781317","","0.2228923984","","","","","",""
"308","","bandit","191","689292","0.0-153.0-0.0","61354225","wem/bandit_single","A1HN2V46HTHYT5","pain","4","","72","H","0","img/none_selected.jpg","0","1","0","","0.4458191396","false","116","","0.4458191396","main_expt","","0.2696902145","","0.09292735615","","0.182615248","","","","","",""
"324","","bandit","192","691393","0.0-154.0-0.0","61354225","wem/bandit_single","A1HN2V46HTHYT5","pain","4","","72","H","0","img/none_selected.jpg","0","1","0","","0.4384124693","false","117","","0.4384124693","main_expt","","0.3048340551","","0.1277349031","","0.1702457594","","","","","",""
"297","","bandit","193","693465","0.0-155.0-0.0","61354225","wem/bandit_single","A1HN2V46HTHYT5","pain","4","","72","H","0","img/none_selected.jpg","0","1","0","","0.4590850855","false","118","","0.4590850855","main_expt","","0.2682044258","","0.1057820856","","0.2075823826","","","","","",""
"239","","bandit","194","695473","0.0-156.0-0.0","61354225","wem/bandit_single","A1HN2V46HTHYT5","pain","4","","72","H","0","img/none_selected.jpg","0","1","0","","0.4718937063","false","119","","0.4718937063","main_expt","","0.2314514612","","0.08453932314","","0.2281388084","","","","","",""
"229","","bandit","195","697474","0.0-157.0-0.0","61354225","wem/bandit_single","A1HN2V46HTHYT5","pain","4","","72","H","0","img/none_selected.jpg","0","0","1","","0.4645470247","false","120","","0.4645470247","main_expt","","0.197474053","","0.1106897037","","0.2620651535","","","","","",""
"431","","bandit","196","699678","0.0-158.0-0.0","61354225","wem/bandit_single","A1HN2V46HTHYT5","pain","4","","72","H","0","img/none_selected.jpg","0","1","0","","0.4422277234","false","121","","0.4422277234","main_expt","","0.1819521248","","0.1200625234","","0.2953433235","","","","","",""
"63","","bandit","197","701517","0.0-159.0-0.0","61354225","wem/bandit_single","A1HN2V46HTHYT5","pain","4","","72","H","0","img/none_selected.jpg","0","0","1","","0.4150525319","false","122","","0.4150525319","main_expt","","0.171732915","","0.1570760405","","0.2702367277","","","","","",""
"15","","bandit","198","703302","0.0-160.0-0.0","61354225","wem/bandit_single","A1HN2V46HTHYT5","pain","4","","72","H","0","img/none_selected.jpg","0","0","1","","0.4356762379","false","123","","0.4356762379","main_expt","","0.1577660673","","0.1616024906","","0.3190818872","","","","","",""
"67","","bandit","199","705141","0.0-161.0-0.0","61354225","wem/bandit_single","A1HN2V46HTHYT5","pain","4","","72","H","0","img/none_selected.jpg","0","1","0","","0.4475351861","false","124","","0.4475351861","main_expt","","0.1384195938","","0.1371750093","","0.3415455108","","","","","",""
"1423","","bandit","200","708331","0.0-162.0-0.0","61354225","wem/bandit_single","A1HN2V46HTHYT5","pain","4","","72","H","0","img/none_selected.jpg","0","1","0","","0.4310995666","false","125","","0.4310995666","main_expt","","0.1367208018","","0.1293707667","","0.3955313072","","","","","",""
"117","","bandit","201","710218","0.0-163.0-0.0","61354225","wem/bandit_single","A1HN2V46HTHYT5","pain","4","","72","H","0","img/none_selected.jpg","0","1","0","","0.4246911586","false","126","","0.4246911586","main_expt","","0.14570125","","0.1231453761","","0.4150522509","","","","","",""
"210","","bandit","202","712258","0.0-164.0-0.0","61354225","wem/bandit_single","A1HN2V46HTHYT5","pain","4","","72","H","0","img/none_selected.jpg","0","1","0","","0.3855858577","false","127","","0.3855858577","main_expt","","0.116128816","","0.1044431599","","0.3803228979","","","","","",""
"1375","","bandit","203","715466","0.0-165.0-0.0","61354225","wem/bandit_single","A1HN2V46HTHYT5","pain","4","","72","H","0","img/none_selected.jpg","0","0","1","","0.3886900275","false","128","","0.3886900275","main_expt","","0.1118736017","","0.07509994275","","0.4028097642","","","","","",""
"1052","","bandit","204","719473","0.0-166.0-0.0","61354225","wem/bandit_single","A1HN2V46HTHYT5","pain","4","","72","H","0","img/none_selected.jpg","0","0","1","","0.3712880315","false","129","","0.3712880315","main_expt","","0.1153634536","","0.07499531951","","0.3759087187","","","","","",""
"1120","","bandit","205","722694","0.0-167.0-0.0","61354225","wem/bandit_single","A1HN2V46HTHYT5","pain","4","","72","H","0","img/none_selected.jpg","0","1","0","","0.3163545042","false","130","","0.3163545042","main_expt","","0.09323577747","","0.06898381409","","0.3578404683","","","","","",""
"365","","bandit","206","724844","0.0-168.0-0.0","61354225","wem/bandit_single","A1HN2V46HTHYT5","pain","4","","72","H","0","img/none_selected.jpg","0","1","0","","0.3203759455","false","131","","0.3203759455","main_expt","","0.1064947735","","0.08255272978","","0.3874222675","","","","","",""
"157","","bandit","207","726778","0.0-169.0-0.0","61354225","wem/bandit_single","A1HN2V46HTHYT5","pain","4","","72","H","0","img/none_selected.jpg","0","0","1","","0.3128419263","false","132","","0.3128419263","main_expt","","0.1574274544","","0.06266196304","","0.3773694481","","","","","",""
"288","","bandit","208","728869","0.0-170.0-0.0","61354225","wem/bandit_single","A1HN2V46HTHYT5","pain","4","","72","H","0","img/none_selected.jpg","0","0","1","","0.3057041938","false","133","","0.3057041938","main_expt","","0.1613106331","","0.06584579886","","0.3961249281","","","","","",""
"336","","bandit","209","730975","0.0-171.0-0.0","61354225","wem/bandit_single","A1HN2V46HTHYT5","pain","4","","72","H","0","img/none_selected.jpg","0","0","1","","0.2816585421","false","134","","0.2816585421","main_expt","","0.1660744508","","0.05935363428","","0.4152923946","","","","","",""
"182","","bandit","210","732930","0.0-172.0-0.0","61354225","wem/bandit_single","A1HN2V46HTHYT5","pain","4","","72","H","0","img/none_selected.jpg","0","1","0","","0.2955422992","false","135","","0.2955422992","main_expt","","0.1973964499","","0.05732645975","","0.4424865849","","","","","",""
"339","","bandit","211","735041","0.0-173.0-0.0","61354225","wem/bandit_single","A1HN2V46HTHYT5","pain","4","","72","H","0","img/none_selected.jpg","0","0","1","","0.3509846551","false","136","","0.3509846551","main_expt","","0.1813196928","","0.07342087183","","0.4465543098","","","","","",""
"221","","bandit","212","737042","0.0-174.0-0.0","61354225","wem/bandit_single","A1HN2V46HTHYT5","pain","4","","72","H","0","img/none_selected.jpg","0","0","1","","0.3344410146","false","137","","0.3344410146","main_expt","","0.1859539446","","0.07676045657","","0.4520996047","","","","","",""
"747","","bandit","213","739571","0.0-175.0-0.0","61354225","wem/bandit_single","A1HN2V46HTHYT5","pain","4","","72","H","0","img/none_selected.jpg","0","0","1","","0.2657268636","false","138","","0.2657268636","main_expt","","0.1014888705","","0.09127868582","","0.428300575","","","","","",""
"143","","bandit","214","741487","0.0-176.0-0.0","61354225","wem/bandit_single","A1HN2V46HTHYT5","pain","4","","72","H","0","img/none_selected.jpg","0","1","0","","0.2267955479","false","139","","0.2267955479","main_expt","","0.09034098631","","0.1057771966","","0.419833238","","","","","",""
"376","","bandit","215","743639","0.0-177.0-0.0","61354225","wem/bandit_single","A1HN2V46HTHYT5","pain","4","","72","H","0","img/none_selected.jpg","0","1","0","","0.2278141127","false","140","","0.2278141127","main_expt","","0.09102227313","","0.1134354218","","0.423721229","","","","","",""
"347","","bandit","216","745762","0.0-178.0-0.0","61354225","wem/bandit_single","A1HN2V46HTHYT5","pain","4","","72","H","0","img/none_selected.jpg","0","0","1","","0.23653477","false","141","","0.23653477","main_expt","","0.1095349378","","0.1205694848","","0.4382479885","","","","","",""
"193","","bandit","217","747736","0.0-179.0-0.0","61354225","wem/bandit_single","A1HN2V46HTHYT5","pain","4","","72","H","0","img/none_selected.jpg","0","0","1","","0.2155890047","false","142","","0.2155890047","main_expt","","0.1184068784","","0.1423721259","","0.4247465964","","","","","",""
"180","","bandit","218","749685","0.0-180.0-0.0","61354225","wem/bandit_single","A1HN2V46HTHYT5","pain","4","","72","H","0","img/none_selected.jpg","0","0","1","","0.2203428631","false","143","","0.2203428631","main_expt","","0.1056920569","","0.1199770031","","0.3978340057","","","","","",""
"209","","bandit","219","751667","0.0-181.0-0.0","61354225","wem/bandit_single","A1HN2V46HTHYT5","pain","4","","72","H","0","img/none_selected.jpg","0","0","1","","0.1834171178","false","144","","0.1834171178","main_expt","","0.1563123998","","0.1431068991","","0.4094639435","","","","","",""
"191","","bandit","220","753642","0.0-182.0-0.0","61354225","wem/bandit_single","A1HN2V46HTHYT5","pain","4","","72","H","0","img/none_selected.jpg","0","0","1","","0.2064693802","false","145","","0.2064693802","main_expt","","0.09088636348","","0.1630017245","","0.4198905501","","","","","",""
"2","","bandit","221","755434","0.0-183.0-0.0","61354225","wem/bandit_single","A1HN2V46HTHYT5","pain","4","","72","H","0","img/none_selected.jpg","0","0","1","","0.1342941172","false","146","","0.1342941172","main_expt","","0.0827806059","","0.145034553","","0.4050886303","","","","","",""
"198","","bandit","222","757406","0.0-184.0-0.0","61354225","wem/bandit_single","A1HN2V46HTHYT5","pain","4","","72","H","0","img/none_selected.jpg","0","0","1","","0.1515740161","false","147","","0.1515740161","main_expt","","0.1149215639","","0.1488017726","","0.3785891444","","","","","",""
"1373","","bandit","223","760554","0.0-185.0-0.0","61354225","wem/bandit_single","A1HN2V46HTHYT5","pain","4","","76","L","3","","0","0","1","","0.3854511928","false","148","","0.1212747878","main_expt","","0.1099148444","","0.1582677895","","0.3854511928","","","","","",""
"24","","bandit","224","762354","0.0-186.0-0.0","61354225","wem/bandit_single","A1HN2V46HTHYT5","pain","4","","76","L","3","","0","0","1","","0.3928641012","false","149","","0.08453377975","main_expt","","0.1127327795","","0.1647072654","","0.3928641012","","","","","",""
"1597","","bandit","225","765722","0.0-187.0-0.0","61354225","wem/bandit_single","A1HN2V46HTHYT5","pain","4","","76","L","3","","0","0","1","","0.3981420368","false","150","","0.1060211344","main_expt","","0.1477728786","","0.1333243968","","0.3981420368","","","","","",""
"2497","","bandit","226","769997","0.0-188.0-0.0","61354225","wem/bandit_single","A1HN2V46HTHYT5","pain","4","","76","L","3","","0","0","1","","0.3954234158","false","151","","0.06473992137","main_expt","","0.1634569086","","0.1232516149","","0.3954234158","","","","","",""
"5448","","bandit","227","777226","0.0-189.0-0.0","61354225","wem/bandit_single","A1HN2V46HTHYT5","pain","4","","76","L","3","","0","0","1","","0.3684376671","false","152","","0.07847139908","main_expt","","0.2119786212","","0.1218764731","","0.3684376671","","","","","",""
"32","","bandit","228","779321","0.0-190.0-0.0","61354225","wem/bandit_single","A1HN2V46HTHYT5","pain","4","","76","L","3","","0","0","1","","0.3586265296","false","153","","0.06170083269","main_expt","","0.190815194","","0.1181944444","","0.3586265296","","","","","",""
"460","","bandit","229","781620","0.0-191.0-0.0","61354225","wem/bandit_single","A1HN2V46HTHYT5","pain","4","","76","L","3","","0","0","1","","0.3711835277","false","154","","0.07752027139","main_expt","","0.2539230859","","0.1524072167","","0.3711835277","","","","","",""
"1114","","bandit","230","784517","0.0-192.0-0.0","61354225","wem/bandit_single","A1HN2V46HTHYT5","pain","4","","75","K","2","","0","0","1","","0.2181316645","false","155","","0.07430376846","main_expt","","0.2214647723","","0.2181316645","","0.3296220366","","","","","",""
"2219","","bandit","231","788518","0.0-193.0-0.0","61354225","wem/bandit_single","A1HN2V46HTHYT5","pain","4","","75","K","2","","0","0","1","","0.213475765","false","156","","0.05925504694","main_expt","","0.1812397975","","0.213475765","","0.287903252","","","","","",""
"1381","","bandit","232","791672","0.0-194.0-0.0","61354225","wem/bandit_single","A1HN2V46HTHYT5","pain","4","","75","K","2","","0","0","1","","0.2264995707","false","157","","0.0737155059","main_expt","","0.1447548225","","0.2264995707","","0.296290929","","","","","",""
"2590","","bandit","233","796041","0.0-195.0-0.0","61354225","wem/bandit_single","A1HN2V46HTHYT5","pain","4","","75","K","2","","0","1","0","","0.2991482761","false","158","","0.05755321342","main_expt","","0.1458137519","","0.2991482761","","0.2721348168","","","","","",""
"63","","bandit","234","797886","0.0-196.0-0.0","61354225","wem/bandit_single","A1HN2V46HTHYT5","pain","4","","75","K","2","","0","0","1","","0.3365391658","false","159","","0.1007830752","main_expt","","0.1035755389","","0.3365391658","","0.2765185667","","","","","",""
"460","","bandit","235","800123","0.0-197.0-0.0","61354225","wem/bandit_single","A1HN2V46HTHYT5","pain","4","","75","K","2","","0","1","0","","0.313402929","false","160","","0.06149362121","main_expt","","0.1142027444","","0.313402929","","0.3162688162","","","","","",""
"311","","bandit","236","802207","0.0-198.0-0.0","61354225","wem/bandit_single","A1HN2V46HTHYT5","pain","4","","75","K","2","","0","0","1","","0.3529908654","false","161","","0.09516109007","main_expt","","0.1510988582","","0.3529908654","","0.3302336848","","","","","",""
"296","","bandit","237","804279","0.0-199.0-0.0","61354225","wem/bandit_single","A1HN2V46HTHYT5","pain","4","","75","K","2","","0","1","0","","0.3608295961","false","162","","0.08429007215","main_expt","","0.1720124831","","0.3608295961","","0.3622896815","","","","","",""
"147","","bandit","238","806201","0.0-200.0-0.0","61354225","wem/bandit_single","A1HN2V46HTHYT5","pain","4","","75","K","2","","0","1","0","","0.4197284319","false","163","","0.1199893575","main_expt","","0.2119433459","","0.4197284319","","0.3696580379","","","","","",""
"471","","bandit","239","808443","0.0-201.0-0.0","61354225","wem/bandit_single","A1HN2V46HTHYT5","pain","4","","75","K","2","","0","0","1","","0.4162507976","false","164","","0.1353867718","main_expt","","0.2413639604","","0.4162507976","","0.3217553384","","","","","",""
"344","","bandit","240","810574","0.0-202.0-0.0","61354225","wem/bandit_single","A1HN2V46HTHYT5","pain","4","","75","K","2","","0","1","0","","0.424344073","false","165","","0.08700720397","main_expt","","0.3231443763","","0.424344073","","0.2370356752","","","","","",""
"159","","bandit","241","812514","0.0-203.0-0.0","61354225","wem/bandit_single","A1HN2V46HTHYT5","pain","4","","75","K","2","","0","0","1","","0.4385436022","false","166","","0.09613155095","main_expt","","0.2907209657","","0.4385436022","","0.1952619304","","","","","",""
"298","","bandit","242","814584","0.0-204.0-0.0","61354225","wem/bandit_single","A1HN2V46HTHYT5","pain","4","","75","K","2","","0","0","1","","0.4428370211","false","167","","0.08740230362","main_expt","","0.2386263765","","0.4428370211","","0.2008635704","","","","","",""
"263","","bandit","243","816625","0.0-205.0-0.0","61354225","wem/bandit_single","A1HN2V46HTHYT5","pain","4","","75","K","2","","0","1","0","","0.4475632301","false","168","","0.1033010443","main_expt","","0.2802872421","","0.4475632301","","0.2872582577","","","","","",""
"350","","bandit","244","818756","0.0-206.0-0.0","61354225","wem/bandit_single","A1HN2V46HTHYT5","pain","4","","75","K","2","","0","0","1","","0.4358894507","false","169","","0.1288835215","main_expt","","0.2858578204","","0.4358894507","","0.2478638945","","","","","",""
"877","","bandit","245","821416","0.0-207.0-0.0","61354225","wem/bandit_single","A1HN2V46HTHYT5","pain","4","","75","K","2","","0","1","0","","0.4401344765","false","170","","0.0821831217","main_expt","","0.3542119366","","0.4401344765","","0.2335785199","","","","","",""
"249","","bandit","246","823440","0.0-208.0-0.0","61354225","wem/bandit_single","A1HN2V46HTHYT5","pain","4","","75","K","2","","0","1","0","","0.4182824287","false","171","","0.08448133796","main_expt","","0.363516632","","0.4182824287","","0.263029084","","","","","",""
"1474","","bandit","247","826692","0.0-209.0-0.0","61354225","wem/bandit_single","A1HN2V46HTHYT5","pain","4","","75","K","2","","0","0","1","","0.4206293302","false","172","","0.1142172702","main_expt","","0.3285232471","","0.4206293302","","0.282237019","","","","","",""
"409","","bandit","248","828879","0.0-210.0-0.0","61354225","wem/bandit_single","A1HN2V46HTHYT5","pain","4","","75","K","2","","0","0","1","","0.4424673434","false","173","","0.1585219493","main_expt","","0.3379934215","","0.4424673434","","0.2798091978","","","","","",""
"1882","","bandit","249","832538","0.0-211.0-0.0","61354225","wem/bandit_single","A1HN2V46HTHYT5","pain","4","","75","K","2","","0","0","1","","0.4470793942","false","174","","0.2167008269","main_expt","","0.2937018888","","0.4470793942","","0.2782342077","","","","","",""
"1152","","bandit","250","835467","0.0-212.0-0.0","61354225","wem/bandit_single","A1HN2V46HTHYT5","pain","4","","75","K","2","","0","1","0","","0.4466152725","false","175","","0.2564405216","main_expt","","0.2691073907","","0.4466152725","","0.3095951925","","","","","",""
"258","","bandit","251","837502","0.0-213.0-0.0","61354225","wem/bandit_single","A1HN2V46HTHYT5","pain","4","","75","K","2","","0","0","1","","0.4622816701","false","176","","0.2740916264","main_expt","","0.2797966768","","0.4622816701","","0.3149167583","","","","","",""
"2901","","bandit","252","842276","0.0-214.0-0.0","61354225","wem/bandit_single","A1HN2V46HTHYT5","pain","4","","75","K","2","","0","1","0","","0.4791174255","false","177","","0.2701885048","main_expt","","0.2956207272","","0.4791174255","","0.3057016371","","","","","",""
"2985","","bandit","253","847065","0.0-215.0-0.0","61354225","wem/bandit_single","A1HN2V46HTHYT5","pain","4","","75","K","2","","0","0","1","","0.4878404122","false","178","","0.2525299603","main_expt","","0.2903749226","","0.4878404122","","0.2973749651","","","","","",""
"1567","","bandit","254","850422","0.0-216.0-0.0","61354225","wem/bandit_single","A1HN2V46HTHYT5","pain","4","","75","K","2","","0","0","1","","0.4871204803","false","179","","0.2923151224","main_expt","","0.2324022499","","0.4871204803","","0.3205080684","","","","","",""
"2831","","bandit","255","855028","0.0-217.0-0.0","61354225","wem/bandit_single","A1HN2V46HTHYT5","pain","4","","75","K","2","","0","0","1","","0.4783768728","false","180","","0.2712435876","main_expt","","0.157369965","","0.4783768728","","0.3668921479","","","","","",""
"2230","","bandit","256","859041","0.0-218.0-0.0","61354225","wem/bandit_single","A1HN2V46HTHYT5","pain","4","","75","K","2","","0","1","0","","0.4791844977","false","181","","0.2911825171","main_expt","","0.1928111427","","0.4791844977","","0.36743573","","","","","",""
"2612","","bandit","257","863434","0.0-219.0-0.0","61354225","wem/bandit_single","A1HN2V46HTHYT5","pain","4","","75","K","2","","0","0","1","","0.4796326775","false","182","","0.2812290194","main_expt","","0.1831473083","","0.4796326775","","0.3444330154","","","","","",""
"1173","","bandit","258","866394","0.0-220.0-0.0","61354225","wem/bandit_single","A1HN2V46HTHYT5","pain","4","","75","K","2","","0","1","0","","0.4610412729","false","183","","0.2998653002","main_expt","","0.1367876881","","0.4610412729","","0.376594699","","","","","",""
"191","","bandit","259","868359","0.0-221.0-0.0","61354225","wem/bandit_single","A1HN2V46HTHYT5","pain","4","","75","K","2","","0","0","1","","0.4654872089","false","184","","0.3019566185","main_expt","","0.1225312115","","0.4654872089","","0.3576767422","","","","","",""
"232","","bandit","260","870362","0.0-222.0-0.0","61354225","wem/bandit_single","A1HN2V46HTHYT5","pain","4","","75","K","2","","0","0","1","","0.4579605539","false","185","","0.3297019868","main_expt","","0.1342014861","","0.4579605539","","0.3420219295","","","","","",""
"227","","bandit","261","872359","0.0-223.0-0.0","61354225","wem/bandit_single","A1HN2V46HTHYT5","pain","4","","75","K","2","","0","0","1","","0.4285966985","false","186","","0.3522504082","main_expt","","0.1302900424","","0.4285966985","","0.3398722127","","","","","",""
"512","","bandit","262","874648","0.0-224.0-0.0","61354225","wem/bandit_single","A1HN2V46HTHYT5","pain","4","","75","K","2","","0","0","1","","0.4348535533","false","187","","0.3716798598","main_expt","","0.1721475048","","0.4348535533","","0.3329123812","","","","","",""
"1030","","bandit","263","877450","0.0-225.0-0.0","61354225","wem/bandit_single","A1HN2V46HTHYT5","pain","4","","74","J","1","","0","0","1","","0.194848396","false","188","","0.3516931858","main_expt","","0.194848396","","0.4485299143","","0.3185375489","","","","","",""
"281","","bandit","264","879528","0.0-226.0-0.0","61354225","wem/bandit_single","A1HN2V46HTHYT5","pain","4","","74","J","1","","0","1","0","","0.2010474049","false","189","","0.311825216","main_expt","","0.2010474049","","0.4108460603","","0.2819885058","","","","","",""
"302","","bandit","265","881612","0.0-227.0-0.0","61354225","wem/bandit_single","A1HN2V46HTHYT5","pain","4","","74","J","1","","0","1","0","","0.2388592571","false","190","","0.3228194114","main_expt","","0.2388592571","","0.4276881046","","0.2938453289","","","","","",""
"198","","bandit","266","883587","0.0-228.0-0.0","61354225","wem/bandit_single","A1HN2V46HTHYT5","pain","4","","74","J","1","","0","0","1","","0.2125939305","false","191","","0.3070679034","main_expt","","0.2125939305","","0.4252680513","","0.3252392313","","","","","",""
"255","","bandit","267","885622","0.0-229.0-0.0","61354225","wem/bandit_single","A1HN2V46HTHYT5","pain","4","","74","J","1","","0","0","1","","0.2494953747","false","192","","0.3224985291","main_expt","","0.2494953747","","0.4128843357","","0.2886148476","","","","","",""
"157","","bandit","268","887556","0.0-230.0-0.0","61354225","wem/bandit_single","A1HN2V46HTHYT5","pain","4","","74","J","1","","0","0","1","","0.2831479201","false","193","","0.3869795439","main_expt","","0.2831479201","","0.3935422506","","0.2985788169","","","","","",""
"69","","bandit","269","889400","0.0-231.0-0.0","61354225","wem/bandit_single","A1HN2V46HTHYT5","pain","4","","74","J","1","","0","1","0","","0.3119862296","false","194","","0.4012627402","main_expt","","0.3119862296","","0.3844836544","","0.2480640489","","","","","",""
"200","","bandit","270","891376","0.0-232.0-0.0","61354225","wem/bandit_single","A1HN2V46HTHYT5","pain","4","","74","J","1","","0","0","1","","0.3216729489","false","195","","0.3984750166","main_expt","","0.3216729489","","0.3676726872","","0.2512767584","","","","","",""
"194","","bandit","271","893352","0.0-233.0-0.0","61354225","wem/bandit_single","A1HN2V46HTHYT5","pain","4","","74","J","1","","0","1","0","","0.3321806914","false","196","","0.354698241","main_expt","","0.3321806914","","0.3789354293","","0.2465093633","","","","","",""
"150","","bandit","272","895275","0.0-234.0-0.0","61354225","wem/bandit_single","A1HN2V46HTHYT5","pain","4","","74","J","1","","0","0","1","","0.3046277309","false","197","","0.388220233","main_expt","","0.3046277309","","0.3163718389","","0.2064088789","","","","","",""
"212","","bandit","273","897259","0.0-235.0-0.0","61354225","wem/bandit_single","A1HN2V46HTHYT5","pain","4","","74","J","1","","0","0","1","","0.2780350238","false","198","","0.3702696144","main_expt","","0.2780350238","","0.3791854339","","0.1991167995","","","","","",""
"324","","bandit","274","899967","0.0-236.0-0.0","61354225","wem/bandit_single","A1HN2V46HTHYT5","pain","4","","74","J","1","","0","0","1","","0.2933352516","false","199","","0.3901406761","main_expt","","0.2933352516","","0.3677616307","","0.217931059","","","","","",""
"257","","bandit","275","902005","0.0-237.0-0.0","61354225","wem/bandit_single","A1HN2V46HTHYT5","pain","4","","74","J","1","","0","1","0","","0.2826656477","false","200","","0.3606677237","main_expt","","0.2826656477","","0.3696360463","","0.1684289921","","","","","",""
"152","","bandit","276","903929","0.0-238.0-0.0","61354225","wem/bandit_single","A1HN2V46HTHYT5","pain","4","","74","J","1","","0","0","1","","0.2337361703","false","201","","0.3608273241","main_expt","","0.2337361703","","0.3685313937","","0.1526494416","","","","","",""
"164","","bandit","277","905866","0.0-239.0-0.0","61354225","wem/bandit_single","A1HN2V46HTHYT5","pain","4","","74","J","1","","0","0","1","","0.1697000529","false","202","","0.3495453025","main_expt","","0.1697000529","","0.354480527","","0.1474087426","","","","","",""
"9","","bandit","278","907662","0.0-240.0-0.0","61354225","wem/bandit_single","A1HN2V46HTHYT5","pain","4","","74","J","1","","0","0","1","","0.1941246875","false","203","","0.3660628182","main_expt","","0.1941246875","","0.3420940801","","0.1499100939","","","","","",""
"377","","bandit","279","909812","0.0-241.0-0.0","61354225","wem/bandit_single","A1HN2V46HTHYT5","pain","4","","74","J","1","","0","0","1","","0.2006574904","false","204","","0.337040125","main_expt","","0.2006574904","","0.3365711719","","0.173155318","","","","","",""
"179","","bandit","280","911778","0.0-242.0-0.0","61354225","wem/bandit_single","A1HN2V46HTHYT5","pain","4","","74","J","1","","0","0","1","","0.1905393187","false","205","","0.303371863","main_expt","","0.1905393187","","0.3517226909","","0.1813441082","","","","","",""
"57","","bandit","281","913612","0.0-243.0-0.0","61354225","wem/bandit_single","A1HN2V46HTHYT5","pain","4","","74","J","1","","0","0","1","","0.1715448013","false","206","","0.256221391","main_expt","","0.1715448013","","0.3476038752","","0.1491413167","","","","","",""
"191","","bandit","282","915584","0.0-244.0-0.0","61354225","wem/bandit_single","A1HN2V46HTHYT5","pain","4","","74","J","1","","0","0","1","","0.1857981004","false","207","","0.2368802791","main_expt","","0.1857981004","","0.3349551135","","0.08847738283","","","","","",""
"733","","bandit","283","918096","0.0-245.0-0.0","61354225","wem/bandit_single","A1HN2V46HTHYT5","pain","4","","76","L","3","","0","0","1","","0.1283817583","false","208","","0.1949321076","main_expt","","0.2102455122","","0.342580335","","0.1283817583","","","","","",""
"171","","bandit","284","920058","0.0-246.0-0.0","61354225","wem/bandit_single","A1HN2V46HTHYT5","pain","4","","76","L","3","","0","0","1","","0.116273769","false","209","","0.1838736563","main_expt","","0.2400108979","","0.3043768385","","0.116273769","","","","","",""
"86","","bandit","285","921950","0.0-247.0-0.0","61354225","wem/bandit_single","A1HN2V46HTHYT5","pain","4","","76","L","3","","0","0","1","","0.1255054793","false","210","","0.2021797606","main_expt","","0.2756077388","","0.2578785415","","0.1255054793","","","","","",""
"292","","bandit","286","924025","0.0-248.0-0.0","61354225","wem/bandit_single","A1HN2V46HTHYT5","pain","4","","76","L","3","","0","0","1","","0.1183517879","false","211","","0.1724183734","main_expt","","0.2509099491","","0.2684152162","","0.1183517879","","","","","",""
"30","","bandit","287","925835","0.0-249.0-0.0","61354225","wem/bandit_single","A1HN2V46HTHYT5","pain","4","","76","L","3","","0","0","1","","0.05794836862","false","212","","0.1730984207","main_expt","","0.1980821896","","0.2734791169","","0.05794836862","","","","","",""
"3509","","bandit","288","931118","0.0-250.0-0.0","61354225","wem/bandit_single","A1HN2V46HTHYT5","pain","4","","72","H","0","img/none_selected.jpg","0","0","1","","0.1324166562","false","213","","0.1324166562","main_expt","","0.1925164192","","0.2278558496","","0.05975327623","","","","","",""
"7573","","bandit","289","940463","0.0-251.0-0.0","61354225","wem/bandit_single","A1HN2V46HTHYT5","pain","4","","72","H","0","img/none_selected.jpg","0","0","1","","0.1503769339","false","214","","0.1503769339","main_expt","","0.2265747235","","0.3028606466","","0.08438277685","","","","","",""
"2560","","bandit","290","944796","0.0-252.0-0.0","61354225","wem/bandit_single","A1HN2V46HTHYT5","pain","4","","72","H","0","img/none_selected.jpg","0","0","1","","0.1957560139","false","215","","0.1957560139","main_expt","","0.2019374621","","0.2931323275","","0.06249742642","","","","","",""
"122","","bandit","291","946697","0.0-253.0-0.0","61354225","wem/bandit_single","A1HN2V46HTHYT5","pain","4","","72","H","0","img/none_selected.jpg","0","0","1","","0.2405167914","false","216","","0.2405167914","main_expt","","0.1789305456","","0.3496422565","","0.03962767808","","","","","",""
"10552","","bandit","292","960358","0.0-254.0-0.0","61354225","wem/bandit_single","A1HN2V46HTHYT5","pain","4","","72","H","0","img/none_selected.jpg","0","0","1","","0.1730494568","false","217","","0.1730494568","main_expt","","0.1749198907","","0.3773047798","","0.04234009702","","","","","",""
"2060","","bandit","293","964199","0.0-255.0-0.0","61354225","wem/bandit_single","A1HN2V46HTHYT5","pain","4","","72","H","0","img/none_selected.jpg","0","1","0","","0.194438436","false","218","","0.194438436","main_expt","","0.1735363699","","0.3416605923","","0.03503126556","","","","","",""
"168","","bandit","294","966151","0.0-256.0-0.0","61354225","wem/bandit_single","A1HN2V46HTHYT5","pain","4","","72","H","0","img/none_selected.jpg","0","0","1","","0.1883779435","false","219","","0.1883779435","main_expt","","0.2007391453","","0.3559276739","","0.04555228435","","","","","",""
"378","","bandit","295","968305","0.0-257.0-0.0","61354225","wem/bandit_single","A1HN2V46HTHYT5","pain","4","","72","H","0","img/none_selected.jpg","0","0","1","","0.146052069","false","220","","0.146052069","main_expt","","0.2082644318","","0.3535435837","","0.03183460319","","","","","",""
"391","","bandit","296","970472","0.0-258.0-0.0","61354225","wem/bandit_single","A1HN2V46HTHYT5","pain","4","","72","H","0","img/none_selected.jpg","0","0","1","","0.1494285134","false","221","","0.1494285134","main_expt","","0.1821586712","","0.3418709783","","0.05071015327","","","","","",""
"940","","bandit","297","973186","0.0-259.0-0.0","61354225","wem/bandit_single","A1HN2V46HTHYT5","pain","4","","72","H","0","img/none_selected.jpg","0","0","1","","0.182387278","false","222","","0.182387278","main_expt","","0.2158533928","","0.3004905908","","0.04027023507","","","","","",""
"456","","bandit","298","975420","0.0-260.0-0.0","61354225","wem/bandit_single","A1HN2V46HTHYT5","pain","4","","72","H","0","img/none_selected.jpg","0","1","0","","0.198140534","false","223","","0.198140534","main_expt","","0.1832968935","","0.3691689592","","0.05247893246","","","","","",""
"495","","bandit","299","977782","0.0-261.0-0.0","61354225","wem/bandit_single","A1HN2V46HTHYT5","pain","4","","72","H","0","img/none_selected.jpg","0","0","1","","0.1957066115","false","224","","0.1957066115","main_expt","","0.1701073256","","0.2915556832","","0.06352932029","","","","","",""
"313","","bandit","300","979922","0.0-262.0-0.0","61354225","wem/bandit_single","A1HN2V46HTHYT5","pain","4","","72","H","0","img/none_selected.jpg","0","0","1","","0.2132826896","false","225","","0.2132826896","main_expt","","0.1599508429","","0.3175642321","","0.04388745626","","","","","",""
"353","","bandit","301","982185","0.0-263.0-0.0","61354225","wem/bandit_single","A1HN2V46HTHYT5","pain","4","","72","H","0","img/none_selected.jpg","0","1","0","","0.2679811769","false","226","","0.2679811769","main_expt","","0.1801289829","","0.2803716623","","0.0536624769","","","","","",""
"355","","bandit","302","984320","0.0-264.0-0.0","61354225","wem/bandit_single","A1HN2V46HTHYT5","pain","4","","72","H","0","img/none_selected.jpg","0","0","1","","0.2101601544","false","227","","0.2101601544","main_expt","","0.1920788888","","0.2506224893","","0.07211167966","","","","","",""
"10","","bandit","303","986145","0.0-265.0-0.0","61354225","wem/bandit_single","A1HN2V46HTHYT5","pain","4","","72","H","0","img/none_selected.jpg","0","0","1","","0.1808571688","false","228","","0.1808571688","main_expt","","0.1540575712","","0.2890404278","","0.04486621846","","","","","",""
"784","","bandit","304","988737","0.0-266.0-0.0","61354225","wem/bandit_single","A1HN2V46HTHYT5","pain","4","","72","H","0","img/none_selected.jpg","0","1","0","","0.1132309001","false","229","","0.1132309001","main_expt","","0.161449161","","0.2746035793","","0.05387953984","","","","","",""
"4840","","bandit","305","995353","0.0-267.0-0.0","61354225","wem/bandit_single","A1HN2V46HTHYT5","pain","4","","72","H","0","img/none_selected.jpg","0","0","1","","0.1450818377","false","230","","0.1450818377","main_expt","","0.1413021421","","0.282726532","","0.03848872117","","","","","",""
"17881","","bandit","306","1015016","0.0-268.0-0.0","61354225","wem/bandit_single","A1HN2V46HTHYT5","pain","4","","72","H","0","img/none_selected.jpg","0","0","1","","0.1077137685","false","231","","0.1077137685","main_expt","","0.1745796094","","0.3472256411","","0.04669383004","","","","","",""
"882","","bandit","307","1017864","0.0-269.0-0.0","61354225","wem/bandit_single","A1HN2V46HTHYT5","pain","4","","72","H","0","img/none_selected.jpg","0","0","1","","0.06427161289","false","232","","0.06427161289","main_expt","","0.1680880834","","0.3994934702","","0.03395804074","","","","","",""
"442","","bandit","308","1021718","0.0-270.0-0.0","61354225","wem/bandit_single","A1HN2V46HTHYT5","pain","4","","72","H","0","img/none_selected.jpg","0","0","1","","0.1060089469","false","233","","0.1060089469","main_expt","","0.213250795","","0.4029083043","","0.05150109453","","","","","",""
"10","","bandit","309","1023504","0.0-271.0-0.0","61354225","wem/bandit_single","A1HN2V46HTHYT5","pain","4","","72","H","0","img/none_selected.jpg","0","0","1","","0.1117154146","false","234","","0.1117154146","main_expt","","0.221091899","","0.4486287737","","0.06099663442","","","","","",""
"508","","bandit","310","1025797","0.0-272.0-0.0","61354225","wem/bandit_single","A1HN2V46HTHYT5","pain","4","","72","H","0","img/none_selected.jpg","0","0","1","","0.1276115887","false","235","","0.1276115887","main_expt","","0.2688923835","","0.4561120354","","0.05202127711","","","","","",""
"828","","bandit","311","1028399","0.0-273.0-0.0","61354225","wem/bandit_single","A1HN2V46HTHYT5","pain","4","","74","J","1","","0","0","1","","0.2323123402","false","236","","0.1786916187","main_expt","","0.2323123402","","0.4375102443","","0.07001303924","","","","","",""
"5268","","bandit","312","1035447","0.0-274.0-0.0","61354225","wem/bandit_single","A1HN2V46HTHYT5","pain","4","","74","J","1","","0","1","0","","0.174764536","false","237","","0.1896980961","main_expt","","0.174764536","","0.4582573195","","0.07602679398","","","","","",""
"795","","bandit","313","1038012","0.0-275.0-0.0","61354225","wem/bandit_single","A1HN2V46HTHYT5","pain","4","","74","J","1","","0","0","1","","0.1654919337","false","238","","0.2205101014","main_expt","","0.1654919337","","0.4463811869","","0.08775462142","","","","","",""
"831","","bandit","314","1040650","0.0-276.0-0.0","61354225","wem/bandit_single","A1HN2V46HTHYT5","pain","4","","74","J","1","","0","0","1","","0.2402574844","false","239","","0.2661717939","main_expt","","0.2402574844","","0.4507479662","","0.06721086637","","","","","",""
"290","","bandit","315","1042745","0.0-277.0-0.0","61354225","wem/bandit_single","A1HN2V46HTHYT5","pain","4","","74","J","1","","0","0","1","","0.2445968751","false","240","","0.1972661282","main_expt","","0.2445968751","","0.4504038859","","0.07433064979","","","","","",""
"233","","bandit","316","1044756","0.0-278.0-0.0","61354225","wem/bandit_single","A1HN2V46HTHYT5","pain","4","","74","J","1","","0","0","1","","0.2708632627","false","241","","0.1868253343","main_expt","","0.2708632627","","0.4346931185","","0.08919714094","","","","","",""
"207","","bandit","317","1046900","0.0-279.0-0.0","61354225","wem/bandit_single","A1HN2V46HTHYT5","pain","4","","74","J","1","","0","0","1","","0.2047807489","false","242","","0.1649449253","main_expt","","0.2047807489","","0.3898892773","","0.06159770715","","","","","",""
"101","","bandit","318","1048779","0.0-280.0-0.0","61354225","wem/bandit_single","A1HN2V46HTHYT5","pain","4","","74","J","1","","0","1","0","","0.222122474","false","243","","0.184368772","main_expt","","0.222122474","","0.4033463229","","0.05299296545","","","","","",""
"264","","bandit","319","1050822","0.0-281.0-0.0","61354225","wem/bandit_single","A1HN2V46HTHYT5","pain","4","","74","J","1","","0","0","1","","0.2425992204","false","244","","0.2121467569","main_expt","","0.2425992204","","0.4096532456","","0.06275569833","","","","","",""
"221","","bandit","320","1052825","0.0-282.0-0.0","61354225","wem/bandit_single","A1HN2V46HTHYT5","pain","4","","74","J","1","","0","1","0","","0.2173978931","false","245","","0.1894702338","main_expt","","0.2173978931","","0.3779527256","","0.06673215917","","","","","",""
"125","","bandit","321","1054759","0.0-283.0-0.0","61354225","wem/bandit_single","A1HN2V46HTHYT5","pain","4","","74","J","1","","0","0","1","","0.2218069129","false","246","","0.2018459735","main_expt","","0.2218069129","","0.3953318503","","0.06500670021","","","","","",""
"756","","bandit","322","1057317","0.0-284.0-0.0","61354225","wem/bandit_single","A1HN2V46HTHYT5","pain","4","","74","J","1","","0","1","0","","0.1888628326","false","247","","0.1986179994","main_expt","","0.1888628326","","0.4287890539","","0.07271559664","","","","","",""
"194","","bandit","323","1059287","0.0-285.0-0.0","61354225","wem/bandit_single","A1HN2V46HTHYT5","pain","4","","74","J","1","","0","0","1","","0.1722509531","false","248","","0.1299779064","main_expt","","0.1722509531","","0.4104310255","","0.09654775784","","","","","",""
"25970","","bandit","324","1087055","0.0-286.0-0.0","61354225","wem/bandit_single","A1HN2V46HTHYT5","pain","4","","76","L","3","","0","0","1","","0.1179039307","false","249","","0.1590650881","main_expt","","0.2541205998","","0.4116337798","","0.1179039307","","","","","",""
"148","","bandit","325","1088980","0.0-287.0-0.0","61354225","wem/bandit_single","A1HN2V46HTHYT5","pain","4","","76","L","3","","0","0","1","","0.1265890049","false","250","","0.1213614167","main_expt","","0.2664885101","","0.426505214","","0.1265890049","","","","","",""
"3836","","bandit","326","1094597","0.0-288.0-0.0","61354225","wem/bandit_single","A1HN2V46HTHYT5","pain","4","","76","L","3","","0","0","1","","0.1039398773","false","251","","0.1099334476","main_expt","","0.2519669898","","0.3949293487","","0.1039398773","","","","","",""
"619","","bandit","327","1096993","0.0-289.0-0.0","61354225","wem/bandit_single","A1HN2V46HTHYT5","pain","4","","76","L","3","","0","0","1","","0.107940897","false","252","","0.1087011898","main_expt","","0.2932098873","","0.3913077142","","0.107940897","","","","","",""
"683","","bandit","328","1099451","0.0-290.0-0.0","61354225","wem/bandit_single","A1HN2V46HTHYT5","pain","4","","76","L","3","","0","0","1","","0.1136461566","false","253","","0.09397011719","main_expt","","0.3179249839","","0.3648650894","","0.1136461566","","","","","",""
"669","","bandit","329","1101891","0.0-291.0-0.0","61354225","wem/bandit_single","A1HN2V46HTHYT5","pain","4","","76","L","3","","0","0","1","","0.1374631792","false","254","","0.08474648857","main_expt","","0.2908620441","","0.3452883024","","0.1374631792","","","","","",""
"376","","bandit","330","1104061","0.0-292.0-0.0","61354225","wem/bandit_single","A1HN2V46HTHYT5","pain","4","","76","L","3","","0","0","1","","0.1453945637","false","255","","0.1025854271","main_expt","","0.3067265453","","0.2943306686","","0.1453945637","","","","","",""
"7370","","bandit","331","1113240","0.0-293.0-0.0","61354225","wem/bandit_single","A1HN2V46HTHYT5","pain","4","","76","L","3","","0","0","1","","0.1543600678","false","256","","0.08686152536","main_expt","","0.3133222149","","0.3225000795","","0.1543600678","","","","","",""
"151","","bandit","332","1115190","0.0-294.0-0.0","61354225","wem/bandit_single","A1HN2V46HTHYT5","pain","4","","76","L","3","","0","0","1","","0.107160473","false","257","","0.08667022303","main_expt","","0.3194106209","","0.3199750271","","0.107160473","","","","","",""
"3832","","bandit","333","1120800","0.0-295.0-0.0","61354225","wem/bandit_single","A1HN2V46HTHYT5","pain","4","","76","L","3","","0","1","0","","0.0567043194","false","258","","0.1158580788","main_expt","","0.35032938","","0.355105101","","0.0567043194","","","","","",""
"1354","","bandit","334","1123968","0.0-296.0-0.0","61354225","wem/bandit_single","A1HN2V46HTHYT5","pain","4","","76","L","3","","0","0","1","","0.05418204449","false","259","","0.08241329339","main_expt","","0.3856615787","","0.3566572827","","0.05418204449","","","","","",""
"640","","bandit","335","1126417","0.0-297.0-0.0","61354225","wem/bandit_single","A1HN2V46HTHYT5","pain","4","","76","L","3","","0","0","1","","0.0423658587","false","260","","0.09346186364","main_expt","","0.3977147975","","0.3492833521","","0.0423658587","","","","","",""
"377","","bandit","336","1128573","0.0-298.0-0.0","61354225","wem/bandit_single","A1HN2V46HTHYT5","pain","4","","76","L","3","","0","0","1","","0.08097208102","false","261","","0.07434745577","main_expt","","0.4011116255","","0.3406934897","","0.08097208102","","","","","",""
"5336","","bandit","337","1135685","0.0-299.0-0.0","61354225","wem/bandit_single","A1HN2V46HTHYT5","pain","4","","76","L","3","","0","0","1","","0.05731993864","false","262","","0.1177047137","main_expt","","0.4149706566","","0.3604065233","","0.05731993864","","","","","",""
"3715","","bandit","338","1141204","0.0-300.0-0.0","61354225","wem/bandit_single","A1HN2V46HTHYT5","pain","4","","76","L","3","","0","0","1","","0.07314079116","false","263","","0.09530987449","main_expt","","0.4476629791","","0.3584147688","","0.07314079116","","","","","",""
"3066","","bandit","339","1146050","0.0-301.0-0.0","61354225","wem/bandit_single","A1HN2V46HTHYT5","pain","4","","75","K","2","","0","0","1","","0.3723043834","false","264","","0.07595610255","main_expt","","0.4640453953","","0.3723043834","","0.08382102311","","","","","",""
"33204","","bandit","340","1181057","0.0-302.0-0.0","61354225","wem/bandit_single","A1HN2V46HTHYT5","pain","4","","76","L","3","","0","0","1","","0.1065624759","false","265","","0.08850347459","main_expt","","0.4465377191","","0.316280577","","0.1065624759","","","","","",""
"290","","bandit","341","1183151","0.0-303.0-0.0","61354225","wem/bandit_single","A1HN2V46HTHYT5","pain","4","","76","L","3","","0","0","1","","0.1253885588","false","266","","0.1215706641","main_expt","","0.4183068553","","0.269287162","","0.1253885588","","","","","",""
"128","","bandit","342","1185055","0.0-304.0-0.0","61354225","wem/bandit_single","A1HN2V46HTHYT5","pain","4","","76","L","3","","0","0","1","","0.09016252172","false","267","","0.1841144129","main_expt","","0.4268145795","","0.2280314931","","0.09016252172","","","","","",""
"195","","bandit","343","1187032","0.0-305.0-0.0","61354225","wem/bandit_single","A1HN2V46HTHYT5","pain","4","","76","L","3","","0","0","1","","0.08700052181","false","268","","0.1409141681","main_expt","","0.4319202891","","0.2243604643","","0.08700052181","","","","","",""
"106","","bandit","344","1188918","0.0-306.0-0.0","61354225","wem/bandit_single","A1HN2V46HTHYT5","pain","4","","76","L","3","","0","0","1","","0.09500676271","false","269","","0.1011197226","main_expt","","0.4493038861","","0.2334807581","","0.09500676271","","","","","",""
"94","","bandit","345","1190788","0.0-307.0-0.0","61354225","wem/bandit_single","A1HN2V46HTHYT5","pain","4","","76","L","3","","0","0","1","","0.07607499825","false","270","","0.118556502","main_expt","","0.443059266","","0.2376518603","","0.07607499825","","","","","",""
"702","","bandit","346","1193265","0.0-308.0-0.0","61354225","wem/bandit_single","A1HN2V46HTHYT5","pain","4","","72","H","0","img/none_selected.jpg","0","0","1","","0.131750931","false","271","","0.131750931","main_expt","","0.4362671961","","0.2139372972","","0.08946946819","","","","","",""
"114","","bandit","347","1195166","0.0-309.0-0.0","61354225","wem/bandit_single","A1HN2V46HTHYT5","pain","4","","72","H","0","img/none_selected.jpg","0","0","1","","0.174678733","false","272","","0.174678733","main_expt","","0.4452199348","","0.157688628","","0.108288805","","","","","",""
"96","","bandit","348","1197073","0.0-310.0-0.0","61354225","wem/bandit_single","A1HN2V46HTHYT5","pain","4","","72","H","0","img/none_selected.jpg","0","1","0","","0.1730415972","false","273","","0.1730415972","main_expt","","0.454652927","","0.271098703","","0.105491008","","","","","",""
"35","","bandit","349","1199589","0.0-311.0-0.0","61354225","wem/bandit_single","A1HN2V46HTHYT5","pain","4","","72","H","0","img/none_selected.jpg","0","0","1","","0.1520576313","false","274","","0.1520576313","main_expt","","0.4646374989","","0.2778056479","","0.1059149547","","","","","",""
"359","","bandit","350","1201727","0.0-312.0-0.0","61354225","wem/bandit_single","A1HN2V46HTHYT5","pain","4","","72","H","0","img/none_selected.jpg","0","1","0","","0.1007060326","false","275","","0.1007060326","main_expt","","0.4535579815","","0.2698457611","","0.09894283875","","","","","",""
"171","","bandit","351","1203680","0.0-313.0-0.0","61354225","wem/bandit_single","A1HN2V46HTHYT5","pain","4","","72","H","0","img/none_selected.jpg","0","0","1","","0.08844777519","false","276","","0.08844777519","main_expt","","0.4319407295","","0.2774836338","","0.07695295732","","","","","",""
"181","","bandit","352","1205637","0.0-314.0-0.0","61354225","wem/bandit_single","A1HN2V46HTHYT5","pain","4","","72","H","0","img/none_selected.jpg","0","0","1","","0.1315613084","false","277","","0.1315613084","main_expt","","0.4475260374","","0.3222794015","","0.0896712608","","","","","",""
"63","","bandit","353","1207480","0.0-315.0-0.0","61354225","wem/bandit_single","A1HN2V46HTHYT5","pain","4","","72","H","0","img/none_selected.jpg","0","1","0","","0.1508492864","false","278","","0.1508492864","main_expt","","0.4553849104","","0.3122447371","","0.1343695578","","","","","",""
"196","","bandit","354","1209454","0.0-316.0-0.0","61354225","wem/bandit_single","A1HN2V46HTHYT5","pain","4","","72","H","0","img/none_selected.jpg","0","1","0","","0.1181182825","false","279","","0.1181182825","main_expt","","0.4621871954","","0.2934764685","","0.1106050404","","","","","",""
"103","","bandit","355","1211334","0.0-317.0-0.0","61354225","wem/bandit_single","A1HN2V46HTHYT5","pain","4","","72","H","0","img/none_selected.jpg","0","0","1","","0.1244803533","false","280","","0.1244803533","main_expt","","0.4482597109","","0.290984208","","0.114105974","","","","","",""
"92","","bandit","356","1213205","0.0-318.0-0.0","61354225","wem/bandit_single","A1HN2V46HTHYT5","pain","4","","72","H","0","img/none_selected.jpg","0","0","1","","0.105821284","false","281","","0.105821284","main_expt","","0.4347423019","","0.2974260948","","0.1246337516","","","","","",""
"112","","bandit","357","1215116","0.0-319.0-0.0","61354225","wem/bandit_single","A1HN2V46HTHYT5","pain","4","","72","H","0","img/none_selected.jpg","0","0","1","","0.1562468179","false","282","","0.1562468179","main_expt","","0.4583393623","","0.2972171025","","0.079988156","","","","","",""
"185","","bandit","358","1217073","0.0-320.0-0.0","61354225","wem/bandit_single","A1HN2V46HTHYT5","pain","4","","72","H","0","img/none_selected.jpg","0","0","1","","0.1478322318","false","283","","0.1478322318","main_expt","","0.4497532375","","0.2821487798","","0.06901380195","","","","","",""
"98","","bandit","359","1218951","0.0-321.0-0.0","61354225","wem/bandit_single","A1HN2V46HTHYT5","pain","4","","72","H","0","img/none_selected.jpg","0","0","1","","0.1371678423","false","284","","0.1371678423","main_expt","","0.4312811421","","0.2739939459","","0.05901051183","","","","","",""
"86","","bandit","360","1220813","0.0-322.0-0.0","61354225","wem/bandit_single","A1HN2V46HTHYT5","pain","4","","72","H","0","img/none_selected.jpg","0","0","1","","0.12762277","false","285","","0.12762277","main_expt","","0.4599346403","","0.2251097973","","0.1126944794","","","","","",""
"265","","bandit","361","1222855","0.0-323.0-0.0","61354225","wem/bandit_single","A1HN2V46HTHYT5","pain","4","","72","H","0","img/none_selected.jpg","0","0","1","","0.1587978561","false","286","","0.1587978561","main_expt","","0.4588450488","","0.2124690726","","0.09646131279","","","","","",""
"96","","bandit","362","1224738","0.0-324.0-0.0","61354225","wem/bandit_single","A1HN2V46HTHYT5","pain","4","","72","H","0","img/none_selected.jpg","0","0","1","","0.1262084743","false","287","","0.1262084743","main_expt","","0.4684539465","","0.2311163105","","0.0795853072","","","","","",""
"122","","bandit","363","1226640","0.0-325.0-0.0","61354225","wem/bandit_single","A1HN2V46HTHYT5","pain","4","","72","H","0","img/none_selected.jpg","0","0","1","","0.08849331384","false","288","","0.08849331384","main_expt","","0.4555823871","","0.2178761709","","0.07210460151","","","","","",""
"158","","bandit","364","1228576","0.0-326.0-0.0","61354225","wem/bandit_single","A1HN2V46HTHYT5","pain","4","","72","H","0","img/none_selected.jpg","0","0","1","","0.1082793638","false","289","","0.1082793638","main_expt","","0.4779982095","","0.2656120211","","0.08807043944","","","","","",""
"441","","bandit","365","1230790","0.0-327.0-0.0","61354225","wem/bandit_single","A1HN2V46HTHYT5","pain","4","","74","J","1","","0","0","1","","0.4806691972","false","290","","0.1591187351","main_expt","","0.4806691972","","0.2756957417","","0.09097769709","","","","","",""
"25","","bandit","366","1232593","0.0-328.0-0.0","61354225","wem/bandit_single","A1HN2V46HTHYT5","pain","4","","74","J","1","","0","1","0","","0.4856322508","false","291","","0.1766493085","main_expt","","0.4856322508","","0.3111580235","","0.1486720085","","","","","",""
"140","","bandit","367","1234541","0.0-329.0-0.0","61354225","wem/bandit_single","A1HN2V46HTHYT5","pain","4","","74","J","1","","0","1","0","","0.4905538215","false","292","","0.1303677554","main_expt","","0.4905538215","","0.3019137931","","0.166368556","","","","","",""
"172","","bandit","368","1236513","0.0-330.0-0.0","61354225","wem/bandit_single","A1HN2V46HTHYT5","pain","4","","74","J","1","","0","0","1","","0.4915741327","false","293","","0.1553518032","main_expt","","0.4915741327","","0.2930542664","","0.1516979355","","","","","",""
"87","","bandit","369","1238401","0.0-331.0-0.0","61354225","wem/bandit_single","A1HN2V46HTHYT5","pain","4","","74","J","1","","0","1","0","","0.4854109815","false","294","","0.1586445557","main_expt","","0.4854109815","","0.294566814","","0.142642289","","","","","",""
"65","","bandit","370","1240248","0.0-332.0-0.0","61354225","wem/bandit_single","A1HN2V46HTHYT5","pain","4","","74","J","1","","0","0","1","","0.4737464351","false","295","","0.1474370852","main_expt","","0.4737464351","","0.2590601899","","0.1038045902","","","","","",""
"762","","bandit","371","1242840","0.0-333.0-0.0","61354225","wem/bandit_single","A1HN2V46HTHYT5","pain","4","","74","J","1","","0","0","1","","0.4752126994","false","296","","0.1281429101","main_expt","","0.4752126994","","0.260130188","","0.1055366566","","","","","",""
