"rt","responses","trial_type","trial_index","time_elapsed","internal_node_id","subjID","study","MID","cond","drift","key_press","respCharCode","respKey","respChoiceNum","respChoice","gems","bombs","no_reward","GemPrChosen","BombPrChosen","practice","trial_counter","WinPr_0","LosePr_0","trial_label","WinPr_1","LosePr_1","WinPr_2","LosePr_2","WinPr_3","LosePr_3","Q0","Q1","Q2","gender","age","ethnicity"
"63374","{""Q0"":""A3L2UB07EZJAMD""}","survey-text","0","63381","0.0-0.0","62553348","wem/bandit_single","A3L2UB07EZJAMD","gain","8","","","","","","","","","","","","","","","","","","","","","","","","","","",""
"1666","","text","1","66056","0.0-1.0","62553348","wem/bandit_single","A3L2UB07EZJAMD","gain","8","32","","","","","","","","","","","","","","","","","","","","","","","","","",""
"4932","","text","2","70992","0.0-2.0","62553348","wem/bandit_single","A3L2UB07EZJAMD","gain","8","32","","","","","","","","","","","","","","","","","","","","","","","","","",""
"14372","","text","3","85368","0.0-3.0","62553348","wem/bandit_single","A3L2UB07EZJAMD","gain","8","32","","","","","","","","","","","","","","","","","","","","","","","","","",""
"16729","","text","4","102102","0.0-4.0","62553348","wem/bandit_single","A3L2UB07EZJAMD","gain","8","32","","","","","","","","","","","","","","","","","","","","","","","","","",""
"6756","","text","5","108862","0.0-5.0","62553348","wem/bandit_single","A3L2UB07EZJAMD","gain","8","32","","","","","","","","","","","","","","","","","","","","","","","","","",""
"4471","","text","6","113336","0.0-6.0","62553348","wem/bandit_single","A3L2UB07EZJAMD","gain","8","32","","","","","","","","","","","","","","","","","","","","","","","","","",""
"3218","","text","7","116555","0.0-7.0","62553348","wem/bandit_single","A3L2UB07EZJAMD","gain","8","32","","","","","","","","","","","","","","","","","","","","","","","","","",""
"3047","","text","8","119604","0.0-8.0","62553348","wem/bandit_single","A3L2UB07EZJAMD","gain","8","32","","","","","","","","","","","","","","","","","","","","","","","","","",""
"2094","","text","9","121703","0.0-9.0","62553348","wem/bandit_single","A3L2UB07EZJAMD","gain","8","32","","","","","","","","","","","","","","","","","","","","","","","","","",""
"4538","","text","10","126246","0.0-10.0","62553348","wem/bandit_single","A3L2UB07EZJAMD","gain","8","32","","","","","","","","","","","","","","","","","","","","","","","","","",""
"4122","","text","11","130372","0.0-11.0","62553348","wem/bandit_single","A3L2UB07EZJAMD","gain","8","32","","","","","","","","","","","","","","","","","","","","","","","","","",""
"2099","","bandit","12","133986","0.0-12.0-0.0","62553348","wem/bandit_single","A3L2UB07EZJAMD","gain","8","","74","J","0","img/none_selected_demo.jpg","0","0","1","0","0","true","0","0","0","","","","","","","","","","","","",""
"1237","","bandit","13","136988","0.0-13.0-0.0","62553348","wem/bandit_single","A3L2UB07EZJAMD","gain","8","","75","K","0","img/none_selected_demo.jpg","0","0","1","0","0","true","0","0","0","","","","","","","","","","","","",""
"2071","","text","14","139317","0.0-14.0","62553348","wem/bandit_single","A3L2UB07EZJAMD","gain","8","32","","","","","","","","","","","","","","","","","","","","","","","","","",""
"1572","","text","15","140893","0.0-15.0","62553348","wem/bandit_single","A3L2UB07EZJAMD","gain","8","32","","","","","","","","","","","","","","","","","","","","","","","","","",""
"2699","","text","16","143597","0.0-16.0","62553348","wem/bandit_single","A3L2UB07EZJAMD","gain","8","32","","","","","","","","","","","","","","","","","","","","","","","","","",""
"2492","","text","17","146092","0.0-17.0","62553348","wem/bandit_single","A3L2UB07EZJAMD","gain","8","32","","","","","","","","","","","","","","","","","","","","","","","","","",""
"1949","","bandit","18","149561","0.0-18.0-0.0","62553348","wem/bandit_single","A3L2UB07EZJAMD","gain","8","","75","K","1","","1","0","0","0.2","0","true","0","0.8","0","80_20_practice","0.2","0","","","","","","","","","",""
"1702","","bandit","19","153027","0.0-18.0-1.0","62553348","wem/bandit_single","A3L2UB07EZJAMD","gain","8","","75","K","1","","0","0","1","0.2","0","true","0","0.8","0","80_20_practice","0.2","0","","","","","","","","","",""
"552","","bandit","20","155348","0.0-18.0-2.0","62553348","wem/bandit_single","A3L2UB07EZJAMD","gain","8","","75","K","1","","0","0","1","0.2","0","true","0","0.8","0","80_20_practice","0.2","0","","","","","","","","","",""
"433","","bandit","21","157549","0.0-18.0-3.0","62553348","wem/bandit_single","A3L2UB07EZJAMD","gain","8","","74","J","0","img/none_selected_demo.jpg","1","0","0","0.8","0","true","0","0.8","0","80_20_practice","0.2","0","","","","","","","","","",""
"179","","bandit","22","159513","0.0-18.0-4.0","62553348","wem/bandit_single","A3L2UB07EZJAMD","gain","8","","74","J","0","img/none_selected_demo.jpg","0","0","1","0.8","0","true","0","0.8","0","80_20_practice","0.2","0","","","","","","","","","",""
"215","","bandit","23","161496","0.0-18.0-5.0","62553348","wem/bandit_single","A3L2UB07EZJAMD","gain","8","","74","J","0","img/none_selected_demo.jpg","1","0","0","0.8","0","true","0","0.8","0","80_20_practice","0.2","0","","","","","","","","","",""
"320","","bandit","24","163587","0.0-18.0-6.0","62553348","wem/bandit_single","A3L2UB07EZJAMD","gain","8","","74","J","0","img/none_selected_demo.jpg","1","0","0","0.8","0","true","0","0.8","0","80_20_practice","0.2","0","","","","","","","","","",""
"472","","bandit","25","165848","0.0-18.0-7.0","62553348","wem/bandit_single","A3L2UB07EZJAMD","gain","8","","74","J","0","img/none_selected_demo.jpg","1","0","0","0.8","0","true","0","0.8","0","80_20_practice","0.2","0","","","","","","","","","",""
"457","","bandit","26","168074","0.0-18.0-8.0","62553348","wem/bandit_single","A3L2UB07EZJAMD","gain","8","","74","J","0","img/none_selected_demo.jpg","1","0","0","0.8","0","true","0","0.8","0","80_20_practice","0.2","0","","","","","","","","","",""
"96","","bandit","27","169956","0.0-18.0-9.0","62553348","wem/bandit_single","A3L2UB07EZJAMD","gain","8","","74","J","0","img/none_selected_demo.jpg","1","0","0","0.8","0","true","0","0.8","0","80_20_practice","0.2","0","","","","","","","","","",""
"71","","bandit","28","171802","0.0-18.0-10.0","62553348","wem/bandit_single","A3L2UB07EZJAMD","gain","8","","74","J","0","img/none_selected_demo.jpg","1","0","0","0.8","0","true","0","0.8","0","80_20_practice","0.2","0","","","","","","","","","",""
"95","","bandit","29","173689","0.0-18.0-11.0","62553348","wem/bandit_single","A3L2UB07EZJAMD","gain","8","","74","J","0","img/none_selected_demo.jpg","0","0","1","0.8","0","true","0","0.8","0","80_20_practice","0.2","0","","","","","","","","","",""
"78","","bandit","30","175539","0.0-18.0-12.0","62553348","wem/bandit_single","A3L2UB07EZJAMD","gain","8","","74","J","0","img/none_selected_demo.jpg","1","0","0","0.8","0","true","0","0.8","0","80_20_practice","0.2","0","","","","","","","","","",""
"173","","bandit","31","177486","0.0-18.0-13.0","62553348","wem/bandit_single","A3L2UB07EZJAMD","gain","8","","74","J","0","img/none_selected_demo.jpg","1","0","0","0.8","0","true","0","0.8","0","80_20_practice","0.2","0","","","","","","","","","",""
"194","","bandit","32","179469","0.0-18.0-14.0","62553348","wem/bandit_single","A3L2UB07EZJAMD","gain","8","","74","J","0","img/none_selected_demo.jpg","1","0","0","0.8","0","true","0","0.8","0","80_20_practice","0.2","0","","","","","","","","","",""
"59","","bandit","33","181328","0.0-18.0-15.0","62553348","wem/bandit_single","A3L2UB07EZJAMD","gain","8","","74","J","0","img/none_selected_demo.jpg","1","0","0","0.8","0","true","0","0.8","0","80_20_practice","0.2","0","","","","","","","","","",""
"9","","bandit","34","183108","0.0-18.0-16.0","62553348","wem/bandit_single","A3L2UB07EZJAMD","gain","8","","74","J","0","img/none_selected_demo.jpg","1","0","0","0.8","0","true","0","0.8","0","80_20_practice","0.2","0","","","","","","","","","",""
"2041","","bandit","35","186945","0.0-18.0-17.0","62553348","wem/bandit_single","A3L2UB07EZJAMD","gain","8","","74","J","0","img/none_selected_demo.jpg","1","0","0","0.8","0","true","0","0.8","0","80_20_practice","0.2","0","","","","","","","","","",""
"61","","bandit","36","188774","0.0-18.0-18.0","62553348","wem/bandit_single","A3L2UB07EZJAMD","gain","8","","74","J","0","img/none_selected_demo.jpg","1","0","0","0.8","0","true","0","0.8","0","80_20_practice","0.2","0","","","","","","","","","",""
"35","","bandit","37","190592","0.0-18.0-19.0","62553348","wem/bandit_single","A3L2UB07EZJAMD","gain","8","","74","J","0","img/none_selected_demo.jpg","1","0","0","0.8","0","true","0","0.8","0","80_20_practice","0.2","0","","","","","","","","","",""
"4306","","text","38","195155","0.0-19.0","62553348","wem/bandit_single","A3L2UB07EZJAMD","gain","8","32","","","","","","","","","","","","","","","","","","","","","","","","","",""
"1552","","bandit","39","198231","0.0-20.0-0.0","62553348","wem/bandit_single","A3L2UB07EZJAMD","gain","8","","74","J","0","img/none_selected_demo.jpg","0","0","1","0","0","true","0","0","0","","0","0","","","","","","","","","",""
"3476","","text","40","201976","0.0-21.0","62553348","wem/bandit_single","A3L2UB07EZJAMD","gain","8","32","","","","","","","","","","","","","","","","","","","","","","","","","",""
"2012","","text","41","203994","0.0-22.0","62553348","wem/bandit_single","A3L2UB07EZJAMD","gain","8","32","","","","","","","","","","","","","","","","","","","","","","","","","",""
"2086","","text","42","206082","0.0-23.0","62553348","wem/bandit_single","A3L2UB07EZJAMD","gain","8","32","","","","","","","","","","","","","","","","","","","","","","","","","",""
"2126","","text","43","208212","0.0-24.0","62553348","wem/bandit_single","A3L2UB07EZJAMD","gain","8","32","","","","","","","","","","","","","","","","","","","","","","","","","",""
"8230","","text","44","216450","0.0-25.0","62553348","wem/bandit_single","A3L2UB07EZJAMD","gain","8","32","","","","","","","","","","","","","","","","","","","","","","","","","",""
"3178","","text","45","219635","0.0-26.0","62553348","wem/bandit_single","A3L2UB07EZJAMD","gain","8","32","","","","","","","","","","","","","","","","","","","","","","","","","",""
"5081","","text","46","224721","0.0-27.0","62553348","wem/bandit_single","A3L2UB07EZJAMD","gain","8","32","","","","","","","","","","","","","","","","","","","","","","","","","",""
"2341","","text","47","227065","0.0-28.0","62553348","wem/bandit_single","A3L2UB07EZJAMD","gain","8","32","","","","","","","","","","","","","","","","","","","","","","","","","",""
"3945","","text","48","231019","0.0-29.0","62553348","wem/bandit_single","A3L2UB07EZJAMD","gain","8","32","","","","","","","","","","","","","","","","","","","","","","","","","",""
"1760","","text","49","232787","0.0-30.0","62553348","wem/bandit_single","A3L2UB07EZJAMD","gain","8","32","","","","","","","","","","","","","","","","","","","","","","","","","",""
"1904","","text","50","234698","0.0-31.0","62553348","wem/bandit_single","A3L2UB07EZJAMD","gain","8","32","","","","","","","","","","","","","","","","","","","","","","","","","",""
"1832","","bandit","51","238044","0.0-32.0-0.0","62553348","wem/bandit_single","A3L2UB07EZJAMD","gain","8","","72","H","0","img/none_selected.jpg","1","0","0","0.8","0","true","0","0.8","0","full_practice","0.2","0","0.6","0","0.2","0","","","","","",""
"104","","bandit","52","239919","0.0-32.0-1.0","62553348","wem/bandit_single","A3L2UB07EZJAMD","gain","8","","72","H","0","img/none_selected.jpg","1","0","0","0.8","0","true","0","0.8","0","full_practice","0.2","0","0.6","0","0.2","0","","","","","",""
"47","","bandit","53","241753","0.0-32.0-2.0","62553348","wem/bandit_single","A3L2UB07EZJAMD","gain","8","","72","H","0","img/none_selected.jpg","1","0","0","0.8","0","true","0","0.8","0","full_practice","0.2","0","0.6","0","0.2","0","","","","","",""
"30","","bandit","54","243552","0.0-32.0-3.0","62553348","wem/bandit_single","A3L2UB07EZJAMD","gain","8","","72","H","0","img/none_selected.jpg","1","0","0","0.8","0","true","0","0.8","0","full_practice","0.2","0","0.6","0","0.2","0","","","","","",""
"37","","bandit","55","245357","0.0-32.0-4.0","62553348","wem/bandit_single","A3L2UB07EZJAMD","gain","8","","72","H","0","img/none_selected.jpg","1","0","0","0.8","0","true","0","0.8","0","full_practice","0.2","0","0.6","0","0.2","0","","","","","",""
"53","","bandit","56","247189","0.0-32.0-5.0","62553348","wem/bandit_single","A3L2UB07EZJAMD","gain","8","","72","H","0","img/none_selected.jpg","1","0","0","0.8","0","true","0","0.8","0","full_practice","0.2","0","0.6","0","0.2","0","","","","","",""
"61","","bandit","57","249039","0.0-32.0-6.0","62553348","wem/bandit_single","A3L2UB07EZJAMD","gain","8","","72","H","0","img/none_selected.jpg","1","0","0","0.8","0","true","0","0.8","0","full_practice","0.2","0","0.6","0","0.2","0","","","","","",""
"1281","","bandit","58","252107","0.0-32.0-7.0","62553348","wem/bandit_single","A3L2UB07EZJAMD","gain","8","","72","H","0","img/none_selected.jpg","1","0","0","0.8","0","true","0","0.8","0","full_practice","0.2","0","0.6","0","0.2","0","","","","","",""
"124","","bandit","59","253996","0.0-32.0-8.0","62553348","wem/bandit_single","A3L2UB07EZJAMD","gain","8","","72","H","0","img/none_selected.jpg","1","0","0","0.8","0","true","0","0.8","0","full_practice","0.2","0","0.6","0","0.2","0","","","","","",""
"6","","bandit","60","255773","0.0-32.0-9.0","62553348","wem/bandit_single","A3L2UB07EZJAMD","gain","8","","72","H","0","img/none_selected.jpg","1","0","0","0.8","0","true","0","0.8","0","full_practice","0.2","0","0.6","0","0.2","0","","","","","",""
"57","","bandit","61","257614","0.0-32.0-10.0","62553348","wem/bandit_single","A3L2UB07EZJAMD","gain","8","","72","H","0","img/none_selected.jpg","1","0","0","0.8","0","true","0","0.8","0","full_practice","0.2","0","0.6","0","0.2","0","","","","","",""
"62","","bandit","62","259447","0.0-32.0-11.0","62553348","wem/bandit_single","A3L2UB07EZJAMD","gain","8","","72","H","0","img/none_selected.jpg","1","0","0","0.8","0","true","0","0.8","0","full_practice","0.2","0","0.6","0","0.2","0","","","","","",""
"122","","bandit","63","261352","0.0-32.0-12.0","62553348","wem/bandit_single","A3L2UB07EZJAMD","gain","8","","72","H","0","img/none_selected.jpg","1","0","0","0.8","0","true","0","0.8","0","full_practice","0.2","0","0.6","0","0.2","0","","","","","",""
"20","","bandit","64","263143","0.0-32.0-13.0","62553348","wem/bandit_single","A3L2UB07EZJAMD","gain","8","","72","H","0","img/none_selected.jpg","1","0","0","0.8","0","true","0","0.8","0","full_practice","0.2","0","0.6","0","0.2","0","","","","","",""
"29","","bandit","65","264944","0.0-32.0-14.0","62553348","wem/bandit_single","A3L2UB07EZJAMD","gain","8","","72","H","0","img/none_selected.jpg","1","0","0","0.8","0","true","0","0.8","0","full_practice","0.2","0","0.6","0","0.2","0","","","","","",""
"833","","bandit","66","267551","0.0-32.0-15.0","62553348","wem/bandit_single","A3L2UB07EZJAMD","gain","8","","72","H","0","img/none_selected.jpg","1","0","0","0.8","0","true","0","0.8","0","full_practice","0.2","0","0.6","0","0.2","0","","","","","",""
"692","","bandit","67","270039","0.0-32.0-16.0","62553348","wem/bandit_single","A3L2UB07EZJAMD","gain","8","","72","H","0","img/none_selected.jpg","1","0","0","0.8","0","true","0","0.8","0","full_practice","0.2","0","0.6","0","0.2","0","","","","","",""
"91","","bandit","68","271901","0.0-32.0-17.0","62553348","wem/bandit_single","A3L2UB07EZJAMD","gain","8","","72","H","0","img/none_selected.jpg","1","0","0","0.8","0","true","0","0.8","0","full_practice","0.2","0","0.6","0","0.2","0","","","","","",""
"63","","bandit","69","273732","0.0-32.0-18.0","62553348","wem/bandit_single","A3L2UB07EZJAMD","gain","8","","72","H","0","img/none_selected.jpg","1","0","0","0.8","0","true","0","0.8","0","full_practice","0.2","0","0.6","0","0.2","0","","","","","",""
"43","","bandit","70","275557","0.0-32.0-19.0","62553348","wem/bandit_single","A3L2UB07EZJAMD","gain","8","","72","H","0","img/none_selected.jpg","1","0","0","0.8","0","true","0","0.8","0","full_practice","0.2","0","0.6","0","0.2","0","","","","","",""
"2046","","text","71","277864","0.0-33.0","62553348","wem/bandit_single","A3L2UB07EZJAMD","gain","8","32","","","","","","","","","","","","","","","","","","","","","","","","","",""
"8177","","text","72","287052","0.0-34.0","62553348","wem/bandit_single","A3L2UB07EZJAMD","gain","8","32","","","","","","","","","","","","","","","","","","","","","","","","","",""
"5754","","text","73","292813","0.0-35.0","62553348","wem/bandit_single","A3L2UB07EZJAMD","gain","8","32","","","","","","","","","","","","","","","","","","","","","","","","","",""
"4846","","text","74","297663","0.0-36.0","62553348","wem/bandit_single","A3L2UB07EZJAMD","gain","8","32","","","","","","","","","","","","","","","","","","","","","","","","","",""
"4286","","text","75","301959","0.0-37.0","62553348","wem/bandit_single","A3L2UB07EZJAMD","gain","8","32","","","","","","","","","","","","","","","","","","","","","","","","","",""
"1265","","bandit","76","304746","0.0-38.0-0.0","62553348","wem/bandit_single","A3L2UB07EZJAMD","gain","8","","72","H","0","img/none_selected.jpg","0","0","1","0.4519399214","","false","1","0.4519399214","","main_expt","0.2895646149","","0.461186604","","0.2726752288","","","","","","",""
"114","","bandit","77","306628","0.0-39.0-0.0","62553348","wem/bandit_single","A3L2UB07EZJAMD","gain","8","","72","H","0","img/none_selected.jpg","1","0","0","0.4414774062","","false","2","0.4414774062","","main_expt","0.3162770887","","0.4745384616","","0.2373300031","","","","","","",""
"76","","bandit","78","308478","0.0-40.0-0.0","62553348","wem/bandit_single","A3L2UB07EZJAMD","gain","8","","72","H","0","img/none_selected.jpg","0","0","1","0.4248782664","","false","3","0.4248782664","","main_expt","0.3445892231","","0.476270309","","0.2268539811","","","","","","",""
"522","","bandit","79","310791","0.0-41.0-0.0","62553348","wem/bandit_single","A3L2UB07EZJAMD","gain","8","","74","J","1","","0","0","1","0.318720175","","false","4","0.3797460064","","main_expt","0.318720175","","0.4750198572","","0.2312911009","","","","","","",""
"807","","bandit","80","313365","0.0-42.0-0.0","62553348","wem/bandit_single","A3L2UB07EZJAMD","gain","8","","74","J","1","","0","0","1","0.2768356494","","false","5","0.3747955817","","main_expt","0.2768356494","","0.4711191004","","0.1875260819","","","","","","",""
"718","","bandit","81","315869","0.0-43.0-0.0","62553348","wem/bandit_single","A3L2UB07EZJAMD","gain","8","","75","K","2","","1","0","0","0.4561500297","","false","6","0.3434652127","","main_expt","0.2660169375","","0.4561500297","","0.190272436","","","","","","",""
"76","","bandit","82","317718","0.0-44.0-0.0","62553348","wem/bandit_single","A3L2UB07EZJAMD","gain","8","","75","K","2","","1","0","0","0.4549462182","","false","7","0.3450192323","","main_expt","0.3364590491","","0.4549462182","","0.1912500229","","","","","","",""
"30","","bandit","83","319523","0.0-45.0-0.0","62553348","wem/bandit_single","A3L2UB07EZJAMD","gain","8","","75","K","2","","1","0","0","0.4738433377","","false","8","0.3319287687","","main_expt","0.2814314702","","0.4738433377","","0.2317086102","","","","","","",""
"566","","bandit","84","321852","0.0-46.0-0.0","62553348","wem/bandit_single","A3L2UB07EZJAMD","gain","8","","75","K","2","","0","0","1","0.4719526371","","false","9","0.3592879842","","main_expt","0.172204453","","0.4719526371","","0.2732709622","","","","","","",""
"196","","bandit","85","323824","0.0-47.0-0.0","62553348","wem/bandit_single","A3L2UB07EZJAMD","gain","8","","75","K","2","","0","0","1","0.4102917743","","false","10","0.4119036765","","main_expt","0.1714760066","","0.4102917743","","0.2369361721","","","","","","",""
"369","","bandit","86","325956","0.0-48.0-0.0","62553348","wem/bandit_single","A3L2UB07EZJAMD","gain","8","","76","L","3","","0","0","1","0.2428480584","","false","11","0.440335537","","main_expt","0.1477319919","","0.4247485268","","0.2428480584","","","","","","",""
"97","","bandit","87","327822","0.0-49.0-0.0","62553348","wem/bandit_single","A3L2UB07EZJAMD","gain","8","","76","L","3","","1","0","0","0.3127978045","","false","12","0.4198069009","","main_expt","0.1195530135","","0.3805001106","","0.3127978045","","","","","","",""
"61","","bandit","88","329655","0.0-50.0-0.0","62553348","wem/bandit_single","A3L2UB07EZJAMD","gain","8","","76","L","3","","0","0","1","0.3411181312","","false","13","0.4095272681","","main_expt","0.1097065617","","0.3922463094","","0.3411181312","","","","","","",""
"34","","bandit","89","331453","0.0-51.0-0.0","62553348","wem/bandit_single","A3L2UB07EZJAMD","gain","8","","76","L","3","","1","0","0","0.3547490374","","false","14","0.4393311008","","main_expt","0.1146709003","","0.3385893542","","0.3547490374","","","","","","",""
"33","","bandit","90","333252","0.0-52.0-0.0","62553348","wem/bandit_single","A3L2UB07EZJAMD","gain","8","","76","L","3","","1","0","0","0.3447780093","","false","15","0.4232641195","","main_expt","0.105598426","","0.2580729479","","0.3447780093","","","","","","",""
"54","","bandit","91","335077","0.0-53.0-0.0","62553348","wem/bandit_single","A3L2UB07EZJAMD","gain","8","","76","L","3","","0","0","1","0.3451486401","","false","16","0.408879381","","main_expt","0.1085338479","","0.3126944558","","0.3451486401","","","","","","",""
"425","","bandit","92","337281","0.0-54.0-0.0","62553348","wem/bandit_single","A3L2UB07EZJAMD","gain","8","","75","K","2","","1","0","0","0.3693960878","","false","17","0.376774317","","main_expt","0.1267686316","","0.3693960878","","0.3788599072","","","","","","",""
"400","","bandit","93","339455","0.0-55.0-0.0","62553348","wem/bandit_single","A3L2UB07EZJAMD","gain","8","","75","K","2","","0","0","1","0.3881723811","","false","18","0.4245824949","","main_expt","0.2161611973","","0.3881723811","","0.3977159439","","","","","","",""
"603","","bandit","94","341832","0.0-56.0-0.0","62553348","wem/bandit_single","A3L2UB07EZJAMD","gain","8","","72","H","0","img/none_selected.jpg","1","0","0","0.4391895307","","false","19","0.4391895307","","main_expt","0.2028493804","","0.3762380044","","0.3885232362","","","","","","",""
"514","","bandit","95","344119","0.0-57.0-0.0","62553348","wem/bandit_single","A3L2UB07EZJAMD","gain","8","","72","H","0","img/none_selected.jpg","1","0","0","0.4621127774","","false","20","0.4621127774","","main_expt","0.2258994585","","0.3842023068","","0.3985462001","","","","","","",""
"56","","bandit","96","345953","0.0-58.0-0.0","62553348","wem/bandit_single","A3L2UB07EZJAMD","gain","8","","72","H","0","img/none_selected.jpg","0","0","1","0.4621164646","","false","21","0.4621164646","","main_expt","0.1591174119","","0.3509270449","","0.349749023","","","","","","",""
"65","","bandit","97","347791","0.0-59.0-0.0","62553348","wem/bandit_single","A3L2UB07EZJAMD","gain","8","","72","H","0","img/none_selected.jpg","0","0","1","0.4347396303","","false","22","0.4347396303","","main_expt","0.1526874152","","0.3777441782","","0.3437713834","","","","","","",""
"325","","bandit","98","349887","0.0-60.0-0.0","62553348","wem/bandit_single","A3L2UB07EZJAMD","gain","8","","75","K","2","","1","0","0","0.3799964268","","false","23","0.43496863","","main_expt","0.1461335862","","0.3799964268","","0.3608333873","","","","","","",""
"71","","bandit","99","351726","0.0-61.0-0.0","62553348","wem/bandit_single","A3L2UB07EZJAMD","gain","8","","75","K","2","","0","0","1","0.4097073291","","false","24","0.43684491","","main_expt","0.194032511","","0.4097073291","","0.3832767268","","","","","","",""
"346","","bandit","100","353837","0.0-62.0-0.0","62553348","wem/bandit_single","A3L2UB07EZJAMD","gain","8","","74","J","1","","1","0","0","0.1913779305","","false","25","0.3785768995","","main_expt","0.1913779305","","0.4196977393","","0.3839685871","","","","","","",""
"45","","bandit","101","355669","0.0-63.0-0.0","62553348","wem/bandit_single","A3L2UB07EZJAMD","gain","8","","74","J","1","","0","0","1","0.2830828826","","false","26","0.3754964585","","main_expt","0.2830828826","","0.3798545817","","0.3871157951","","","","","","",""
"37","","bandit","102","357490","0.0-64.0-0.0","62553348","wem/bandit_single","A3L2UB07EZJAMD","gain","8","","74","J","1","","0","0","1","0.3268824087","","false","27","0.3964499655","","main_expt","0.3268824087","","0.3531061786","","0.4093540125","","","","","","",""
"78","","bandit","103","359337","0.0-65.0-0.0","62553348","wem/bandit_single","A3L2UB07EZJAMD","gain","8","","75","K","2","","0","0","1","0.3327392046","","false","28","0.4243602908","","main_expt","0.3092871108","","0.3327392046","","0.3781829904","","","","","","",""
"46","","bandit","104","361149","0.0-66.0-0.0","62553348","wem/bandit_single","A3L2UB07EZJAMD","gain","8","","75","K","2","","1","0","0","0.2799969064","","false","29","0.4296462108","","main_expt","0.299803321","","0.2799969064","","0.3633234486","","","","","","",""
"63","","bandit","105","362997","0.0-67.0-0.0","62553348","wem/bandit_single","A3L2UB07EZJAMD","gain","8","","75","K","2","","0","0","1","0.225268033","","false","30","0.4442153724","","main_expt","0.3318792252","","0.225268033","","0.395486831","","","","","","",""
"641","","bandit","106","365410","0.0-68.0-0.0","62553348","wem/bandit_single","A3L2UB07EZJAMD","gain","8","","76","L","3","","0","0","1","0.353932484","","false","31","0.4425075274","","main_expt","0.3274080626","","0.2195205817","","0.353932484","","","","","","",""
"85","","bandit","107","367275","0.0-69.0-0.0","62553348","wem/bandit_single","A3L2UB07EZJAMD","gain","8","","76","L","3","","0","0","1","0.3902442546","","false","32","0.4038806219","","main_expt","0.3233555863","","0.2569702332","","0.3902442546","","","","","","",""
"253","","bandit","108","369314","0.0-70.0-0.0","62553348","wem/bandit_single","A3L2UB07EZJAMD","gain","8","","72","H","0","img/none_selected.jpg","1","0","0","0.4283701542","","false","33","0.4283701542","","main_expt","0.3836123675","","0.2914027765","","0.3727342875","","","","","","",""
"389","","bandit","109","371478","0.0-71.0-0.0","62553348","wem/bandit_single","A3L2UB07EZJAMD","gain","8","","72","H","0","img/none_selected.jpg","0","0","1","0.4332078231","","false","34","0.4332078231","","main_expt","0.4200589335","","0.2667004126","","0.3940120807","","","","","","",""
"266","","bandit","110","373514","0.0-72.0-0.0","62553348","wem/bandit_single","A3L2UB07EZJAMD","gain","8","","72","H","0","img/none_selected.jpg","1","0","0","0.3861361583","","false","35","0.3861361583","","main_expt","0.4280145355","","0.3112773703","","0.3682756201","","","","","","",""
"35","","bandit","111","375340","0.0-73.0-0.0","62553348","wem/bandit_single","A3L2UB07EZJAMD","gain","8","","72","H","0","img/none_selected.jpg","1","0","0","0.3176889815","","false","36","0.3176889815","","main_expt","0.3696194815","","0.3158013471","","0.4136743311","","","","","","",""
"38","","bandit","112","377146","0.0-74.0-0.0","62553348","wem/bandit_single","A3L2UB07EZJAMD","gain","8","","72","H","0","img/none_selected.jpg","0","0","1","0.3333355096","","false","37","0.3333355096","","main_expt","0.3567242832","","0.3348696363","","0.449594317","","","","","","",""
"30","","bandit","113","378947","0.0-75.0-0.0","62553348","wem/bandit_single","A3L2UB07EZJAMD","gain","8","","72","H","0","img/none_selected.jpg","1","0","0","0.3613286773","","false","38","0.3613286773","","main_expt","0.3139752797","","0.2967031697","","0.4427192246","","","","","","",""
"35","","bandit","114","380757","0.0-76.0-0.0","62553348","wem/bandit_single","A3L2UB07EZJAMD","gain","8","","72","H","0","img/none_selected.jpg","0","0","1","0.3354588101","","false","39","0.3354588101","","main_expt","0.2884672813","","0.2816090282","","0.4375360897","","","","","","",""
"57","","bandit","115","382583","0.0-77.0-0.0","62553348","wem/bandit_single","A3L2UB07EZJAMD","gain","8","","72","H","0","img/none_selected.jpg","1","0","0","0.4044898685","","false","40","0.4044898685","","main_expt","0.3253538103","","0.2900329111","","0.452648821","","","","","","",""
"51","","bandit","116","384416","0.0-78.0-0.0","62553348","wem/bandit_single","A3L2UB07EZJAMD","gain","8","","75","K","2","","0","0","1","0.3160732104","","false","41","0.3615903795","","main_expt","0.2782289032","","0.3160732104","","0.4689255384","","","","","","",""
"318","","bandit","117","386498","0.0-79.0-0.0","62553348","wem/bandit_single","A3L2UB07EZJAMD","gain","8","","75","K","2","","0","0","1","0.370849222","","false","42","0.3239257876","","main_expt","0.2378060085","","0.370849222","","0.470096522","","","","","","",""
"293","","bandit","118","388566","0.0-80.0-0.0","62553348","wem/bandit_single","A3L2UB07EZJAMD","gain","8","","75","K","2","","0","0","1","0.385301305","","false","43","0.2907144625","","main_expt","0.2250536993","","0.385301305","","0.4349244256","","","","","","",""
"404","","bandit","119","390739","0.0-81.0-0.0","62553348","wem/bandit_single","A3L2UB07EZJAMD","gain","8","","72","H","0","img/none_selected.jpg","0","0","1","0.2937558929","","false","44","0.2937558929","","main_expt","0.2132249492","","0.416838688","","0.4316966947","","","","","","",""
"35","","bandit","120","392575","0.0-82.0-0.0","62553348","wem/bandit_single","A3L2UB07EZJAMD","gain","8","","72","H","0","img/none_selected.jpg","0","0","1","0.3667346614","","false","45","0.3667346614","","main_expt","0.2669052982","","0.3927526088","","0.4526201082","","","","","","",""
"423","","bandit","121","394769","0.0-83.0-0.0","62553348","wem/bandit_single","A3L2UB07EZJAMD","gain","8","","72","H","0","img/none_selected.jpg","1","0","0","0.4084803937","","false","46","0.4084803937","","main_expt","0.259601005","","0.3789336214","","0.4696962879","","","","","","",""
"71","","bandit","122","396624","0.0-84.0-0.0","62553348","wem/bandit_single","A3L2UB07EZJAMD","gain","8","","72","H","0","img/none_selected.jpg","0","0","1","0.3956447052","","false","47","0.3956447052","","main_expt","0.2442503122","","0.3994803113","","0.4591824552","","","","","","",""
"136","","bandit","123","398537","0.0-85.0-0.0","62553348","wem/bandit_single","A3L2UB07EZJAMD","gain","8","","75","K","2","","1","0","0","0.3570668153","","false","48","0.3859230678","","main_expt","0.2427668164","","0.3570668153","","0.4548607847","","","","","","",""
"60","","bandit","124","400376","0.0-86.0-0.0","62553348","wem/bandit_single","A3L2UB07EZJAMD","gain","8","","75","K","2","","1","0","0","0.3500417472","","false","49","0.394993817","","main_expt","0.218731525","","0.3500417472","","0.4625410341","","","","","","",""
"6","","bandit","125","402158","0.0-87.0-0.0","62553348","wem/bandit_single","A3L2UB07EZJAMD","gain","8","","75","K","2","","0","0","1","0.3110114061","","false","50","0.4358915385","","main_expt","0.2187604329","","0.3110114061","","0.4620574215","","","","","","",""
"449","","bandit","126","404414","0.0-88.0-0.0","62553348","wem/bandit_single","A3L2UB07EZJAMD","gain","8","","74","J","1","","1","0","0","0.2764450854","","false","51","0.4437026926","","main_expt","0.2764450854","","0.3165374422","","0.4573118055","","","","","","",""
"80","","bandit","127","406274","0.0-89.0-0.0","62553348","wem/bandit_single","A3L2UB07EZJAMD","gain","8","","74","J","1","","0","0","1","0.2735561336","","false","52","0.4357441266","","main_expt","0.2735561336","","0.3212783944","","0.4577170033","","","","","","",""
"44","","bandit","128","408118","0.0-90.0-0.0","62553348","wem/bandit_single","A3L2UB07EZJAMD","gain","8","","74","J","1","","0","0","1","0.2558353256","","false","53","0.3926545571","","main_expt","0.2558353256","","0.3079714244","","0.4599667981","","","","","","",""
"11","","bandit","129","409895","0.0-91.0-0.0","62553348","wem/bandit_single","A3L2UB07EZJAMD","gain","8","","75","K","2","","0","0","1","0.3538619638","","false","54","0.3841940555","","main_expt","0.2856473895","","0.3538619638","","0.4598989899","","","","","","",""
"324","","bandit","130","411986","0.0-92.0-0.0","62553348","wem/bandit_single","A3L2UB07EZJAMD","gain","8","","75","K","2","","1","0","0","0.3390258849","","false","55","0.3733442546","","main_expt","0.3110799389","","0.3390258849","","0.4371040197","","","","","","",""
"82","","bandit","131","413861","0.0-93.0-0.0","62553348","wem/bandit_single","A3L2UB07EZJAMD","gain","8","","75","K","2","","0","0","1","0.3282580673","","false","56","0.3500738246","","main_expt","0.2862995849","","0.3282580673","","0.3889704242","","","","","","",""
"199","","bandit","132","415827","0.0-94.0-0.0","62553348","wem/bandit_single","A3L2UB07EZJAMD","gain","8","","76","L","3","","1","0","0","0.4089883961","","false","57","0.3265916347","","main_expt","0.3029349154","","0.3014999451","","0.4089883961","","","","","","",""
"31","","bandit","133","417633","0.0-95.0-0.0","62553348","wem/bandit_single","A3L2UB07EZJAMD","gain","8","","76","L","3","","0","0","1","0.3682078294","","false","58","0.3203483638","","main_expt","0.282602966","","0.2895525025","","0.3682078294","","","","","","",""
"4","","bandit","134","419408","0.0-96.0-0.0","62553348","wem/bandit_single","A3L2UB07EZJAMD","gain","8","","76","L","3","","0","0","1","0.426053772","","false","59","0.258324817","","main_expt","0.3271218703","","0.2538740387","","0.426053772","","","","","","",""
"485","","bandit","135","421675","0.0-97.0-0.0","62553348","wem/bandit_single","A3L2UB07EZJAMD","gain","8","","76","L","3","","0","0","1","0.4175969639","","false","60","0.2527557167","","main_expt","0.2978757068","","0.2509640494","","0.4175969639","","","","","","",""
"204","","bandit","136","423674","0.0-98.0-0.0","62553348","wem/bandit_single","A3L2UB07EZJAMD","gain","8","","72","H","0","img/none_selected.jpg","0","0","1","0.2925705146","","false","61","0.2925705146","","main_expt","0.1922553384","","0.1930295055","","0.4124946444","","","","","","",""
"57","","bandit","137","425510","0.0-99.0-0.0","62553348","wem/bandit_single","A3L2UB07EZJAMD","gain","8","","72","H","0","img/none_selected.jpg","0","0","1","0.310648962","","false","62","0.310648962","","main_expt","0.1408400783","","0.1259826115","","0.4077217862","","","","","","",""
"94","","bandit","138","427369","0.0-100.0-0.0","62553348","wem/bandit_single","A3L2UB07EZJAMD","gain","8","","75","K","2","","0","0","1","0.1388804293","","false","63","0.3175489896","","main_expt","0.1779610645","","0.1388804293","","0.4258821936","","","","","","",""
"283","","bandit","139","429430","0.0-101.0-0.0","62553348","wem/bandit_single","A3L2UB07EZJAMD","gain","8","","75","K","2","","0","0","1","0.1412297375","","false","64","0.2756852574","","main_expt","0.1733040919","","0.1412297375","","0.4314195329","","","","","","",""
"371","","bandit","140","431568","0.0-102.0-0.0","62553348","wem/bandit_single","A3L2UB07EZJAMD","gain","8","","74","J","1","","1","0","0","0.1669650696","","false","65","0.2798966648","","main_expt","0.1669650696","","0.07856201072","","0.4174082156","","","","","","",""
"12","","bandit","141","433357","0.0-103.0-0.0","62553348","wem/bandit_single","A3L2UB07EZJAMD","gain","8","","74","J","1","","0","0","1","0.1439674443","","false","66","0.2440426105","","main_expt","0.1439674443","","0.04493535693","","0.4396479182","","","","","","",""
"501","","bandit","142","435633","0.0-104.0-0.0","62553348","wem/bandit_single","A3L2UB07EZJAMD","gain","8","","74","J","1","","0","0","1","0.1892066175","","false","67","0.2630461485","","main_expt","0.1892066175","","0.06268984171","","0.4080198752","","","","","","",""
"59","","bandit","143","437485","0.0-105.0-0.0","62553348","wem/bandit_single","A3L2UB07EZJAMD","gain","8","","74","J","1","","0","0","1","0.1994174399","","false","68","0.2456224984","","main_expt","0.1994174399","","0.0976634122","","0.4137299856","","","","","","",""
"74","","bandit","144","439332","0.0-106.0-0.0","62553348","wem/bandit_single","A3L2UB07EZJAMD","gain","8","","74","J","1","","0","0","1","0.1624567358","","false","69","0.328759159","","main_expt","0.1624567358","","0.1303859095","","0.3938947582","","","","","","",""
"73","","bandit","145","441170","0.0-107.0-0.0","62553348","wem/bandit_single","A3L2UB07EZJAMD","gain","8","","74","J","1","","1","0","0","0.203142037","","false","70","0.3063762308","","main_expt","0.203142037","","0.09159795462","","0.3876621225","","","","","","",""
"71","","bandit","146","443031","0.0-108.0-0.0","62553348","wem/bandit_single","A3L2UB07EZJAMD","gain","8","","74","J","1","","1","0","0","0.218187973","","false","71","0.3509026903","","main_expt","0.218187973","","0.07422050438","","0.3788053019","","","","","","",""
"20","","bandit","147","444825","0.0-109.0-0.0","62553348","wem/bandit_single","A3L2UB07EZJAMD","gain","8","","74","J","1","","0","0","1","0.2357875668","","false","72","0.3695940198","","main_expt","0.2357875668","","0.05420033029","","0.3632611749","","","","","","",""
"32","","bandit","148","446617","0.0-110.0-0.0","62553348","wem/bandit_single","A3L2UB07EZJAMD","gain","8","","74","J","1","","0","0","1","0.1951490082","","false","73","0.3532210052","","main_expt","0.1951490082","","0.04794676006","","0.3121818875","","","","","","",""
"113","","bandit","149","448504","0.0-111.0-0.0","62553348","wem/bandit_single","A3L2UB07EZJAMD","gain","8","","75","K","2","","0","0","1","0.03645121522","","false","74","0.3780170277","","main_expt","0.208621177","","0.03645121522","","0.3385624816","","","","","","",""
"67","","bandit","150","450355","0.0-112.0-0.0","62553348","wem/bandit_single","A3L2UB07EZJAMD","gain","8","","75","K","2","","0","0","1","0.04346784694","","false","75","0.3141643986","","main_expt","0.2016482668","","0.04346784694","","0.3393964734","","","","","","",""
"10","","bandit","151","452141","0.0-113.0-0.0","62553348","wem/bandit_single","A3L2UB07EZJAMD","gain","8","","72","H","0","img/none_selected.jpg","0","0","1","0.3520496016","","false","76","0.3520496016","","main_expt","0.2495615647","","0.05697420644","","0.3489067358","","","","","","",""
"26","","bandit","152","453949","0.0-114.0-0.0","62553348","wem/bandit_single","A3L2UB07EZJAMD","gain","8","","72","H","0","img/none_selected.jpg","0","0","1","0.2628688268","","false","77","0.2628688268","","main_expt","0.2225386599","","0.05831686642","","0.3502211764","","","","","","",""
"769","","bandit","153","456510","0.0-115.0-0.0","62553348","wem/bandit_single","A3L2UB07EZJAMD","gain","8","","76","L","3","","0","0","1","0.2979424841","","false","78","0.2856335909","","main_expt","0.2525784454","","0.0396837938","","0.2979424841","","","","","","",""
"38","","bandit","154","458322","0.0-116.0-0.0","62553348","wem/bandit_single","A3L2UB07EZJAMD","gain","8","","76","L","3","","0","0","1","0.2779986596","","false","79","0.3052483479","","main_expt","0.2691825077","","0.03651397352","","0.2779986596","","","","","","",""
"107","","bandit","155","460218","0.0-117.0-0.0","62553348","wem/bandit_single","A3L2UB07EZJAMD","gain","8","","76","L","3","","1","0","0","0.2681941829","","false","80","0.2809417262","","main_expt","0.2749696362","","0.0570793957","","0.2681941829","","","","","","",""
"51","","bandit","156","462054","0.0-118.0-0.0","62553348","wem/bandit_single","A3L2UB07EZJAMD","gain","8","","76","L","3","","0","0","1","0.2536714586","","false","81","0.2639407754","","main_expt","0.291945729","","0.05597964966","","0.2536714586","","","","","","",""
"501","","bandit","157","464341","0.0-119.0-0.0","62553348","wem/bandit_single","A3L2UB07EZJAMD","gain","8","","74","J","1","","0","0","1","0.2804178179","","false","82","0.3352417475","","main_expt","0.2804178179","","0.0589745046","","0.1904528106","","","","","","",""
"75","","bandit","158","466182","0.0-120.0-0.0","62553348","wem/bandit_single","A3L2UB07EZJAMD","gain","8","","74","J","1","","0","0","1","0.2253075454","","false","83","0.3246721101","","main_expt","0.2253075454","","0.04461225985","","0.2497062266","","","","","","",""
"61","","bandit","159","468014","0.0-121.0-0.0","62553348","wem/bandit_single","A3L2UB07EZJAMD","gain","8","","74","J","1","","0","0","1","0.2475548924","","false","84","0.3082112656","","main_expt","0.2475548924","","0.04600221485","","0.2960017758","","","","","","",""
"19","","bandit","160","469823","0.0-122.0-0.0","62553348","wem/bandit_single","A3L2UB07EZJAMD","gain","8","","75","K","2","","0","0","1","0.04782026086","","false","85","0.2733186338","","main_expt","0.2443994903","","0.04782026086","","0.2677312645","","","","","","",""
"109","","bandit","161","471707","0.0-123.0-0.0","62553348","wem/bandit_single","A3L2UB07EZJAMD","gain","8","","75","K","2","","1","0","0","0.05551660222","","false","86","0.2595222796","","main_expt","0.2112262296","","0.05551660222","","0.2764415163","","","","","","",""
"27","","bandit","162","473512","0.0-124.0-0.0","62553348","wem/bandit_single","A3L2UB07EZJAMD","gain","8","","75","K","2","","0","0","1","0.04708869331","","false","87","0.2256999028","","main_expt","0.2188998383","","0.04708869331","","0.324022149","","","","","","",""
"431","","bandit","163","475711","0.0-125.0-0.0","62553348","wem/bandit_single","A3L2UB07EZJAMD","gain","8","","75","K","2","","0","0","1","0.02844544313","","false","88","0.1990670624","","main_expt","0.2197891412","","0.02844544313","","0.3109963835","","","","","","",""
"53","","bandit","164","477527","0.0-126.0-0.0","62553348","wem/bandit_single","A3L2UB07EZJAMD","gain","8","","75","K","2","","0","0","1","0.02947982339","","false","89","0.2125628639","","main_expt","0.1264972534","","0.02947982339","","0.324941543","","","","","","",""
"119","","bandit","165","479452","0.0-127.0-0.0","62553348","wem/bandit_single","A3L2UB07EZJAMD","gain","8","","72","H","0","img/none_selected.jpg","0","0","1","0.2335475446","","false","90","0.2335475446","","main_expt","0.09492746395","","0.01544371513","","0.3309337967","","","","","","",""
"796","","bandit","166","482041","0.0-128.0-0.0","62553348","wem/bandit_single","A3L2UB07EZJAMD","gain","8","","72","H","0","img/none_selected.jpg","0","0","1","0.2803997126","","false","91","0.2803997126","","main_expt","0.0779798764","","0.02662688154","","0.2419508287","","","","","","",""
"342","","bandit","167","484160","0.0-129.0-0.0","62553348","wem/bandit_single","A3L2UB07EZJAMD","gain","8","","72","H","0","img/none_selected.jpg","0","0","1","0.2771315147","","false","92","0.2771315147","","main_expt","0.1178574791","","0.03471523835","","0.2040869203","","","","","","",""
"67","","bandit","168","485998","0.0-130.0-0.0","62553348","wem/bandit_single","A3L2UB07EZJAMD","gain","8","","72","H","0","img/none_selected.jpg","0","0","1","0.3069544445","","false","93","0.3069544445","","main_expt","0.1199697814","","0.0252433293","","0.1936143615","","","","","","",""
"27","","bandit","169","487790","0.0-131.0-0.0","62553348","wem/bandit_single","A3L2UB07EZJAMD","gain","8","","72","H","0","img/none_selected.jpg","0","0","1","0.2585327286","","false","94","0.2585327286","","main_expt","0.1351842626","","0.02873343753","","0.2296452841","","","","","","",""
"62","","bandit","170","489633","0.0-132.0-0.0","62553348","wem/bandit_single","A3L2UB07EZJAMD","gain","8","","74","J","1","","0","0","1","0.1229387465","","false","95","0.2043747222","","main_expt","0.1229387465","","0.03754278977","","0.3009770616","","","","","","",""
"99","","bandit","171","491495","0.0-133.0-0.0","62553348","wem/bandit_single","A3L2UB07EZJAMD","gain","8","","74","J","1","","0","0","1","0.1341504272","","false","96","0.2149370614","","main_expt","0.1341504272","","0.02045008397","","0.3664634414","","","","","","",""
"655","","bandit","172","493920","0.0-134.0-0.0","62553348","wem/bandit_single","A3L2UB07EZJAMD","gain","8","","76","L","3","","1","0","0","0.3476641925","","false","97","0.1294523689","","main_expt","0.08646330057","","0.01282395838","","0.3476641925","","","","","","",""
"84","","bandit","173","495791","0.0-135.0-0.0","62553348","wem/bandit_single","A3L2UB07EZJAMD","gain","8","","76","L","3","","0","0","1","0.3885632826","","false","98","0.1653870254","","main_expt","0.07731746448","","0.02206163243","","0.3885632826","","","","","","",""
"67","","bandit","174","497640","0.0-136.0-0.0","62553348","wem/bandit_single","A3L2UB07EZJAMD","gain","8","","76","L","3","","0","0","1","0.3222143249","","false","99","0.187235433","","main_expt","0.05048608161","","0.03016500256","","0.3222143249","","","","","","",""
"95","","bandit","175","499519","0.0-137.0-0.0","62553348","wem/bandit_single","A3L2UB07EZJAMD","gain","8","","76","L","3","","0","0","1","0.3386714995","","false","100","0.1583251777","","main_expt","0.03970728334","","0.03237578522","","0.3386714995","","","","","","",""
"1036","","bandit","176","502333","0.0-138.0-0.0","62553348","wem/bandit_single","A3L2UB07EZJAMD","gain","8","","75","K","2","","0","0","1","0.03241037075","","false","101","0.1337381207","","main_expt","0.02108340439","","0.03241037075","","0.3131396166","","","","","","",""
"149","","bandit","177","504264","0.0-139.0-0.0","62553348","wem/bandit_single","A3L2UB07EZJAMD","gain","8","","75","K","2","","0","0","1","0.06000215667","","false","102","0.1163639012","","main_expt","0.05244648731","","0.06000215667","","0.3417288757","","","","","","",""
"313","","bandit","178","506349","0.0-140.0-0.0","62553348","wem/bandit_single","A3L2UB07EZJAMD","gain","8","","74","J","1","","0","0","1","0.04574159302","","false","103","0.1118657557","","main_expt","0.04574159302","","0.08726741307","","0.3582654759","","","","","","",""
"65","","bandit","179","508184","0.0-141.0-0.0","62553348","wem/bandit_single","A3L2UB07EZJAMD","gain","8","","74","J","1","","0","0","1","0.05033190662","","false","104","0.1501499683","","main_expt","0.05033190662","","0.1067467257","","0.3409136392","","","","","","",""
"58","","bandit","180","510023","0.0-142.0-0.0","62553348","wem/bandit_single","A3L2UB07EZJAMD","gain","8","","74","J","1","","1","0","0","0.1076128494","","false","105","0.1354733374","","main_expt","0.1076128494","","0.1004566838","","0.3532992837","","","","","","",""
"38","","bandit","181","511859","0.0-143.0-0.0","62553348","wem/bandit_single","A3L2UB07EZJAMD","gain","8","","74","J","1","","0","0","1","0.06740855405","","false","106","0.1727398631","","main_expt","0.06740855405","","0.1055318719","","0.335683565","","","","","","",""
"46","","bandit","182","513701","0.0-144.0-0.0","62553348","wem/bandit_single","A3L2UB07EZJAMD","gain","8","","74","J","1","","0","0","1","0.06658027063","","false","107","0.1474174257","","main_expt","0.06658027063","","0.1236328269","","0.3924059951","","","","","","",""
"421","","bandit","183","515884","0.0-145.0-0.0","62553348","wem/bandit_single","A3L2UB07EZJAMD","gain","8","","72","H","0","img/none_selected.jpg","0","0","1","0.1683059408","","false","108","0.1683059408","","main_expt","0.0777756245","","0.1301170461","","0.3626054341","","","","","","",""
"530","","bandit","184","518183","0.0-146.0-0.0","62553348","wem/bandit_single","A3L2UB07EZJAMD","gain","8","","72","H","0","img/none_selected.jpg","0","0","1","0.1972223025","","false","109","0.1972223025","","main_expt","0.1117823495","","0.1507941036","","0.3806857721","","","","","","",""
"22","","bandit","185","519987","0.0-147.0-0.0","62553348","wem/bandit_single","A3L2UB07EZJAMD","gain","8","","72","H","0","img/none_selected.jpg","0","0","1","0.2085186414","","false","110","0.2085186414","","main_expt","0.08710900622","","0.1647590848","","0.3452619283","","","","","","",""
"55","","bandit","186","521805","0.0-148.0-0.0","62553348","wem/bandit_single","A3L2UB07EZJAMD","gain","8","","72","H","0","img/none_selected.jpg","0","0","1","0.1811180602","","false","111","0.1811180602","","main_expt","0.107183683","","0.1574612326","","0.3653509784","","","","","","",""
"365","","bandit","187","523949","0.0-149.0-0.0","62553348","wem/bandit_single","A3L2UB07EZJAMD","gain","8","","74","J","1","","0","0","1","0.1099425133","","false","112","0.222295219","","main_expt","0.1099425133","","0.1406493921","","0.3435522482","","","","","","",""
"37","","bandit","188","525749","0.0-150.0-0.0","62553348","wem/bandit_single","A3L2UB07EZJAMD","gain","8","","74","J","1","","0","0","1","0.1457634924","","false","113","0.254178783","","main_expt","0.1457634924","","0.1367300214","","0.3424956272","","","","","","",""
"621","","bandit","189","528149","0.0-151.0-0.0","62553348","wem/bandit_single","A3L2UB07EZJAMD","gain","8","","74","J","1","","0","0","1","0.09824844824","","false","114","0.2315882939","","main_expt","0.09824844824","","0.1534665218","","0.3353894863","","","","","","",""
"213","","bandit","190","530141","0.0-152.0-0.0","62553348","wem/bandit_single","A3L2UB07EZJAMD","gain","8","","74","J","1","","0","0","1","0.07202874502","","false","115","0.2079629003","","main_expt","0.07202874502","","0.1890238391","","0.3965113255","","","","","","",""
"423","","bandit","191","532331","0.0-153.0-0.0","62553348","wem/bandit_single","A3L2UB07EZJAMD","gain","8","","75","K","2","","0","0","1","0.1480670238","","false","116","0.2117584369","","main_expt","0.08386797302","","0.1480670238","","0.3889101716","","","","","","",""
"30","","bandit","192","534140","0.0-154.0-0.0","62553348","wem/bandit_single","A3L2UB07EZJAMD","gain","8","","75","K","2","","0","0","1","0.1450369027","","false","117","0.1897465023","","main_expt","0.1223406282","","0.1450369027","","0.412290601","","","","","","",""
"28","","bandit","193","535954","0.0-155.0-0.0","62553348","wem/bandit_single","A3L2UB07EZJAMD","gain","8","","75","K","2","","1","0","0","0.1525061225","","false","118","0.2162179109","","main_expt","0.1131974311","","0.1525061225","","0.4090296977","","","","","","",""
"29","","bandit","194","537784","0.0-156.0-0.0","62553348","wem/bandit_single","A3L2UB07EZJAMD","gain","8","","75","K","2","","0","0","1","0.1327940691","","false","119","0.1954464435","","main_expt","0.1214903214","","0.1327940691","","0.3900906375","","","","","","",""
"146","","bandit","195","539709","0.0-157.0-0.0","62553348","wem/bandit_single","A3L2UB07EZJAMD","gain","8","","75","K","2","","1","0","0","0.1517026744","","false","120","0.2433439763","","main_expt","0.1379734046","","0.1517026744","","0.3722828095","","","","","","",""
"45","","bandit","196","541534","0.0-158.0-0.0","62553348","wem/bandit_single","A3L2UB07EZJAMD","gain","8","","75","K","2","","0","0","1","0.09770447215","","false","121","0.2093375247","","main_expt","0.1537473387","","0.09770447215","","0.3593952677","","","","","","",""
"64","","bandit","197","543374","0.0-159.0-0.0","62553348","wem/bandit_single","A3L2UB07EZJAMD","gain","8","","75","K","2","","0","0","1","0.1084092314","","false","122","0.2030857612","","main_expt","0.1654199468","","0.1084092314","","0.3670381393","","","","","","",""
"31","","bandit","198","545178","0.0-160.0-0.0","62553348","wem/bandit_single","A3L2UB07EZJAMD","gain","8","","75","K","2","","1","0","0","0.1828660492","","false","123","0.1810532848","","main_expt","0.1908187881","","0.1828660492","","0.3587286137","","","","","","",""
"6","","bandit","199","546976","0.0-161.0-0.0","62553348","wem/bandit_single","A3L2UB07EZJAMD","gain","8","","75","K","2","","0","0","1","0.1743556658","","false","124","0.1582229448","","main_expt","0.2229551501","","0.1743556658","","0.3492740793","","","","","","",""
"353","","bandit","200","549102","0.0-162.0-0.0","62553348","wem/bandit_single","A3L2UB07EZJAMD","gain","8","","75","K","2","","0","0","1","0.2091647646","","false","125","0.1223239468","","main_expt","0.2354127912","","0.2091647646","","0.3031262708","","","","","","",""
"60","","bandit","201","550959","0.0-163.0-0.0","62553348","wem/bandit_single","A3L2UB07EZJAMD","gain","8","","75","K","2","","1","0","0","0.2089783764","","false","126","0.08912034734","","main_expt","0.25119817","","0.2089783764","","0.3272336491","","","","","","",""
"44","","bandit","202","552803","0.0-164.0-0.0","62553348","wem/bandit_single","A3L2UB07EZJAMD","gain","8","","75","K","2","","0","0","1","0.21334071","","false","127","0.05948163","","main_expt","0.2312690923","","0.21334071","","0.3153677968","","","","","","",""
"16","","bandit","203","554596","0.0-165.0-0.0","62553348","wem/bandit_single","A3L2UB07EZJAMD","gain","8","","75","K","2","","0","0","1","0.1916283041","","false","128","0.06525821595","","main_expt","0.2741150261","","0.1916283041","","0.3317710332","","","","","","",""
"25","","bandit","204","556410","0.0-166.0-0.0","62553348","wem/bandit_single","A3L2UB07EZJAMD","gain","8","","75","K","2","","0","0","1","0.1810604207","","false","129","0.04677418535","","main_expt","0.2804264122","","0.1810604207","","0.3818586719","","","","","","",""
"129","","bandit","205","558321","0.0-167.0-0.0","62553348","wem/bandit_single","A3L2UB07EZJAMD","gain","8","","75","K","2","","0","0","1","0.1492319935","","false","130","0.04931785787","","main_expt","0.2746384559","","0.1492319935","","0.3778611376","","","","","","",""
"76","","bandit","206","560177","0.0-168.0-0.0","62553348","wem/bandit_single","A3L2UB07EZJAMD","gain","8","","75","K","2","","0","0","1","0.129351286","","false","131","0.03231589458","","main_expt","0.3052944487","","0.129351286","","0.3745485054","","","","","","",""
"76","","bandit","207","562024","0.0-169.0-0.0","62553348","wem/bandit_single","A3L2UB07EZJAMD","gain","8","","75","K","2","","0","0","1","0.1020216346","","false","132","0.0374336399","","main_expt","0.2871604017","","0.1020216346","","0.3901944836","","","","","","",""
"25","","bandit","208","563827","0.0-170.0-0.0","62553348","wem/bandit_single","A3L2UB07EZJAMD","gain","8","","76","L","3","","0","0","1","0.3245875462","","false","133","0.04583961862","","main_expt","0.2262434135","","0.1100395313","","0.3245875462","","","","","","",""
"159","","bandit","209","565762","0.0-171.0-0.0","62553348","wem/bandit_single","A3L2UB07EZJAMD","gain","8","","74","J","1","","0","0","1","0.2020687113","","false","134","0.04150300199","","main_expt","0.2020687113","","0.1078381017","","0.2794858075","","","","","","",""
"32","","bandit","210","567561","0.0-172.0-0.0","62553348","wem/bandit_single","A3L2UB07EZJAMD","gain","8","","74","J","1","","0","0","1","0.2168620662","","false","135","0.04663842542","","main_expt","0.2168620662","","0.1093486249","","0.2867414221","","","","","","",""
"84","","bandit","211","569419","0.0-173.0-0.0","62553348","wem/bandit_single","A3L2UB07EZJAMD","gain","8","","76","L","3","","0","0","1","0.2388941587","","false","136","0.06291357963","","main_expt","0.151139006","","0.1246456113","","0.2388941587","","","","","","",""
"358","","bandit","212","571582","0.0-174.0-0.0","62553348","wem/bandit_single","A3L2UB07EZJAMD","gain","8","","72","H","0","img/none_selected.jpg","0","0","1","0.0848669819","","false","137","0.0848669819","","main_expt","0.1452995234","","0.1167447495","","0.2301747732","","","","","","",""
"775","","bandit","213","574187","0.0-175.0-0.0","62553348","wem/bandit_single","A3L2UB07EZJAMD","gain","8","","72","H","0","img/none_selected.jpg","0","0","1","0.1250360552","","false","138","0.1250360552","","main_expt","0.1599176777","","0.1357570265","","0.2344721482","","","","","","",""
"526","","bandit","214","576486","0.0-176.0-0.0","62553348","wem/bandit_single","A3L2UB07EZJAMD","gain","8","","72","H","0","img/none_selected.jpg","0","0","1","0.122190115","","false","139","0.122190115","","main_expt","0.1704699841","","0.1616689495","","0.2351335283","","","","","","",""
"132","","bandit","215","578399","0.0-177.0-0.0","62553348","wem/bandit_single","A3L2UB07EZJAMD","gain","8","","72","H","0","img/none_selected.jpg","0","0","1","0.08666030548","","false","140","0.08666030548","","main_expt","0.1142956015","","0.1979747013","","0.2876903143","","","","","","",""
"6","","bandit","216","580189","0.0-178.0-0.0","62553348","wem/bandit_single","A3L2UB07EZJAMD","gain","8","","75","K","2","","0","0","1","0.1708965128","","false","141","0.09967801986","","main_expt","0.1206890816","","0.1708965128","","0.2865732071","","","","","","",""
"66","","bandit","217","582035","0.0-179.0-0.0","62553348","wem/bandit_single","A3L2UB07EZJAMD","gain","8","","75","K","2","","0","0","1","0.204481367","","false","142","0.1125289611","","main_expt","0.1324259923","","0.204481367","","0.248943806","","","","","","",""
"108","","bandit","218","583947","0.0-180.0-0.0","62553348","wem/bandit_single","A3L2UB07EZJAMD","gain","8","","75","K","2","","0","0","1","0.1861099789","","false","143","0.1467602081","","main_expt","0.09892217097","","0.1861099789","","0.2839045407","","","","","","",""
"131","","bandit","219","585863","0.0-181.0-0.0","62553348","wem/bandit_single","A3L2UB07EZJAMD","gain","8","","74","J","1","","1","0","0","0.1577744197","","false","144","0.1467522766","","main_expt","0.1577744197","","0.1956465744","","0.3150250783","","","","","","",""
"77","","bandit","220","587715","0.0-182.0-0.0","62553348","wem/bandit_single","A3L2UB07EZJAMD","gain","8","","74","J","1","","0","0","1","0.1392006829","","false","145","0.118212248","","main_expt","0.1392006829","","0.2622876922","","0.3090395899","","","","","","",""
"116","","bandit","221","589620","0.0-183.0-0.0","62553348","wem/bandit_single","A3L2UB07EZJAMD","gain","8","","74","J","1","","0","0","1","0.1262993523","","false","146","0.1089879874","","main_expt","0.1262993523","","0.304745079","","0.3122039877","","","","","","",""
"15","","bandit","222","591453","0.0-184.0-0.0","62553348","wem/bandit_single","A3L2UB07EZJAMD","gain","8","","74","J","1","","0","0","1","0.1970652478","","false","147","0.1200469816","","main_expt","0.1970652478","","0.2888799162","","0.2959619691","","","","","","",""
"118","","bandit","223","593355","0.0-185.0-0.0","62553348","wem/bandit_single","A3L2UB07EZJAMD","gain","8","","74","J","1","","0","0","1","0.2502259542","","false","148","0.1276189258","","main_expt","0.2502259542","","0.2290209364","","0.2395536641","","","","","","",""
"406","","bandit","224","595542","0.0-186.0-0.0","62553348","wem/bandit_single","A3L2UB07EZJAMD","gain","8","","76","L","3","","0","0","1","0.2650868272","","false","149","0.1280703092","","main_expt","0.264890558","","0.1626908122","","0.2650868272","","","","","","",""
"32","","bandit","225","597349","0.0-187.0-0.0","62553348","wem/bandit_single","A3L2UB07EZJAMD","gain","8","","76","L","3","","0","0","1","0.2986082654","","false","150","0.1260403861","","main_expt","0.2458403893","","0.1958031623","","0.2986082654","","","","","","",""
"343","","bandit","226","599481","0.0-188.0-0.0","62553348","wem/bandit_single","A3L2UB07EZJAMD","gain","8","","76","L","3","","0","0","1","0.2843767109","","false","151","0.1472493067","","main_expt","0.3021038309","","0.2110526716","","0.2843767109","","","","","","",""
"348","","bandit","227","601625","0.0-189.0-0.0","62553348","wem/bandit_single","A3L2UB07EZJAMD","gain","8","","76","L","3","","0","0","1","0.2910803031","","false","152","0.1256460397","","main_expt","0.2863751765","","0.239542308","","0.2910803031","","","","","","",""
"101","","bandit","228","603519","0.0-190.0-0.0","62553348","wem/bandit_single","A3L2UB07EZJAMD","gain","8","","75","K","2","","0","0","1","0.2781725502","","false","153","0.1567097088","","main_expt","0.250244768","","0.2781725502","","0.2910028656","","","","","","",""
"61","","bandit","229","605356","0.0-191.0-0.0","62553348","wem/bandit_single","A3L2UB07EZJAMD","gain","8","","75","K","2","","0","0","1","0.228047793","","false","154","0.1473662378","","main_expt","0.2127808211","","0.228047793","","0.2845613835","","","","","","",""
"29","","bandit","230","607157","0.0-192.0-0.0","62553348","wem/bandit_single","A3L2UB07EZJAMD","gain","8","","75","K","2","","1","0","0","0.2683949018","","false","155","0.1466549972","","main_expt","0.205053704","","0.2683949018","","0.2707345723","","","","","","",""
"52","","bandit","231","608998","0.0-193.0-0.0","62553348","wem/bandit_single","A3L2UB07EZJAMD","gain","8","","75","K","2","","1","0","0","0.3192141369","","false","156","0.1127453184","","main_expt","0.1648482415","","0.3192141369","","0.3156720475","","","","","","",""
"42","","bandit","232","610827","0.0-194.0-0.0","62553348","wem/bandit_single","A3L2UB07EZJAMD","gain","8","","75","K","2","","0","0","1","0.3402823895","","false","157","0.1577506677","","main_expt","0.1888047422","","0.3402823895","","0.3101066834","","","","","","",""
"490","","bandit","233","613098","0.0-195.0-0.0","62553348","wem/bandit_single","A3L2UB07EZJAMD","gain","8","","75","K","2","","1","0","0","0.2944958958","","false","158","0.177177298","","main_expt","0.1759444775","","0.2944958958","","0.3236654942","","","","","","",""
"330","","bandit","234","615236","0.0-196.0-0.0","62553348","wem/bandit_single","A3L2UB07EZJAMD","gain","8","","75","K","2","","1","0","0","0.3007248388","","false","159","0.1693510486","","main_expt","0.2066832709","","0.3007248388","","0.2735657487","","","","","","",""
"60","","bandit","235","617077","0.0-197.0-0.0","62553348","wem/bandit_single","A3L2UB07EZJAMD","gain","8","","75","K","2","","0","0","1","0.3179332055","","false","160","0.1230292859","","main_expt","0.2570817279","","0.3179332055","","0.2384912546","","","","","","",""
"274","","bandit","236","619143","0.0-198.0-0.0","62553348","wem/bandit_single","A3L2UB07EZJAMD","gain","8","","75","K","2","","0","0","1","0.2506164635","","false","161","0.07903667538","","main_expt","0.2244749933","","0.2506164635","","0.2615252743","","","","","","",""
"59","","bandit","237","620971","0.0-199.0-0.0","62553348","wem/bandit_single","A3L2UB07EZJAMD","gain","8","","75","K","2","","0","0","1","0.2858836385","","false","162","0.1136507332","","main_expt","0.23263707","","0.2858836385","","0.2187643747","","","","","","",""
"48","","bandit","238","622809","0.0-200.0-0.0","62553348","wem/bandit_single","A3L2UB07EZJAMD","gain","8","","75","K","2","","0","0","1","0.2848163613","","false","163","0.1137116213","","main_expt","0.2287127565","","0.2848163613","","0.1909081127","","","","","","",""
"45","","bandit","239","624628","0.0-201.0-0.0","62553348","wem/bandit_single","A3L2UB07EZJAMD","gain","8","","75","K","2","","1","0","0","0.2688566635","","false","164","0.1254102563","","main_expt","0.2303253206","","0.2688566635","","0.1808716434","","","","","","",""
"51","","bandit","240","626465","0.0-202.0-0.0","62553348","wem/bandit_single","A3L2UB07EZJAMD","gain","8","","75","K","2","","1","0","0","0.2921202554","","false","165","0.1216805934","","main_expt","0.2771057403","","0.2921202554","","0.2118073572","","","","","","",""
"47","","bandit","241","628283","0.0-203.0-0.0","62553348","wem/bandit_single","A3L2UB07EZJAMD","gain","8","","75","K","2","","1","0","0","0.3143591269","","false","166","0.1291529517","","main_expt","0.2371810998","","0.3143591269","","0.2410554973","","","","","","",""
"32","","bandit","242","630111","0.0-204.0-0.0","62553348","wem/bandit_single","A3L2UB07EZJAMD","gain","8","","75","K","2","","0","0","1","0.2892924204","","false","167","0.1535345887","","main_expt","0.2349122652","","0.2892924204","","0.2574005288","","","","","","",""
"408","","bandit","243","632311","0.0-205.0-0.0","62553348","wem/bandit_single","A3L2UB07EZJAMD","gain","8","","75","K","2","","0","0","1","0.2786305655","","false","168","0.1435034989","","main_expt","0.1959020284","","0.2786305655","","0.2729884233","","","","","","",""
"288","","bandit","244","634394","0.0-206.0-0.0","62553348","wem/bandit_single","A3L2UB07EZJAMD","gain","8","","75","K","2","","0","0","1","0.246803054","","false","169","0.1957458285","","main_expt","0.1899859579","","0.246803054","","0.2625821735","","","","","","",""
"26","","bandit","245","636210","0.0-207.0-0.0","62553348","wem/bandit_single","A3L2UB07EZJAMD","gain","8","","75","K","2","","0","0","1","0.2375021307","","false","170","0.1308867566","","main_expt","0.2213833812","","0.2375021307","","0.3100542845","","","","","","",""
"106","","bandit","246","638104","0.0-208.0-0.0","62553348","wem/bandit_single","A3L2UB07EZJAMD","gain","8","","75","K","2","","0","0","1","0.2965678991","","false","171","0.1422271972","","main_expt","0.1589997081","","0.2965678991","","0.3083945368","","","","","","",""
"112","","bandit","247","639977","0.0-209.0-0.0","62553348","wem/bandit_single","A3L2UB07EZJAMD","gain","8","","75","K","2","","0","0","1","0.2696718616","","false","172","0.1541925874","","main_expt","0.1669714507","","0.2696718616","","0.3929186772","","","","","","",""
"195","","bandit","248","641959","0.0-210.0-0.0","62553348","wem/bandit_single","A3L2UB07EZJAMD","gain","8","","75","K","2","","1","0","0","0.2576521005","","false","173","0.1416394444","","main_expt","0.1699847696","","0.2576521005","","0.4107736206","","","","","","",""
"100","","bandit","249","643855","0.0-211.0-0.0","62553348","wem/bandit_single","A3L2UB07EZJAMD","gain","8","","75","K","2","","0","0","1","0.2839516933","","false","174","0.1207830423","","main_expt","0.202136981","","0.2839516933","","0.4267170337","","","","","","",""
"51","","bandit","250","645680","0.0-212.0-0.0","62553348","wem/bandit_single","A3L2UB07EZJAMD","gain","8","","75","K","2","","1","0","0","0.2932452363","","false","175","0.1636312712","","main_expt","0.1863880777","","0.2932452363","","0.420504823","","","","","","",""
"47","","bandit","251","647505","0.0-213.0-0.0","62553348","wem/bandit_single","A3L2UB07EZJAMD","gain","8","","75","K","2","","0","0","1","0.3118313574","","false","176","0.186569684","","main_expt","0.1426909825","","0.3118313574","","0.3956962169","","","","","","",""
"72","","bandit","252","649371","0.0-214.0-0.0","62553348","wem/bandit_single","A3L2UB07EZJAMD","gain","8","","75","K","2","","0","0","1","0.3378695823","","false","177","0.1089038478","","main_expt","0.1335645184","","0.3378695823","","0.3834761318","","","","","","",""
"94","","bandit","253","651233","0.0-215.0-0.0","62553348","wem/bandit_single","A3L2UB07EZJAMD","gain","8","","72","H","0","img/none_selected.jpg","0","0","1","0.08465244813","","false","178","0.08465244813","","main_expt","0.09719791569","","0.3234122319","","0.4167112469","","","","","","",""
"32","","bandit","254","653044","0.0-216.0-0.0","62553348","wem/bandit_single","A3L2UB07EZJAMD","gain","8","","72","H","0","img/none_selected.jpg","0","0","1","0.1015747644","","false","179","0.1015747644","","main_expt","0.07123289457","","0.3281528324","","0.4370197561","","","","","","",""
"76","","bandit","255","654896","0.0-217.0-0.0","62553348","wem/bandit_single","A3L2UB07EZJAMD","gain","8","","72","H","0","img/none_selected.jpg","0","0","1","0.1277953302","","false","180","0.1277953302","","main_expt","0.05555663239","","0.340497037","","0.3776598584","","","","","","",""
"169","","bandit","256","656846","0.0-218.0-0.0","62553348","wem/bandit_single","A3L2UB07EZJAMD","gain","8","","72","H","0","img/none_selected.jpg","0","0","1","0.1854921141","","false","181","0.1854921141","","main_expt","0.04396828199","","0.3007371283","","0.3636519722","","","","","","",""
"30","","bandit","257","658651","0.0-219.0-0.0","62553348","wem/bandit_single","A3L2UB07EZJAMD","gain","8","","74","J","1","","0","0","1","0.02691259782","","false","182","0.2273529654","","main_expt","0.02691259782","","0.3190136055","","0.3246411676","","","","","","",""
"454","","bandit","258","660893","0.0-220.0-0.0","62553348","wem/bandit_single","A3L2UB07EZJAMD","gain","8","","74","J","1","","0","0","1","0.04807599522","","false","183","0.2600234541","","main_expt","0.04807599522","","0.322323442","","0.3187018958","","","","","","",""
"77","","bandit","259","662760","0.0-221.0-0.0","62553348","wem/bandit_single","A3L2UB07EZJAMD","gain","8","","74","J","1","","1","0","0","0.05076165442","","false","184","0.2689652485","","main_expt","0.05076165442","","0.3086696071","","0.3497063737","","","","","","",""
"65","","bandit","260","664604","0.0-222.0-0.0","62553348","wem/bandit_single","A3L2UB07EZJAMD","gain","8","","74","J","1","","1","0","0","0.1128087831","","false","185","0.2646203852","","main_expt","0.1128087831","","0.3146814862","","0.3334532315","","","","","","",""
"24","","bandit","261","666418","0.0-223.0-0.0","62553348","wem/bandit_single","A3L2UB07EZJAMD","gain","8","","74","J","1","","0","0","1","0.1592260056","","false","186","0.2038557162","","main_expt","0.1592260056","","0.3353274036","","0.3511592443","","","","","","",""
"398","","bandit","262","668601","0.0-224.0-0.0","62553348","wem/bandit_single","A3L2UB07EZJAMD","gain","8","","74","J","1","","1","0","0","0.2195828404","","false","187","0.2643634763","","main_expt","0.2195828404","","0.331036234","","0.3758503369","","","","","","",""
"98","","bandit","263","670485","0.0-225.0-0.0","62553348","wem/bandit_single","A3L2UB07EZJAMD","gain","8","","74","J","1","","0","0","1","0.214856838","","false","188","0.2137054787","","main_expt","0.214856838","","0.3061178756","","0.3951098987","","","","","","",""
"380","","bandit","264","672655","0.0-226.0-0.0","62553348","wem/bandit_single","A3L2UB07EZJAMD","gain","8","","74","J","1","","1","0","0","0.2103369464","","false","189","0.2349639762","","main_expt","0.2103369464","","0.3455914038","","0.3766733461","","","","","","",""
"60","","bandit","265","674510","0.0-227.0-0.0","62553348","wem/bandit_single","A3L2UB07EZJAMD","gain","8","","74","J","1","","0","0","1","0.1932940482","","false","190","0.2067261929","","main_expt","0.1932940482","","0.3734842368","","0.3974997784","","","","","","",""
"30","","bandit","266","676333","0.0-228.0-0.0","62553348","wem/bandit_single","A3L2UB07EZJAMD","gain","8","","74","J","1","","0","0","1","0.2285646161","","false","191","0.275245882","","main_expt","0.2285646161","","0.3648323685","","0.4174686418","","","","","","",""
"54","","bandit","267","678179","0.0-229.0-0.0","62553348","wem/bandit_single","A3L2UB07EZJAMD","gain","8","","74","J","1","","0","0","1","0.2589031043","","false","192","0.306220044","","main_expt","0.2589031043","","0.3339781981","","0.3963748123","","","","","","",""
"365","","bandit","268","680349","0.0-230.0-0.0","62553348","wem/bandit_single","A3L2UB07EZJAMD","gain","8","","74","J","1","","1","0","0","0.2195537535","","false","193","0.3035773814","","main_expt","0.2195537535","","0.3342714415","","0.3921748604","","","","","","",""
"46","","bandit","269","682174","0.0-231.0-0.0","62553348","wem/bandit_single","A3L2UB07EZJAMD","gain","8","","74","J","1","","0","0","1","0.2027550427","","false","194","0.2510827831","","main_expt","0.2027550427","","0.3241295504","","0.3580841109","","","","","","",""
"51","","bandit","270","684010","0.0-232.0-0.0","62553348","wem/bandit_single","A3L2UB07EZJAMD","gain","8","","74","J","1","","1","0","0","0.1862287394","","false","195","0.2455858858","","main_expt","0.1862287394","","0.3116310431","","0.3508589263","","","","","","",""
"27","","bandit","271","685818","0.0-233.0-0.0","62553348","wem/bandit_single","A3L2UB07EZJAMD","gain","8","","74","J","1","","0","0","1","0.1892299528","","false","196","0.2514601016","","main_expt","0.1892299528","","0.3757707762","","0.3580593089","","","","","","",""
"104","","bandit","272","687707","0.0-234.0-0.0","62553348","wem/bandit_single","A3L2UB07EZJAMD","gain","8","","74","J","1","","1","0","0","0.2217707201","","false","197","0.2735270373","","main_expt","0.2217707201","","0.3510132286","","0.325214339","","","","","","",""
"92","","bandit","273","689591","0.0-235.0-0.0","62553348","wem/bandit_single","A3L2UB07EZJAMD","gain","8","","74","J","1","","0","0","1","0.2622368769","","false","198","0.1856542716","","main_expt","0.2622368769","","0.3775824693","","0.3214736551","","","","","","",""
"32","","bandit","274","691407","0.0-236.0-0.0","62553348","wem/bandit_single","A3L2UB07EZJAMD","gain","8","","74","J","1","","1","0","0","0.2566369559","","false","199","0.1439471636","","main_expt","0.2566369559","","0.3591355879","","0.3134841864","","","","","","",""
"36","","bandit","275","693225","0.0-237.0-0.0","62553348","wem/bandit_single","A3L2UB07EZJAMD","gain","8","","74","J","1","","0","0","1","0.2405232655","","false","200","0.1920673188","","main_expt","0.2405232655","","0.4329566742","","0.3484934822","","","","","","",""
"31","","bandit","276","695044","0.0-238.0-0.0","62553348","wem/bandit_single","A3L2UB07EZJAMD","gain","8","","74","J","1","","0","0","1","0.191632201","","false","201","0.2139557707","","main_expt","0.191632201","","0.4316294991","","0.3509587021","","","","","","",""
"63","","bandit","277","696917","0.0-239.0-0.0","62553348","wem/bandit_single","A3L2UB07EZJAMD","gain","8","","74","J","1","","0","0","1","0.1860277461","","false","202","0.2411081829","","main_expt","0.1860277461","","0.4446061493","","0.3472711197","","","","","","",""
"81","","bandit","278","698783","0.0-240.0-0.0","62553348","wem/bandit_single","A3L2UB07EZJAMD","gain","8","","74","J","1","","0","0","1","0.1959395152","","false","203","0.2229679022","","main_expt","0.1959395152","","0.4350640844","","0.3501901851","","","","","","",""
"260","","bandit","279","700836","0.0-241.0-0.0","62553348","wem/bandit_single","A3L2UB07EZJAMD","gain","8","","76","L","3","","0","0","1","0.4021923856","","false","204","0.2094072873","","main_expt","0.1909798814","","0.4511953558","","0.4021923856","","","","","","",""
"6","","bandit","280","702623","0.0-242.0-0.0","62553348","wem/bandit_single","A3L2UB07EZJAMD","gain","8","","76","L","3","","0","0","1","0.4103624794","","false","205","0.2061243076","","main_expt","0.1952925147","","0.4444608137","","0.4103624794","","","","","","",""
"217","","bandit","281","704617","0.0-243.0-0.0","62553348","wem/bandit_single","A3L2UB07EZJAMD","gain","8","","76","L","3","","1","0","0","0.3884407208","","false","206","0.1830656651","","main_expt","0.2333477628","","0.4174874576","","0.3884407208","","","","","","",""
"40","","bandit","282","706447","0.0-244.0-0.0","62553348","wem/bandit_single","A3L2UB07EZJAMD","gain","8","","76","L","3","","0","0","1","0.4205181933","","false","207","0.1806213093","","main_expt","0.2366383375","","0.4473837798","","0.4205181933","","","","","","",""
"42","","bandit","283","708273","0.0-245.0-0.0","62553348","wem/bandit_single","A3L2UB07EZJAMD","gain","8","","76","L","3","","0","0","1","0.39705837","","false","208","0.1547428587","","main_expt","0.2588239296","","0.4423282801","","0.39705837","","","","","","",""
"123","","bandit","284","710210","0.0-246.0-0.0","62553348","wem/bandit_single","A3L2UB07EZJAMD","gain","8","","76","L","3","","0","0","1","0.3763678409","","false","209","0.1633509089","","main_expt","0.2109346514","","0.4495798672","","0.3763678409","","","","","","",""
"134","","bandit","285","712139","0.0-247.0-0.0","62553348","wem/bandit_single","A3L2UB07EZJAMD","gain","8","","72","H","0","img/none_selected.jpg","0","0","1","0.194224154","","false","210","0.194224154","","main_expt","0.2352346414","","0.4604116181","","0.329669689","","","","","","",""
"84","","bandit","286","714007","0.0-248.0-0.0","62553348","wem/bandit_single","A3L2UB07EZJAMD","gain","8","","72","H","0","img/none_selected.jpg","0","0","1","0.1428536625","","false","211","0.1428536625","","main_expt","0.1919095989","","0.4515605979","","0.3234151823","","","","","","",""
"275","","bandit","287","716059","0.0-249.0-0.0","62553348","wem/bandit_single","A3L2UB07EZJAMD","gain","8","","72","H","0","img/none_selected.jpg","0","0","1","0.1876263767","","false","212","0.1876263767","","main_expt","0.2511997366","","0.3796359761","","0.346289724","","","","","","",""
"39","","bandit","288","717886","0.0-250.0-0.0","62553348","wem/bandit_single","A3L2UB07EZJAMD","gain","8","","75","K","2","","1","0","0","0.4098311692","","false","213","0.1767426991","","main_expt","0.2247602752","","0.4098311692","","0.3579646626","","","","","","",""
"103","","bandit","289","719789","0.0-251.0-0.0","62553348","wem/bandit_single","A3L2UB07EZJAMD","gain","8","","75","K","2","","1","0","0","0.3758430492","","false","214","0.1997003326","","main_expt","0.2078026042","","0.3758430492","","0.3871938136","","","","","","",""
"125","","bandit","290","721700","0.0-252.0-0.0","62553348","wem/bandit_single","A3L2UB07EZJAMD","gain","8","","75","K","2","","1","0","0","0.3391734167","","false","215","0.1753208105","","main_expt","0.2000367883","","0.3391734167","","0.4072701047","","","","","","",""
"24","","bandit","291","723497","0.0-253.0-0.0","62553348","wem/bandit_single","A3L2UB07EZJAMD","gain","8","","75","K","2","","0","0","1","0.3292806148","","false","216","0.1526073348","","main_expt","0.1850279066","","0.3292806148","","0.4139997029","","","","","","",""
"346","","bandit","292","725634","0.0-254.0-0.0","62553348","wem/bandit_single","A3L2UB07EZJAMD","gain","8","","75","K","2","","0","0","1","0.3672552775","","false","217","0.1885901152","","main_expt","0.1862329662","","0.3672552775","","0.4058129166","","","","","","",""
"283","","bandit","293","727708","0.0-255.0-0.0","62553348","wem/bandit_single","A3L2UB07EZJAMD","gain","8","","75","K","2","","0","0","1","0.3540988412","","false","218","0.2068683321","","main_expt","0.2076422808","","0.3540988412","","0.3831507141","","","","","","",""
"581","","bandit","294","730072","0.0-256.0-0.0","62553348","wem/bandit_single","A3L2UB07EZJAMD","gain","8","","75","K","2","","0","0","1","0.3705907093","","false","219","0.1830460615","","main_expt","0.1693095695","","0.3705907093","","0.3975704748","","","","","","",""
"220","","bandit","295","732068","0.0-257.0-0.0","62553348","wem/bandit_single","A3L2UB07EZJAMD","gain","8","","75","K","2","","0","0","1","0.4071767116","","false","220","0.1510464272","","main_expt","0.1643321708","","0.4071767116","","0.420208779","","","","","","",""
"373","","bandit","296","734225","0.0-258.0-0.0","62553348","wem/bandit_single","A3L2UB07EZJAMD","gain","8","","74","J","1","","0","0","1","0.1755642267","","false","221","0.1195154075","","main_expt","0.1755642267","","0.4000591573","","0.4277126104","","","","","","",""
"36","","bandit","297","736046","0.0-259.0-0.0","62553348","wem/bandit_single","A3L2UB07EZJAMD","gain","8","","74","J","1","","1","0","0","0.2047466037","","false","222","0.1322821073","","main_expt","0.2047466037","","0.4257242725","","0.4098861052","","","","","","",""
"37","","bandit","298","737873","0.0-260.0-0.0","62553348","wem/bandit_single","A3L2UB07EZJAMD","gain","8","","74","J","1","","1","0","0","0.1261696039","","false","223","0.1634864242","","main_expt","0.1261696039","","0.4084538547","","0.3865692481","","","","","","",""
"82","","bandit","299","739751","0.0-261.0-0.0","62553348","wem/bandit_single","A3L2UB07EZJAMD","gain","8","","74","J","1","","0","0","1","0.1671605087","","false","224","0.1927622759","","main_expt","0.1671605087","","0.3756333804","","0.3942994903","","","","","","",""
"84","","bandit","300","741627","0.0-262.0-0.0","62553348","wem/bandit_single","A3L2UB07EZJAMD","gain","8","","74","J","1","","0","0","1","0.1498322393","","false","225","0.1949177646","","main_expt","0.1498322393","","0.3977261909","","0.3444994861","","","","","","",""
"105","","bandit","301","743537","0.0-263.0-0.0","62553348","wem/bandit_single","A3L2UB07EZJAMD","gain","8","","74","J","1","","0","0","1","0.106170416","","false","226","0.1675301724","","main_expt","0.106170416","","0.3876796808","","0.4042132592","","","","","","",""
"87","","bandit","302","745406","0.0-264.0-0.0","62553348","wem/bandit_single","A3L2UB07EZJAMD","gain","8","","74","J","1","","0","0","1","0.0897934899","","false","227","0.163375113","","main_expt","0.0897934899","","0.3213858912","","0.3906229402","","","","","","",""
"21","","bandit","303","747205","0.0-265.0-0.0","62553348","wem/bandit_single","A3L2UB07EZJAMD","gain","8","","72","H","0","img/none_selected.jpg","0","0","1","0.195474145","","false","228","0.195474145","","main_expt","0.09443294629","","0.3331191915","","0.3417164876","","","","","","",""
"210","","bandit","304","749204","0.0-266.0-0.0","62553348","wem/bandit_single","A3L2UB07EZJAMD","gain","8","","72","H","0","img/none_selected.jpg","0","0","1","0.2410354958","","false","229","0.2410354958","","main_expt","0.0848669953","","0.308496805","","0.3222205624","","","","","","",""
"33","","bandit","305","751036","0.0-267.0-0.0","62553348","wem/bandit_single","A3L2UB07EZJAMD","gain","8","","72","H","0","img/none_selected.jpg","0","0","1","0.2567648542","","false","230","0.2567648542","","main_expt","0.0701458292","","0.2734654059","","0.3442672336","","","","","","",""
"7","","bandit","306","752837","0.0-268.0-0.0","62553348","wem/bandit_single","A3L2UB07EZJAMD","gain","8","","75","K","2","","0","0","1","0.292212981","","false","231","0.2304241664","","main_expt","0.1251282835","","0.292212981","","0.3164459362","","","","","","",""
"22","","bandit","307","754656","0.0-269.0-0.0","62553348","wem/bandit_single","A3L2UB07EZJAMD","gain","8","","75","K","2","","1","0","0","0.2516656152","","false","232","0.2264886823","","main_expt","0.1124912266","","0.2516656152","","0.3396906789","","","","","","",""
"61","","bandit","308","756500","0.0-270.0-0.0","62553348","wem/bandit_single","A3L2UB07EZJAMD","gain","8","","75","K","2","","0","0","1","0.2563877418","","false","233","0.1892320941","","main_expt","0.1535494164","","0.2563877418","","0.3008540409","","","","","","",""
"32","","bandit","309","758327","0.0-271.0-0.0","62553348","wem/bandit_single","A3L2UB07EZJAMD","gain","8","","75","K","2","","1","0","0","0.283882603","","false","234","0.1556895318","","main_expt","0.1389628654","","0.283882603","","0.2767988229","","","","","","",""
"63","","bandit","310","760173","0.0-272.0-0.0","62553348","wem/bandit_single","A3L2UB07EZJAMD","gain","8","","75","K","2","","0","0","1","0.2758852766","","false","235","0.1976044491","","main_expt","0.1680793718","","0.2758852766","","0.2507781603","","","","","","",""
"429","","bandit","311","762389","0.0-273.0-0.0","62553348","wem/bandit_single","A3L2UB07EZJAMD","gain","8","","75","K","2","","0","0","1","0.2434452049","","false","236","0.1468950029","","main_expt","0.2037097706","","0.2434452049","","0.3091667607","","","","","","",""
"197","","bandit","312","764357","0.0-274.0-0.0","62553348","wem/bandit_single","A3L2UB07EZJAMD","gain","8","","76","L","3","","0","0","1","0.2883211118","","false","237","0.1365515699","","main_expt","0.1897176974","","0.2405517979","","0.2883211118","","","","","","",""
"37","","bandit","313","766175","0.0-275.0-0.0","62553348","wem/bandit_single","A3L2UB07EZJAMD","gain","8","","76","L","3","","0","0","1","0.2756444762","","false","238","0.1527077476","","main_expt","0.2317710791","","0.2260832521","","0.2756444762","","","","","","",""
"19","","bandit","314","767976","0.0-276.0-0.0","62553348","wem/bandit_single","A3L2UB07EZJAMD","gain","8","","76","L","3","","0","0","1","0.3061346513","","false","239","0.1315224722","","main_expt","0.2206906913","","0.2061693665","","0.3061346513","","","","","","",""
"146","","bandit","315","769940","0.0-277.0-0.0","62553348","wem/bandit_single","A3L2UB07EZJAMD","gain","8","","74","J","1","","0","0","1","0.2155283076","","false","240","0.1398926963","","main_expt","0.2155283076","","0.2203195159","","0.3274201615","","","","","","",""
"53","","bandit","316","771782","0.0-278.0-0.0","62553348","wem/bandit_single","A3L2UB07EZJAMD","gain","8","","74","J","1","","0","0","1","0.2386015387","","false","241","0.1698873683","","main_expt","0.2386015387","","0.2230507071","","0.2838770346","","","","","","",""
"71","","bandit","317","773637","0.0-279.0-0.0","62553348","wem/bandit_single","A3L2UB07EZJAMD","gain","8","","74","J","1","","1","0","0","0.2178179326","","false","242","0.1693915972","","main_expt","0.2178179326","","0.1834748297","","0.261873528","","","","","","",""
"44","","bandit","318","775469","0.0-280.0-0.0","62553348","wem/bandit_single","A3L2UB07EZJAMD","gain","8","","74","J","1","","0","0","1","0.2209910316","","false","243","0.2011280514","","main_expt","0.2209910316","","0.1450766806","","0.2346518895","","","","","","",""
"39","","bandit","319","777313","0.0-281.0-0.0","62553348","wem/bandit_single","A3L2UB07EZJAMD","gain","8","","74","J","1","","0","0","1","0.2202366047","","false","244","0.283074141","","main_expt","0.2202366047","","0.1407015906","","0.2253303202","","","","","","",""
"70","","bandit","320","779183","0.0-282.0-0.0","62553348","wem/bandit_single","A3L2UB07EZJAMD","gain","8","","74","J","1","","0","0","1","0.2369425358","","false","245","0.2960363525","","main_expt","0.2369425358","","0.1386250556","","0.2379184421","","","","","","",""
"102","","bandit","321","781075","0.0-283.0-0.0","62553348","wem/bandit_single","A3L2UB07EZJAMD","gain","8","","75","K","2","","0","0","1","0.1561911267","","false","246","0.2985154159","","main_expt","0.2437218948","","0.1561911267","","0.1704118475","","","","","","",""
"84","","bandit","322","782951","0.0-284.0-0.0","62553348","wem/bandit_single","A3L2UB07EZJAMD","gain","8","","75","K","2","","0","0","1","0.251644506","","false","247","0.3159682012","","main_expt","0.2573167276","","0.251644506","","0.1520093858","","","","","","",""
"5","","bandit","323","784725","0.0-285.0-0.0","62553348","wem/bandit_single","A3L2UB07EZJAMD","gain","8","","75","K","2","","0","0","1","0.2541276422","","false","248","0.2937445921","","main_expt","0.255349996","","0.2541276422","","0.1246217458","","","","","","",""
"138","","bandit","324","786669","0.0-286.0-0.0","62553348","wem/bandit_single","A3L2UB07EZJAMD","gain","8","","72","H","0","img/none_selected.jpg","0","0","1","0.2794909668","","false","249","0.2794909668","","main_expt","0.2866877344","","0.1924412691","","0.1525969556","","","","","","",""
"36","","bandit","325","788495","0.0-287.0-0.0","62553348","wem/bandit_single","A3L2UB07EZJAMD","gain","8","","72","H","0","img/none_selected.jpg","1","0","0","0.2327966623","","false","250","0.2327966623","","main_expt","0.2330780591","","0.1397358892","","0.1500628479","","","","","","",""
"44","","bandit","326","790330","0.0-288.0-0.0","62553348","wem/bandit_single","A3L2UB07EZJAMD","gain","8","","72","H","0","img/none_selected.jpg","0","0","1","0.2595602212","","false","251","0.2595602212","","main_expt","0.2580196572","","0.1362233376","","0.1141396938","","","","","","",""
"184","","bandit","327","792284","0.0-289.0-0.0","62553348","wem/bandit_single","A3L2UB07EZJAMD","gain","8","","72","H","0","img/none_selected.jpg","0","0","1","0.2715763176","","false","252","0.2715763176","","main_expt","0.2003146692","","0.1796418735","","0.1476089834","","","","","","",""
"49","","bandit","328","794123","0.0-290.0-0.0","62553348","wem/bandit_single","A3L2UB07EZJAMD","gain","8","","72","H","0","img/none_selected.jpg","0","0","1","0.3146654463","","false","253","0.3146654463","","main_expt","0.1651092288","","0.1833608075","","0.175183139","","","","","","",""
"133","","bandit","329","796045","0.0-291.0-0.0","62553348","wem/bandit_single","A3L2UB07EZJAMD","gain","8","","76","L","3","","0","0","1","0.1916323123","","false","254","0.3037610447","","main_expt","0.1413675546","","0.1983034343","","0.1916323123","","","","","","",""
"32","","bandit","330","797852","0.0-292.0-0.0","62553348","wem/bandit_single","A3L2UB07EZJAMD","gain","8","","76","L","3","","0","0","1","0.1888714334","","false","255","0.287825992","","main_expt","0.1801919014","","0.2286544637","","0.1888714334","","","","","","",""
"16","","bandit","331","799669","0.0-293.0-0.0","62553348","wem/bandit_single","A3L2UB07EZJAMD","gain","8","","76","L","3","","1","0","0","0.2338577058","","false","256","0.2673332977","","main_expt","0.1883387327","","0.2502735072","","0.2338577058","","","","","","",""
"30","","bandit","332","801484","0.0-294.0-0.0","62553348","wem/bandit_single","A3L2UB07EZJAMD","gain","8","","76","L","3","","0","0","1","0.2235288738","","false","257","0.2867614738","","main_expt","0.1757220287","","0.2657937058","","0.2235288738","","","","","","",""
"326","","bandit","333","803594","0.0-295.0-0.0","62553348","wem/bandit_single","A3L2UB07EZJAMD","gain","8","","76","L","3","","0","0","1","0.2256298632","","false","258","0.2432485896","","main_expt","0.1817694486","","0.2326681124","","0.2256298632","","","","","","",""
"54","","bandit","334","805433","0.0-296.0-0.0","62553348","wem/bandit_single","A3L2UB07EZJAMD","gain","8","","76","L","3","","0","0","1","0.229367941","","false","259","0.2433124215","","main_expt","0.1938363466","","0.2128848171","","0.229367941","","","","","","",""
"38","","bandit","335","807264","0.0-297.0-0.0","62553348","wem/bandit_single","A3L2UB07EZJAMD","gain","8","","76","L","3","","1","0","0","0.2585863351","","false","260","0.202057327","","main_expt","0.2129025296","","0.261065439","","0.2585863351","","","","","","",""
"39","","bandit","336","809097","0.0-298.0-0.0","62553348","wem/bandit_single","A3L2UB07EZJAMD","gain","8","","76","L","3","","1","0","0","0.2748644017","","false","261","0.163702413","","main_expt","0.1931457884","","0.2693274395","","0.2748644017","","","","","","",""
"29","","bandit","337","810897","0.0-299.0-0.0","62553348","wem/bandit_single","A3L2UB07EZJAMD","gain","8","","76","L","3","","1","0","0","0.288340978","","false","262","0.1317961998","","main_expt","0.183306516","","0.3386888623","","0.288340978","","","","","","",""
"848","","bandit","338","813519","0.0-300.0-0.0","62553348","wem/bandit_single","A3L2UB07EZJAMD","gain","8","","76","L","3","","0","0","1","0.3151532186","","false","263","0.09680570831","","main_expt","0.1293037787","","0.3645909238","","0.3151532186","","","","","","",""
"76","","bandit","339","815394","0.0-301.0-0.0","62553348","wem/bandit_single","A3L2UB07EZJAMD","gain","8","","76","L","3","","0","0","1","0.2931268787","","false","264","0.08846786375","","main_expt","0.1386072774","","0.3437159196","","0.2931268787","","","","","","",""
"70","","bandit","340","817254","0.0-302.0-0.0","62553348","wem/bandit_single","A3L2UB07EZJAMD","gain","8","","76","L","3","","1","0","0","0.3131275506","","false","265","0.08556864258","","main_expt","0.1511252148","","0.3644358952","","0.3131275506","","","","","","",""
"36","","bandit","341","819099","0.0-303.0-0.0","62553348","wem/bandit_single","A3L2UB07EZJAMD","gain","8","","76","L","3","","0","0","1","0.336523231","","false","266","0.0706515048","","main_expt","0.2186772706","","0.3904852039","","0.336523231","","","","","","",""
"262","","bandit","342","821155","0.0-304.0-0.0","62553348","wem/bandit_single","A3L2UB07EZJAMD","gain","8","","76","L","3","","1","0","0","0.2850369317","","false","267","0.0747424838","","main_expt","0.2625163009","","0.3896615427","","0.2850369317","","","","","","",""
"48","","bandit","343","822987","0.0-305.0-0.0","62553348","wem/bandit_single","A3L2UB07EZJAMD","gain","8","","76","L","3","","1","0","0","0.3163307124","","false","268","0.112617448","","main_expt","0.3140442454","","0.4017278216","","0.3163307124","","","","","","",""
"77","","bandit","344","824849","0.0-306.0-0.0","62553348","wem/bandit_single","A3L2UB07EZJAMD","gain","8","","76","L","3","","0","0","1","0.2956683275","","false","269","0.1406639307","","main_expt","0.3069084364","","0.370996795","","0.2956683275","","","","","","",""
"4","","bandit","345","826651","0.0-307.0-0.0","62553348","wem/bandit_single","A3L2UB07EZJAMD","gain","8","","76","L","3","","1","0","0","0.3574655381","","false","270","0.1398727949","","main_expt","0.2814908846","","0.4255483526","","0.3574655381","","","","","","",""
"73","","bandit","346","828515","0.0-308.0-0.0","62553348","wem/bandit_single","A3L2UB07EZJAMD","gain","8","","76","L","3","","0","0","1","0.3969117111","","false","271","0.1430486157","","main_expt","0.3060786573","","0.3948114384","","0.3969117111","","","","","","",""
"53","","bandit","347","830352","0.0-309.0-0.0","62553348","wem/bandit_single","A3L2UB07EZJAMD","gain","8","","76","L","3","","0","0","1","0.3938657786","","false","272","0.1872928851","","main_expt","0.3555003363","","0.3713372483","","0.3938657786","","","","","","",""
"18","","bandit","348","832165","0.0-310.0-0.0","62553348","wem/bandit_single","A3L2UB07EZJAMD","gain","8","","76","L","3","","1","0","0","0.3903330825","","false","273","0.1769074474","","main_expt","0.3980140183","","0.3650537767","","0.3903330825","","","","","","",""
"71","","bandit","349","834025","0.0-311.0-0.0","62553348","wem/bandit_single","A3L2UB07EZJAMD","gain","8","","76","L","3","","1","0","0","0.4236793781","","false","274","0.1820324592","","main_expt","0.4077181827","","0.3414565802","","0.4236793781","","","","","","",""
"192","","bandit","350","835993","0.0-312.0-0.0","62553348","wem/bandit_single","A3L2UB07EZJAMD","gain","8","","76","L","3","","0","0","1","0.4320968281","","false","275","0.1923133529","","main_expt","0.4142369189","","0.3027622838","","0.4320968281","","","","","","",""
"148","","bandit","351","837919","0.0-313.0-0.0","62553348","wem/bandit_single","A3L2UB07EZJAMD","gain","8","","76","L","3","","1","0","0","0.4017915655","","false","276","0.1917589367","","main_expt","0.4250096067","","0.3125082267","","0.4017915655","","","","","","",""
"205","","bandit","352","839922","0.0-314.0-0.0","62553348","wem/bandit_single","A3L2UB07EZJAMD","gain","8","","76","L","3","","0","0","1","0.3548215972","","false","277","0.1667093518","","main_expt","0.4378988515","","0.348890663","","0.3548215972","","","","","","",""
"147","","bandit","353","841868","0.0-315.0-0.0","62553348","wem/bandit_single","A3L2UB07EZJAMD","gain","8","","76","L","3","","0","0","1","0.3683165275","","false","278","0.1695638059","","main_expt","0.4323676568","","0.3341457036","","0.3683165275","","","","","","",""
"150","","bandit","354","843824","0.0-316.0-0.0","62553348","wem/bandit_single","A3L2UB07EZJAMD","gain","8","","76","L","3","","0","0","1","0.3750953637","","false","279","0.1696283439","","main_expt","0.4391545144","","0.2341959149","","0.3750953637","","","","","","",""
"991","","bandit","355","846612","0.0-317.0-0.0","62553348","wem/bandit_single","A3L2UB07EZJAMD","gain","8","","76","L","3","","0","0","1","0.3557095414","","false","280","0.09227733008","","main_expt","0.4467207207","","0.1839622844","","0.3557095414","","","","","","",""
"300","","bandit","356","848701","0.0-318.0-0.0","62553348","wem/bandit_single","A3L2UB07EZJAMD","gain","8","","76","L","3","","0","0","1","0.374333358","","false","281","0.08059064446","","main_expt","0.3922333676","","0.1303375237","","0.374333358","","","","","","",""
"214","","bandit","357","850709","0.0-319.0-0.0","62553348","wem/bandit_single","A3L2UB07EZJAMD","gain","8","","76","L","3","","1","0","0","0.3786855632","","false","282","0.06236597977","","main_expt","0.4243132136","","0.07449941097","","0.3786855632","","","","","","",""
"57","","bandit","358","852558","0.0-320.0-0.0","62553348","wem/bandit_single","A3L2UB07EZJAMD","gain","8","","76","L","3","","1","0","0","0.437514669","","false","283","0.07782340279","","main_expt","0.4187362854","","0.08783129911","","0.437514669","","","","","","",""
"36","","bandit","359","854412","0.0-321.0-0.0","62553348","wem/bandit_single","A3L2UB07EZJAMD","gain","8","","76","L","3","","0","0","1","0.410198323","","false","284","0.07564660971","","main_expt","0.422543139","","0.08228152097","","0.410198323","","","","","","",""
"86","","bandit","360","856309","0.0-322.0-0.0","62553348","wem/bandit_single","A3L2UB07EZJAMD","gain","8","","76","L","3","","0","0","1","0.3777139522","","false","285","0.08237135124","","main_expt","0.434302279","","0.09246744832","","0.3777139522","","","","","","",""
"108","","bandit","361","858221","0.0-323.0-0.0","62553348","wem/bandit_single","A3L2UB07EZJAMD","gain","8","","76","L","3","","0","0","1","0.3841171753","","false","286","0.05670298638","","main_expt","0.4094725029","","0.08394792075","","0.3841171753","","","","","","",""
"60","","bandit","362","860087","0.0-324.0-0.0","62553348","wem/bandit_single","A3L2UB07EZJAMD","gain","8","","76","L","3","","0","0","1","0.3641862554","","false","287","0.06647452785","","main_expt","0.3778080042","","0.1021913287","","0.3641862554","","","","","","",""
"90","","bandit","363","861974","0.0-325.0-0.0","62553348","wem/bandit_single","A3L2UB07EZJAMD","gain","8","","72","H","0","img/none_selected.jpg","0","0","1","0.04859701272","","false","288","0.04859701272","","main_expt","0.3671495563","","0.1188664616","","0.3192590496","","","","","","",""
"46","","bandit","364","863823","0.0-326.0-0.0","62553348","wem/bandit_single","A3L2UB07EZJAMD","gain","8","","72","H","0","img/none_selected.jpg","0","0","1","0.04246321062","","false","289","0.04246321062","","main_expt","0.3622055636","","0.1050513492","","0.3384054944","","","","","","",""
"53","","bandit","365","865679","0.0-327.0-0.0","62553348","wem/bandit_single","A3L2UB07EZJAMD","gain","8","","72","H","0","img/none_selected.jpg","0","0","1","0.08307379137","","false","290","0.08307379137","","main_expt","0.3616647964","","0.1304324694","","0.329366118","","","","","","",""
"97","","bandit","366","867563","0.0-328.0-0.0","62553348","wem/bandit_single","A3L2UB07EZJAMD","gain","8","","75","K","2","","0","0","1","0.09707891459","","false","291","0.09664054691","","main_expt","0.3521760992","","0.09707891459","","0.38061917","","","","","","",""
"85","","bandit","367","869429","0.0-329.0-0.0","62553348","wem/bandit_single","A3L2UB07EZJAMD","gain","8","","75","K","2","","0","0","1","0.1166693976","","false","292","0.1089287446","","main_expt","0.3062989856","","0.1166693976","","0.3703624541","","","","","","",""
"53","","bandit","368","871272","0.0-330.0-0.0","62553348","wem/bandit_single","A3L2UB07EZJAMD","gain","8","","74","J","1","","0","0","1","0.2594623792","","false","293","0.1426967363","","main_expt","0.2594623792","","0.1448282665","","0.3554666564","","","","","","",""
"120","","bandit","369","873171","0.0-331.0-0.0","62553348","wem/bandit_single","A3L2UB07EZJAMD","gain","8","","74","J","1","","0","0","1","0.2666401727","","false","294","0.08295656842","","main_expt","0.2666401727","","0.1486412875","","0.3976604504","","","","","","",""
"57","","bandit","370","875027","0.0-332.0-0.0","62553348","wem/bandit_single","A3L2UB07EZJAMD","gain","8","","76","L","3","","0","0","1","0.3567340825","","false","295","0.07441347029","","main_expt","0.2160621863","","0.1266024918","","0.3567340825","","","","","","",""
"262","","bandit","371","877075","0.0-333.0-0.0","62553348","wem/bandit_single","A3L2UB07EZJAMD","gain","8","","76","L","3","","0","0","1","0.3802278382","","false","296","0.08167080543","","main_expt","0.1924669582","","0.1499702932","","0.3802278382","","","","","","",""
"220","","bandit","372","879096","0.0-334.0-0.0","62553348","wem/bandit_single","A3L2UB07EZJAMD","gain","8","","72","H","0","img/none_selected.jpg","0","0","1","0.06721412472","","false","297","0.06721412472","","main_expt","0.2572135825","","0.1124444021","","0.3764104085","","","","","","",""
"79","","bandit","373","880952","0.0-335.0-0.0","62553348","wem/bandit_single","A3L2UB07EZJAMD","gain","8","","72","H","0","img/none_selected.jpg","0","0","1","0.1106754059","","false","298","0.1106754059","","main_expt","0.2660288188","","0.122133656","","0.3801851674","","","","","","",""
"80","","bandit","374","882827","0.0-336.0-0.0","62553348","wem/bandit_single","A3L2UB07EZJAMD","gain","8","","72","H","0","img/none_selected.jpg","0","0","1","0.146580741","","false","299","0.146580741","","main_expt","0.2708303459","","0.1064281731","","0.37372938","","","","","","",""
