"rt","responses","trial_type","trial_index","time_elapsed","internal_node_id","subjID","study","MID","cond","drift","key_press","respCharCode","respKey","respChoiceNum","respChoice","gems","bombs","no_reward","GemPrChosen","BombPrChosen","practice","trial_counter","WinPr_0","LosePr_0","trial_label","WinPr_1","LosePr_1","WinPr_2","LosePr_2","WinPr_3","LosePr_3","Q0","Q1","Q2","gender","age","ethnicity"
"13073","{""Q0"":""A2S75O867RJG0I""}","survey-text","0","13092","0.0-0.0","63330587","wem/bandit_single","A2S75O867RJG0I","gain","2","","","","","","","","","","","","","","","","","","","","","","","","","","",""
"4674","","text","1","18779","0.0-1.0","63330587","wem/bandit_single","A2S75O867RJG0I","gain","2","32","","","","","","","","","","","","","","","","","","","","","","","","","",""
"4918","","text","2","23705","0.0-2.0","63330587","wem/bandit_single","A2S75O867RJG0I","gain","2","32","","","","","","","","","","","","","","","","","","","","","","","","","",""
"17842","","text","3","41552","0.0-3.0","63330587","wem/bandit_single","A2S75O867RJG0I","gain","2","32","","","","","","","","","","","","","","","","","","","","","","","","","",""
"6605","","text","4","48162","0.0-4.0","63330587","wem/bandit_single","A2S75O867RJG0I","gain","2","32","","","","","","","","","","","","","","","","","","","","","","","","","",""
"10197","","text","5","58364","0.0-5.0","63330587","wem/bandit_single","A2S75O867RJG0I","gain","2","32","","","","","","","","","","","","","","","","","","","","","","","","","",""
"5360","","text","6","63728","0.0-6.0","63330587","wem/bandit_single","A2S75O867RJG0I","gain","2","32","","","","","","","","","","","","","","","","","","","","","","","","","",""
"3729","","text","7","67461","0.0-7.0","63330587","wem/bandit_single","A2S75O867RJG0I","gain","2","32","","","","","","","","","","","","","","","","","","","","","","","","","",""
"2516","","text","8","69981","0.0-8.0","63330587","wem/bandit_single","A2S75O867RJG0I","gain","2","32","","","","","","","","","","","","","","","","","","","","","","","","","",""
"2553","","text","9","72538","0.0-9.0","63330587","wem/bandit_single","A2S75O867RJG0I","gain","2","32","","","","","","","","","","","","","","","","","","","","","","","","","",""
"7390","","text","10","79933","0.0-10.0","63330587","wem/bandit_single","A2S75O867RJG0I","gain","2","32","","","","","","","","","","","","","","","","","","","","","","","","","",""
"14465","","text","11","94401","0.0-11.0","63330587","wem/bandit_single","A2S75O867RJG0I","gain","2","32","","","","","","","","","","","","","","","","","","","","","","","","","",""
"1522","","bandit","12","97436","0.0-12.0-0.0","63330587","wem/bandit_single","A2S75O867RJG0I","gain","2","","74","J","0","img/none_selected_demo.jpg","0","0","1","0","0","true","0","0","0","","","","","","","","","","","","",""
"1179","","bandit","13","100379","0.0-13.0-0.0","63330587","wem/bandit_single","A2S75O867RJG0I","gain","2","","75","K","0","img/none_selected_demo.jpg","0","0","1","0","0","true","0","0","0","","","","","","","","","","","","",""
"1777","","text","14","102415","0.0-14.0","63330587","wem/bandit_single","A2S75O867RJG0I","gain","2","32","","","","","","","","","","","","","","","","","","","","","","","","","",""
"1424","","text","15","103842","0.0-15.0","63330587","wem/bandit_single","A2S75O867RJG0I","gain","2","32","","","","","","","","","","","","","","","","","","","","","","","","","",""
"2715","","text","16","106561","0.0-16.0","63330587","wem/bandit_single","A2S75O867RJG0I","gain","2","32","","","","","","","","","","","","","","","","","","","","","","","","","",""
"2287","","text","17","108852","0.0-17.0","63330587","wem/bandit_single","A2S75O867RJG0I","gain","2","32","","","","","","","","","","","","","","","","","","","","","","","","","",""
"2526","","bandit","18","112898","0.0-18.0-0.0","63330587","wem/bandit_single","A2S75O867RJG0I","gain","2","","75","K","1","","0","0","1","0.2","0","true","0","0.8","0","80_20_practice","0.2","0","","","","","","","","","",""
"1192","","bandit","19","115858","0.0-18.0-1.0","63330587","wem/bandit_single","A2S75O867RJG0I","gain","2","","74","J","0","img/none_selected_demo.jpg","0","0","1","0.8","0","true","0","0.8","0","80_20_practice","0.2","0","","","","","","","","","",""
"1357","","bandit","20","118980","0.0-18.0-2.0","63330587","wem/bandit_single","A2S75O867RJG0I","gain","2","","74","J","0","img/none_selected_demo.jpg","1","0","0","0.8","0","true","0","0.8","0","80_20_practice","0.2","0","","","","","","","","","",""
"1252","","bandit","21","121999","0.0-18.0-3.0","63330587","wem/bandit_single","A2S75O867RJG0I","gain","2","","74","J","0","img/none_selected_demo.jpg","1","0","0","0.8","0","true","0","0.8","0","80_20_practice","0.2","0","","","","","","","","","",""
"1075","","bandit","22","124849","0.0-18.0-4.0","63330587","wem/bandit_single","A2S75O867RJG0I","gain","2","","74","J","0","img/none_selected_demo.jpg","1","0","0","0.8","0","true","0","0.8","0","80_20_practice","0.2","0","","","","","","","","","",""
"1780","","bandit","23","128387","0.0-18.0-5.0","63330587","wem/bandit_single","A2S75O867RJG0I","gain","2","","74","J","0","img/none_selected_demo.jpg","1","0","0","0.8","0","true","0","0.8","0","80_20_practice","0.2","0","","","","","","","","","",""
"1025","","bandit","24","131182","0.0-18.0-6.0","63330587","wem/bandit_single","A2S75O867RJG0I","gain","2","","74","J","0","img/none_selected_demo.jpg","0","0","1","0.8","0","true","0","0.8","0","80_20_practice","0.2","0","","","","","","","","","",""
"676","","bandit","25","133617","0.0-18.0-7.0","63330587","wem/bandit_single","A2S75O867RJG0I","gain","2","","75","K","1","","0","0","1","0.2","0","true","0","0.8","0","80_20_practice","0.2","0","","","","","","","","","",""
"738","","bandit","26","136115","0.0-18.0-8.0","63330587","wem/bandit_single","A2S75O867RJG0I","gain","2","","75","K","1","","1","0","0","0.2","0","true","0","0.8","0","80_20_practice","0.2","0","","","","","","","","","",""
"2094","","bandit","27","139969","0.0-18.0-9.0","63330587","wem/bandit_single","A2S75O867RJG0I","gain","2","","74","J","0","img/none_selected_demo.jpg","1","0","0","0.8","0","true","0","0.8","0","80_20_practice","0.2","0","","","","","","","","","",""
"939","","bandit","28","142669","0.0-18.0-10.0","63330587","wem/bandit_single","A2S75O867RJG0I","gain","2","","74","J","0","img/none_selected_demo.jpg","1","0","0","0.8","0","true","0","0.8","0","80_20_practice","0.2","0","","","","","","","","","",""
"820","","bandit","29","145254","0.0-18.0-11.0","63330587","wem/bandit_single","A2S75O867RJG0I","gain","2","","74","J","0","img/none_selected_demo.jpg","1","0","0","0.8","0","true","0","0.8","0","80_20_practice","0.2","0","","","","","","","","","",""
"895","","bandit","30","147916","0.0-18.0-12.0","63330587","wem/bandit_single","A2S75O867RJG0I","gain","2","","74","J","0","img/none_selected_demo.jpg","1","0","0","0.8","0","true","0","0.8","0","80_20_practice","0.2","0","","","","","","","","","",""
"550","","bandit","31","150229","0.0-18.0-13.0","63330587","wem/bandit_single","A2S75O867RJG0I","gain","2","","75","K","1","","0","0","1","0.2","0","true","0","0.8","0","80_20_practice","0.2","0","","","","","","","","","",""
"597","","bandit","32","152599","0.0-18.0-14.0","63330587","wem/bandit_single","A2S75O867RJG0I","gain","2","","75","K","1","","0","0","1","0.2","0","true","0","0.8","0","80_20_practice","0.2","0","","","","","","","","","",""
"807","","bandit","33","155165","0.0-18.0-15.0","63330587","wem/bandit_single","A2S75O867RJG0I","gain","2","","74","J","0","img/none_selected_demo.jpg","1","0","0","0.8","0","true","0","0.8","0","80_20_practice","0.2","0","","","","","","","","","",""
"778","","bandit","34","157703","0.0-18.0-16.0","63330587","wem/bandit_single","A2S75O867RJG0I","gain","2","","74","J","0","img/none_selected_demo.jpg","1","0","0","0.8","0","true","0","0.8","0","80_20_practice","0.2","0","","","","","","","","","",""
"750","","bandit","35","160213","0.0-18.0-17.0","63330587","wem/bandit_single","A2S75O867RJG0I","gain","2","","74","J","0","img/none_selected_demo.jpg","1","0","0","0.8","0","true","0","0.8","0","80_20_practice","0.2","0","","","","","","","","","",""
"524","","bandit","36","162497","0.0-18.0-18.0","63330587","wem/bandit_single","A2S75O867RJG0I","gain","2","","74","J","0","img/none_selected_demo.jpg","0","0","1","0.8","0","true","0","0.8","0","80_20_practice","0.2","0","","","","","","","","","",""
"817","","bandit","37","165080","0.0-18.0-19.0","63330587","wem/bandit_single","A2S75O867RJG0I","gain","2","","75","K","1","","0","0","1","0.2","0","true","0","0.8","0","80_20_practice","0.2","0","","","","","","","","","",""
"10009","","text","38","175344","0.0-19.0","63330587","wem/bandit_single","A2S75O867RJG0I","gain","2","32","","","","","","","","","","","","","","","","","","","","","","","","","",""
"1758","","bandit","39","178611","0.0-20.0-0.0","63330587","wem/bandit_single","A2S75O867RJG0I","gain","2","","74","J","0","img/none_selected_demo.jpg","0","0","1","0","0","true","0","0","0","","0","0","","","","","","","","","",""
"7295","","text","40","186164","0.0-21.0","63330587","wem/bandit_single","A2S75O867RJG0I","gain","2","32","","","","","","","","","","","","","","","","","","","","","","","","","",""
"7425","","text","41","193595","0.0-22.0","63330587","wem/bandit_single","A2S75O867RJG0I","gain","2","32","","","","","","","","","","","","","","","","","","","","","","","","","",""
"3357","","text","42","196959","0.0-23.0","63330587","wem/bandit_single","A2S75O867RJG0I","gain","2","32","","","","","","","","","","","","","","","","","","","","","","","","","",""
"6863","","text","43","203828","0.0-24.0","63330587","wem/bandit_single","A2S75O867RJG0I","gain","2","32","","","","","","","","","","","","","","","","","","","","","","","","","",""
"9694","","text","44","213527","0.0-25.0","63330587","wem/bandit_single","A2S75O867RJG0I","gain","2","32","","","","","","","","","","","","","","","","","","","","","","","","","",""
"3839","","text","45","217370","0.0-26.0","63330587","wem/bandit_single","A2S75O867RJG0I","gain","2","32","","","","","","","","","","","","","","","","","","","","","","","","","",""
"7446","","text","46","224822","0.0-27.0","63330587","wem/bandit_single","A2S75O867RJG0I","gain","2","32","","","","","","","","","","","","","","","","","","","","","","","","","",""
"4460","","text","47","229289","0.0-28.0","63330587","wem/bandit_single","A2S75O867RJG0I","gain","2","32","","","","","","","","","","","","","","","","","","","","","","","","","",""
"8401","","text","48","237696","0.0-29.0","63330587","wem/bandit_single","A2S75O867RJG0I","gain","2","32","","","","","","","","","","","","","","","","","","","","","","","","","",""
"4464","","text","49","242167","0.0-30.0","63330587","wem/bandit_single","A2S75O867RJG0I","gain","2","32","","","","","","","","","","","","","","","","","","","","","","","","","",""
"5473","","text","50","247645","0.0-31.0","63330587","wem/bandit_single","A2S75O867RJG0I","gain","2","32","","","","","","","","","","","","","","","","","","","","","","","","","",""
"1620","","bandit","51","250775","0.0-32.0-0.0","63330587","wem/bandit_single","A2S75O867RJG0I","gain","2","","74","J","1","","0","0","1","0.2","0","true","0","0.8","0","full_practice","0.2","0","0.6","0","0.2","0","","","","","",""
"604","","bandit","52","253142","0.0-32.0-1.0","63330587","wem/bandit_single","A2S75O867RJG0I","gain","2","","74","J","1","","0","0","1","0.2","0","true","0","0.8","0","full_practice","0.2","0","0.6","0","0.2","0","","","","","",""
"4941","","bandit","53","259845","0.0-32.0-2.0","63330587","wem/bandit_single","A2S75O867RJG0I","gain","2","","72","H","0","img/none_selected.jpg","1","0","0","0.8","0","true","0","0.8","0","full_practice","0.2","0","0.6","0","0.2","0","","","","","",""
"486","","bandit","54","262092","0.0-32.0-3.0","63330587","wem/bandit_single","A2S75O867RJG0I","gain","2","","72","H","0","img/none_selected.jpg","1","0","0","0.8","0","true","0","0.8","0","full_practice","0.2","0","0.6","0","0.2","0","","","","","",""
"422","","bandit","55","264275","0.0-32.0-4.0","63330587","wem/bandit_single","A2S75O867RJG0I","gain","2","","72","H","0","img/none_selected.jpg","1","0","0","0.8","0","true","0","0.8","0","full_practice","0.2","0","0.6","0","0.2","0","","","","","",""
"264","","bandit","56","266299","0.0-32.0-5.0","63330587","wem/bandit_single","A2S75O867RJG0I","gain","2","","72","H","0","img/none_selected.jpg","1","0","0","0.8","0","true","0","0.8","0","full_practice","0.2","0","0.6","0","0.2","0","","","","","",""
"211","","bandit","57","268278","0.0-32.0-6.0","63330587","wem/bandit_single","A2S75O867RJG0I","gain","2","","72","H","0","img/none_selected.jpg","0","0","1","0.8","0","true","0","0.8","0","full_practice","0.2","0","0.6","0","0.2","0","","","","","",""
"454","","bandit","58","270496","0.0-32.0-7.0","63330587","wem/bandit_single","A2S75O867RJG0I","gain","2","","72","H","0","img/none_selected.jpg","1","0","0","0.8","0","true","0","0.8","0","full_practice","0.2","0","0.6","0","0.2","0","","","","","",""
"314","","bandit","59","272576","0.0-32.0-8.0","63330587","wem/bandit_single","A2S75O867RJG0I","gain","2","","72","H","0","img/none_selected.jpg","0","0","1","0.8","0","true","0","0.8","0","full_practice","0.2","0","0.6","0","0.2","0","","","","","",""
"593","","bandit","60","274960","0.0-32.0-9.0","63330587","wem/bandit_single","A2S75O867RJG0I","gain","2","","74","J","1","","0","0","1","0.2","0","true","0","0.8","0","full_practice","0.2","0","0.6","0","0.2","0","","","","","",""
"566","","bandit","61","277296","0.0-32.0-10.0","63330587","wem/bandit_single","A2S75O867RJG0I","gain","2","","75","K","2","","0","0","1","0.6","0","true","0","0.8","0","full_practice","0.2","0","0.6","0","0.2","0","","","","","",""
"556","","bandit","62","279611","0.0-32.0-11.0","63330587","wem/bandit_single","A2S75O867RJG0I","gain","2","","75","K","2","","1","0","0","0.6","0","true","0","0.8","0","full_practice","0.2","0","0.6","0","0.2","0","","","","","",""
"458","","bandit","63","281846","0.0-32.0-12.0","63330587","wem/bandit_single","A2S75O867RJG0I","gain","2","","75","K","2","","1","0","0","0.6","0","true","0","0.8","0","full_practice","0.2","0","0.6","0","0.2","0","","","","","",""
"304","","bandit","64","283913","0.0-32.0-13.0","63330587","wem/bandit_single","A2S75O867RJG0I","gain","2","","75","K","2","","1","0","0","0.6","0","true","0","0.8","0","full_practice","0.2","0","0.6","0","0.2","0","","","","","",""
"396","","bandit","65","286075","0.0-32.0-14.0","63330587","wem/bandit_single","A2S75O867RJG0I","gain","2","","75","K","2","","1","0","0","0.6","0","true","0","0.8","0","full_practice","0.2","0","0.6","0","0.2","0","","","","","",""
"329","","bandit","66","288183","0.0-32.0-15.0","63330587","wem/bandit_single","A2S75O867RJG0I","gain","2","","75","K","2","","1","0","0","0.6","0","true","0","0.8","0","full_practice","0.2","0","0.6","0","0.2","0","","","","","",""
"213","","bandit","67","290159","0.0-32.0-16.0","63330587","wem/bandit_single","A2S75O867RJG0I","gain","2","","75","K","2","","1","0","0","0.6","0","true","0","0.8","0","full_practice","0.2","0","0.6","0","0.2","0","","","","","",""
"217","","bandit","68","292139","0.0-32.0-17.0","63330587","wem/bandit_single","A2S75O867RJG0I","gain","2","","75","K","2","","1","0","0","0.6","0","true","0","0.8","0","full_practice","0.2","0","0.6","0","0.2","0","","","","","",""
"262","","bandit","69","294162","0.0-32.0-18.0","63330587","wem/bandit_single","A2S75O867RJG0I","gain","2","","75","K","2","","1","0","0","0.6","0","true","0","0.8","0","full_practice","0.2","0","0.6","0","0.2","0","","","","","",""
"80","","bandit","70","296011","0.0-32.0-19.0","63330587","wem/bandit_single","A2S75O867RJG0I","gain","2","","75","K","2","","1","0","0","0.6","0","true","0","0.8","0","full_practice","0.2","0","0.6","0","0.2","0","","","","","",""
"2903","","text","71","299184","0.0-33.0","63330587","wem/bandit_single","A2S75O867RJG0I","gain","2","32","","","","","","","","","","","","","","","","","","","","","","","","","",""
"11229","","text","72","311421","0.0-34.0","63330587","wem/bandit_single","A2S75O867RJG0I","gain","2","32","","","","","","","","","","","","","","","","","","","","","","","","","",""
"6069","","text","73","317497","0.0-35.0","63330587","wem/bandit_single","A2S75O867RJG0I","gain","2","32","","","","","","","","","","","","","","","","","","","","","","","","","",""
"3609","","text","74","321115","0.0-36.0","63330587","wem/bandit_single","A2S75O867RJG0I","gain","2","32","","","","","","","","","","","","","","","","","","","","","","","","","",""
"5457","","text","75","326579","0.0-37.0","63330587","wem/bandit_single","A2S75O867RJG0I","gain","2","32","","","","","","","","","","","","","","","","","","","","","","","","","",""
"1473","","bandit","76","329563","0.0-38.0-0.0","63330587","wem/bandit_single","A2S75O867RJG0I","gain","2","","75","K","2","","0","0","1","0.1196507759","","false","1","0.1047922924","","main_expt","0.1473353724","","0.1196507759","","0.03692567881","","","","","","",""
"528","","bandit","77","331857","0.0-39.0-0.0","63330587","wem/bandit_single","A2S75O867RJG0I","gain","2","","76","L","3","","0","0","1","0.0535834513","","false","2","0.09232691068","","main_expt","0.1471364572","","0.1434551849","","0.0535834513","","","","","","",""
"607","","bandit","78","334231","0.0-40.0-0.0","63330587","wem/bandit_single","A2S75O867RJG0I","gain","2","","74","J","1","","0","0","1","0.1792173289","","false","3","0.07878604621","","main_expt","0.1792173289","","0.1966750378","","0.06455495551","","","","","","",""
"291","","bandit","79","336289","0.0-41.0-0.0","63330587","wem/bandit_single","A2S75O867RJG0I","gain","2","","72","H","0","img/none_selected.jpg","1","0","0","0.06180226224","","false","4","0.06180226224","","main_expt","0.2089457512","","0.1731728381","","0.1075220519","","","","","","",""
"271","","bandit","80","338324","0.0-42.0-0.0","63330587","wem/bandit_single","A2S75O867RJG0I","gain","2","","72","H","0","img/none_selected.jpg","0","0","1","0.05657605877","","false","5","0.05657605877","","main_expt","0.2627176439","","0.151671232","","0.1459974634","","","","","","",""
"215","","bandit","81","340307","0.0-43.0-0.0","63330587","wem/bandit_single","A2S75O867RJG0I","gain","2","","72","H","0","img/none_selected.jpg","0","0","1","0.03926223851","","false","6","0.03926223851","","main_expt","0.2052823447","","0.2201434377","","0.1119865757","","","","","","",""
"211","","bandit","82","342307","0.0-44.0-0.0","63330587","wem/bandit_single","A2S75O867RJG0I","gain","2","","75","K","2","","0","0","1","0.1924323999","","false","7","0.02952185798","","main_expt","0.2424381104","","0.1924323999","","0.1135710889","","","","","","",""
"519","","bandit","83","344595","0.0-45.0-0.0","63330587","wem/bandit_single","A2S75O867RJG0I","gain","2","","74","J","1","","1","0","0","0.2324683495","","false","8","0.01847757052","","main_expt","0.2324683495","","0.187431757","","0.148696524","","","","","","",""
"160","","bandit","84","346523","0.0-46.0-0.0","63330587","wem/bandit_single","A2S75O867RJG0I","gain","2","","74","J","1","","0","0","1","0.2440295668","","false","9","0.02695314055","","main_expt","0.2440295668","","0.197470847","","0.1181121295","","","","","","",""
"181","","bandit","85","348463","0.0-47.0-0.0","63330587","wem/bandit_single","A2S75O867RJG0I","gain","2","","74","J","1","","0","0","1","0.2465422232","","false","10","0.02234311218","","main_expt","0.2465422232","","0.2298270047","","0.1082266346","","","","","","",""
"353","","bandit","86","350592","0.0-48.0-0.0","63330587","wem/bandit_single","A2S75O867RJG0I","gain","2","","72","H","0","img/none_selected.jpg","0","0","1","0.04960883058","","false","11","0.04960883058","","main_expt","0.1529972956","","0.2124937163","","0.1102162287","","","","","","",""
"288","","bandit","87","352642","0.0-49.0-0.0","63330587","wem/bandit_single","A2S75O867RJG0I","gain","2","","76","L","3","","0","0","1","0.1420736562","","false","12","0.06086541187","","main_expt","0.1827224572","","0.2043121782","","0.1420736562","","","","","","",""
"104","","bandit","88","354517","0.0-50.0-0.0","63330587","wem/bandit_single","A2S75O867RJG0I","gain","2","","75","K","2","","1","0","0","0.2122729008","","false","13","0.06603274732","","main_expt","0.1973099221","","0.2122729008","","0.1582971975","","","","","","",""
"233","","bandit","89","356511","0.0-51.0-0.0","63330587","wem/bandit_single","A2S75O867RJG0I","gain","2","","75","K","2","","0","0","1","0.1748916548","","false","14","0.06952645267","","main_expt","0.2002936143","","0.1748916548","","0.1278364912","","","","","","",""
"225","","bandit","90","358506","0.0-52.0-0.0","63330587","wem/bandit_single","A2S75O867RJG0I","gain","2","","75","K","2","","0","0","1","0.1598041939","","false","15","0.06705093019","","main_expt","0.2100222876","","0.1598041939","","0.1389591295","","","","","","",""
"208","","bandit","91","360480","0.0-53.0-0.0","63330587","wem/bandit_single","A2S75O867RJG0I","gain","2","","74","J","1","","0","0","1","0.192095419","","false","16","0.08739136862","","main_expt","0.192095419","","0.1496559895","","0.1087507618","","","","","","",""
"237","","bandit","92","362483","0.0-54.0-0.0","63330587","wem/bandit_single","A2S75O867RJG0I","gain","2","","72","H","0","img/none_selected.jpg","0","0","1","0.0633177824","","false","17","0.0633177824","","main_expt","0.2057363858","","0.1855105105","","0.1591778588","","","","","","",""
"250","","bandit","93","364494","0.0-55.0-0.0","63330587","wem/bandit_single","A2S75O867RJG0I","gain","2","","72","H","0","img/none_selected.jpg","0","0","1","0.05969087175","","false","18","0.05969087175","","main_expt","0.2142317849","","0.180786103","","0.1612769879","","","","","","",""
"130","","bandit","94","366390","0.0-56.0-0.0","63330587","wem/bandit_single","A2S75O867RJG0I","gain","2","","74","J","1","","0","0","1","0.2416868574","","false","19","0.08316546351","","main_expt","0.2416868574","","0.1867551017","","0.1706614454","","","","","","",""
"58","","bandit","95","368212","0.0-57.0-0.0","63330587","wem/bandit_single","A2S75O867RJG0I","gain","2","","75","K","2","","0","0","1","0.2414580321","","false","20","0.08506169859","","main_expt","0.2556662882","","0.2414580321","","0.2173206475","","","","","","",""
"105","","bandit","96","370088","0.0-58.0-0.0","63330587","wem/bandit_single","A2S75O867RJG0I","gain","2","","75","K","2","","1","0","0","0.2552731096","","false","21","0.08337624199","","main_expt","0.2484624222","","0.2552731096","","0.2297715145","","","","","","",""
"57","","bandit","97","371921","0.0-59.0-0.0","63330587","wem/bandit_single","A2S75O867RJG0I","gain","2","","75","K","2","","1","0","0","0.2706059063","","false","22","0.09400888178","","main_expt","0.3180013331","","0.2706059063","","0.2893552095","","","","","","",""
"180","","bandit","98","373873","0.0-60.0-0.0","63330587","wem/bandit_single","A2S75O867RJG0I","gain","2","","75","K","2","","0","0","1","0.2240124609","","false","23","0.08373077729","","main_expt","0.3018869565","","0.2240124609","","0.1756353462","","","","","","",""
"39","","bandit","99","375673","0.0-61.0-0.0","63330587","wem/bandit_single","A2S75O867RJG0I","gain","2","","75","K","2","","0","0","1","0.2337623096","","false","24","0.07394888686","","main_expt","0.3479913718","","0.2337623096","","0.144307289","","","","","","",""
"173","","bandit","100","377613","0.0-62.0-0.0","63330587","wem/bandit_single","A2S75O867RJG0I","gain","2","","75","K","2","","0","0","1","0.1992837424","","false","25","0.1177231478","","main_expt","0.3851600672","","0.1992837424","","0.1103761204","","","","","","",""
"112","","bandit","101","379492","0.0-63.0-0.0","63330587","wem/bandit_single","A2S75O867RJG0I","gain","2","","76","L","3","","0","0","1","0.09313295331","","false","26","0.1137187285","","main_expt","0.3771699284","","0.2273902023","","0.09313295331","","","","","","",""
"121","","bandit","102","381376","0.0-64.0-0.0","63330587","wem/bandit_single","A2S75O867RJG0I","gain","2","","76","L","3","","1","0","0","0.07841862492","","false","27","0.1380279251","","main_expt","0.3284072512","","0.2020281611","","0.07841862492","","","","","","",""
"157","","bandit","103","383310","0.0-65.0-0.0","63330587","wem/bandit_single","A2S75O867RJG0I","gain","2","","76","L","3","","0","0","1","0.0635621653","","false","28","0.1926536066","","main_expt","0.3708797381","","0.2121805601","","0.0635621653","","","","","","",""
"118","","bandit","104","385196","0.0-66.0-0.0","63330587","wem/bandit_single","A2S75O867RJG0I","gain","2","","76","L","3","","0","0","1","0.04349452081","","false","29","0.1919064193","","main_expt","0.3630760189","","0.1986823058","","0.04349452081","","","","","","",""
"240","","bandit","105","387216","0.0-67.0-0.0","63330587","wem/bandit_single","A2S75O867RJG0I","gain","2","","72","H","0","img/none_selected.jpg","0","0","1","0.1767437005","","false","30","0.1767437005","","main_expt","0.3414786107","","0.2674628916","","0.06175929786","","","","","","",""
"195","","bandit","106","389174","0.0-68.0-0.0","63330587","wem/bandit_single","A2S75O867RJG0I","gain","2","","72","H","0","img/none_selected.jpg","0","0","1","0.2417082081","","false","31","0.2417082081","","main_expt","0.3536929226","","0.2862820789","","0.06380111671","","","","","","",""
"234","","bandit","107","391174","0.0-69.0-0.0","63330587","wem/bandit_single","A2S75O867RJG0I","gain","2","","72","H","0","img/none_selected.jpg","0","0","1","0.2312742115","","false","32","0.2312742115","","main_expt","0.3238646006","","0.2895619367","","0.08507033619","","","","","","",""
"51","","bandit","108","392996","0.0-70.0-0.0","63330587","wem/bandit_single","A2S75O867RJG0I","gain","2","","72","H","0","img/none_selected.jpg","1","0","0","0.2247834387","","false","33","0.2247834387","","main_expt","0.3018803865","","0.312502841","","0.1242974044","","","","","","",""
"91","","bandit","109","394864","0.0-71.0-0.0","63330587","wem/bandit_single","A2S75O867RJG0I","gain","2","","72","H","0","img/none_selected.jpg","0","0","1","0.1192543008","","false","34","0.1192543008","","main_expt","0.2551449341","","0.2830864838","","0.158311101","","","","","","",""
"395","","bandit","110","397026","0.0-72.0-0.0","63330587","wem/bandit_single","A2S75O867RJG0I","gain","2","","72","H","0","img/none_selected.jpg","0","0","1","0.1336327135","","false","35","0.1336327135","","main_expt","0.3200580053","","0.2489219385","","0.1293969191","","","","","","",""
"258","","bandit","111","399056","0.0-73.0-0.0","63330587","wem/bandit_single","A2S75O867RJG0I","gain","2","","75","K","2","","0","0","1","0.2090346537","","false","36","0.09851205292","","main_expt","0.3241899647","","0.2090346537","","0.1800853883","","","","","","",""
"186","","bandit","112","401006","0.0-74.0-0.0","63330587","wem/bandit_single","A2S75O867RJG0I","gain","2","","75","K","2","","0","0","1","0.210385238","","false","37","0.05943694951","","main_expt","0.3029113802","","0.210385238","","0.1025448258","","","","","","",""
"270","","bandit","113","403044","0.0-75.0-0.0","63330587","wem/bandit_single","A2S75O867RJG0I","gain","2","","75","K","2","","0","0","1","0.162227856","","false","38","0.06217728149","","main_expt","0.2958592888","","0.162227856","","0.1604021245","","","","","","",""
"157","","bandit","114","404996","0.0-76.0-0.0","63330587","wem/bandit_single","A2S75O867RJG0I","gain","2","","74","J","1","","0","0","1","0.2941945884","","false","39","0.08902833973","","main_expt","0.2941945884","","0.1444893634","","0.1336531769","","","","","","",""
"286","","bandit","115","407053","0.0-77.0-0.0","63330587","wem/bandit_single","A2S75O867RJG0I","gain","2","","76","L","3","","0","0","1","0.1356889635","","false","40","0.1098655825","","main_expt","0.2784490849","","0.1340169349","","0.1356889635","","","","","","",""
"142","","bandit","116","408990","0.0-78.0-0.0","63330587","wem/bandit_single","A2S75O867RJG0I","gain","2","","76","L","3","","0","0","1","0.1434276379","","false","41","0.125718056","","main_expt","0.2943099773","","0.1019114547","","0.1434276379","","","","","","",""
"1566","","bandit","117","412327","0.0-79.0-0.0","63330587","wem/bandit_single","A2S75O867RJG0I","gain","2","","72","H","0","img/none_selected.jpg","0","0","1","0.07668278466","","false","42","0.07668278466","","main_expt","0.2502187242","","0.07379386716","","0.1432973755","","","","","","",""
"141","","bandit","118","414240","0.0-80.0-0.0","63330587","wem/bandit_single","A2S75O867RJG0I","gain","2","","72","H","0","img/none_selected.jpg","0","0","1","0.08403116819","","false","43","0.08403116819","","main_expt","0.2691097515","","0.08186566242","","0.1605884153","","","","","","",""
"172","","bandit","119","416177","0.0-81.0-0.0","63330587","wem/bandit_single","A2S75O867RJG0I","gain","2","","74","J","1","","1","0","0","0.2601206974","","false","44","0.08258467284","","main_expt","0.2601206974","","0.08692603594","","0.1396132557","","","","","","",""
"125","","bandit","120","418075","0.0-82.0-0.0","63330587","wem/bandit_single","A2S75O867RJG0I","gain","2","","74","J","1","","0","0","1","0.3222012474","","false","45","0.07253936928","","main_expt","0.3222012474","","0.1212470101","","0.2250933593","","","","","","",""
"113","","bandit","121","419955","0.0-83.0-0.0","63330587","wem/bandit_single","A2S75O867RJG0I","gain","2","","74","J","1","","0","0","1","0.3060845752","","false","46","0.05374479905","","main_expt","0.3060845752","","0.134661007","","0.1826421925","","","","","","",""
"116","","bandit","122","421842","0.0-84.0-0.0","63330587","wem/bandit_single","A2S75O867RJG0I","gain","2","","74","J","1","","0","0","1","0.290950603","","false","47","0.06764850751","","main_expt","0.290950603","","0.1377890551","","0.1706758886","","","","","","",""
"249","","bandit","123","423867","0.0-85.0-0.0","63330587","wem/bandit_single","A2S75O867RJG0I","gain","2","","75","K","2","","0","0","1","0.1325860966","","false","48","0.05656727153","","main_expt","0.329307254","","0.1325860966","","0.1686178854","","","","","","",""
"119","","bandit","124","425759","0.0-86.0-0.0","63330587","wem/bandit_single","A2S75O867RJG0I","gain","2","","75","K","2","","0","0","1","0.1231750139","","false","49","0.08131597157","","main_expt","0.405044281","","0.1231750139","","0.1822379713","","","","","","",""
"148","","bandit","125","427677","0.0-87.0-0.0","63330587","wem/bandit_single","A2S75O867RJG0I","gain","2","","75","K","2","","0","0","1","0.1565964086","","false","50","0.08274267654","","main_expt","0.4121919591","","0.1565964086","","0.2513484478","","","","","","",""
"121","","bandit","126","429568","0.0-88.0-0.0","63330587","wem/bandit_single","A2S75O867RJG0I","gain","2","","74","J","1","","0","0","1","0.4271607293","","false","51","0.1154896937","","main_expt","0.4271607293","","0.1464659706","","0.2812942615","","","","","","",""
"108","","bandit","127","431451","0.0-89.0-0.0","63330587","wem/bandit_single","A2S75O867RJG0I","gain","2","","74","J","1","","0","0","1","0.4249516559","","false","52","0.07649260985","","main_expt","0.4249516559","","0.1196909414","","0.2224049931","","","","","","",""
"99","","bandit","128","433333","0.0-90.0-0.0","63330587","wem/bandit_single","A2S75O867RJG0I","gain","2","","76","L","3","","1","0","0","0.2135714686","","false","53","0.06211708307","","main_expt","0.414238899","","0.1578713891","","0.2135714686","","","","","","",""
"176","","bandit","129","435276","0.0-91.0-0.0","63330587","wem/bandit_single","A2S75O867RJG0I","gain","2","","76","L","3","","1","0","0","0.2471494284","","false","54","0.05122165179","","main_expt","0.4404827494","","0.1420893662","","0.2471494284","","","","","","",""
"185","","bandit","130","437235","0.0-92.0-0.0","63330587","wem/bandit_single","A2S75O867RJG0I","gain","2","","76","L","3","","0","0","1","0.26732004","","false","55","0.05779626682","","main_expt","0.4258944343","","0.1255118638","","0.26732004","","","","","","",""
"139","","bandit","131","439138","0.0-93.0-0.0","63330587","wem/bandit_single","A2S75O867RJG0I","gain","2","","76","L","3","","1","0","0","0.258853447","","false","56","0.06578325953","","main_expt","0.4058732664","","0.1040792381","","0.258853447","","","","","","",""
"112","","bandit","132","441021","0.0-94.0-0.0","63330587","wem/bandit_single","A2S75O867RJG0I","gain","2","","76","L","3","","1","0","0","0.247757255","","false","57","0.07487929626","","main_expt","0.4269212616","","0.1058118143","","0.247757255","","","","","","",""
"171","","bandit","133","442969","0.0-95.0-0.0","63330587","wem/bandit_single","A2S75O867RJG0I","gain","2","","76","L","3","","0","0","1","0.2380046022","","false","58","0.05601765109","","main_expt","0.4120073189","","0.08107820888","","0.2380046022","","","","","","",""
"149","","bandit","134","444886","0.0-96.0-0.0","63330587","wem/bandit_single","A2S75O867RJG0I","gain","2","","76","L","3","","0","0","1","0.273239949","","false","59","0.07158824907","","main_expt","0.367464959","","0.115954585","","0.273239949","","","","","","",""
"135","","bandit","135","446787","0.0-97.0-0.0","63330587","wem/bandit_single","A2S75O867RJG0I","gain","2","","76","L","3","","0","0","1","0.314936794","","false","60","0.1021813758","","main_expt","0.3113576115","","0.190529156","","0.314936794","","","","","","",""
"176","","bandit","136","448735","0.0-98.0-0.0","63330587","wem/bandit_single","A2S75O867RJG0I","gain","2","","75","K","2","","0","0","1","0.2024767933","","false","61","0.1422244628","","main_expt","0.3217665369","","0.2024767933","","0.3361315769","","","","","","",""
"134","","bandit","137","450654","0.0-99.0-0.0","63330587","wem/bandit_single","A2S75O867RJG0I","gain","2","","75","K","2","","0","0","1","0.1478811465","","false","62","0.1543762338","","main_expt","0.3396020841","","0.1478811465","","0.3012470308","","","","","","",""
"121","","bandit","138","452551","0.0-100.0-0.0","63330587","wem/bandit_single","A2S75O867RJG0I","gain","2","","74","J","1","","0","0","1","0.3326008901","","false","63","0.1957871903","","main_expt","0.3326008901","","0.1472080331","","0.3035933772","","","","","","",""
"501","","bandit","139","454818","0.0-101.0-0.0","63330587","wem/bandit_single","A2S75O867RJG0I","gain","2","","72","H","0","img/none_selected.jpg","0","0","1","0.1998827037","","false","64","0.1998827037","","main_expt","0.2759567044","","0.1523556625","","0.3061864711","","","","","","",""
"69","","bandit","140","456660","0.0-102.0-0.0","63330587","wem/bandit_single","A2S75O867RJG0I","gain","2","","72","H","0","img/none_selected.jpg","0","0","1","0.2229124218","","false","65","0.2229124218","","main_expt","0.330340259","","0.1640586258","","0.2795045379","","","","","","",""
"1341","","bandit","141","459773","0.0-103.0-0.0","63330587","wem/bandit_single","A2S75O867RJG0I","gain","2","","72","H","0","img/none_selected.jpg","0","0","1","0.2821528041","","false","66","0.2821528041","","main_expt","0.394496842","","0.1559289375","","0.2624990872","","","","","","",""
"311","","bandit","142","461856","0.0-104.0-0.0","63330587","wem/bandit_single","A2S75O867RJG0I","gain","2","","72","H","0","img/none_selected.jpg","0","0","1","0.2228434199","","false","67","0.2228434199","","main_expt","0.3780229448","","0.09042099393","","0.2316809648","","","","","","",""
"1778","","bandit","143","465427","0.0-105.0-0.0","63330587","wem/bandit_single","A2S75O867RJG0I","gain","2","","76","L","3","","1","0","0","0.2266776066","","false","68","0.2039549584","","main_expt","0.313258317","","0.08874767337","","0.2266776066","","","","","","",""
"66","","bandit","144","467264","0.0-106.0-0.0","63330587","wem/bandit_single","A2S75O867RJG0I","gain","2","","76","L","3","","0","0","1","0.1734363374","","false","69","0.1998164138","","main_expt","0.3466590849","","0.09103688118","","0.1734363374","","","","","","",""
"470","","bandit","145","469502","0.0-107.0-0.0","63330587","wem/bandit_single","A2S75O867RJG0I","gain","2","","76","L","3","","0","0","1","0.1469163378","","false","70","0.1936545157","","main_expt","0.3389702644","","0.139461016","","0.1469163378","","","","","","",""
"53","","bandit","146","471331","0.0-108.0-0.0","63330587","wem/bandit_single","A2S75O867RJG0I","gain","2","","75","K","2","","0","0","1","0.1269809057","","false","71","0.1875420319","","main_expt","0.3037518088","","0.1269809057","","0.1903103683","","","","","","",""
"148","","bandit","147","473250","0.0-109.0-0.0","63330587","wem/bandit_single","A2S75O867RJG0I","gain","2","","74","J","1","","0","0","1","0.3007282465","","false","72","0.2275961541","","main_expt","0.3007282465","","0.1541032278","","0.2364630875","","","","","","",""
"187","","bandit","148","475202","0.0-110.0-0.0","63330587","wem/bandit_single","A2S75O867RJG0I","gain","2","","74","J","1","","0","0","1","0.2796446257","","false","73","0.2485431464","","main_expt","0.2796446257","","0.1618198783","","0.2715971604","","","","","","",""
"184","","bandit","149","477153","0.0-111.0-0.0","63330587","wem/bandit_single","A2S75O867RJG0I","gain","2","","74","J","1","","0","0","1","0.2729876577","","false","74","0.2394527842","","main_expt","0.2729876577","","0.1428156761","","0.2716254876","","","","","","",""
"133","","bandit","150","479051","0.0-112.0-0.0","63330587","wem/bandit_single","A2S75O867RJG0I","gain","2","","75","K","2","","0","0","1","0.1312504708","","false","75","0.2074684787","","main_expt","0.2067723694","","0.1312504708","","0.2998540279","","","","","","",""
"71","","bandit","151","480889","0.0-113.0-0.0","63330587","wem/bandit_single","A2S75O867RJG0I","gain","2","","75","K","2","","0","0","1","0.1002429729","","false","76","0.178133335","","main_expt","0.2130899639","","0.1002429729","","0.3195890579","","","","","","",""
"155","","bandit","152","482815","0.0-114.0-0.0","63330587","wem/bandit_single","A2S75O867RJG0I","gain","2","","76","L","3","","0","0","1","0.2856322382","","false","77","0.1788248706","","main_expt","0.2109525889","","0.07543037954","","0.2856322382","","","","","","",""
"2233","","bandit","153","486816","0.0-115.0-0.0","63330587","wem/bandit_single","A2S75O867RJG0I","gain","2","","72","H","0","img/none_selected.jpg","0","0","1","0.1530293784","","false","78","0.1530293784","","main_expt","0.1884332626","","0.1153668935","","0.2919105172","","","","","","",""
"278","","bandit","154","488866","0.0-116.0-0.0","63330587","wem/bandit_single","A2S75O867RJG0I","gain","2","","72","H","0","img/none_selected.jpg","0","0","1","0.1593806387","","false","79","0.1593806387","","main_expt","0.1883433777","","0.07716777456","","0.2567181874","","","","","","",""
"219","","bandit","155","490856","0.0-117.0-0.0","63330587","wem/bandit_single","A2S75O867RJG0I","gain","2","","72","H","0","img/none_selected.jpg","0","0","1","0.1428411119","","false","80","0.1428411119","","main_expt","0.1998795799","","0.08058819474","","0.3200023444","","","","","","",""
"211","","bandit","156","492835","0.0-118.0-0.0","63330587","wem/bandit_single","A2S75O867RJG0I","gain","2","","74","J","1","","0","0","1","0.1651756375","","false","81","0.1982686668","","main_expt","0.1651756375","","0.09856946308","","0.3117755618","","","","","","",""
"154","","bandit","157","494755","0.0-119.0-0.0","63330587","wem/bandit_single","A2S75O867RJG0I","gain","2","","74","J","1","","0","0","1","0.2235829688","","false","82","0.2291501313","","main_expt","0.2235829688","","0.1000946235","","0.3379160562","","","","","","",""
"225","","bandit","158","496752","0.0-120.0-0.0","63330587","wem/bandit_single","A2S75O867RJG0I","gain","2","","75","K","2","","0","0","1","0.06687408093","","false","83","0.2259362275","","main_expt","0.2456561592","","0.06687408093","","0.3620865136","","","","","","",""
"238","","bandit","159","498762","0.0-121.0-0.0","63330587","wem/bandit_single","A2S75O867RJG0I","gain","2","","75","K","2","","0","0","1","0.06463964557","","false","84","0.1733031115","","main_expt","0.2790354554","","0.06463964557","","0.3904685548","","","","","","",""
"156","","bandit","160","500687","0.0-122.0-0.0","63330587","wem/bandit_single","A2S75O867RJG0I","gain","2","","75","K","2","","0","0","1","0.09044174456","","false","85","0.1577379057","","main_expt","0.2389339959","","0.09044174456","","0.4201611698","","","","","","",""
"146","","bandit","161","502603","0.0-123.0-0.0","63330587","wem/bandit_single","A2S75O867RJG0I","gain","2","","75","K","2","","0","0","1","0.07242924321","","false","86","0.1646880331","","main_expt","0.2905830411","","0.07242924321","","0.4544588035","","","","","","",""
"319","","bandit","162","504701","0.0-124.0-0.0","63330587","wem/bandit_single","A2S75O867RJG0I","gain","2","","76","L","3","","0","0","1","0.4444110865","","false","87","0.157008097","","main_expt","0.3336128518","","0.06356931104","","0.4444110865","","","","","","",""
"178","","bandit","163","506655","0.0-125.0-0.0","63330587","wem/bandit_single","A2S75O867RJG0I","gain","2","","76","L","3","","1","0","0","0.4276611285","","false","88","0.14663069","","main_expt","0.3720796031","","0.08819972964","","0.4276611285","","","","","","",""
"228","","bandit","164","508654","0.0-126.0-0.0","63330587","wem/bandit_single","A2S75O867RJG0I","gain","2","","76","L","3","","0","0","1","0.395063318","","false","89","0.1510377787","","main_expt","0.3383028484","","0.09388884115","","0.395063318","","","","","","",""
"148","","bandit","165","510583","0.0-127.0-0.0","63330587","wem/bandit_single","A2S75O867RJG0I","gain","2","","76","L","3","","0","0","1","0.3790569413","","false","90","0.1600185234","","main_expt","0.3550100304","","0.1265583984","","0.3790569413","","","","","","",""
"308","","bandit","166","512668","0.0-128.0-0.0","63330587","wem/bandit_single","A2S75O867RJG0I","gain","2","","72","H","0","img/none_selected.jpg","0","0","1","0.1618321768","","false","91","0.1618321768","","main_expt","0.4198742783","","0.09433033469","","0.3763017738","","","","","","",""
"88","","bandit","167","514526","0.0-129.0-0.0","63330587","wem/bandit_single","A2S75O867RJG0I","gain","2","","72","H","0","img/none_selected.jpg","0","0","1","0.1408839615","","false","92","0.1408839615","","main_expt","0.4522920775","","0.05111462501","","0.3829045729","","","","","","",""
"803","","bandit","168","517100","0.0-130.0-0.0","63330587","wem/bandit_single","A2S75O867RJG0I","gain","2","","72","H","0","img/none_selected.jpg","0","0","1","0.1675332925","","false","93","0.1675332925","","main_expt","0.4572096334","","0.05378689714","","0.4155552038","","","","","","",""
"2551","","bandit","169","521423","0.0-131.0-0.0","63330587","wem/bandit_single","A2S75O867RJG0I","gain","2","","74","J","1","","0","0","1","0.457248447","","false","94","0.2154783406","","main_expt","0.457248447","","0.04385487208","","0.3964247486","","","","","","",""
"1721","","bandit","170","524913","0.0-132.0-0.0","63330587","wem/bandit_single","A2S75O867RJG0I","gain","2","","74","J","1","","0","0","1","0.4284600246","","false","95","0.2434825378","","main_expt","0.4284600246","","0.02374316345","","0.4028729744","","","","","","",""
"464","","bandit","171","527160","0.0-133.0-0.0","63330587","wem/bandit_single","A2S75O867RJG0I","gain","2","","76","L","3","","0","0","1","0.3937220057","","false","96","0.300751002","","main_expt","0.4213934208","","0.01119532444","","0.3937220057","","","","","","",""
"1368","","bandit","172","530302","0.0-134.0-0.0","63330587","wem/bandit_single","A2S75O867RJG0I","gain","2","","76","L","3","","1","0","0","0.3951408858","","false","97","0.2390268827","","main_expt","0.4093218277","","0.01205949719","","0.3951408858","","","","","","",""
"240","","bandit","173","532333","0.0-135.0-0.0","63330587","wem/bandit_single","A2S75O867RJG0I","gain","2","","76","L","3","","1","0","0","0.3872505806","","false","98","0.1872158766","","main_expt","0.4011771953","","0.02530753644","","0.3872505806","","","","","","",""
"194","","bandit","174","534298","0.0-136.0-0.0","63330587","wem/bandit_single","A2S75O867RJG0I","gain","2","","76","L","3","","1","0","0","0.3237376228","","false","99","0.2281726053","","main_expt","0.4319140629","","0.02318317113","","0.3237376228","","","","","","",""
"154","","bandit","175","536225","0.0-137.0-0.0","63330587","wem/bandit_single","A2S75O867RJG0I","gain","2","","76","L","3","","0","0","1","0.3840854176","","false","100","0.2322026393","","main_expt","0.4388591553","","0.01577819671","","0.3840854176","","","","","","",""
"100","","bandit","176","538104","0.0-138.0-0.0","63330587","wem/bandit_single","A2S75O867RJG0I","gain","2","","76","L","3","","0","0","1","0.4043087267","","false","101","0.2675158553","","main_expt","0.4405661836","","0.03767304301","","0.4043087267","","","","","","",""
"130","","bandit","177","540015","0.0-139.0-0.0","63330587","wem/bandit_single","A2S75O867RJG0I","gain","2","","76","L","3","","1","0","0","0.423372456","","false","102","0.2334450153","","main_expt","0.4155134761","","0.03003558128","","0.423372456","","","","","","",""
"252","","bandit","178","542040","0.0-140.0-0.0","63330587","wem/bandit_single","A2S75O867RJG0I","gain","2","","76","L","3","","1","0","0","0.4305794097","","false","103","0.2546104349","","main_expt","0.4079284656","","0.04748945294","","0.4305794097","","","","","","",""
"122","","bandit","179","543934","0.0-141.0-0.0","63330587","wem/bandit_single","A2S75O867RJG0I","gain","2","","76","L","3","","0","0","1","0.4515631957","","false","104","0.2657782481","","main_expt","0.3827156199","","0.06674284653","","0.4515631957","","","","","","",""
"132","","bandit","180","545842","0.0-142.0-0.0","63330587","wem/bandit_single","A2S75O867RJG0I","gain","2","","76","L","3","","1","0","0","0.454723383","","false","105","0.2397797145","","main_expt","0.3892206975","","0.0806059128","","0.454723383","","","","","","",""
"248","","bandit","181","547866","0.0-143.0-0.0","63330587","wem/bandit_single","A2S75O867RJG0I","gain","2","","76","L","3","","1","0","0","0.4487898282","","false","106","0.1744994936","","main_expt","0.3499671591","","0.1147522423","","0.4487898282","","","","","","",""
"235","","bandit","182","549870","0.0-144.0-0.0","63330587","wem/bandit_single","A2S75O867RJG0I","gain","2","","76","L","3","","0","0","1","0.4300484018","","false","107","0.2004436591","","main_expt","0.3378870415","","0.1225979079","","0.4300484018","","","","","","",""
"147","","bandit","183","551785","0.0-145.0-0.0","63330587","wem/bandit_single","A2S75O867RJG0I","gain","2","","76","L","3","","1","0","0","0.4056187414","","false","108","0.1781349215","","main_expt","0.3206855754","","0.1808232933","","0.4056187414","","","","","","",""
"270","","bandit","184","553824","0.0-146.0-0.0","63330587","wem/bandit_single","A2S75O867RJG0I","gain","2","","76","L","3","","0","0","1","0.4145536126","","false","109","0.1603989886","","main_expt","0.3412252333","","0.2004688742","","0.4145536126","","","","","","",""
"1557","","bandit","185","557162","0.0-147.0-0.0","63330587","wem/bandit_single","A2S75O867RJG0I","gain","2","","76","L","3","","1","0","0","0.3897928763","","false","110","0.1300992081","","main_expt","0.3650365033","","0.2261403934","","0.3897928763","","","","","","",""
"137","","bandit","186","559071","0.0-148.0-0.0","63330587","wem/bandit_single","A2S75O867RJG0I","gain","2","","76","L","3","","1","0","0","0.4150540561","","false","111","0.1740321776","","main_expt","0.341048274","","0.1612973213","","0.4150540561","","","","","","",""
"89","","bandit","187","560930","0.0-149.0-0.0","63330587","wem/bandit_single","A2S75O867RJG0I","gain","2","","76","L","3","","1","0","0","0.4394636757","","false","112","0.2444477537","","main_expt","0.3254027875","","0.1655724556","","0.4394636757","","","","","","",""
"110","","bandit","188","562812","0.0-150.0-0.0","63330587","wem/bandit_single","A2S75O867RJG0I","gain","2","","76","L","3","","1","0","0","0.4301961846","","false","113","0.2195244909","","main_expt","0.308059901","","0.1319876284","","0.4301961846","","","","","","",""
"1212","","bandit","189","565796","0.0-151.0-0.0","63330587","wem/bandit_single","A2S75O867RJG0I","gain","2","","76","L","3","","0","0","1","0.4497687286","","false","114","0.2719971232","","main_expt","0.3238695313","","0.1147934267","","0.4497687286","","","","","","",""
"156","","bandit","190","567720","0.0-152.0-0.0","63330587","wem/bandit_single","A2S75O867RJG0I","gain","2","","76","L","3","","1","0","0","0.4448888627","","false","115","0.2447677414","","main_expt","0.3315084933","","0.1301750396","","0.4448888627","","","","","","",""
"485","","bandit","191","569970","0.0-153.0-0.0","63330587","wem/bandit_single","A2S75O867RJG0I","gain","2","","76","L","3","","1","0","0","0.3905844751","","false","116","0.2296513069","","main_expt","0.3234657333","","0.130185029","","0.3905844751","","","","","","",""
"264","","bandit","192","572005","0.0-154.0-0.0","63330587","wem/bandit_single","A2S75O867RJG0I","gain","2","","76","L","3","","1","0","0","0.424359093","","false","117","0.2151266314","","main_expt","0.300593156","","0.1548944576","","0.424359093","","","","","","",""
"259","","bandit","193","574033","0.0-155.0-0.0","63330587","wem/bandit_single","A2S75O867RJG0I","gain","2","","76","L","3","","0","0","1","0.4121010571","","false","118","0.1311834018","","main_expt","0.3585138177","","0.172903741","","0.4121010571","","","","","","",""
"147","","bandit","194","575965","0.0-156.0-0.0","63330587","wem/bandit_single","A2S75O867RJG0I","gain","2","","76","L","3","","1","0","0","0.4117558181","","false","119","0.1190099868","","main_expt","0.3062020697","","0.1707570171","","0.4117558181","","","","","","",""
"776","","bandit","195","578515","0.0-157.0-0.0","63330587","wem/bandit_single","A2S75O867RJG0I","gain","2","","76","L","3","","0","0","1","0.4275669698","","false","120","0.1117686876","","main_expt","0.3312553157","","0.1870802187","","0.4275669698","","","","","","",""
"496","","bandit","196","580779","0.0-158.0-0.0","63330587","wem/bandit_single","A2S75O867RJG0I","gain","2","","76","L","3","","1","0","0","0.4428986123","","false","121","0.1415869423","","main_expt","0.3892509988","","0.1870161021","","0.4428986123","","","","","","",""
"295","","bandit","197","582847","0.0-159.0-0.0","63330587","wem/bandit_single","A2S75O867RJG0I","gain","2","","76","L","3","","1","0","0","0.4376246318","","false","122","0.1398412585","","main_expt","0.4330036483","","0.1926804843","","0.4376246318","","","","","","",""
"342","","bandit","198","584961","0.0-160.0-0.0","63330587","wem/bandit_single","A2S75O867RJG0I","gain","2","","76","L","3","","0","0","1","0.4153394585","","false","123","0.1163210087","","main_expt","0.4555957022","","0.2057615037","","0.4153394585","","","","","","",""
"229","","bandit","199","586960","0.0-161.0-0.0","63330587","wem/bandit_single","A2S75O867RJG0I","gain","2","","76","L","3","","0","0","1","0.4203389285","","false","124","0.07344578178","","main_expt","0.4565029776","","0.2639565913","","0.4203389285","","","","","","",""
"122","","bandit","200","588848","0.0-162.0-0.0","63330587","wem/bandit_single","A2S75O867RJG0I","gain","2","","76","L","3","","1","0","0","0.3710029205","","false","125","0.08752025541","","main_expt","0.4511527373","","0.3672341475","","0.3710029205","","","","","","",""
"109","","bandit","201","590731","0.0-163.0-0.0","63330587","wem/bandit_single","A2S75O867RJG0I","gain","2","","76","L","3","","1","0","0","0.3465273485","","false","126","0.1064058914","","main_expt","0.4426171603","","0.3606148775","","0.3465273485","","","","","","",""
"287","","bandit","202","592787","0.0-164.0-0.0","63330587","wem/bandit_single","A2S75O867RJG0I","gain","2","","76","L","3","","1","0","0","0.4106613481","","false","127","0.1103525866","","main_expt","0.4259104728","","0.4079700646","","0.4106613481","","","","","","",""
"220","","bandit","203","594776","0.0-165.0-0.0","63330587","wem/bandit_single","A2S75O867RJG0I","gain","2","","76","L","3","","0","0","1","0.4377707947","","false","128","0.1060480298","","main_expt","0.4543754413","","0.4204919645","","0.4377707947","","","","","","",""
"287","","bandit","204","596831","0.0-166.0-0.0","63330587","wem/bandit_single","A2S75O867RJG0I","gain","2","","76","L","3","","0","0","1","0.4481781661","","false","129","0.1332603285","","main_expt","0.4587533269","","0.4040923387","","0.4481781661","","","","","","",""
"289","","bandit","205","598892","0.0-167.0-0.0","63330587","wem/bandit_single","A2S75O867RJG0I","gain","2","","76","L","3","","1","0","0","0.4301237728","","false","130","0.09182468565","","main_expt","0.4618517855","","0.3906791758","","0.4301237728","","","","","","",""
"362","","bandit","206","601021","0.0-168.0-0.0","63330587","wem/bandit_single","A2S75O867RJG0I","gain","2","","76","L","3","","0","0","1","0.4457858875","","false","131","0.09388333002","","main_expt","0.4622878414","","0.380553204","","0.4457858875","","","","","","",""
"359","","bandit","207","603147","0.0-169.0-0.0","63330587","wem/bandit_single","A2S75O867RJG0I","gain","2","","75","K","2","","0","0","1","0.4000467043","","false","132","0.07277513685","","main_expt","0.4624711794","","0.4000467043","","0.4732894157","","","","","","",""
"414","","bandit","208","605330","0.0-170.0-0.0","63330587","wem/bandit_single","A2S75O867RJG0I","gain","2","","76","L","3","","0","0","1","0.4607838047","","false","133","0.1108266248","","main_expt","0.4794526202","","0.3929100345","","0.4607838047","","","","","","",""
"495","","bandit","209","607597","0.0-171.0-0.0","63330587","wem/bandit_single","A2S75O867RJG0I","gain","2","","76","L","3","","0","0","1","0.4663808264","","false","134","0.1466671782","","main_expt","0.481632873","","0.4009617203","","0.4663808264","","","","","","",""
"351","","bandit","210","609717","0.0-172.0-0.0","63330587","wem/bandit_single","A2S75O867RJG0I","gain","2","","75","K","2","","0","0","1","0.3859426802","","false","135","0.1625995743","","main_expt","0.4667599148","","0.3859426802","","0.4625615306","","","","","","",""
"419","","bandit","211","611909","0.0-173.0-0.0","63330587","wem/bandit_single","A2S75O867RJG0I","gain","2","","75","K","2","","0","0","1","0.4089350186","","false","136","0.1555673637","","main_expt","0.4468402508","","0.4089350186","","0.4629143089","","","","","","",""
"348","","bandit","212","614029","0.0-174.0-0.0","63330587","wem/bandit_single","A2S75O867RJG0I","gain","2","","74","J","1","","1","0","0","0.4331537256","","false","137","0.1395554881","","main_expt","0.4331537256","","0.4009707033","","0.4644074349","","","","","","",""
"541","","bandit","213","616342","0.0-175.0-0.0","63330587","wem/bandit_single","A2S75O867RJG0I","gain","2","","74","J","1","","0","0","1","0.4578477473","","false","138","0.1387442451","","main_expt","0.4578477473","","0.4116224971","","0.4741213624","","","","","","",""
"566","","bandit","214","618680","0.0-176.0-0.0","63330587","wem/bandit_single","A2S75O867RJG0I","gain","2","","74","J","1","","0","0","1","0.464919911","","false","139","0.1693780048","","main_expt","0.464919911","","0.4129411324","","0.4736492243","","","","","","",""
"310","","bandit","215","620759","0.0-177.0-0.0","63330587","wem/bandit_single","A2S75O867RJG0I","gain","2","","76","L","3","","0","0","1","0.4752570035","","false","140","0.1753437518","","main_expt","0.4614371154","","0.4494235083","","0.4752570035","","","","","","",""
"417","","bandit","216","622946","0.0-178.0-0.0","63330587","wem/bandit_single","A2S75O867RJG0I","gain","2","","76","L","3","","1","0","0","0.4857055712","","false","141","0.2288512635","","main_expt","0.4747872093","","0.4453484197","","0.4857055712","","","","","","",""
"460","","bandit","217","625177","0.0-179.0-0.0","63330587","wem/bandit_single","A2S75O867RJG0I","gain","2","","76","L","3","","1","0","0","0.4792724089","","false","142","0.2579513082","","main_expt","0.4513335087","","0.4604546146","","0.4792724089","","","","","","",""
"446","","bandit","218","627392","0.0-180.0-0.0","63330587","wem/bandit_single","A2S75O867RJG0I","gain","2","","76","L","3","","0","0","1","0.48057755","","false","143","0.21432658","","main_expt","0.4198830698","","0.4826245684","","0.48057755","","","","","","",""
"196","","bandit","219","629360","0.0-181.0-0.0","63330587","wem/bandit_single","A2S75O867RJG0I","gain","2","","76","L","3","","0","0","1","0.4777600445","","false","144","0.1938021535","","main_expt","0.3673231636","","0.4890981767","","0.4777600445","","","","","","",""
"178","","bandit","220","631309","0.0-182.0-0.0","63330587","wem/bandit_single","A2S75O867RJG0I","gain","2","","74","J","1","","0","0","1","0.3772368795","","false","145","0.206497324","","main_expt","0.3772368795","","0.4680822138","","0.4735071841","","","","","","",""
"269","","bandit","221","633348","0.0-183.0-0.0","63330587","wem/bandit_single","A2S75O867RJG0I","gain","2","","74","J","1","","0","0","1","0.3767069828","","false","146","0.1857351915","","main_expt","0.3767069828","","0.4660155258","","0.4598241197","","","","","","",""
"261","","bandit","222","635383","0.0-184.0-0.0","63330587","wem/bandit_single","A2S75O867RJG0I","gain","2","","74","J","1","","1","0","0","0.4039806626","","false","147","0.1046475439","","main_expt","0.4039806626","","0.4723880167","","0.4279993213","","","","","","",""
"219","","bandit","223","637376","0.0-185.0-0.0","63330587","wem/bandit_single","A2S75O867RJG0I","gain","2","","74","J","1","","0","0","1","0.4178396587","","false","148","0.1098111678","","main_expt","0.4178396587","","0.4692947112","","0.4422782314","","","","","","",""
"261","","bandit","224","639409","0.0-186.0-0.0","63330587","wem/bandit_single","A2S75O867RJG0I","gain","2","","74","J","1","","0","0","1","0.3932004216","","false","149","0.1221971929","","main_expt","0.3932004216","","0.4702562614","","0.4514785706","","","","","","",""
"326","","bandit","225","641512","0.0-187.0-0.0","63330587","wem/bandit_single","A2S75O867RJG0I","gain","2","","76","L","3","","1","0","0","0.4189864991","","false","150","0.1354034315","","main_expt","0.4103897693","","0.4714094479","","0.4189864991","","","","","","",""
"495","","bandit","226","643790","0.0-188.0-0.0","63330587","wem/bandit_single","A2S75O867RJG0I","gain","2","","76","L","3","","1","0","0","0.4389233528","","false","151","0.1041822367","","main_expt","0.4122179041","","0.4761401221","","0.4389233528","","","","","","",""
"220","","bandit","227","645792","0.0-189.0-0.0","63330587","wem/bandit_single","A2S75O867RJG0I","gain","2","","76","L","3","","1","0","0","0.4244236929","","false","152","0.09038071171","","main_expt","0.3952463752","","0.4697737123","","0.4244236929","","","","","","",""
"307","","bandit","228","647873","0.0-190.0-0.0","63330587","wem/bandit_single","A2S75O867RJG0I","gain","2","","76","L","3","","0","0","1","0.4476471014","","false","153","0.08460578514","","main_expt","0.3877384472","","0.446753433","","0.4476471014","","","","","","",""
"569","","bandit","229","650214","0.0-191.0-0.0","63330587","wem/bandit_single","A2S75O867RJG0I","gain","2","","76","L","3","","0","0","1","0.4505336387","","false","154","0.06957086972","","main_expt","0.3551427127","","0.4588815304","","0.4505336387","","","","","","",""
"139","","bandit","230","652126","0.0-192.0-0.0","63330587","wem/bandit_single","A2S75O867RJG0I","gain","2","","74","J","1","","1","0","0","0.3027898514","","false","155","0.07570805595","","main_expt","0.3027898514","","0.4483664475","","0.466992112","","","","","","",""
"457","","bandit","231","654355","0.0-193.0-0.0","63330587","wem/bandit_single","A2S75O867RJG0I","gain","2","","74","J","1","","1","0","0","0.3245978035","","false","156","0.1010055374","","main_expt","0.3245978035","","0.4383670719","","0.4383448919","","","","","","",""
"314","","bandit","232","656444","0.0-194.0-0.0","63330587","wem/bandit_single","A2S75O867RJG0I","gain","2","","74","J","1","","0","0","1","0.3293821827","","false","157","0.09959580587","","main_expt","0.3293821827","","0.42990192","","0.4181306447","","","","","","",""
"253","","bandit","233","658466","0.0-195.0-0.0","63330587","wem/bandit_single","A2S75O867RJG0I","gain","2","","74","J","1","","0","0","1","0.3053991167","","false","158","0.09130540219","","main_expt","0.3053991167","","0.4112902825","","0.4322591637","","","","","","",""
"350","","bandit","234","660588","0.0-196.0-0.0","63330587","wem/bandit_single","A2S75O867RJG0I","gain","2","","74","J","1","","0","0","1","0.3475565739","","false","159","0.07080299429","","main_expt","0.3475565739","","0.4085113589","","0.4129829621","","","","","","",""
"188","","bandit","235","662570","0.0-197.0-0.0","63330587","wem/bandit_single","A2S75O867RJG0I","gain","2","","76","L","3","","0","0","1","0.4094933958","","false","160","0.05017383151","","main_expt","0.327393219","","0.4079314082","","0.4094933958","","","","","","",""
"254","","bandit","236","664600","0.0-198.0-0.0","63330587","wem/bandit_single","A2S75O867RJG0I","gain","2","","76","L","3","","0","0","1","0.404058003","","false","161","0.03820476969","","main_expt","0.303429729","","0.3631501835","","0.404058003","","","","","","",""
"170","","bandit","237","666539","0.0-199.0-0.0","63330587","wem/bandit_single","A2S75O867RJG0I","gain","2","","75","K","2","","1","0","0","0.3470346279","","false","162","0.02512507724","","main_expt","0.3079210788","","0.3470346279","","0.3846726044","","","","","","",""
"370","","bandit","238","668677","0.0-200.0-0.0","63330587","wem/bandit_single","A2S75O867RJG0I","gain","2","","75","K","2","","0","0","1","0.372656257","","false","163","0.03932379445","","main_expt","0.3004483846","","0.372656257","","0.4016559577","","","","","","",""
"218","","bandit","239","670665","0.0-201.0-0.0","63330587","wem/bandit_single","A2S75O867RJG0I","gain","2","","74","J","1","","1","0","0","0.2886014424","","false","164","0.01829840099","","main_expt","0.2886014424","","0.3802753243","","0.3566256613","","","","","","",""
"348","","bandit","240","672791","0.0-202.0-0.0","63330587","wem/bandit_single","A2S75O867RJG0I","gain","2","","75","K","2","","0","0","1","0.3881672334","","false","165","0.02415252971","","main_expt","0.2088325088","","0.3881672334","","0.3509524146","","","","","","",""
"391","","bandit","241","674958","0.0-203.0-0.0","63330587","wem/bandit_single","A2S75O867RJG0I","gain","2","","74","J","1","","0","0","1","0.2160195985","","false","166","0.02185778449","","main_expt","0.2160195985","","0.359536632","","0.2773632025","","","","","","",""
"230","","bandit","242","676957","0.0-204.0-0.0","63330587","wem/bandit_single","A2S75O867RJG0I","gain","2","","74","J","1","","0","0","1","0.1836534764","","false","167","0.02761124673","","main_expt","0.1836534764","","0.3693034809","","0.3022689801","","","","","","",""
"205","","bandit","243","678932","0.0-205.0-0.0","63330587","wem/bandit_single","A2S75O867RJG0I","gain","2","","75","K","2","","0","0","1","0.3449050916","","false","168","0.02160611799","","main_expt","0.1701024481","","0.3449050916","","0.2937690027","","","","","","",""
"242","","bandit","244","680950","0.0-206.0-0.0","63330587","wem/bandit_single","A2S75O867RJG0I","gain","2","","75","K","2","","1","0","0","0.3515710367","","false","169","0.02113437328","","main_expt","0.1896079261","","0.3515710367","","0.2488586406","","","","","","",""
"261","","bandit","245","682982","0.0-207.0-0.0","63330587","wem/bandit_single","A2S75O867RJG0I","gain","2","","75","K","2","","1","0","0","0.3233833909","","false","170","0.01292956957","","main_expt","0.2377789273","","0.3233833909","","0.2112819205","","","","","","",""
"288","","bandit","246","685042","0.0-208.0-0.0","63330587","wem/bandit_single","A2S75O867RJG0I","gain","2","","75","K","2","","1","0","0","0.2468086364","","false","171","0.01989811998","","main_expt","0.2640247014","","0.2468086364","","0.2217900108","","","","","","",""
"125","","bandit","247","686940","0.0-209.0-0.0","63330587","wem/bandit_single","A2S75O867RJG0I","gain","2","","75","K","2","","1","0","0","0.3408906282","","false","172","0.0296351857","","main_expt","0.2055846389","","0.3408906282","","0.2387596097","","","","","","",""
"221","","bandit","248","688931","0.0-210.0-0.0","63330587","wem/bandit_single","A2S75O867RJG0I","gain","2","","75","K","2","","1","0","0","0.3252944763","","false","173","0.03540771295","","main_expt","0.2438181894","","0.3252944763","","0.2602125502","","","","","","",""
"145","","bandit","249","690846","0.0-211.0-0.0","63330587","wem/bandit_single","A2S75O867RJG0I","gain","2","","75","K","2","","1","0","0","0.3200904142","","false","174","0.03725130304","","main_expt","0.2733147352","","0.3200904142","","0.2202846771","","","","","","",""
"124","","bandit","250","692742","0.0-212.0-0.0","63330587","wem/bandit_single","A2S75O867RJG0I","gain","2","","75","K","2","","0","0","1","0.3622659173","","false","175","0.03242602151","","main_expt","0.2767671147","","0.3622659173","","0.233285157","","","","","","",""
"149","","bandit","251","694663","0.0-213.0-0.0","63330587","wem/bandit_single","A2S75O867RJG0I","gain","2","","75","K","2","","0","0","1","0.2937007374","","false","176","0.04697917163","","main_expt","0.2195478827","","0.2937007374","","0.2264555061","","","","","","",""
"85","","bandit","252","696522","0.0-214.0-0.0","63330587","wem/bandit_single","A2S75O867RJG0I","gain","2","","75","K","2","","1","0","0","0.2513366018","","false","177","0.04124559051","","main_expt","0.1515864758","","0.2513366018","","0.241841845","","","","","","",""
"466","","bandit","253","698764","0.0-215.0-0.0","63330587","wem/bandit_single","A2S75O867RJG0I","gain","2","","75","K","2","","0","0","1","0.3159509921","","false","178","0.06205026603","","main_expt","0.1618037694","","0.3159509921","","0.2423953475","","","","","","",""
"112","","bandit","254","700648","0.0-216.0-0.0","63330587","wem/bandit_single","A2S75O867RJG0I","gain","2","","72","H","0","img/none_selected.jpg","0","0","1","0.08412795639","","false","179","0.08412795639","","main_expt","0.1653326191","","0.2899582247","","0.2523089652","","","","","","",""
"261","","bandit","255","702683","0.0-217.0-0.0","63330587","wem/bandit_single","A2S75O867RJG0I","gain","2","","72","H","0","img/none_selected.jpg","0","0","1","0.1304099397","","false","180","0.1304099397","","main_expt","0.1751853148","","0.3371390753","","0.2223981335","","","","","","",""
"214","","bandit","256","704666","0.0-218.0-0.0","63330587","wem/bandit_single","A2S75O867RJG0I","gain","2","","75","K","2","","1","0","0","0.3365963609","","false","181","0.1801801058","","main_expt","0.211978586","","0.3365963609","","0.2319473409","","","","","","",""
"547","","bandit","257","706989","0.0-219.0-0.0","63330587","wem/bandit_single","A2S75O867RJG0I","gain","2","","75","K","2","","0","0","1","0.2643366398","","false","182","0.1951504204","","main_expt","0.2323199139","","0.2643366398","","0.2338578761","","","","","","",""
"280","","bandit","258","709048","0.0-220.0-0.0","63330587","wem/bandit_single","A2S75O867RJG0I","gain","2","","72","H","0","img/none_selected.jpg","1","0","0","0.2330781564","","false","183","0.2330781564","","main_expt","0.2252803731","","0.2464000872","","0.265472663","","","","","","",""
"402","","bandit","259","711222","0.0-221.0-0.0","63330587","wem/bandit_single","A2S75O867RJG0I","gain","2","","72","H","0","img/none_selected.jpg","0","0","1","0.2711395555","","false","184","0.2711395555","","main_expt","0.1614269484","","0.3039071009","","0.2826161147","","","","","","",""
"300","","bandit","260","713295","0.0-222.0-0.0","63330587","wem/bandit_single","A2S75O867RJG0I","gain","2","","75","K","2","","1","0","0","0.3100879913","","false","185","0.2182249031","","main_expt","0.1636939604","","0.3100879913","","0.2542525597","","","","","","",""
"401","","bandit","261","715471","0.0-223.0-0.0","63330587","wem/bandit_single","A2S75O867RJG0I","gain","2","","75","K","2","","1","0","0","0.28505789","","false","186","0.2609412602","","main_expt","0.1744134641","","0.28505789","","0.260460085","","","","","","",""
"565","","bandit","262","717812","0.0-224.0-0.0","63330587","wem/bandit_single","A2S75O867RJG0I","gain","2","","75","K","2","","1","0","0","0.2698122055","","false","187","0.2242136054","","main_expt","0.1955069844","","0.2698122055","","0.2119714508","","","","","","",""
"450","","bandit","263","720050","0.0-225.0-0.0","63330587","wem/bandit_single","A2S75O867RJG0I","gain","2","","75","K","2","","0","0","1","0.2270240414","","false","188","0.2404864381","","main_expt","0.2289740151","","0.2270240414","","0.1887053186","","","","","","",""
"191","","bandit","264","722022","0.0-226.0-0.0","63330587","wem/bandit_single","A2S75O867RJG0I","gain","2","","72","H","0","img/none_selected.jpg","0","0","1","0.2177927796","","false","189","0.2177927796","","main_expt","0.2495887903","","0.2182158859","","0.1944753942","","","","","","",""
"205","","bandit","265","723998","0.0-227.0-0.0","63330587","wem/bandit_single","A2S75O867RJG0I","gain","2","","72","H","0","img/none_selected.jpg","0","0","1","0.2445379922","","false","190","0.2445379922","","main_expt","0.2815424982","","0.2445882628","","0.2163673671","","","","","","",""
"24","","bandit","266","725802","0.0-228.0-0.0","63330587","wem/bandit_single","A2S75O867RJG0I","gain","2","","75","K","2","","0","0","1","0.2733302752","","false","191","0.2910265903","","main_expt","0.2401402076","","0.2733302752","","0.2584180811","","","","","","",""
"116","","bandit","267","727688","0.0-229.0-0.0","63330587","wem/bandit_single","A2S75O867RJG0I","gain","2","","75","K","2","","0","0","1","0.2776932955","","false","192","0.3095983682","","main_expt","0.2510809658","","0.2776932955","","0.2555063139","","","","","","",""
"330","","bandit","268","729796","0.0-230.0-0.0","63330587","wem/bandit_single","A2S75O867RJG0I","gain","2","","76","L","3","","0","0","1","0.2694863875","","false","193","0.3217156539","","main_expt","0.2875405407","","0.3335190616","","0.2694863875","","","","","","",""
"183","","bandit","269","731756","0.0-231.0-0.0","63330587","wem/bandit_single","A2S75O867RJG0I","gain","2","","72","H","0","img/none_selected.jpg","0","0","1","0.278878796","","false","194","0.278878796","","main_expt","0.2183543786","","0.3308991278","","0.2894821148","","","","","","",""
"102","","bandit","270","733630","0.0-232.0-0.0","63330587","wem/bandit_single","A2S75O867RJG0I","gain","2","","72","H","0","img/none_selected.jpg","1","0","0","0.2738334973","","false","195","0.2738334973","","main_expt","0.2626349305","","0.3676749275","","0.3028339589","","","","","","",""
"110","","bandit","271","735510","0.0-233.0-0.0","63330587","wem/bandit_single","A2S75O867RJG0I","gain","2","","72","H","0","img/none_selected.jpg","0","0","1","0.2494818112","","false","196","0.2494818112","","main_expt","0.2046446137","","0.3523241719","","0.3051171059","","","","","","",""
"1344","","bandit","272","738624","0.0-234.0-0.0","63330587","wem/bandit_single","A2S75O867RJG0I","gain","2","","72","H","0","img/none_selected.jpg","0","0","1","0.2620473779","","false","197","0.2620473779","","main_expt","0.2122082762","","0.3874168703","","0.2901305303","","","","","","",""
"106","","bandit","273","740499","0.0-235.0-0.0","63330587","wem/bandit_single","A2S75O867RJG0I","gain","2","","74","J","1","","0","0","1","0.1962120249","","false","198","0.3153682745","","main_expt","0.1962120249","","0.4072223947","","0.2403600488","","","","","","",""
"1326","","bandit","274","743596","0.0-236.0-0.0","63330587","wem/bandit_single","A2S75O867RJG0I","gain","2","","72","H","0","img/none_selected.jpg","1","0","0","0.2424407548","","false","199","0.2424407548","","main_expt","0.1840541487","","0.4284861426","","0.2034733728","","","","","","",""
"201","","bandit","275","745572","0.0-237.0-0.0","63330587","wem/bandit_single","A2S75O867RJG0I","gain","2","","72","H","0","img/none_selected.jpg","0","0","1","0.2692586032","","false","200","0.2692586032","","main_expt","0.1575563837","","0.4181746593","","0.2193557146","","","","","","",""
"103","","bandit","276","747458","0.0-238.0-0.0","63330587","wem/bandit_single","A2S75O867RJG0I","gain","2","","72","H","0","img/none_selected.jpg","0","0","1","0.2605377594","","false","201","0.2605377594","","main_expt","0.138860739","","0.4134190678","","0.2412650678","","","","","","",""
"91","","bandit","277","749325","0.0-239.0-0.0","63330587","wem/bandit_single","A2S75O867RJG0I","gain","2","","75","K","2","","0","0","1","0.4255663607","","false","202","0.2372211354","","main_expt","0.1216759056","","0.4255663607","","0.2106041824","","","","","","",""
"124","","bandit","278","751225","0.0-240.0-0.0","63330587","wem/bandit_single","A2S75O867RJG0I","gain","2","","74","J","1","","1","0","0","0.1085797693","","false","203","0.20896917","","main_expt","0.1085797693","","0.4267176133","","0.2182463191","","","","","","",""
"115","","bandit","279","753110","0.0-241.0-0.0","63330587","wem/bandit_single","A2S75O867RJG0I","gain","2","","74","J","1","","0","0","1","0.08750272662","","false","204","0.2277156902","","main_expt","0.08750272662","","0.460819217","","0.2060997213","","","","","","",""
"144","","bandit","280","755024","0.0-242.0-0.0","63330587","wem/bandit_single","A2S75O867RJG0I","gain","2","","74","J","1","","0","0","1","0.1119911725","","false","205","0.2096017385","","main_expt","0.1119911725","","0.4797370756","","0.2179237498","","","","","","",""
"347","","bandit","281","757143","0.0-243.0-0.0","63330587","wem/bandit_single","A2S75O867RJG0I","gain","2","","74","J","1","","0","0","1","0.105166696","","false","206","0.2293009918","","main_expt","0.105166696","","0.4850202511","","0.194566176","","","","","","",""
"71","","bandit","282","758984","0.0-244.0-0.0","63330587","wem/bandit_single","A2S75O867RJG0I","gain","2","","75","K","2","","1","0","0","0.4588339162","","false","207","0.2613461541","","main_expt","0.07428909222","","0.4588339162","","0.2540459421","","","","","","",""
"210","","bandit","283","760973","0.0-245.0-0.0","63330587","wem/bandit_single","A2S75O867RJG0I","gain","2","","75","K","2","","0","0","1","0.4704498371","","false","208","0.2921374763","","main_expt","0.08415887516","","0.4704498371","","0.2165425212","","","","","","",""
"123","","bandit","284","762872","0.0-246.0-0.0","63330587","wem/bandit_single","A2S75O867RJG0I","gain","2","","76","L","3","","0","0","1","0.1808740619","","false","209","0.2679345114","","main_expt","0.05558253146","","0.4498430745","","0.1808740619","","","","","","",""
"217","","bandit","285","764862","0.0-247.0-0.0","63330587","wem/bandit_single","A2S75O867RJG0I","gain","2","","76","L","3","","0","0","1","0.2298827717","","false","210","0.2356021564","","main_expt","0.04914985493","","0.4463117693","","0.2298827717","","","","","","",""
"159","","bandit","286","766791","0.0-248.0-0.0","63330587","wem/bandit_single","A2S75O867RJG0I","gain","2","","72","H","0","img/none_selected.jpg","0","0","1","0.2152320876","","false","211","0.2152320876","","main_expt","0.03798033643","","0.422163821","","0.2533880575","","","","","","",""
"40","","bandit","287","768613","0.0-249.0-0.0","63330587","wem/bandit_single","A2S75O867RJG0I","gain","2","","72","H","0","img/none_selected.jpg","0","0","1","0.2216595069","","false","212","0.2216595069","","main_expt","0.03974322714","","0.3852039581","","0.2771241442","","","","","","",""
"416","","bandit","288","770808","0.0-250.0-0.0","63330587","wem/bandit_single","A2S75O867RJG0I","gain","2","","72","H","0","img/none_selected.jpg","0","0","1","0.2150176613","","false","213","0.2150176613","","main_expt","0.02384455773","","0.3822954745","","0.3010302337","","","","","","",""
"163","","bandit","289","772742","0.0-251.0-0.0","63330587","wem/bandit_single","A2S75O867RJG0I","gain","2","","74","J","1","","0","0","1","0.03216660231","","false","214","0.1772129937","","main_expt","0.03216660231","","0.3608549874","","0.3409008015","","","","","","",""
"115","","bandit","290","774629","0.0-252.0-0.0","63330587","wem/bandit_single","A2S75O867RJG0I","gain","2","","74","J","1","","0","0","1","0.03095464101","","false","215","0.1584975441","","main_expt","0.03095464101","","0.3621739951","","0.3227810677","","","","","","",""
"119","","bandit","291","776522","0.0-253.0-0.0","63330587","wem/bandit_single","A2S75O867RJG0I","gain","2","","74","J","1","","0","0","1","0.04011500866","","false","216","0.1256434713","","main_expt","0.04011500866","","0.3733564142","","0.3636386285","","","","","","",""
"130","","bandit","292","778444","0.0-254.0-0.0","63330587","wem/bandit_single","A2S75O867RJG0I","gain","2","","75","K","2","","1","0","0","0.3856473275","","false","217","0.1601534085","","main_expt","0.02351309264","","0.3856473275","","0.3649758886","","","","","","",""
"217","","bandit","293","780442","0.0-255.0-0.0","63330587","wem/bandit_single","A2S75O867RJG0I","gain","2","","75","K","2","","0","0","1","0.3645608201","","false","218","0.1514518834","","main_expt","0.01650540734","","0.3645608201","","0.3641131336","","","","","","",""
"1518","","bandit","294","783738","0.0-256.0-0.0","63330587","wem/bandit_single","A2S75O867RJG0I","gain","2","","75","K","2","","0","0","1","0.3851453746","","false","219","0.2415223947","","main_expt","0.03577324375","","0.3851453746","","0.341156599","","","","","","",""
"660","","bandit","295","786187","0.0-257.0-0.0","63330587","wem/bandit_single","A2S75O867RJG0I","gain","2","","76","L","3","","0","0","1","0.266049218","","false","220","0.2248182851","","main_expt","0.03655385126","","0.4075423229","","0.266049218","","","","","","",""
"202","","bandit","296","788175","0.0-258.0-0.0","63330587","wem/bandit_single","A2S75O867RJG0I","gain","2","","75","K","2","","0","0","1","0.4083347012","","false","221","0.2588925836","","main_expt","0.03282050992","","0.4083347012","","0.2359154628","","","","","","",""
"46","","bandit","297","790008","0.0-259.0-0.0","63330587","wem/bandit_single","A2S75O867RJG0I","gain","2","","75","K","2","","0","0","1","0.4083223781","","false","222","0.2025188389","","main_expt","0.02558717114","","0.4083223781","","0.2640726019","","","","","","",""
"395","","bandit","298","792194","0.0-260.0-0.0","63330587","wem/bandit_single","A2S75O867RJG0I","gain","2","","72","H","0","img/none_selected.jpg","0","0","1","0.1609755914","","false","223","0.1609755914","","main_expt","0.04788205671","","0.4240474742","","0.1860418506","","","","","","",""
"1796","","bandit","299","795773","0.0-261.0-0.0","63330587","wem/bandit_single","A2S75O867RJG0I","gain","2","","72","H","0","img/none_selected.jpg","0","0","1","0.2316748255","","false","224","0.2316748255","","main_expt","0.05498715651","","0.4346876605","","0.151875944","","","","","","",""
"92","","bandit","300","797637","0.0-262.0-0.0","63330587","wem/bandit_single","A2S75O867RJG0I","gain","2","","75","K","2","","0","0","1","0.4541072866","","false","225","0.1605893144","","main_expt","0.056476577","","0.4541072866","","0.1209973656","","","","","","",""
"234","","bandit","301","799644","0.0-263.0-0.0","63330587","wem/bandit_single","A2S75O867RJG0I","gain","2","","75","K","2","","1","0","0","0.4239515892","","false","226","0.1389366963","","main_expt","0.06361054401","","0.4239515892","","0.1503457952","","","","","","",""
"221","","bandit","302","801640","0.0-264.0-0.0","63330587","wem/bandit_single","A2S75O867RJG0I","gain","2","","75","K","2","","1","0","0","0.4122914309","","false","227","0.09987042713","","main_expt","0.03819722012","","0.4122914309","","0.1784166707","","","","","","",""
"134","","bandit","303","803550","0.0-265.0-0.0","63330587","wem/bandit_single","A2S75O867RJG0I","gain","2","","75","K","2","","1","0","0","0.4022765074","","false","228","0.1511988136","","main_expt","0.03706892342","","0.4022765074","","0.1729157366","","","","","","",""
"82","","bandit","304","805411","0.0-266.0-0.0","63330587","wem/bandit_single","A2S75O867RJG0I","gain","2","","75","K","2","","0","0","1","0.3991813765","","false","229","0.1165125066","","main_expt","0.05619366589","","0.3991813765","","0.2035050609","","","","","","",""
"100","","bandit","305","807286","0.0-267.0-0.0","63330587","wem/bandit_single","A2S75O867RJG0I","gain","2","","75","K","2","","0","0","1","0.3771825363","","false","230","0.09058018373","","main_expt","0.02398835026","","0.3771825363","","0.1677195288","","","","","","",""
"430","","bandit","306","809503","0.0-268.0-0.0","63330587","wem/bandit_single","A2S75O867RJG0I","gain","2","","72","H","0","img/none_selected.jpg","0","0","1","0.1254599363","","false","231","0.1254599363","","main_expt","0.01087418165","","0.4081115595","","0.1568417205","","","","","","",""
"137","","bandit","307","811418","0.0-269.0-0.0","63330587","wem/bandit_single","A2S75O867RJG0I","gain","2","","72","H","0","img/none_selected.jpg","1","0","0","0.09699218641","","false","232","0.09699218641","","main_expt","0.005667282796","","0.4227202023","","0.1733774055","","","","","","",""
"213","","bandit","308","813407","0.0-270.0-0.0","63330587","wem/bandit_single","A2S75O867RJG0I","gain","2","","72","H","0","img/none_selected.jpg","0","0","1","0.07122003092","","false","233","0.07122003092","","main_expt","0.00711790457","","0.4267606383","","0.2318808439","","","","","","",""
"124","","bandit","309","815321","0.0-271.0-0.0","63330587","wem/bandit_single","A2S75O867RJG0I","gain","2","","72","H","0","img/none_selected.jpg","0","0","1","0.07078025717","","false","234","0.07078025717","","main_expt","0.01087448681","","0.4076790224","","0.2728484722","","","","","","",""
"134","","bandit","310","817233","0.0-272.0-0.0","63330587","wem/bandit_single","A2S75O867RJG0I","gain","2","","75","K","2","","0","0","1","0.3750136452","","false","235","0.04546889639","","main_expt","0.008183852991","","0.3750136452","","0.230842538","","","","","","",""
"182","","bandit","311","819189","0.0-273.0-0.0","63330587","wem/bandit_single","A2S75O867RJG0I","gain","2","","75","K","2","","0","0","1","0.3579900966","","false","236","0.07949547843","","main_expt","0.00957014591","","0.3579900966","","0.2565969246","","","","","","",""
"496","","bandit","312","821464","0.0-274.0-0.0","63330587","wem/bandit_single","A2S75O867RJG0I","gain","2","","74","J","1","","0","0","1","0.02345003211","","false","237","0.06498208703","","main_expt","0.02345003211","","0.3685919787","","0.2661079812","","","","","","",""
"138","","bandit","313","823380","0.0-275.0-0.0","63330587","wem/bandit_single","A2S75O867RJG0I","gain","2","","74","J","1","","0","0","1","0.02056264696","","false","238","0.07283675032","","main_expt","0.02056264696","","0.3220789964","","0.3192940022","","","","","","",""
"334","","bandit","314","825488","0.0-276.0-0.0","63330587","wem/bandit_single","A2S75O867RJG0I","gain","2","","74","J","1","","0","0","1","0.02436326326","","false","239","0.08723568047","","main_expt","0.02436326326","","0.3059519391","","0.3150738333","","","","","","",""
"196","","bandit","315","827463","0.0-277.0-0.0","63330587","wem/bandit_single","A2S75O867RJG0I","gain","2","","75","K","2","","0","0","1","0.3168560559","","false","240","0.06404566497","","main_expt","0.0242835944","","0.3168560559","","0.3008600842","","","","","","",""
"132","","bandit","316","829375","0.0-278.0-0.0","63330587","wem/bandit_single","A2S75O867RJG0I","gain","2","","75","K","2","","1","0","0","0.269391424","","false","241","0.05187051438","","main_expt","0.02652021178","","0.269391424","","0.2677087501","","","","","","",""
"162","","bandit","317","831310","0.0-279.0-0.0","63330587","wem/bandit_single","A2S75O867RJG0I","gain","2","","75","K","2","","0","0","1","0.2061132751","","false","242","0.04056120823","","main_expt","0.0264543433","","0.2061132751","","0.2645585527","","","","","","",""
"448","","bandit","318","833534","0.0-280.0-0.0","63330587","wem/bandit_single","A2S75O867RJG0I","gain","2","","75","K","2","","1","0","0","0.1996760118","","false","243","0.02806248696","","main_expt","0.02176476481","","0.1996760118","","0.2793098336","","","","","","",""
"157","","bandit","319","835470","0.0-281.0-0.0","63330587","wem/bandit_single","A2S75O867RJG0I","gain","2","","75","K","2","","0","0","1","0.1719334629","","false","244","0.04063524207","","main_expt","0.01301534777","","0.1719334629","","0.285685864","","","","","","",""
"187","","bandit","320","837435","0.0-282.0-0.0","63330587","wem/bandit_single","A2S75O867RJG0I","gain","2","","75","K","2","","0","0","1","0.2264626889","","false","245","0.03258124644","","main_expt","0.02332936253","","0.2264626889","","0.2792363563","","","","","","",""
"193","","bandit","321","839404","0.0-283.0-0.0","63330587","wem/bandit_single","A2S75O867RJG0I","gain","2","","75","K","2","","0","0","1","0.2097999869","","false","246","0.034431304","","main_expt","0.02379131239","","0.2097999869","","0.2721020884","","","","","","",""
"137","","bandit","322","841318","0.0-284.0-0.0","63330587","wem/bandit_single","A2S75O867RJG0I","gain","2","","76","L","3","","0","0","1","0.2784836582","","false","247","0.0335896152","","main_expt","0.02988301985","","0.2190078117","","0.2784836582","","","","","","",""
"230","","bandit","323","843327","0.0-285.0-0.0","63330587","wem/bandit_single","A2S75O867RJG0I","gain","2","","76","L","3","","0","0","1","0.2155360038","","false","248","0.0373608022","","main_expt","0.04121629219","","0.214739415","","0.2155360038","","","","","","",""
"274","","bandit","324","845387","0.0-286.0-0.0","63330587","wem/bandit_single","A2S75O867RJG0I","gain","2","","72","H","0","img/none_selected.jpg","0","0","1","0.04629433077","","false","249","0.04629433077","","main_expt","0.03081548873","","0.2361668487","","0.2182269439","","","","","","",""
"98","","bandit","325","847268","0.0-287.0-0.0","63330587","wem/bandit_single","A2S75O867RJG0I","gain","2","","72","H","0","img/none_selected.jpg","0","0","1","0.04794370872","","false","250","0.04794370872","","main_expt","0.02831669856","","0.2730147117","","0.2794373206","","","","","","",""
"215","","bandit","326","849260","0.0-288.0-0.0","63330587","wem/bandit_single","A2S75O867RJG0I","gain","2","","72","H","0","img/none_selected.jpg","0","0","1","0.06568157066","","false","251","0.06568157066","","main_expt","0.02600870455","","0.2591269664","","0.2925698281","","","","","","",""
"656","","bandit","327","851700","0.0-289.0-0.0","63330587","wem/bandit_single","A2S75O867RJG0I","gain","2","","75","K","2","","0","0","1","0.3091321407","","false","252","0.07567030371","","main_expt","0.02705961599","","0.3091321407","","0.2727886948","","","","","","",""
"288","","bandit","328","853767","0.0-290.0-0.0","63330587","wem/bandit_single","A2S75O867RJG0I","gain","2","","75","K","2","","1","0","0","0.2284010385","","false","253","0.06628052114","","main_expt","0.01805963102","","0.2284010385","","0.2470803404","","","","","","",""
"133","","bandit","329","855674","0.0-291.0-0.0","63330587","wem/bandit_single","A2S75O867RJG0I","gain","2","","75","K","2","","0","0","1","0.2452739286","","false","254","0.08321976201","","main_expt","0.01631706542","","0.2452739286","","0.3366881304","","","","","","",""
"119","","bandit","330","857589","0.0-292.0-0.0","63330587","wem/bandit_single","A2S75O867RJG0I","gain","2","","75","K","2","","0","0","1","0.2769296881","","false","255","0.1379446817","","main_expt","0.01966147099","","0.2769296881","","0.3781216995","","","","","","",""
"136","","bandit","331","859503","0.0-293.0-0.0","63330587","wem/bandit_single","A2S75O867RJG0I","gain","2","","72","H","0","img/none_selected.jpg","0","0","1","0.1104053019","","false","256","0.1104053019","","main_expt","0.02801527349","","0.222598086","","0.3565974786","","","","","","",""
"100","","bandit","332","861384","0.0-294.0-0.0","63330587","wem/bandit_single","A2S75O867RJG0I","gain","2","","72","H","0","img/none_selected.jpg","0","0","1","0.110095483","","false","257","0.110095483","","main_expt","0.02393064904","","0.2497605863","","0.3668333327","","","","","","",""
"173","","bandit","333","863334","0.0-295.0-0.0","63330587","wem/bandit_single","A2S75O867RJG0I","gain","2","","74","J","1","","0","0","1","0.01715644076","","false","258","0.09250214804","","main_expt","0.01715644076","","0.248028097","","0.3978392262","","","","","","",""
"121","","bandit","334","865236","0.0-296.0-0.0","63330587","wem/bandit_single","A2S75O867RJG0I","gain","2","","74","J","1","","0","0","1","0.01812234738","","false","259","0.1288972452","","main_expt","0.01812234738","","0.210079309","","0.3892622443","","","","","","",""
"195","","bandit","335","867203","0.0-297.0-0.0","63330587","wem/bandit_single","A2S75O867RJG0I","gain","2","","74","J","1","","0","0","1","0.01699252537","","false","260","0.127844668","","main_expt","0.01699252537","","0.1785868889","","0.3787635018","","","","","","",""
"162","","bandit","336","869139","0.0-298.0-0.0","63330587","wem/bandit_single","A2S75O867RJG0I","gain","2","","74","J","1","","0","0","1","0.02027773674","","false","261","0.1408125104","","main_expt","0.02027773674","","0.1855690742","","0.4151771386","","","","","","",""
"201","","bandit","337","871123","0.0-299.0-0.0","63330587","wem/bandit_single","A2S75O867RJG0I","gain","2","","74","J","1","","0","0","1","0.008159173947","","false","262","0.1423762304","","main_expt","0.008159173947","","0.2454672077","","0.4184001904","","","","","","",""
"63","","bandit","338","872969","0.0-300.0-0.0","63330587","wem/bandit_single","A2S75O867RJG0I","gain","2","","75","K","2","","0","0","1","0.2423041147","","false","263","0.1237094287","","main_expt","0.00730364875","","0.2423041147","","0.4397427278","","","","","","",""
"89","","bandit","339","874850","0.0-301.0-0.0","63330587","wem/bandit_single","A2S75O867RJG0I","gain","2","","75","K","2","","0","0","1","0.2771483686","","false","264","0.1110826985","","main_expt","0.008891010149","","0.2771483686","","0.4308816061","","","","","","",""
"104","","bandit","340","876732","0.0-302.0-0.0","63330587","wem/bandit_single","A2S75O867RJG0I","gain","2","","75","K","2","","0","0","1","0.2066329382","","false","265","0.09816719149","","main_expt","0.009434589262","","0.2066329382","","0.4310956018","","","","","","",""
"112","","bandit","341","878623","0.0-303.0-0.0","63330587","wem/bandit_single","A2S75O867RJG0I","gain","2","","76","L","3","","1","0","0","0.4462346174","","false","266","0.1313615454","","main_expt","0.009503255165","","0.1954640054","","0.4462346174","","","","","","",""
"286","","bandit","342","880688","0.0-304.0-0.0","63330587","wem/bandit_single","A2S75O867RJG0I","gain","2","","76","L","3","","1","0","0","0.4649068607","","false","267","0.1039649444","","main_expt","0.01294763698","","0.132533774","","0.4649068607","","","","","","",""
"305","","bandit","343","882790","0.0-305.0-0.0","63330587","wem/bandit_single","A2S75O867RJG0I","gain","2","","76","L","3","","1","0","0","0.4499385749","","false","268","0.0758663636","","main_expt","0.01002763249","","0.1212355483","","0.4499385749","","","","","","",""
"89","","bandit","344","884659","0.0-306.0-0.0","63330587","wem/bandit_single","A2S75O867RJG0I","gain","2","","76","L","3","","0","0","1","0.4702815535","","false","269","0.08641939852","","main_expt","0.009339874814","","0.1363236216","","0.4702815535","","","","","","",""
"275","","bandit","345","886714","0.0-307.0-0.0","63330587","wem/bandit_single","A2S75O867RJG0I","gain","2","","76","L","3","","0","0","1","0.4738293899","","false","270","0.08694739741","","main_expt","0.0101894737","","0.1061923246","","0.4738293899","","","","","","",""
"351","","bandit","346","888843","0.0-308.0-0.0","63330587","wem/bandit_single","A2S75O867RJG0I","gain","2","","76","L","3","","0","0","1","0.4552130477","","false","271","0.07507278363","","main_expt","0.0101062795","","0.09682021381","","0.4552130477","","","","","","",""
"68","","bandit","347","890686","0.0-309.0-0.0","63330587","wem/bandit_single","A2S75O867RJG0I","gain","2","","72","H","0","img/none_selected.jpg","0","0","1","0.09002305832","","false","272","0.09002305832","","main_expt","0.009276773287","","0.0728164368","","0.4571227508","","","","","","",""
"179","","bandit","348","892654","0.0-310.0-0.0","63330587","wem/bandit_single","A2S75O867RJG0I","gain","2","","76","L","3","","1","0","0","0.4262778794","","false","273","0.07941117108","","main_expt","0.0113492324","","0.1026255411","","0.4262778794","","","","","","",""
"236","","bandit","349","894674","0.0-311.0-0.0","63330587","wem/bandit_single","A2S75O867RJG0I","gain","2","","76","L","3","","0","0","1","0.4017895895","","false","274","0.09301171309","","main_expt","0.005483919941","","0.08683802548","","0.4017895895","","","","","","",""
"276","","bandit","350","896736","0.0-312.0-0.0","63330587","wem/bandit_single","A2S75O867RJG0I","gain","2","","76","L","3","","1","0","0","0.4017548056","","false","275","0.1012072593","","main_expt","0.00462874381","","0.08250982893","","0.4017548056","","","","","","",""
"158","","bandit","351","898686","0.0-313.0-0.0","63330587","wem/bandit_single","A2S75O867RJG0I","gain","2","","76","L","3","","1","0","0","0.4072561249","","false","276","0.1230964009","","main_expt","0.009610611089","","0.06031930624","","0.4072561249","","","","","","",""
"290","","bandit","352","900757","0.0-314.0-0.0","63330587","wem/bandit_single","A2S75O867RJG0I","gain","2","","76","L","3","","1","0","0","0.3248287115","","false","277","0.1320105939","","main_expt","0.01319252808","","0.07169075363","","0.3248287115","","","","","","",""
"114","","bandit","353","902664","0.0-315.0-0.0","63330587","wem/bandit_single","A2S75O867RJG0I","gain","2","","76","L","3","","1","0","0","0.2954662343","","false","278","0.100271112","","main_expt","0.008560453299","","0.119525529","","0.2954662343","","","","","","",""
"137","","bandit","354","904587","0.0-316.0-0.0","63330587","wem/bandit_single","A2S75O867RJG0I","gain","2","","76","L","3","","0","0","1","0.3430788315","","false","279","0.0752783975","","main_expt","0.02270234009","","0.05136608794","","0.3430788315","","","","","","",""
"1224","","bandit","355","907590","0.0-317.0-0.0","63330587","wem/bandit_single","A2S75O867RJG0I","gain","2","","76","L","3","","0","0","1","0.298888987","","false","280","0.04609407158","","main_expt","0.01842994591","","0.06692305053","","0.298888987","","","","","","",""
"173","","bandit","356","909540","0.0-318.0-0.0","63330587","wem/bandit_single","A2S75O867RJG0I","gain","2","","76","L","3","","1","0","0","0.317374049","","false","281","0.05874754036","","main_expt","0.01750385803","","0.08594942048","","0.317374049","","","","","","",""
"169","","bandit","357","911490","0.0-319.0-0.0","63330587","wem/bandit_single","A2S75O867RJG0I","gain","2","","76","L","3","","0","0","1","0.2905756231","","false","282","0.05911354127","","main_expt","0.01075771148","","0.08562343316","","0.2905756231","","","","","","",""
"197","","bandit","358","913483","0.0-320.0-0.0","63330587","wem/bandit_single","A2S75O867RJG0I","gain","2","","76","L","3","","0","0","1","0.335540713","","false","283","0.0444902615","","main_expt","0.009487342711","","0.06507866554","","0.335540713","","","","","","",""
"247","","bandit","359","915505","0.0-321.0-0.0","63330587","wem/bandit_single","A2S75O867RJG0I","gain","2","","76","L","3","","1","0","0","0.3569674754","","false","284","0.03666520406","","main_expt","0.01035814212","","0.05738126215","","0.3569674754","","","","","","",""
"105","","bandit","360","917430","0.0-322.0-0.0","63330587","wem/bandit_single","A2S75O867RJG0I","gain","2","","76","L","3","","0","0","1","0.4068019922","","false","285","0.02451873239","","main_expt","0.01056818013","","0.06337296056","","0.4068019922","","","","","","",""
"152","","bandit","361","919364","0.0-323.0-0.0","63330587","wem/bandit_single","A2S75O867RJG0I","gain","2","","76","L","3","","0","0","1","0.432978486","","false","286","0.02877547985","","main_expt","0.007821227136","","0.04649068967","","0.432978486","","","","","","",""
"1403","","bandit","362","922550","0.0-324.0-0.0","63330587","wem/bandit_single","A2S75O867RJG0I","gain","2","","72","H","0","img/none_selected.jpg","0","0","1","0.03331393821","","false","287","0.03331393821","","main_expt","0.01039042452","","0.04946639224","","0.4213006965","","","","","","",""
"246","","bandit","363","924587","0.0-325.0-0.0","63330587","wem/bandit_single","A2S75O867RJG0I","gain","2","","72","H","0","img/none_selected.jpg","0","0","1","0.02363643209","","false","288","0.02363643209","","main_expt","0.02141961277","","0.03962947871","","0.4094413186","","","","","","",""
"226","","bandit","364","926603","0.0-326.0-0.0","63330587","wem/bandit_single","A2S75O867RJG0I","gain","2","","74","J","1","","0","0","1","0.02062414181","","false","289","0.0366455232","","main_expt","0.02062414181","","0.05295486238","","0.3731302572","","","","","","",""
"252","","bandit","365","928632","0.0-327.0-0.0","63330587","wem/bandit_single","A2S75O867RJG0I","gain","2","","74","J","1","","0","0","1","0.01411690602","","false","290","0.04887184979","","main_expt","0.01411690602","","0.06311332932","","0.4076032329","","","","","","",""
"145","","bandit","366","930593","0.0-328.0-0.0","63330587","wem/bandit_single","A2S75O867RJG0I","gain","2","","75","K","2","","0","0","1","0.07741633782","","false","291","0.03783642248","","main_expt","0.03188260643","","0.07741633782","","0.4134699565","","","","","","",""
"204","","bandit","367","932582","0.0-329.0-0.0","63330587","wem/bandit_single","A2S75O867RJG0I","gain","2","","75","K","2","","0","0","1","0.09064252153","","false","292","0.07820299584","","main_expt","0.03429620073","","0.09064252153","","0.3827884258","","","","","","",""
"214","","bandit","368","934575","0.0-330.0-0.0","63330587","wem/bandit_single","A2S75O867RJG0I","gain","2","","76","L","3","","0","0","1","0.4162015812","","false","293","0.07060894185","","main_expt","0.030392347","","0.07659126906","","0.4162015812","","","","","","",""
"142","","bandit","369","936503","0.0-331.0-0.0","63330587","wem/bandit_single","A2S75O867RJG0I","gain","2","","76","L","3","","0","0","1","0.447674372","","false","294","0.1051632986","","main_expt","0.04782046051","","0.08042624432","","0.447674372","","","","","","",""
"154","","bandit","370","938450","0.0-332.0-0.0","63330587","wem/bandit_single","A2S75O867RJG0I","gain","2","","76","L","3","","0","0","1","0.4402126752","","false","295","0.06624019153","","main_expt","0.06309063339","","0.1216640212","","0.4402126752","","","","","","",""
"240","","bandit","371","940469","0.0-333.0-0.0","63330587","wem/bandit_single","A2S75O867RJG0I","gain","2","","75","K","2","","0","0","1","0.1058257345","","false","296","0.07088700909","","main_expt","0.09511663338","","0.1058257345","","0.4378891161","","","","","","",""
"193","","bandit","372","942450","0.0-334.0-0.0","63330587","wem/bandit_single","A2S75O867RJG0I","gain","2","","75","K","2","","0","0","1","0.1101311263","","false","297","0.0529580871","","main_expt","0.07325770628","","0.1101311263","","0.468153315","","","","","","",""
"199","","bandit","373","944447","0.0-335.0-0.0","63330587","wem/bandit_single","A2S75O867RJG0I","gain","2","","75","K","2","","0","0","1","0.1117004815","","false","298","0.04256970448","","main_expt","0.06352452747","","0.1117004815","","0.4538992283","","","","","","",""
"426","","bandit","374","946673","0.0-336.0-0.0","63330587","wem/bandit_single","A2S75O867RJG0I","gain","2","","72","H","0","img/none_selected.jpg","0","0","1","0.02772245328","","false","299","0.02772245328","","main_expt","0.09466520998","","0.1201211159","","0.4653276232","","","","","","",""
