"rt","responses","trial_type","trial_index","time_elapsed","internal_node_id","subjID","study","MID","cond","drift","key_press","respCharCode","respKey","respChoiceNum","respChoice","gems","bombs","no_reward","GemPrChosen","BombPrChosen","practice","trial_counter","WinPr_0","LosePr_0","trial_label","WinPr_1","LosePr_1","WinPr_2","LosePr_2","WinPr_3","LosePr_3","Q0","Q1","Q2","gender","age","ethnicity"
"15025","{""Q0"":""A03922113RU44GENR8ATX""}","survey-text","0","15036","0.0-0.0","64578212","wem/bandit_single","A03922113RU44GENR8ATX","pain","6","","","","","","","","","","","","","","","","","","","","","","","","","","",""
"3298","","text","1","19342","0.0-1.0","64578212","wem/bandit_single","A03922113RU44GENR8ATX","pain","6","32","","","","","","","","","","","","","","","","","","","","","","","","","",""
"2803","","text","2","22147","0.0-2.0","64578212","wem/bandit_single","A03922113RU44GENR8ATX","pain","6","32","","","","","","","","","","","","","","","","","","","","","","","","","",""
"13347","","text","3","35500","0.0-3.0","64578212","wem/bandit_single","A03922113RU44GENR8ATX","pain","6","32","","","","","","","","","","","","","","","","","","","","","","","","","",""
"3134","","text","4","38635","0.0-4.0","64578212","wem/bandit_single","A03922113RU44GENR8ATX","pain","6","32","","","","","","","","","","","","","","","","","","","","","","","","","",""
"48108","","text","5","86744","0.0-5.0","64578212","wem/bandit_single","A03922113RU44GENR8ATX","pain","6","32","","","","","","","","","","","","","","","","","","","","","","","","","",""
"1362","","text","6","88106","0.0-6.0","64578212","wem/bandit_single","A03922113RU44GENR8ATX","pain","6","32","","","","","","","","","","","","","","","","","","","","","","","","","",""
"3391","","text","7","91497","0.0-7.0","64578212","wem/bandit_single","A03922113RU44GENR8ATX","pain","6","32","","","","","","","","","","","","","","","","","","","","","","","","","",""
"2824","","text","8","94331","0.0-8.0","64578212","wem/bandit_single","A03922113RU44GENR8ATX","pain","6","32","","","","","","","","","","","","","","","","","","","","","","","","","",""
"2942","","text","9","97273","0.0-9.0","64578212","wem/bandit_single","A03922113RU44GENR8ATX","pain","6","32","","","","","","","","","","","","","","","","","","","","","","","","","",""
"2318","","text","10","99591","0.0-10.0","64578212","wem/bandit_single","A03922113RU44GENR8ATX","pain","6","32","","","","","","","","","","","","","","","","","","","","","","","","","",""
"22941","","text","11","122538","0.0-11.0","64578212","wem/bandit_single","A03922113RU44GENR8ATX","pain","6","32","","","","","","","","","","","","","","","","","","","","","","","","","",""
"1709","","bandit","12","125758","0.0-12.0-0.0","64578212","wem/bandit_single","A03922113RU44GENR8ATX","pain","6","","74","J","0","img/none_selected_demo.jpg","0","0","1","0","0","true","0","0","0","","","","","","","","","","","","",""
"621","","bandit","13","128170","0.0-13.0-0.0","64578212","wem/bandit_single","A03922113RU44GENR8ATX","pain","6","","75","K","0","img/none_selected_demo.jpg","0","0","1","0","0","true","0","0","0","","","","","","","","","","","","",""
"5263","","text","14","133691","0.0-14.0","64578212","wem/bandit_single","A03922113RU44GENR8ATX","pain","6","32","","","","","","","","","","","","","","","","","","","","","","","","","",""
"1806","","text","15","135497","0.0-15.0","64578212","wem/bandit_single","A03922113RU44GENR8ATX","pain","6","32","","","","","","","","","","","","","","","","","","","","","","","","","",""
"3104","","text","16","138601","0.0-16.0","64578212","wem/bandit_single","A03922113RU44GENR8ATX","pain","6","32","","","","","","","","","","","","","","","","","","","","","","","","","",""
"3393","","text","17","141996","0.0-17.0","64578212","wem/bandit_single","A03922113RU44GENR8ATX","pain","6","32","","","","","","","","","","","","","","","","","","","","","","","","","",""
"892","","bandit","18","144400","0.0-18.0-0.0","64578212","wem/bandit_single","A03922113RU44GENR8ATX","pain","6","","74","J","0","img/none_selected_demo.jpg","0","1","0","0","0.8","true","0","0","0.8","80_20_practice","0","0.2","","","","","","","","","",""
"890","","bandit","19","147052","0.0-18.0-1.0","64578212","wem/bandit_single","A03922113RU44GENR8ATX","pain","6","","75","K","1","","0","0","1","0","0.2","true","0","0","0.8","80_20_practice","0","0.2","","","","","","","","","",""
"735","","bandit","20","149549","0.0-18.0-2.0","64578212","wem/bandit_single","A03922113RU44GENR8ATX","pain","6","","74","J","0","img/none_selected_demo.jpg","0","1","0","0","0.8","true","0","0","0.8","80_20_practice","0","0.2","","","","","","","","","",""
"139","","bandit","21","151459","0.0-18.0-3.0","64578212","wem/bandit_single","A03922113RU44GENR8ATX","pain","6","","74","J","0","img/none_selected_demo.jpg","0","1","0","0","0.8","true","0","0","0.8","80_20_practice","0","0.2","","","","","","","","","",""
"168","","bandit","22","153386","0.0-18.0-4.0","64578212","wem/bandit_single","A03922113RU44GENR8ATX","pain","6","","74","J","0","img/none_selected_demo.jpg","0","1","0","0","0.8","true","0","0","0.8","80_20_practice","0","0.2","","","","","","","","","",""
"146","","bandit","23","155290","0.0-18.0-5.0","64578212","wem/bandit_single","A03922113RU44GENR8ATX","pain","6","","74","J","0","img/none_selected_demo.jpg","0","1","0","0","0.8","true","0","0","0.8","80_20_practice","0","0.2","","","","","","","","","",""
"97","","bandit","24","157145","0.0-18.0-6.0","64578212","wem/bandit_single","A03922113RU44GENR8ATX","pain","6","","75","K","1","","0","0","1","0","0.2","true","0","0","0.8","80_20_practice","0","0.2","","","","","","","","","",""
"238","","bandit","25","159147","0.0-18.0-7.0","64578212","wem/bandit_single","A03922113RU44GENR8ATX","pain","6","","74","J","0","img/none_selected_demo.jpg","0","0","1","0","0.8","true","0","0","0.8","80_20_practice","0","0.2","","","","","","","","","",""
"153","","bandit","26","161068","0.0-18.0-8.0","64578212","wem/bandit_single","A03922113RU44GENR8ATX","pain","6","","74","J","0","img/none_selected_demo.jpg","0","1","0","0","0.8","true","0","0","0.8","80_20_practice","0","0.2","","","","","","","","","",""
"268","","bandit","27","163097","0.0-18.0-9.0","64578212","wem/bandit_single","A03922113RU44GENR8ATX","pain","6","","74","J","0","img/none_selected_demo.jpg","0","1","0","0","0.8","true","0","0","0.8","80_20_practice","0","0.2","","","","","","","","","",""
"54","","bandit","28","164906","0.0-18.0-10.0","64578212","wem/bandit_single","A03922113RU44GENR8ATX","pain","6","","74","J","0","img/none_selected_demo.jpg","0","0","1","0","0.8","true","0","0","0.8","80_20_practice","0","0.2","","","","","","","","","",""
"721","","bandit","29","167386","0.0-18.0-11.0","64578212","wem/bandit_single","A03922113RU44GENR8ATX","pain","6","","74","J","0","img/none_selected_demo.jpg","0","0","1","0","0.8","true","0","0","0.8","80_20_practice","0","0.2","","","","","","","","","",""
"121","","bandit","30","169275","0.0-18.0-12.0","64578212","wem/bandit_single","A03922113RU44GENR8ATX","pain","6","","75","K","1","","0","0","1","0","0.2","true","0","0","0.8","80_20_practice","0","0.2","","","","","","","","","",""
"80","","bandit","31","171115","0.0-18.0-13.0","64578212","wem/bandit_single","A03922113RU44GENR8ATX","pain","6","","74","J","0","img/none_selected_demo.jpg","0","1","0","0","0.8","true","0","0","0.8","80_20_practice","0","0.2","","","","","","","","","",""
"49","","bandit","32","172920","0.0-18.0-14.0","64578212","wem/bandit_single","A03922113RU44GENR8ATX","pain","6","","74","J","0","img/none_selected_demo.jpg","0","1","0","0","0.8","true","0","0","0.8","80_20_practice","0","0.2","","","","","","","","","",""
"383","","bandit","33","175064","0.0-18.0-15.0","64578212","wem/bandit_single","A03922113RU44GENR8ATX","pain","6","","74","J","0","img/none_selected_demo.jpg","0","0","1","0","0.8","true","0","0","0.8","80_20_practice","0","0.2","","","","","","","","","",""
"353","","bandit","34","177187","0.0-18.0-16.0","64578212","wem/bandit_single","A03922113RU44GENR8ATX","pain","6","","74","J","0","img/none_selected_demo.jpg","0","0","1","0","0.8","true","0","0","0.8","80_20_practice","0","0.2","","","","","","","","","",""
"8276","","bandit","35","187228","0.0-18.0-17.0","64578212","wem/bandit_single","A03922113RU44GENR8ATX","pain","6","","74","J","0","img/none_selected_demo.jpg","0","0","1","0","0.8","true","0","0","0.8","80_20_practice","0","0.2","","","","","","","","","",""
"208","","bandit","36","189192","0.0-18.0-18.0","64578212","wem/bandit_single","A03922113RU44GENR8ATX","pain","6","","74","J","0","img/none_selected_demo.jpg","0","1","0","0","0.8","true","0","0","0.8","80_20_practice","0","0.2","","","","","","","","","",""
"221","","bandit","37","191176","0.0-18.0-19.0","64578212","wem/bandit_single","A03922113RU44GENR8ATX","pain","6","","74","J","0","img/none_selected_demo.jpg","0","1","0","0","0.8","true","0","0","0.8","80_20_practice","0","0.2","","","","","","","","","",""
"931","","text","38","192362","0.0-19.0","64578212","wem/bandit_single","A03922113RU44GENR8ATX","pain","6","32","","","","","","","","","","","","","","","","","","","","","","","","","",""
"4874","","bandit","39","198745","0.0-20.0-0.0","64578212","wem/bandit_single","A03922113RU44GENR8ATX","pain","6","","74","J","0","img/none_selected_demo.jpg","0","0","1","0","0","true","0","0","0","","0","0","","","","","","","","","",""
"142","","text","40","199142","0.0-21.0","64578212","wem/bandit_single","A03922113RU44GENR8ATX","pain","6","75","","","","","","","","","","","","","","","","","","","","","","","","","",""
"7679","","text","41","206827","0.0-22.0","64578212","wem/bandit_single","A03922113RU44GENR8ATX","pain","6","32","","","","","","","","","","","","","","","","","","","","","","","","","",""
"1852","","text","42","208682","0.0-23.0","64578212","wem/bandit_single","A03922113RU44GENR8ATX","pain","6","32","","","","","","","","","","","","","","","","","","","","","","","","","",""
"1676","","text","43","210359","0.0-24.0","64578212","wem/bandit_single","A03922113RU44GENR8ATX","pain","6","32","","","","","","","","","","","","","","","","","","","","","","","","","",""
"4685","","text","44","215049","0.0-25.0","64578212","wem/bandit_single","A03922113RU44GENR8ATX","pain","6","32","","","","","","","","","","","","","","","","","","","","","","","","","",""
"1389","","text","45","216438","0.0-26.0","64578212","wem/bandit_single","A03922113RU44GENR8ATX","pain","6","32","","","","","","","","","","","","","","","","","","","","","","","","","",""
"1810","","text","46","218249","0.0-27.0","64578212","wem/bandit_single","A03922113RU44GENR8ATX","pain","6","32","","","","","","","","","","","","","","","","","","","","","","","","","",""
"1563","","text","47","219818","0.0-28.0","64578212","wem/bandit_single","A03922113RU44GENR8ATX","pain","6","32","","","","","","","","","","","","","","","","","","","","","","","","","",""
"4605","","text","48","224423","0.0-29.0","64578212","wem/bandit_single","A03922113RU44GENR8ATX","pain","6","32","","","","","","","","","","","","","","","","","","","","","","","","","",""
"1310","","text","49","225733","0.0-30.0","64578212","wem/bandit_single","A03922113RU44GENR8ATX","pain","6","32","","","","","","","","","","","","","","","","","","","","","","","","","",""
"24424","","text","50","250163","0.0-31.0","64578212","wem/bandit_single","A03922113RU44GENR8ATX","pain","6","32","","","","","","","","","","","","","","","","","","","","","","","","","",""
"1212","","bandit","51","252887","0.0-32.0-0.0","64578212","wem/bandit_single","A03922113RU44GENR8ATX","pain","6","","72","H","0","img/none_selected.jpg","0","1","0","0","0.8","true","0","0","0.8","full_practice","0","0.2","0","0.6","0","0.2","","","","","",""
"290","","bandit","52","254936","0.0-32.0-1.0","64578212","wem/bandit_single","A03922113RU44GENR8ATX","pain","6","","74","J","1","","0","0","1","0","0.2","true","0","0","0.8","full_practice","0","0.2","0","0.6","0","0.2","","","","","",""
"160","","bandit","53","256854","0.0-32.0-2.0","64578212","wem/bandit_single","A03922113RU44GENR8ATX","pain","6","","75","K","2","","0","1","0","0","0.6","true","0","0","0.8","full_practice","0","0.2","0","0.6","0","0.2","","","","","",""
"45","","bandit","54","258657","0.0-32.0-3.0","64578212","wem/bandit_single","A03922113RU44GENR8ATX","pain","6","","76","L","3","","0","0","1","0","0.2","true","0","0","0.8","full_practice","0","0.2","0","0.6","0","0.2","","","","","",""
"309","","bandit","55","260728","0.0-32.0-4.0","64578212","wem/bandit_single","A03922113RU44GENR8ATX","pain","6","","72","H","0","img/none_selected.jpg","0","1","0","0","0.8","true","0","0","0.8","full_practice","0","0.2","0","0.6","0","0.2","","","","","",""
"269","","bandit","56","262754","0.0-32.0-5.0","64578212","wem/bandit_single","A03922113RU44GENR8ATX","pain","6","","74","J","1","","0","0","1","0","0.2","true","0","0","0.8","full_practice","0","0.2","0","0.6","0","0.2","","","","","",""
"136","","bandit","57","264670","0.0-32.0-6.0","64578212","wem/bandit_single","A03922113RU44GENR8ATX","pain","6","","75","K","2","","0","0","1","0","0.6","true","0","0","0.8","full_practice","0","0.2","0","0.6","0","0.2","","","","","",""
"296","","bandit","58","266730","0.0-32.0-7.0","64578212","wem/bandit_single","A03922113RU44GENR8ATX","pain","6","","76","L","3","","0","0","1","0","0.2","true","0","0","0.8","full_practice","0","0.2","0","0.6","0","0.2","","","","","",""
"2400","","bandit","59","270888","0.0-32.0-8.0","64578212","wem/bandit_single","A03922113RU44GENR8ATX","pain","6","","72","H","0","img/none_selected.jpg","0","1","0","0","0.8","true","0","0","0.8","full_practice","0","0.2","0","0.6","0","0.2","","","","","",""
"196","","bandit","60","272844","0.0-32.0-9.0","64578212","wem/bandit_single","A03922113RU44GENR8ATX","pain","6","","74","J","1","","0","0","1","0","0.2","true","0","0","0.8","full_practice","0","0.2","0","0.6","0","0.2","","","","","",""
"287","","bandit","61","274895","0.0-32.0-10.0","64578212","wem/bandit_single","A03922113RU44GENR8ATX","pain","6","","75","K","2","","0","1","0","0","0.6","true","0","0","0.8","full_practice","0","0.2","0","0.6","0","0.2","","","","","",""
"182","","bandit","62","276839","0.0-32.0-11.0","64578212","wem/bandit_single","A03922113RU44GENR8ATX","pain","6","","76","L","3","","0","0","1","0","0.2","true","0","0","0.8","full_practice","0","0.2","0","0.6","0","0.2","","","","","",""
"404","","bandit","63","279001","0.0-32.0-12.0","64578212","wem/bandit_single","A03922113RU44GENR8ATX","pain","6","","72","H","0","img/none_selected.jpg","0","1","0","0","0.8","true","0","0","0.8","full_practice","0","0.2","0","0.6","0","0.2","","","","","",""
"75","","bandit","64","280839","0.0-32.0-13.0","64578212","wem/bandit_single","A03922113RU44GENR8ATX","pain","6","","74","J","1","","0","0","1","0","0.2","true","0","0","0.8","full_practice","0","0.2","0","0.6","0","0.2","","","","","",""
"115","","bandit","65","282713","0.0-32.0-14.0","64578212","wem/bandit_single","A03922113RU44GENR8ATX","pain","6","","75","K","2","","0","1","0","0","0.6","true","0","0","0.8","full_practice","0","0.2","0","0.6","0","0.2","","","","","",""
"367","","bandit","66","284840","0.0-32.0-15.0","64578212","wem/bandit_single","A03922113RU44GENR8ATX","pain","6","","76","L","3","","0","0","1","0","0.2","true","0","0","0.8","full_practice","0","0.2","0","0.6","0","0.2","","","","","",""
"1826","","bandit","67","288425","0.0-32.0-16.0","64578212","wem/bandit_single","A03922113RU44GENR8ATX","pain","6","","72","H","0","img/none_selected.jpg","0","1","0","0","0.8","true","0","0","0.8","full_practice","0","0.2","0","0.6","0","0.2","","","","","",""
"147","","bandit","68","290328","0.0-32.0-17.0","64578212","wem/bandit_single","A03922113RU44GENR8ATX","pain","6","","74","J","1","","0","1","0","0","0.2","true","0","0","0.8","full_practice","0","0.2","0","0.6","0","0.2","","","","","",""
"947","","bandit","69","293031","0.0-32.0-18.0","64578212","wem/bandit_single","A03922113RU44GENR8ATX","pain","6","","75","K","2","","0","1","0","0","0.6","true","0","0","0.8","full_practice","0","0.2","0","0.6","0","0.2","","","","","",""
"673","","bandit","70","295463","0.0-32.0-19.0","64578212","wem/bandit_single","A03922113RU44GENR8ATX","pain","6","","76","L","3","","0","0","1","0","0.2","true","0","0","0.8","full_practice","0","0.2","0","0.6","0","0.2","","","","","",""
"3517","","text","71","299241","0.0-33.0","64578212","wem/bandit_single","A03922113RU44GENR8ATX","pain","6","32","","","","","","","","","","","","","","","","","","","","","","","","","",""
"12116","","text","72","312361","0.0-34.0","64578212","wem/bandit_single","A03922113RU44GENR8ATX","pain","6","32","","","","","","","","","","","","","","","","","","","","","","","","","",""
"7329","","text","73","319693","0.0-35.0","64578212","wem/bandit_single","A03922113RU44GENR8ATX","pain","6","32","","","","","","","","","","","","","","","","","","","","","","","","","",""
"4377","","text","74","324074","0.0-36.0","64578212","wem/bandit_single","A03922113RU44GENR8ATX","pain","6","32","","","","","","","","","","","","","","","","","","","","","","","","","",""
"4363","","text","75","328440","0.0-37.0","64578212","wem/bandit_single","A03922113RU44GENR8ATX","pain","6","32","","","","","","","","","","","","","","","","","","","","","","","","","",""
"2345","","bandit","76","332295","0.0-38.0-0.0","64578212","wem/bandit_single","A03922113RU44GENR8ATX","pain","6","","72","H","0","img/none_selected.jpg","0","0","1","","0.1940838181","false","1","","0.1940838181","main_expt","","0.1623639982","","0.1142009487","","0.3785571591","","","","","",""
"315","","bandit","77","334379","0.0-39.0-0.0","64578212","wem/bandit_single","A03922113RU44GENR8ATX","pain","6","","74","J","1","","0","0","1","","0.1864124343","false","2","","0.2410489397","main_expt","","0.1864124343","","0.09165924831","","0.3894156921","","","","","",""
"142","","bandit","78","336281","0.0-40.0-0.0","64578212","wem/bandit_single","A03922113RU44GENR8ATX","pain","6","","75","K","2","","0","0","1","","0.1174954382","false","3","","0.2645422736","main_expt","","0.1494323563","","0.1174954382","","0.4125386255","","","","","",""
"155","","bandit","79","338195","0.0-41.0-0.0","64578212","wem/bandit_single","A03922113RU44GENR8ATX","pain","6","","76","L","3","","0","0","1","","0.3990363537","false","4","","0.1984909652","main_expt","","0.1266436655","","0.1426329369","","0.3990363537","","","","","",""
"133","","bandit","80","340094","0.0-42.0-0.0","64578212","wem/bandit_single","A03922113RU44GENR8ATX","pain","6","","74","J","1","","0","0","1","","0.1476492511","false","5","","0.1239860826","main_expt","","0.1476492511","","0.1503595054","","0.454435597","","","","","",""
"156","","bandit","81","342006","0.0-43.0-0.0","64578212","wem/bandit_single","A03922113RU44GENR8ATX","pain","6","","75","K","2","","0","1","0","","0.1646450236","false","6","","0.06805906468","main_expt","","0.1525625276","","0.1646450236","","0.4583077461","","","","","",""
"131","","bandit","82","343895","0.0-44.0-0.0","64578212","wem/bandit_single","A03922113RU44GENR8ATX","pain","6","","75","K","2","","0","0","1","","0.2031930874","false","7","","0.05890971721","main_expt","","0.1856713893","","0.2031930874","","0.4617786505","","","","","",""
"114","","bandit","83","345768","0.0-45.0-0.0","64578212","wem/bandit_single","A03922113RU44GENR8ATX","pain","6","","75","K","2","","0","0","1","","0.181996894","false","8","","0.0832196585","main_expt","","0.2108076934","","0.181996894","","0.475168559","","","","","",""
"175","","bandit","84","347703","0.0-46.0-0.0","64578212","wem/bandit_single","A03922113RU44GENR8ATX","pain","6","","76","L","3","","0","0","1","","0.458325554","false","9","","0.1325638406","main_expt","","0.1956497028","","0.1673845292","","0.458325554","","","","","",""
"118","","bandit","85","349598","0.0-47.0-0.0","64578212","wem/bandit_single","A03922113RU44GENR8ATX","pain","6","","72","H","0","img/none_selected.jpg","0","0","1","","0.1196898321","false","10","","0.1196898321","main_expt","","0.1582923175","","0.2328473308","","0.4316924572","","","","","",""
"267","","bandit","86","351621","0.0-48.0-0.0","64578212","wem/bandit_single","A03922113RU44GENR8ATX","pain","6","","74","J","1","","0","1","0","","0.167734997","false","11","","0.1103103944","main_expt","","0.167734997","","0.20589494","","0.3756511011","","","","","",""
"100","","bandit","87","353480","0.0-49.0-0.0","64578212","wem/bandit_single","A03922113RU44GENR8ATX","pain","6","","74","J","1","","0","1","0","","0.2150601968","false","12","","0.06819125589","main_expt","","0.2150601968","","0.2246944015","","0.3549088727","","","","","",""
"514","","bandit","88","355750","0.0-50.0-0.0","64578212","wem/bandit_single","A03922113RU44GENR8ATX","pain","6","","74","J","1","","0","0","1","","0.252216208","false","13","","0.07076675629","main_expt","","0.252216208","","0.2613447163","","0.3455803359","","","","","",""
"87","","bandit","89","357596","0.0-51.0-0.0","64578212","wem/bandit_single","A03922113RU44GENR8ATX","pain","6","","75","K","2","","0","0","1","","0.212655478","false","14","","0.09241451512","main_expt","","0.2184022087","","0.212655478","","0.3809937316","","","","","",""
"268","","bandit","90","359622","0.0-52.0-0.0","64578212","wem/bandit_single","A03922113RU44GENR8ATX","pain","6","","74","J","1","","0","0","1","","0.210005203","false","15","","0.07205700739","main_expt","","0.210005203","","0.1679070286","","0.3479508526","","","","","",""
"225","","bandit","91","361614","0.0-53.0-0.0","64578212","wem/bandit_single","A03922113RU44GENR8ATX","pain","6","","72","H","0","img/none_selected.jpg","0","0","1","","0.04760190598","false","16","","0.04760190598","main_expt","","0.2402495983","","0.1774383452","","0.3287514515","","","","","",""
"4","","bandit","92","363377","0.0-54.0-0.0","64578212","wem/bandit_single","A03922113RU44GENR8ATX","pain","6","","76","L","3","","0","0","1","","0.4008698656","false","17","","0.03958098904","main_expt","","0.2766196603","","0.1562672395","","0.4008698656","","","","","",""
"598","","bandit","93","365733","0.0-55.0-0.0","64578212","wem/bandit_single","A03922113RU44GENR8ATX","pain","6","","74","J","1","","0","0","1","","0.3193638145","false","18","","0.03128671198","main_expt","","0.3193638145","","0.1407597156","","0.3845126264","","","","","",""
"148","","bandit","94","367638","0.0-56.0-0.0","64578212","wem/bandit_single","A03922113RU44GENR8ATX","pain","6","","75","K","2","","0","0","1","","0.1310890834","false","19","","0.04453616628","main_expt","","0.2953318626","","0.1310890834","","0.3979941068","","","","","",""
"230","","bandit","95","369624","0.0-57.0-0.0","64578212","wem/bandit_single","A03922113RU44GENR8ATX","pain","6","","76","L","3","","0","0","1","","0.3920029867","false","20","","0.04596917346","main_expt","","0.3007143328","","0.1317163977","","0.3920029867","","","","","",""
"337","","bandit","96","371720","0.0-58.0-0.0","64578212","wem/bandit_single","A03922113RU44GENR8ATX","pain","6","","72","H","0","img/none_selected.jpg","0","0","1","","0.04297504417","false","21","","0.04297504417","main_expt","","0.3105995928","","0.1752537558","","0.4057752261","","","","","",""
"65","","bandit","97","373543","0.0-59.0-0.0","64578212","wem/bandit_single","A03922113RU44GENR8ATX","pain","6","","74","J","1","","0","0","1","","0.3742057862","false","22","","0.04739698515","main_expt","","0.3742057862","","0.2064983175","","0.4072420822","","","","","",""
"125","","bandit","98","375434","0.0-60.0-0.0","64578212","wem/bandit_single","A03922113RU44GENR8ATX","pain","6","","75","K","2","","0","0","1","","0.216691321","false","23","","0.08003173613","main_expt","","0.3439758112","","0.216691321","","0.3798298113","","","","","",""
"165","","bandit","99","377357","0.0-61.0-0.0","64578212","wem/bandit_single","A03922113RU44GENR8ATX","pain","6","","76","L","3","","0","0","1","","0.3329856024","false","24","","0.09868307827","main_expt","","0.3549138733","","0.2342773894","","0.3329856024","","","","","",""
"77","","bandit","100","379202","0.0-62.0-0.0","64578212","wem/bandit_single","A03922113RU44GENR8ATX","pain","6","","72","H","0","img/none_selected.jpg","0","0","1","","0.07950464875","false","25","","0.07950464875","main_expt","","0.3811330683","","0.2378870173","","0.3337381726","","","","","",""
"70","","bandit","101","381030","0.0-63.0-0.0","64578212","wem/bandit_single","A03922113RU44GENR8ATX","pain","6","","74","J","1","","0","0","1","","0.3131907418","false","26","","0.09697268327","main_expt","","0.3131907418","","0.2555438901","","0.3650510818","","","","","",""
"627","","bandit","102","383413","0.0-64.0-0.0","64578212","wem/bandit_single","A03922113RU44GENR8ATX","pain","6","","75","K","2","","0","1","0","","0.2487754609","false","27","","0.09831328215","main_expt","","0.3210571327","","0.2487754609","","0.3930286133","","","","","",""
"99","","bandit","103","385270","0.0-65.0-0.0","64578212","wem/bandit_single","A03922113RU44GENR8ATX","pain","6","","74","J","1","","0","0","1","","0.3350138966","false","28","","0.08798585883","main_expt","","0.3350138966","","0.2023297646","","0.3849328395","","","","","",""
"80","","bandit","104","387110","0.0-66.0-0.0","64578212","wem/bandit_single","A03922113RU44GENR8ATX","pain","6","","75","K","2","","0","0","1","","0.1824385616","false","29","","0.1001400419","main_expt","","0.3491704597","","0.1824385616","","0.3635333449","","","","","",""
"97","","bandit","105","388967","0.0-67.0-0.0","64578212","wem/bandit_single","A03922113RU44GENR8ATX","pain","6","","75","K","2","","0","1","0","","0.2108935763","false","30","","0.100360092","main_expt","","0.3515390533","","0.2108935763","","0.3870800473","","","","","",""
"390","","bandit","106","391113","0.0-68.0-0.0","64578212","wem/bandit_single","A03922113RU44GENR8ATX","pain","6","","75","K","2","","0","0","1","","0.2212072473","false","31","","0.1235489826","main_expt","","0.3116189274","","0.2212072473","","0.407818568","","","","","",""
"255","","bandit","107","393126","0.0-69.0-0.0","64578212","wem/bandit_single","A03922113RU44GENR8ATX","pain","6","","74","J","1","","0","0","1","","0.2923613921","false","32","","0.0999088058","main_expt","","0.2923613921","","0.2349080289","","0.4365503818","","","","","",""
"82","","bandit","108","394966","0.0-70.0-0.0","64578212","wem/bandit_single","A03922113RU44GENR8ATX","pain","6","","74","J","1","","0","0","1","","0.2833872006","false","33","","0.1229353218","main_expt","","0.2833872006","","0.2233211346","","0.438397095","","","","","",""
"371","","bandit","109","397094","0.0-71.0-0.0","64578212","wem/bandit_single","A03922113RU44GENR8ATX","pain","6","","75","K","2","","0","0","1","","0.2328620384","false","34","","0.1174339591","main_expt","","0.251012165","","0.2328620384","","0.4225996483","","","","","",""
"18","","bandit","110","398871","0.0-72.0-0.0","64578212","wem/bandit_single","A03922113RU44GENR8ATX","pain","6","","75","K","2","","0","0","1","","0.2442853791","false","35","","0.08922948311","main_expt","","0.2150204629","","0.2442853791","","0.3719427837","","","","","",""
"351","","bandit","111","401018","0.0-73.0-0.0","64578212","wem/bandit_single","A03922113RU44GENR8ATX","pain","6","","75","K","2","","0","0","1","","0.2536962779","false","36","","0.1065429935","main_expt","","0.2003821391","","0.2536962779","","0.3643608465","","","","","",""
"97","","bandit","112","402889","0.0-74.0-0.0","64578212","wem/bandit_single","A03922113RU44GENR8ATX","pain","6","","74","J","1","","0","0","1","","0.1584744983","false","37","","0.119331244","main_expt","","0.1584744983","","0.1968410568","","0.3951734682","","","","","",""
"236","","bandit","113","404900","0.0-75.0-0.0","64578212","wem/bandit_single","A03922113RU44GENR8ATX","pain","6","","75","K","2","","0","0","1","","0.1903576104","false","38","","0.1140529394","main_expt","","0.1107345946","","0.1903576104","","0.4106313244","","","","","",""
"71","","bandit","114","406731","0.0-76.0-0.0","64578212","wem/bandit_single","A03922113RU44GENR8ATX","pain","6","","76","L","3","","0","0","1","","0.385877281","false","39","","0.1377706652","main_expt","","0.1922112034","","0.2094560733","","0.385877281","","","","","",""
"13","","bandit","115","408502","0.0-77.0-0.0","64578212","wem/bandit_single","A03922113RU44GENR8ATX","pain","6","","72","H","0","img/none_selected.jpg","0","0","1","","0.1686011578","false","40","","0.1686011578","main_expt","","0.202991566","","0.2157952434","","0.3814638094","","","","","",""
"114","","bandit","116","410377","0.0-78.0-0.0","64578212","wem/bandit_single","A03922113RU44GENR8ATX","pain","6","","74","J","1","","0","1","0","","0.257249123","false","41","","0.1640814413","main_expt","","0.257249123","","0.1982376225","","0.3569976603","","","","","",""
"111","","bandit","117","412246","0.0-79.0-0.0","64578212","wem/bandit_single","A03922113RU44GENR8ATX","pain","6","","74","J","1","","0","0","1","","0.3139605103","false","42","","0.1444461896","main_expt","","0.3139605103","","0.1815133425","","0.3254656301","","","","","",""
"304","","bandit","118","414311","0.0-80.0-0.0","64578212","wem/bandit_single","A03922113RU44GENR8ATX","pain","6","","75","K","2","","0","1","0","","0.1804658283","false","43","","0.1466097136","main_expt","","0.2859416922","","0.1804658283","","0.3061667188","","","","","",""
"106","","bandit","119","416209","0.0-81.0-0.0","64578212","wem/bandit_single","A03922113RU44GENR8ATX","pain","6","","74","J","1","","0","0","1","","0.2344477797","false","44","","0.1701376127","main_expt","","0.2344477797","","0.1453808853","","0.3247162798","","","","","",""
"166","","bandit","120","418133","0.0-82.0-0.0","64578212","wem/bandit_single","A03922113RU44GENR8ATX","pain","6","","75","K","2","","0","1","0","","0.1975985391","false","45","","0.2382164817","main_expt","","0.25278305","","0.1975985391","","0.3464274235","","","","","",""
"192","","bandit","121","420086","0.0-83.0-0.0","64578212","wem/bandit_single","A03922113RU44GENR8ATX","pain","6","","75","K","2","","0","0","1","","0.2099331931","false","46","","0.2817064876","main_expt","","0.2447001663","","0.2099331931","","0.2853596265","","","","","",""
"96","","bandit","122","421942","0.0-84.0-0.0","64578212","wem/bandit_single","A03922113RU44GENR8ATX","pain","6","","74","J","1","","0","0","1","","0.2439886488","false","47","","0.3449614965","main_expt","","0.2439886488","","0.2373708448","","0.2781892211","","","","","",""
"96","","bandit","123","423798","0.0-85.0-0.0","64578212","wem/bandit_single","A03922113RU44GENR8ATX","pain","6","","75","K","2","","0","0","1","","0.2929879582","false","48","","0.2846403666","main_expt","","0.3453423138","","0.2929879582","","0.2802769371","","","","","",""
"98","","bandit","124","425655","0.0-86.0-0.0","64578212","wem/bandit_single","A03922113RU44GENR8ATX","pain","6","","75","K","2","","0","0","1","","0.2643709298","false","49","","0.3292227521","main_expt","","0.3208634608","","0.2643709298","","0.3162769287","","","","","",""
"113","","bandit","125","427527","0.0-87.0-0.0","64578212","wem/bandit_single","A03922113RU44GENR8ATX","pain","6","","74","J","1","","0","0","1","","0.2600740437","false","50","","0.270904054","main_expt","","0.2600740437","","0.2666646559","","0.2524095143","","","","","",""
"509","","bandit","126","429795","0.0-88.0-0.0","64578212","wem/bandit_single","A03922113RU44GENR8ATX","pain","6","","72","H","0","img/none_selected.jpg","0","0","1","","0.2503066232","false","51","","0.2503066232","main_expt","","0.2451527442","","0.2550538978","","0.2630113652","","","","","",""
"126","","bandit","127","431686","0.0-89.0-0.0","64578212","wem/bandit_single","A03922113RU44GENR8ATX","pain","6","","76","L","3","","0","0","1","","0.2707742251","false","52","","0.2405173112","main_expt","","0.1882651979","","0.3235330097","","0.2707742251","","","","","",""
"112","","bandit","128","433557","0.0-90.0-0.0","64578212","wem/bandit_single","A03922113RU44GENR8ATX","pain","6","","75","K","2","","0","0","1","","0.347433539","false","53","","0.2966352861","main_expt","","0.1930778153","","0.347433539","","0.2150274285","","","","","",""
"81","","bandit","129","435397","0.0-91.0-0.0","64578212","wem/bandit_single","A03922113RU44GENR8ATX","pain","6","","74","J","1","","0","0","1","","0.2216955806","false","54","","0.2887198369","main_expt","","0.2216955806","","0.3368202787","","0.2326572497","","","","","",""
"114","","bandit","130","437270","0.0-92.0-0.0","64578212","wem/bandit_single","A03922113RU44GENR8ATX","pain","6","","74","J","1","","0","0","1","","0.2422165651","false","55","","0.2801160178","main_expt","","0.2422165651","","0.3503124627","","0.2134399586","","","","","",""
"49","","bandit","131","439078","0.0-93.0-0.0","64578212","wem/bandit_single","A03922113RU44GENR8ATX","pain","6","","75","K","2","","0","0","1","","0.368841946","false","56","","0.3022415889","main_expt","","0.228979269","","0.368841946","","0.2394891912","","","","","",""
"427","","bandit","132","441271","0.0-94.0-0.0","64578212","wem/bandit_single","A03922113RU44GENR8ATX","pain","6","","75","K","2","","0","0","1","","0.3883837061","false","57","","0.3300995428","main_expt","","0.243325051","","0.3883837061","","0.2942469327","","","","","",""
"466","","bandit","133","443501","0.0-95.0-0.0","64578212","wem/bandit_single","A03922113RU44GENR8ATX","pain","6","","75","K","2","","0","1","0","","0.4116863428","false","58","","0.3393984951","main_expt","","0.2326991071","","0.4116863428","","0.369295693","","","","","",""
"100","","bandit","134","445365","0.0-96.0-0.0","64578212","wem/bandit_single","A03922113RU44GENR8ATX","pain","6","","75","K","2","","0","0","1","","0.3980375199","false","59","","0.3592245678","main_expt","","0.2480349675","","0.3980375199","","0.3663837161","","","","","",""
"51","","bandit","135","447174","0.0-97.0-0.0","64578212","wem/bandit_single","A03922113RU44GENR8ATX","pain","6","","75","K","2","","0","0","1","","0.3849919156","false","60","","0.3431938453","main_expt","","0.2591134247","","0.3849919156","","0.3578669063","","","","","",""
"337","","bandit","136","449269","0.0-98.0-0.0","64578212","wem/bandit_single","A03922113RU44GENR8ATX","pain","6","","74","J","1","","0","0","1","","0.2828027123","false","61","","0.3622980041","main_expt","","0.2828027123","","0.3822359719","","0.3901807011","","","","","",""
"274","","bandit","137","451303","0.0-99.0-0.0","64578212","wem/bandit_single","A03922113RU44GENR8ATX","pain","6","","75","K","2","","0","1","0","","0.3356955782","false","62","","0.3898917795","main_expt","","0.2645717152","","0.3356955782","","0.4199484271","","","","","",""
"125","","bandit","138","453192","0.0-100.0-0.0","64578212","wem/bandit_single","A03922113RU44GENR8ATX","pain","6","","75","K","2","","0","0","1","","0.2961333539","false","63","","0.3730814422","main_expt","","0.3164731366","","0.2961333539","","0.431710707","","","","","",""
"155","","bandit","139","455111","0.0-101.0-0.0","64578212","wem/bandit_single","A03922113RU44GENR8ATX","pain","6","","75","K","2","","0","1","0","","0.3332154777","false","64","","0.359514794","main_expt","","0.3549458842","","0.3332154777","","0.4302834116","","","","","",""
"93","","bandit","140","456966","0.0-102.0-0.0","64578212","wem/bandit_single","A03922113RU44GENR8ATX","pain","6","","75","K","2","","0","0","1","","0.35785358","false","65","","0.3114607296","main_expt","","0.288515421","","0.35785358","","0.3985691748","","","","","",""
"129","","bandit","141","458855","0.0-103.0-0.0","64578212","wem/bandit_single","A03922113RU44GENR8ATX","pain","6","","76","L","3","","0","1","0","","0.4041176093","false","66","","0.2942291023","main_expt","","0.3011993237","","0.406057841","","0.4041176093","","","","","",""
"400","","bandit","142","461014","0.0-104.0-0.0","64578212","wem/bandit_single","A03922113RU44GENR8ATX","pain","6","","75","K","2","","0","0","1","","0.4196038874","false","67","","0.3320533568","main_expt","","0.345072876","","0.4196038874","","0.4007812862","","","","","",""
"0","","bandit","143","462781","0.0-105.0-0.0","64578212","wem/bandit_single","A03922113RU44GENR8ATX","pain","6","","76","L","3","","0","0","1","","0.4294162969","false","68","","0.3600975808","main_expt","","0.3196529892","","0.3890604874","","0.4294162969","","","","","",""
"360","","bandit","144","464903","0.0-106.0-0.0","64578212","wem/bandit_single","A03922113RU44GENR8ATX","pain","6","","75","K","2","","0","0","1","","0.4084138829","false","69","","0.2872110667","main_expt","","0.3649702463","","0.4084138829","","0.3767619451","","","","","",""
"383","","bandit","145","467045","0.0-107.0-0.0","64578212","wem/bandit_single","A03922113RU44GENR8ATX","pain","6","","76","L","3","","0","0","1","","0.3777248691","false","70","","0.295141158","main_expt","","0.356932825","","0.3468887804","","0.3777248691","","","","","",""
"78","","bandit","146","468882","0.0-108.0-0.0","64578212","wem/bandit_single","A03922113RU44GENR8ATX","pain","6","","72","H","0","img/none_selected.jpg","0","0","1","","0.3206647592","false","71","","0.3206647592","main_expt","","0.3835678776","","0.341524862","","0.3795242786","","","","","",""
"132","","bandit","147","470774","0.0-109.0-0.0","64578212","wem/bandit_single","A03922113RU44GENR8ATX","pain","6","","74","J","1","","0","1","0","","0.4212385026","false","72","","0.3264000429","main_expt","","0.4212385026","","0.3749246652","","0.3665841139","","","","","",""
"128","","bandit","148","472661","0.0-110.0-0.0","64578212","wem/bandit_single","A03922113RU44GENR8ATX","pain","6","","75","K","2","","0","0","1","","0.3871824506","false","73","","0.333972891","main_expt","","0.4261424303","","0.3871824506","","0.3651794524","","","","","",""
"145","","bandit","149","474565","0.0-111.0-0.0","64578212","wem/bandit_single","A03922113RU44GENR8ATX","pain","6","","76","L","3","","0","1","0","","0.3550305672","false","74","","0.3616968722","main_expt","","0.3977974162","","0.3721906724","","0.3550305672","","","","","",""
"130","","bandit","150","476454","0.0-112.0-0.0","64578212","wem/bandit_single","A03922113RU44GENR8ATX","pain","6","","76","L","3","","0","0","1","","0.2927321298","false","75","","0.3975057441","main_expt","","0.4267201321","","0.3111946895","","0.2927321298","","","","","",""
"418","","bandit","151","478629","0.0-113.0-0.0","64578212","wem/bandit_single","A03922113RU44GENR8ATX","pain","6","","72","H","0","img/none_selected.jpg","0","0","1","","0.3807363423","false","76","","0.3807363423","main_expt","","0.4263250047","","0.3336428477","","0.2842047713","","","","","",""
"116","","bandit","152","480503","0.0-114.0-0.0","64578212","wem/bandit_single","A03922113RU44GENR8ATX","pain","6","","74","J","1","","0","1","0","","0.4081139898","false","77","","0.394346207","main_expt","","0.4081139898","","0.2972108807","","0.291961298","","","","","",""
"129","","bandit","153","482390","0.0-115.0-0.0","64578212","wem/bandit_single","A03922113RU44GENR8ATX","pain","6","","76","L","3","","0","0","1","","0.2772504781","false","78","","0.4130135997","main_expt","","0.4081745619","","0.3500338334","","0.2772504781","","","","","",""
"143","","bandit","154","484313","0.0-116.0-0.0","64578212","wem/bandit_single","A03922113RU44GENR8ATX","pain","6","","74","J","1","","0","1","0","","0.4210543479","false","79","","0.388257836","main_expt","","0.4210543479","","0.3382579744","","0.2910266255","","","","","",""
"108","","bandit","155","486182","0.0-117.0-0.0","64578212","wem/bandit_single","A03922113RU44GENR8ATX","pain","6","","74","J","1","","0","0","1","","0.4173400146","false","80","","0.402189785","main_expt","","0.4173400146","","0.2848378437","","0.3236474027","","","","","",""
"351","","bandit","156","488293","0.0-118.0-0.0","64578212","wem/bandit_single","A03922113RU44GENR8ATX","pain","6","","76","L","3","","0","0","1","","0.3171491255","false","81","","0.4188164015","main_expt","","0.3876294662","","0.2824957966","","0.3171491255","","","","","",""
"450","","bandit","157","490502","0.0-119.0-0.0","64578212","wem/bandit_single","A03922113RU44GENR8ATX","pain","6","","74","J","1","","0","0","1","","0.3960397656","false","82","","0.3923487362","main_expt","","0.3960397656","","0.2921189703","","0.3253049084","","","","","",""
"176","","bandit","158","492438","0.0-120.0-0.0","64578212","wem/bandit_single","A03922113RU44GENR8ATX","pain","6","","75","K","2","","0","0","1","","0.346808059","false","83","","0.3765831671","main_expt","","0.4048972575","","0.346808059","","0.2650825447","","","","","",""
"143","","bandit","159","494341","0.0-121.0-0.0","64578212","wem/bandit_single","A03922113RU44GENR8ATX","pain","6","","76","L","3","","0","0","1","","0.2860936523","false","84","","0.3744655151","main_expt","","0.4261464595","","0.3142369957","","0.2860936523","","","","","",""
"34","","bandit","160","496134","0.0-122.0-0.0","64578212","wem/bandit_single","A03922113RU44GENR8ATX","pain","6","","74","J","1","","0","1","0","","0.4252889048","false","85","","0.4097897279","main_expt","","0.4252889048","","0.3336664699","","0.2965161573","","","","","",""
"96","","bandit","161","497989","0.0-123.0-0.0","64578212","wem/bandit_single","A03922113RU44GENR8ATX","pain","6","","75","K","2","","0","0","1","","0.3487181938","false","86","","0.4365994201","main_expt","","0.4234238012","","0.3487181938","","0.2718920201","","","","","",""
"98","","bandit","162","499849","0.0-124.0-0.0","64578212","wem/bandit_single","A03922113RU44GENR8ATX","pain","6","","74","J","1","","0","0","1","","0.4493325849","false","87","","0.4485753971","main_expt","","0.4493325849","","0.3595256023","","0.2663647104","","","","","",""
"203","","bandit","163","501814","0.0-125.0-0.0","64578212","wem/bandit_single","A03922113RU44GENR8ATX","pain","6","","76","L","3","","0","1","0","","0.2505207396","false","88","","0.4682155013","main_expt","","0.4618336953","","0.3633435887","","0.2505207396","","","","","",""
"82","","bandit","164","503656","0.0-126.0-0.0","64578212","wem/bandit_single","A03922113RU44GENR8ATX","pain","6","","74","J","1","","0","0","1","","0.470357169","false","89","","0.455546077","main_expt","","0.470357169","","0.3301577903","","0.2380326514","","","","","",""
"309","","bandit","165","505733","0.0-127.0-0.0","64578212","wem/bandit_single","A03922113RU44GENR8ATX","pain","6","","76","L","3","","0","0","1","","0.2825572521","false","90","","0.4648286352","main_expt","","0.4756012524","","0.2983975746","","0.2825572521","","","","","",""
"286","","bandit","166","507781","0.0-128.0-0.0","64578212","wem/bandit_single","A03922113RU44GENR8ATX","pain","6","","75","K","2","","0","1","0","","0.2708507867","false","91","","0.4597569826","main_expt","","0.4661355378","","0.2708507867","","0.3629334232","","","","","",""
"81","","bandit","167","509622","0.0-129.0-0.0","64578212","wem/bandit_single","A03922113RU44GENR8ATX","pain","6","","74","J","1","","0","0","1","","0.4640816948","false","92","","0.4636055165","main_expt","","0.4640816948","","0.2025174094","","0.4318733099","","","","","",""
"174","","bandit","168","511557","0.0-130.0-0.0","64578212","wem/bandit_single","A03922113RU44GENR8ATX","pain","6","","76","L","3","","0","0","1","","0.4354989634","false","93","","0.4344757896","main_expt","","0.4745032584","","0.1991535532","","0.4354989634","","","","","",""
"178","","bandit","169","513494","0.0-131.0-0.0","64578212","wem/bandit_single","A03922113RU44GENR8ATX","pain","6","","75","K","2","","0","0","1","","0.2072674268","false","94","","0.4540573516","main_expt","","0.4713826624","","0.2072674268","","0.4569950804","","","","","",""
"192","","bandit","170","515446","0.0-132.0-0.0","64578212","wem/bandit_single","A03922113RU44GENR8ATX","pain","6","","72","H","0","img/none_selected.jpg","0","0","1","","0.467393544","false","95","","0.467393544","main_expt","","0.4518091014","","0.2139910976","","0.4626037768","","","","","",""
"64","","bandit","171","517269","0.0-133.0-0.0","64578212","wem/bandit_single","A03922113RU44GENR8ATX","pain","6","","74","J","1","","0","1","0","","0.4610288074","false","96","","0.4523779492","main_expt","","0.4610288074","","0.1714021876","","0.4632162831","","","","","",""
"82","","bandit","172","519111","0.0-134.0-0.0","64578212","wem/bandit_single","A03922113RU44GENR8ATX","pain","6","","75","K","2","","0","0","1","","0.1776734449","false","97","","0.4734298584","main_expt","","0.4610411697","","0.1776734449","","0.4574348148","","","","","",""
"205","","bandit","173","521078","0.0-135.0-0.0","64578212","wem/bandit_single","A03922113RU44GENR8ATX","pain","6","","76","L","3","","0","1","0","","0.4551488225","false","98","","0.4822123269","main_expt","","0.4658458747","","0.2143852757","","0.4551488225","","","","","",""
"282","","bandit","174","523138","0.0-136.0-0.0","64578212","wem/bandit_single","A03922113RU44GENR8ATX","pain","6","","74","J","1","","0","1","0","","0.4372748216","false","99","","0.4829706494","main_expt","","0.4372748216","","0.2341872784","","0.4604873832","","","","","",""
"241","","bandit","175","525141","0.0-137.0-0.0","64578212","wem/bandit_single","A03922113RU44GENR8ATX","pain","6","","76","L","3","","0","0","1","","0.4364445071","false","100","","0.4918551361","main_expt","","0.4237986198","","0.2835639283","","0.4364445071","","","","","",""
"34","","bandit","176","526934","0.0-138.0-0.0","64578212","wem/bandit_single","A03922113RU44GENR8ATX","pain","6","","74","J","1","","0","1","0","","0.4239408107","false","101","","0.4891782125","main_expt","","0.4239408107","","0.3342764243","","0.4152010141","","","","","",""
"191","","bandit","177","528891","0.0-139.0-0.0","64578212","wem/bandit_single","A03922113RU44GENR8ATX","pain","6","","75","K","2","","0","0","1","","0.3693598309","false","102","","0.484620563","main_expt","","0.4482877494","","0.3693598309","","0.4463558977","","","","","",""
"639","","bandit","178","531301","0.0-140.0-0.0","64578212","wem/bandit_single","A03922113RU44GENR8ATX","pain","6","","74","J","1","","0","0","1","","0.4319618448","false","103","","0.4880888492","main_expt","","0.4319618448","","0.3465782007","","0.4519222506","","","","","",""
"127","","bandit","179","533190","0.0-141.0-0.0","64578212","wem/bandit_single","A03922113RU44GENR8ATX","pain","6","","74","J","1","","0","1","0","","0.3989131432","false","104","","0.4862983338","main_expt","","0.3989131432","","0.356437927","","0.44950272","","","","","",""
"95","","bandit","180","535046","0.0-142.0-0.0","64578212","wem/bandit_single","A03922113RU44GENR8ATX","pain","6","","74","J","1","","0","0","1","","0.3718051273","false","105","","0.4761426531","main_expt","","0.3718051273","","0.349556789","","0.4631277203","","","","","",""
"128","","bandit","181","536934","0.0-143.0-0.0","64578212","wem/bandit_single","A03922113RU44GENR8ATX","pain","6","","74","J","1","","0","0","1","","0.3820213715","false","106","","0.4724420891","main_expt","","0.3820213715","","0.3368343046","","0.4761070442","","","","","",""
"64","","bandit","182","538758","0.0-144.0-0.0","64578212","wem/bandit_single","A03922113RU44GENR8ATX","pain","6","","74","J","1","","0","1","0","","0.3903902173","false","107","","0.4544285192","main_expt","","0.3903902173","","0.3492990444","","0.4574049266","","","","","",""
"76","","bandit","183","540596","0.0-145.0-0.0","64578212","wem/bandit_single","A03922113RU44GENR8ATX","pain","6","","74","J","1","","0","1","0","","0.424383047","false","108","","0.4489506099","main_expt","","0.424383047","","0.3657086014","","0.4342229458","","","","","",""
"81","","bandit","184","542437","0.0-146.0-0.0","64578212","wem/bandit_single","A03922113RU44GENR8ATX","pain","6","","74","J","1","","0","1","0","","0.3732822228","false","109","","0.4357570441","main_expt","","0.3732822228","","0.3473329542","","0.4437976733","","","","","",""
"79","","bandit","185","544277","0.0-147.0-0.0","64578212","wem/bandit_single","A03922113RU44GENR8ATX","pain","6","","74","J","1","","0","1","0","","0.3545846445","false","110","","0.4243789051","main_expt","","0.3545846445","","0.3937482981","","0.4131704669","","","","","",""
"103","","bandit","186","546151","0.0-148.0-0.0","64578212","wem/bandit_single","A03922113RU44GENR8ATX","pain","6","","74","J","1","","0","0","1","","0.2861948885","false","111","","0.4235572131","main_expt","","0.2861948885","","0.4067223002","","0.3849612216","","","","","",""
"157","","bandit","187","548070","0.0-149.0-0.0","64578212","wem/bandit_single","A03922113RU44GENR8ATX","pain","6","","76","L","3","","0","0","1","","0.4197473064","false","112","","0.4216330179","main_expt","","0.3148935151","","0.3791461054","","0.4197473064","","","","","",""
"254","","bandit","188","550087","0.0-150.0-0.0","64578212","wem/bandit_single","A03922113RU44GENR8ATX","pain","6","","74","J","1","","0","1","0","","0.310891148","false","113","","0.3981229654","main_expt","","0.310891148","","0.3697872407","","0.4477672952","","","","","",""
"92","","bandit","189","551941","0.0-151.0-0.0","64578212","wem/bandit_single","A03922113RU44GENR8ATX","pain","6","","74","J","1","","0","0","1","","0.3312817134","false","114","","0.4051483532","main_expt","","0.3312817134","","0.3542284497","","0.4347577032","","","","","",""
"160","","bandit","190","553861","0.0-152.0-0.0","64578212","wem/bandit_single","A03922113RU44GENR8ATX","pain","6","","74","J","1","","0","0","1","","0.3328181623","false","115","","0.3664587937","main_expt","","0.3328181623","","0.3424252445","","0.4123529648","","","","","",""
"319","","bandit","191","555940","0.0-153.0-0.0","64578212","wem/bandit_single","A03922113RU44GENR8ATX","pain","6","","75","K","2","","0","0","1","","0.3364913945","false","116","","0.3815824605","main_expt","","0.282168926","","0.3364913945","","0.4374051313","","","","","",""
"113","","bandit","192","557813","0.0-154.0-0.0","64578212","wem/bandit_single","A03922113RU44GENR8ATX","pain","6","","74","J","1","","0","1","0","","0.3282440564","false","117","","0.3718524962","main_expt","","0.3282440564","","0.3607093693","","0.4336999329","","","","","",""
"112","","bandit","193","559686","0.0-155.0-0.0","64578212","wem/bandit_single","A03922113RU44GENR8ATX","pain","6","","74","J","1","","0","0","1","","0.3735758205","false","118","","0.3228128462","main_expt","","0.3735758205","","0.3651530194","","0.4609057125","","","","","",""
"31","","bandit","194","561477","0.0-156.0-0.0","64578212","wem/bandit_single","A03922113RU44GENR8ATX","pain","6","","72","H","0","img/none_selected.jpg","0","0","1","","0.3303119184","false","119","","0.3303119184","main_expt","","0.4085136599","","0.391691743","","0.4644995027","","","","","",""
"79","","bandit","195","563319","0.0-157.0-0.0","64578212","wem/bandit_single","A03922113RU44GENR8ATX","pain","6","","74","J","1","","0","0","1","","0.4152109264","false","120","","0.3566896217","main_expt","","0.4152109264","","0.3892352466","","0.4699288035","","","","","",""
"269","","bandit","196","565351","0.0-158.0-0.0","64578212","wem/bandit_single","A03922113RU44GENR8ATX","pain","6","","74","J","1","","0","0","1","","0.4362055741","false","121","","0.3938610898","main_expt","","0.4362055741","","0.4119078466","","0.48416914","","","","","",""
"268","","bandit","197","567382","0.0-159.0-0.0","64578212","wem/bandit_single","A03922113RU44GENR8ATX","pain","6","","74","J","1","","0","0","1","","0.4381361327","false","122","","0.3846692282","main_expt","","0.4381361327","","0.3864510994","","0.4744752566","","","","","",""
"112","","bandit","198","569341","0.0-160.0-0.0","64578212","wem/bandit_single","A03922113RU44GENR8ATX","pain","6","","76","L","3","","0","0","1","","0.4770694964","false","123","","0.3479888462","main_expt","","0.4266523018","","0.3206095238","","0.4770694964","","","","","",""
"185","","bandit","199","571285","0.0-161.0-0.0","64578212","wem/bandit_single","A03922113RU44GENR8ATX","pain","6","","75","K","2","","0","1","0","","0.3004639257","false","124","","0.3446564944","main_expt","","0.3976500929","","0.3004639257","","0.4882663864","","","","","",""
"127","","bandit","200","573173","0.0-162.0-0.0","64578212","wem/bandit_single","A03922113RU44GENR8ATX","pain","6","","74","J","1","","0","1","0","","0.4004048686","false","125","","0.3742116014","main_expt","","0.4004048686","","0.2718713493","","0.4867438878","","","","","",""
"190","","bandit","201","575125","0.0-163.0-0.0","64578212","wem/bandit_single","A03922113RU44GENR8ATX","pain","6","","75","K","2","","0","1","0","","0.312825386","false","126","","0.3522130289","main_expt","","0.3978852423","","0.312825386","","0.4859509926","","","","","",""
"109","","bandit","202","576997","0.0-164.0-0.0","64578212","wem/bandit_single","A03922113RU44GENR8ATX","pain","6","","74","J","1","","0","0","1","","0.4164913371","false","127","","0.4136983804","main_expt","","0.4164913371","","0.2929193121","","0.4910312391","","","","","",""
"127","","bandit","203","578884","0.0-165.0-0.0","64578212","wem/bandit_single","A03922113RU44GENR8ATX","pain","6","","75","K","2","","0","0","1","","0.3483635392","false","128","","0.3740150402","main_expt","","0.4273270633","","0.3483635392","","0.4916106826","","","","","",""
"209","","bandit","204","580854","0.0-166.0-0.0","64578212","wem/bandit_single","A03922113RU44GENR8ATX","pain","6","","75","K","2","","0","0","1","","0.3180783589","false","129","","0.3561584853","main_expt","","0.4403517336","","0.3180783589","","0.4774596984","","","","","",""
"349","","bandit","205","582965","0.0-167.0-0.0","64578212","wem/bandit_single","A03922113RU44GENR8ATX","pain","6","","76","L","3","","0","1","0","","0.4792113904","false","130","","0.3781611856","main_expt","","0.436469863","","0.332672873","","0.4792113904","","","","","",""
"32","","bandit","206","584757","0.0-168.0-0.0","64578212","wem/bandit_single","A03922113RU44GENR8ATX","pain","6","","74","J","1","","0","0","1","","0.467157068","false","131","","0.3972118802","main_expt","","0.467157068","","0.3172252399","","0.4761250173","","","","","",""
"35","","bandit","207","586553","0.0-169.0-0.0","64578212","wem/bandit_single","A03922113RU44GENR8ATX","pain","6","","75","K","2","","0","0","1","","0.2808852702","false","132","","0.3951630556","main_expt","","0.4747764211","","0.2808852702","","0.4782449011","","","","","",""
"411","","bandit","208","588727","0.0-170.0-0.0","64578212","wem/bandit_single","A03922113RU44GENR8ATX","pain","6","","76","L","3","","0","0","1","","0.4789501527","false","133","","0.3918056992","main_expt","","0.4662147581","","0.2846237695","","0.4789501527","","","","","",""
"332","","bandit","209","590824","0.0-171.0-0.0","64578212","wem/bandit_single","A03922113RU44GENR8ATX","pain","6","","74","J","1","","0","1","0","","0.4711951182","false","134","","0.395342783","main_expt","","0.4711951182","","0.3115497245","","0.4821877595","","","","","",""
"364","","bandit","210","592950","0.0-172.0-0.0","64578212","wem/bandit_single","A03922113RU44GENR8ATX","pain","6","","75","K","2","","0","0","1","","0.3413582918","false","135","","0.3867762939","main_expt","","0.4540730246","","0.3413582918","","0.4863767518","","","","","",""
"41","","bandit","211","594756","0.0-173.0-0.0","64578212","wem/bandit_single","A03922113RU44GENR8ATX","pain","6","","74","J","1","","0","0","1","","0.4412688847","false","136","","0.3929594686","main_expt","","0.4412688847","","0.316763081","","0.4887786445","","","","","",""
"114","","bandit","212","596628","0.0-174.0-0.0","64578212","wem/bandit_single","A03922113RU44GENR8ATX","pain","6","","76","L","3","","0","1","0","","0.4896902137","false","137","","0.3067223256","main_expt","","0.4585130214","","0.2585559296","","0.4896902137","","","","","",""
"416","","bandit","213","598805","0.0-175.0-0.0","64578212","wem/bandit_single","A03922113RU44GENR8ATX","pain","6","","74","J","1","","0","1","0","","0.4413786145","false","138","","0.3444805877","main_expt","","0.4413786145","","0.2320291273","","0.4754525561","","","","","",""
"80","","bandit","214","600646","0.0-176.0-0.0","64578212","wem/bandit_single","A03922113RU44GENR8ATX","pain","6","","74","J","1","","0","0","1","","0.4235974169","false","139","","0.4025185773","main_expt","","0.4235974169","","0.2705305451","","0.4525902595","","","","","",""
"108","","bandit","215","602517","0.0-177.0-0.0","64578212","wem/bandit_single","A03922113RU44GENR8ATX","pain","6","","76","L","3","","0","1","0","","0.474141966","false","140","","0.4000290511","main_expt","","0.3993595144","","0.2115164241","","0.474141966","","","","","",""
"98","","bandit","216","604373","0.0-178.0-0.0","64578212","wem/bandit_single","A03922113RU44GENR8ATX","pain","6","","74","J","1","","0","0","1","","0.3845482665","false","141","","0.4052231698","main_expt","","0.3845482665","","0.2166269704","","0.4642583801","","","","","",""
"174","","bandit","217","606309","0.0-179.0-0.0","64578212","wem/bandit_single","A03922113RU44GENR8ATX","pain","6","","76","L","3","","0","0","1","","0.4713728632","false","142","","0.3881257509","main_expt","","0.3636407915","","0.2477117994","","0.4713728632","","","","","",""
"260","","bandit","218","608341","0.0-180.0-0.0","64578212","wem/bandit_single","A03922113RU44GENR8ATX","pain","6","","75","K","2","","0","0","1","","0.2347168821","false","143","","0.4101759482","main_expt","","0.3360879677","","0.2347168821","","0.4714731714","","","","","",""
"60","","bandit","219","610164","0.0-181.0-0.0","64578212","wem/bandit_single","A03922113RU44GENR8ATX","pain","6","","74","J","1","","0","0","1","","0.2886719504","false","144","","0.4100488723","main_expt","","0.2886719504","","0.190213181","","0.4777196865","","","","","",""
"43","","bandit","220","611973","0.0-182.0-0.0","64578212","wem/bandit_single","A03922113RU44GENR8ATX","pain","6","","76","L","3","","0","0","1","","0.467438704","false","145","","0.4294240464","main_expt","","0.2607344777","","0.2873677543","","0.467438704","","","","","",""
"255","","bandit","221","613990","0.0-183.0-0.0","64578212","wem/bandit_single","A03922113RU44GENR8ATX","pain","6","","72","H","0","img/none_selected.jpg","0","0","1","","0.4447984025","false","146","","0.4447984025","main_expt","","0.261523257","","0.3434581746","","0.4764572222","","","","","",""
"474","","bandit","222","616229","0.0-184.0-0.0","64578212","wem/bandit_single","A03922113RU44GENR8ATX","pain","6","","74","J","1","","0","0","1","","0.2768268543","false","147","","0.4339083406","main_expt","","0.2768268543","","0.3677167414","","0.4670163239","","","","","",""
"126","","bandit","223","618117","0.0-185.0-0.0","64578212","wem/bandit_single","A03922113RU44GENR8ATX","pain","6","","75","K","2","","0","0","1","","0.378672096","false","148","","0.4200875786","main_expt","","0.2822793125","","0.378672096","","0.4762727371","","","","","",""
"191","","bandit","224","620069","0.0-186.0-0.0","64578212","wem/bandit_single","A03922113RU44GENR8ATX","pain","6","","76","L","3","","0","1","0","","0.4763998188","false","149","","0.4370731276","main_expt","","0.3100291085","","0.3447579657","","0.4763998188","","","","","",""
"106","","bandit","225","621940","0.0-187.0-0.0","64578212","wem/bandit_single","A03922113RU44GENR8ATX","pain","6","","76","L","3","","0","0","1","","0.4534074178","false","150","","0.4606741766","main_expt","","0.3473977335","","0.3225325285","","0.4534074178","","","","","",""
"63","","bandit","226","623765","0.0-188.0-0.0","64578212","wem/bandit_single","A03922113RU44GENR8ATX","pain","6","","76","L","3","","0","0","1","","0.4518750411","false","151","","0.4831185644","main_expt","","0.3755194153","","0.2971371866","","0.4518750411","","","","","",""
"192","","bandit","227","625716","0.0-189.0-0.0","64578212","wem/bandit_single","A03922113RU44GENR8ATX","pain","6","","74","J","1","","0","0","1","","0.3931135366","false","152","","0.489350082","main_expt","","0.3931135366","","0.2436525959","","0.4724220712","","","","","",""
"180","","bandit","228","627663","0.0-190.0-0.0","64578212","wem/bandit_single","A03922113RU44GENR8ATX","pain","6","","74","J","1","","0","1","0","","0.3704791656","false","153","","0.4874668037","main_expt","","0.3704791656","","0.2745817176","","0.4655138208","","","","","",""
"116","","bandit","229","629541","0.0-191.0-0.0","64578212","wem/bandit_single","A03922113RU44GENR8ATX","pain","6","","74","J","1","","0","0","1","","0.3918087328","false","154","","0.4906252114","main_expt","","0.3918087328","","0.2354012901","","0.466892577","","","","","",""
"126","","bandit","230","631428","0.0-192.0-0.0","64578212","wem/bandit_single","A03922113RU44GENR8ATX","pain","6","","74","J","1","","0","1","0","","0.3629162862","false","155","","0.4807331657","main_expt","","0.3629162862","","0.2125693007","","0.4696525674","","","","","",""
"142","","bandit","231","633333","0.0-193.0-0.0","64578212","wem/bandit_single","A03922113RU44GENR8ATX","pain","6","","74","J","1","","0","0","1","","0.3329402669","false","156","","0.4886913858","main_expt","","0.3329402669","","0.2344806361","","0.4798639378","","","","","",""
"254","","bandit","232","635349","0.0-194.0-0.0","64578212","wem/bandit_single","A03922113RU44GENR8ATX","pain","6","","74","J","1","","0","0","1","","0.2681960896","false","157","","0.4791259403","main_expt","","0.2681960896","","0.1314384861","","0.4706110477","","","","","",""
"144","","bandit","233","637253","0.0-195.0-0.0","64578212","wem/bandit_single","A03922113RU44GENR8ATX","pain","6","","75","K","2","","0","0","1","","0.181857365","false","158","","0.4733263956","main_expt","","0.2540197996","","0.181857365","","0.4469873257","","","","","",""
"64","","bandit","234","639078","0.0-196.0-0.0","64578212","wem/bandit_single","A03922113RU44GENR8ATX","pain","6","","76","L","3","","0","0","1","","0.4239904196","false","159","","0.4815819336","main_expt","","0.2609952623","","0.158015958","","0.4239904196","","","","","",""
"60","","bandit","235","640902","0.0-197.0-0.0","64578212","wem/bandit_single","A03922113RU44GENR8ATX","pain","6","","74","J","1","","0","1","0","","0.2023108268","false","160","","0.4721468952","main_expt","","0.2023108268","","0.141078422","","0.4459131135","","","","","",""
"119","","bandit","236","642789","0.0-198.0-0.0","64578212","wem/bandit_single","A03922113RU44GENR8ATX","pain","6","","74","J","1","","0","0","1","","0.2500661268","false","161","","0.4711146003","main_expt","","0.2500661268","","0.1347361735","","0.4186734055","","","","","",""
"128","","bandit","237","644678","0.0-199.0-0.0","64578212","wem/bandit_single","A03922113RU44GENR8ATX","pain","6","","75","K","2","","0","0","1","","0.09535719087","false","162","","0.4712261849","main_expt","","0.2540596089","","0.09535719087","","0.3857154427","","","","","",""
"107","","bandit","238","646549","0.0-200.0-0.0","64578212","wem/bandit_single","A03922113RU44GENR8ATX","pain","6","","76","L","3","","0","1","0","","0.4174701589","false","163","","0.4845321786","main_expt","","0.2601053227","","0.08326456225","","0.4174701589","","","","","",""
"147","","bandit","239","648459","0.0-201.0-0.0","64578212","wem/bandit_single","A03922113RU44GENR8ATX","pain","6","","76","L","3","","0","0","1","","0.3890878976","false","164","","0.4759389929","main_expt","","0.2541421927","","0.09053498257","","0.3890878976","","","","","",""
"124","","bandit","240","650342","0.0-202.0-0.0","64578212","wem/bandit_single","A03922113RU44GENR8ATX","pain","6","","74","J","1","","0","0","1","","0.2481661974","false","165","","0.4720948066","main_expt","","0.2481661974","","0.08506048778","","0.4138915172","","","","","",""
"45","","bandit","241","652150","0.0-203.0-0.0","64578212","wem/bandit_single","A03922113RU44GENR8ATX","pain","6","","76","L","3","","0","1","0","","0.3965001983","false","166","","0.4785392204","main_expt","","0.2774316831","","0.1313511463","","0.3965001983","","","","","",""
"63","","bandit","242","653974","0.0-204.0-0.0","64578212","wem/bandit_single","A03922113RU44GENR8ATX","pain","6","","74","J","1","","0","0","1","","0.2487678046","false","167","","0.4807372421","main_expt","","0.2487678046","","0.1176964862","","0.3565429409","","","","","",""
"92","","bandit","243","655829","0.0-205.0-0.0","64578212","wem/bandit_single","A03922113RU44GENR8ATX","pain","6","","76","L","3","","0","1","0","","0.3697134737","false","168","","0.4679921472","main_expt","","0.3058486258","","0.08442850793","","0.3697134737","","","","","",""
"144","","bandit","244","657736","0.0-206.0-0.0","64578212","wem/bandit_single","A03922113RU44GENR8ATX","pain","6","","74","J","1","","0","0","1","","0.3196595105","false","169","","0.4504326489","main_expt","","0.3196595105","","0.08508452716","","0.3754926497","","","","","",""
"98","","bandit","245","659593","0.0-207.0-0.0","64578212","wem/bandit_single","A03922113RU44GENR8ATX","pain","6","","76","L","3","","0","0","1","","0.3688606114","false","170","","0.4575738232","main_expt","","0.2675331271","","0.06647736925","","0.3688606114","","","","","",""
"238","","bandit","246","661592","0.0-208.0-0.0","64578212","wem/bandit_single","A03922113RU44GENR8ATX","pain","6","","75","K","2","","0","0","1","","0.05048422731","false","171","","0.4515033555","main_expt","","0.2898788388","","0.05048422731","","0.3548436987","","","","","",""
"363","","bandit","247","663716","0.0-209.0-0.0","64578212","wem/bandit_single","A03922113RU44GENR8ATX","pain","6","","74","J","1","","0","0","1","","0.3066863737","false","172","","0.4804896953","main_expt","","0.3066863737","","0.05782489063","","0.3789739593","","","","","",""
"159","","bandit","248","665636","0.0-210.0-0.0","64578212","wem/bandit_single","A03922113RU44GENR8ATX","pain","6","","76","L","3","","0","0","1","","0.361488512","false","173","","0.4915792717","main_expt","","0.2694007619","","0.05297704283","","0.361488512","","","","","",""
"112","","bandit","249","667508","0.0-211.0-0.0","64578212","wem/bandit_single","A03922113RU44GENR8ATX","pain","6","","76","L","3","","0","0","1","","0.3460135238","false","174","","0.4861742571","main_expt","","0.2754062015","","0.05353397103","","0.3460135238","","","","","",""
"145","","bandit","250","669414","0.0-212.0-0.0","64578212","wem/bandit_single","A03922113RU44GENR8ATX","pain","6","","76","L","3","","0","0","1","","0.3522158256","false","175","","0.4817940596","main_expt","","0.296446081","","0.03778759003","","0.3522158256","","","","","",""
"222","","bandit","251","671398","0.0-213.0-0.0","64578212","wem/bandit_single","A03922113RU44GENR8ATX","pain","6","","74","J","1","","0","0","1","","0.3058710094","false","176","","0.4757066075","main_expt","","0.3058710094","","0.02527008277","","0.2998164985","","","","","",""
"348","","bandit","252","673510","0.0-214.0-0.0","64578212","wem/bandit_single","A03922113RU44GENR8ATX","pain","6","","74","J","1","","0","0","1","","0.2349503117","false","177","","0.4781570811","main_expt","","0.2349503117","","0.03305249037","","0.2523084086","","","","","",""
"459","","bandit","253","675733","0.0-215.0-0.0","64578212","wem/bandit_single","A03922113RU44GENR8ATX","pain","6","","75","K","2","","0","0","1","","0.03386287722","false","178","","0.4800614517","main_expt","","0.2619038699","","0.03386287722","","0.304071788","","","","","",""
"47","","bandit","254","677542","0.0-216.0-0.0","64578212","wem/bandit_single","A03922113RU44GENR8ATX","pain","6","","75","K","2","","0","0","1","","0.04065763291","false","179","","0.4829502963","main_expt","","0.2830684205","","0.04065763291","","0.2871062198","","","","","",""
"157","","bandit","255","679463","0.0-217.0-0.0","64578212","wem/bandit_single","A03922113RU44GENR8ATX","pain","6","","72","H","0","img/none_selected.jpg","0","1","0","","0.4858173281","false","180","","0.4858173281","main_expt","","0.3534450431","","0.05743716857","","0.2266659288","","","","","",""
"252","","bandit","256","681478","0.0-218.0-0.0","64578212","wem/bandit_single","A03922113RU44GENR8ATX","pain","6","","72","H","0","img/none_selected.jpg","0","0","1","","0.4744777914","false","181","","0.4744777914","main_expt","","0.3212605574","","0.04418568229","","0.221928096","","","","","",""
"191","","bandit","257","683428","0.0-219.0-0.0","64578212","wem/bandit_single","A03922113RU44GENR8ATX","pain","6","","72","H","0","img/none_selected.jpg","0","0","1","","0.4845259409","false","182","","0.4845259409","main_expt","","0.3315430587","","0.08176319179","","0.2300829386","","","","","",""
"1","","bandit","258","685190","0.0-220.0-0.0","64578212","wem/bandit_single","A03922113RU44GENR8ATX","pain","6","","72","H","0","img/none_selected.jpg","0","0","1","","0.481953826","false","183","","0.481953826","main_expt","","0.3284942609","","0.127405614","","0.236046558","","","","","",""
"141","","bandit","259","687109","0.0-221.0-0.0","64578212","wem/bandit_single","A03922113RU44GENR8ATX","pain","6","","74","J","1","","0","1","0","","0.3122619856","false","184","","0.4855041368","main_expt","","0.3122619856","","0.08615736955","","0.2923178249","","","","","",""
"253","","bandit","260","689126","0.0-222.0-0.0","64578212","wem/bandit_single","A03922113RU44GENR8ATX","pain","6","","74","J","1","","0","1","0","","0.2923416166","false","185","","0.4698046591","main_expt","","0.2923416166","","0.1184297318","","0.2808840613","","","","","",""
"171","","bandit","261","691061","0.0-223.0-0.0","64578212","wem/bandit_single","A03922113RU44GENR8ATX","pain","6","","74","J","1","","0","0","1","","0.2743414945","false","186","","0.4595088788","main_expt","","0.2743414945","","0.1909222977","","0.2016881086","","","","","",""
"128","","bandit","262","692949","0.0-224.0-0.0","64578212","wem/bandit_single","A03922113RU44GENR8ATX","pain","6","","75","K","2","","0","0","1","","0.156943311","false","187","","0.4646501277","main_expt","","0.3313242874","","0.156943311","","0.2403842116","","","","","",""
"170","","bandit","263","694884","0.0-225.0-0.0","64578212","wem/bandit_single","A03922113RU44GENR8ATX","pain","6","","76","L","3","","0","0","1","","0.2559443775","false","188","","0.4587354039","main_expt","","0.3665806697","","0.139104156","","0.2559443775","","","","","",""
"399","","bandit","264","697043","0.0-226.0-0.0","64578212","wem/bandit_single","A03922113RU44GENR8ATX","pain","6","","72","H","0","img/none_selected.jpg","0","1","0","","0.4433819168","false","189","","0.4433819168","main_expt","","0.3982105691","","0.1984961232","","0.2450962267","","","","","",""
"286","","bandit","265","699092","0.0-227.0-0.0","64578212","wem/bandit_single","A03922113RU44GENR8ATX","pain","6","","72","H","0","img/none_selected.jpg","0","1","0","","0.441597313","false","190","","0.441597313","main_expt","","0.4063069195","","0.3152507924","","0.2520413598","","","","","",""
"349","","bandit","266","701204","0.0-228.0-0.0","64578212","wem/bandit_single","A03922113RU44GENR8ATX","pain","6","","72","H","0","img/none_selected.jpg","0","0","1","","0.4447050695","false","191","","0.4447050695","main_expt","","0.4073058099","","0.34868685","","0.3069822625","","","","","",""
"352","","bandit","267","703324","0.0-229.0-0.0","64578212","wem/bandit_single","A03922113RU44GENR8ATX","pain","6","","72","H","0","img/none_selected.jpg","0","1","0","","0.3903647542","false","192","","0.3903647542","main_expt","","0.3597632315","","0.3244392246","","0.269658105","","","","","",""
"2024","","bandit","268","707108","0.0-230.0-0.0","64578212","wem/bandit_single","A03922113RU44GENR8ATX","pain","6","","72","H","0","img/none_selected.jpg","0","0","1","","0.37796371","false","193","","0.37796371","main_expt","","0.3512918873","","0.3077199203","","0.2337652902","","","","","",""
"913","","bandit","269","709789","0.0-231.0-0.0","64578212","wem/bandit_single","A03922113RU44GENR8ATX","pain","6","","74","J","1","","0","0","1","","0.2959519196","false","194","","0.4130200877","main_expt","","0.2959519196","","0.3089314305","","0.232364398","","","","","",""
"419","","bandit","270","711971","0.0-232.0-0.0","64578212","wem/bandit_single","A03922113RU44GENR8ATX","pain","6","","75","K","2","","0","0","1","","0.2747286701","false","195","","0.4247195967","main_expt","","0.335494982","","0.2747286701","","0.3001816851","","","","","",""
"321","","bandit","271","714052","0.0-233.0-0.0","64578212","wem/bandit_single","A03922113RU44GENR8ATX","pain","6","","76","L","3","","0","1","0","","0.3408234979","false","196","","0.4243543636","main_expt","","0.349715921","","0.234477082","","0.3408234979","","","","","",""
"1581","","bandit","272","717396","0.0-234.0-0.0","64578212","wem/bandit_single","A03922113RU44GENR8ATX","pain","6","","76","L","3","","0","1","0","","0.3048500693","false","197","","0.3856928417","main_expt","","0.301359959","","0.2134381397","","0.3048500693","","","","","",""
"125","","bandit","273","719287","0.0-235.0-0.0","64578212","wem/bandit_single","A03922113RU44GENR8ATX","pain","6","","75","K","2","","0","0","1","","0.1732682886","false","198","","0.3619593125","main_expt","","0.2948231879","","0.1732682886","","0.320222978","","","","","",""
"48","","bandit","274","721108","0.0-236.0-0.0","64578212","wem/bandit_single","A03922113RU44GENR8ATX","pain","6","","76","L","3","","0","0","1","","0.3267381451","false","199","","0.367752629","main_expt","","0.2739130918","","0.1702760897","","0.3267381451","","","","","",""
"606","","bandit","275","723476","0.0-237.0-0.0","64578212","wem/bandit_single","A03922113RU44GENR8ATX","pain","6","","72","H","0","img/none_selected.jpg","0","0","1","","0.3243939248","false","200","","0.3243939248","main_expt","","0.2519174554","","0.1149890083","","0.3471124056","","","","","",""
"316","","bandit","276","725558","0.0-238.0-0.0","64578212","wem/bandit_single","A03922113RU44GENR8ATX","pain","6","","74","J","1","","0","0","1","","0.2607800984","false","201","","0.309205964","main_expt","","0.2607800984","","0.1378425817","","0.377370495","","","","","",""
"510","","bandit","277","727828","0.0-239.0-0.0","64578212","wem/bandit_single","A03922113RU44GENR8ATX","pain","6","","75","K","2","","0","0","1","","0.1351165101","false","202","","0.2762714965","main_expt","","0.2144757733","","0.1351165101","","0.4118986778","","","","","",""
"381","","bandit","278","729973","0.0-240.0-0.0","64578212","wem/bandit_single","A03922113RU44GENR8ATX","pain","6","","76","L","3","","0","0","1","","0.4232074982","false","203","","0.296808735","main_expt","","0.3006883459","","0.105254576","","0.4232074982","","","","","",""
"1752","","bandit","279","733491","0.0-241.0-0.0","64578212","wem/bandit_single","A03922113RU44GENR8ATX","pain","6","","76","L","3","","0","1","0","","0.422672589","false","204","","0.3198559136","main_expt","","0.3059688055","","0.09939331469","","0.422672589","","","","","",""
"336","","bandit","280","735589","0.0-242.0-0.0","64578212","wem/bandit_single","A03922113RU44GENR8ATX","pain","6","","72","H","0","img/none_selected.jpg","0","0","1","","0.3814451683","false","205","","0.3814451683","main_expt","","0.2810212056","","0.1099723927","","0.4290364806","","","","","",""
"324","","bandit","281","737684","0.0-243.0-0.0","64578212","wem/bandit_single","A03922113RU44GENR8ATX","pain","6","","74","J","1","","0","0","1","","0.2427537705","false","206","","0.3836436308","main_expt","","0.2427537705","","0.1203356594","","0.4412489094","","","","","",""
"330","","bandit","282","739780","0.0-244.0-0.0","64578212","wem/bandit_single","A03922113RU44GENR8ATX","pain","6","","75","K","2","","0","0","1","","0.1887874267","false","207","","0.3943212714","main_expt","","0.2312113295","","0.1887874267","","0.461161346","","","","","",""
"733","","bandit","283","742276","0.0-245.0-0.0","64578212","wem/bandit_single","A03922113RU44GENR8ATX","pain","6","","76","L","3","","0","1","0","","0.4749000037","false","208","","0.4100076043","main_expt","","0.2502246517","","0.1570662604","","0.4749000037","","","","","",""
"218","","bandit","284","744263","0.0-246.0-0.0","64578212","wem/bandit_single","A03922113RU44GENR8ATX","pain","6","","72","H","0","img/none_selected.jpg","0","1","0","","0.4207901851","false","209","","0.4207901851","main_expt","","0.2378747501","","0.2050570797","","0.4677638209","","","","","",""
"739","","bandit","285","746773","0.0-247.0-0.0","64578212","wem/bandit_single","A03922113RU44GENR8ATX","pain","6","","72","H","0","img/none_selected.jpg","0","0","1","","0.4261573075","false","210","","0.4261573075","main_expt","","0.2323826376","","0.1803355731","","0.4507398287","","","","","",""
"221","","bandit","286","748756","0.0-248.0-0.0","64578212","wem/bandit_single","A03922113RU44GENR8ATX","pain","6","","76","L","3","","0","0","1","","0.4275102647","false","211","","0.3677002177","main_expt","","0.2346446126","","0.2066302241","","0.4275102647","","","","","",""
"266","","bandit","287","750805","0.0-249.0-0.0","64578212","wem/bandit_single","A03922113RU44GENR8ATX","pain","6","","74","J","1","","0","0","1","","0.2017096022","false","212","","0.4030871251","main_expt","","0.2017096022","","0.2190460355","","0.4147803006","","","","","",""
"1449","","bandit","288","754020","0.0-250.0-0.0","64578212","wem/bandit_single","A03922113RU44GENR8ATX","pain","6","","75","K","2","","0","0","1","","0.2433731683","false","213","","0.3616850983","main_expt","","0.2149770465","","0.2433731683","","0.4119553225","","","","","",""
"142","","bandit","289","755926","0.0-251.0-0.0","64578212","wem/bandit_single","A03922113RU44GENR8ATX","pain","6","","74","J","1","","0","0","1","","0.2323699387","false","214","","0.3380837625","main_expt","","0.2323699387","","0.2355486522","","0.4097086646","","","","","",""
"234","","bandit","290","757926","0.0-252.0-0.0","64578212","wem/bandit_single","A03922113RU44GENR8ATX","pain","6","","72","H","0","img/none_selected.jpg","0","0","1","","0.3788103814","false","215","","0.3788103814","main_expt","","0.1880023584","","0.2493822419","","0.4553079268","","","","","",""
"154","","bandit","291","759847","0.0-253.0-0.0","64578212","wem/bandit_single","A03922113RU44GENR8ATX","pain","6","","72","H","0","img/none_selected.jpg","0","0","1","","0.3844600678","false","216","","0.3844600678","main_expt","","0.2305078945","","0.2455091026","","0.4360341733","","","","","",""
"220","","bandit","292","761829","0.0-254.0-0.0","64578212","wem/bandit_single","A03922113RU44GENR8ATX","pain","6","","72","H","0","img/none_selected.jpg","0","0","1","","0.3747540642","false","217","","0.3747540642","main_expt","","0.2042922501","","0.193913996","","0.4337093526","","","","","",""
"342","","bandit","293","763940","0.0-255.0-0.0","64578212","wem/bandit_single","A03922113RU44GENR8ATX","pain","6","","76","L","3","","0","1","0","","0.4646024675","false","218","","0.373903774","main_expt","","0.1827914188","","0.2375794361","","0.4646024675","","","","","",""
"62","","bandit","294","765764","0.0-256.0-0.0","64578212","wem/bandit_single","A03922113RU44GENR8ATX","pain","6","","76","L","3","","0","1","0","","0.4630893692","false","219","","0.3735380413","main_expt","","0.2630445196","","0.2477723709","","0.4630893692","","","","","",""
"160","","bandit","295","767685","0.0-257.0-0.0","64578212","wem/bandit_single","A03922113RU44GENR8ATX","pain","6","","76","L","3","","0","0","1","","0.4683356487","false","220","","0.383917491","main_expt","","0.311946342","","0.2543503475","","0.4683356487","","","","","",""
"261","","bandit","296","769708","0.0-258.0-0.0","64578212","wem/bandit_single","A03922113RU44GENR8ATX","pain","6","","76","L","3","","0","1","0","","0.4682635517","false","221","","0.3479973737","main_expt","","0.2972788283","","0.2776519347","","0.4682635517","","","","","",""
"143","","bandit","297","771643","0.0-259.0-0.0","64578212","wem/bandit_single","A03922113RU44GENR8ATX","pain","6","","76","L","3","","0","0","1","","0.4771668828","false","222","","0.3845595158","main_expt","","0.3550400804","","0.2291835432","","0.4771668828","","","","","",""
"477","","bandit","298","773913","0.0-260.0-0.0","64578212","wem/bandit_single","A03922113RU44GENR8ATX","pain","6","","76","L","3","","0","1","0","","0.4773959318","false","223","","0.368723436","main_expt","","0.3246239653","","0.2266132179","","0.4773959318","","","","","",""
"10","","bandit","299","775684","0.0-261.0-0.0","64578212","wem/bandit_single","A03922113RU44GENR8ATX","pain","6","","76","L","3","","0","0","1","","0.4567335023","false","224","","0.3566991655","main_expt","","0.351266899","","0.2124948974","","0.4567335023","","","","","",""
"205","","bandit","300","777653","0.0-262.0-0.0","64578212","wem/bandit_single","A03922113RU44GENR8ATX","pain","6","","76","L","3","","0","1","0","","0.4545703871","false","225","","0.3557331736","main_expt","","0.3617362435","","0.2168010387","","0.4545703871","","","","","",""
"156","","bandit","301","779573","0.0-263.0-0.0","64578212","wem/bandit_single","A03922113RU44GENR8ATX","pain","6","","76","L","3","","0","0","1","","0.4563055184","false","226","","0.3620904828","main_expt","","0.3625162538","","0.2286352314","","0.4563055184","","","","","",""
"250","","bandit","302","781589","0.0-264.0-0.0","64578212","wem/bandit_single","A03922113RU44GENR8ATX","pain","6","","72","H","0","img/none_selected.jpg","0","1","0","","0.3794330306","false","227","","0.3794330306","main_expt","","0.3638477037","","0.2349833204","","0.4414344485","","","","","",""
"78","","bandit","303","783430","0.0-265.0-0.0","64578212","wem/bandit_single","A03922113RU44GENR8ATX","pain","6","","72","H","0","img/none_selected.jpg","0","1","0","","0.3480060926","false","228","","0.3480060926","main_expt","","0.321865515","","0.2376541641","","0.4509897562","","","","","",""
"155","","bandit","304","785352","0.0-266.0-0.0","64578212","wem/bandit_single","A03922113RU44GENR8ATX","pain","6","","76","L","3","","0","0","1","","0.4355264455","false","229","","0.3197951212","main_expt","","0.2574970425","","0.2141250471","","0.4355264455","","","","","",""
"149","","bandit","305","787274","0.0-267.0-0.0","64578212","wem/bandit_single","A03922113RU44GENR8ATX","pain","6","","72","H","0","img/none_selected.jpg","0","0","1","","0.2360623461","false","230","","0.2360623461","main_expt","","0.3167366343","","0.1986478114","","0.4393215817","","","","","",""
"184","","bandit","306","789220","0.0-268.0-0.0","64578212","wem/bandit_single","A03922113RU44GENR8ATX","pain","6","","72","H","0","img/none_selected.jpg","0","0","1","","0.228441671","false","231","","0.228441671","main_expt","","0.359889087","","0.1632677176","","0.426442838","","","","","",""
"219","","bandit","307","791204","0.0-269.0-0.0","64578212","wem/bandit_single","A03922113RU44GENR8ATX","pain","6","","76","L","3","","0","1","0","","0.4455015341","false","232","","0.2233622879","main_expt","","0.3765691143","","0.1437929512","","0.4455015341","","","","","",""
"76","","bandit","308","793044","0.0-270.0-0.0","64578212","wem/bandit_single","A03922113RU44GENR8ATX","pain","6","","76","L","3","","0","1","0","","0.4370113712","false","233","","0.1782647691","main_expt","","0.351320345","","0.2490618922","","0.4370113712","","","","","",""
"78","","bandit","309","794884","0.0-271.0-0.0","64578212","wem/bandit_single","A03922113RU44GENR8ATX","pain","6","","76","L","3","","0","0","1","","0.4228056097","false","234","","0.1971530904","main_expt","","0.2997083133","","0.2811602772","","0.4228056097","","","","","",""
"733","","bandit","310","797381","0.0-272.0-0.0","64578212","wem/bandit_single","A03922113RU44GENR8ATX","pain","6","","75","K","2","","0","0","1","","0.332316849","false","235","","0.2109348075","main_expt","","0.3526624454","","0.332316849","","0.4176536857","","","","","",""
"281","","bandit","311","799429","0.0-273.0-0.0","64578212","wem/bandit_single","A03922113RU44GENR8ATX","pain","6","","74","J","1","","0","0","1","","0.3050627859","false","236","","0.1891579582","main_expt","","0.3050627859","","0.3059905229","","0.419442654","","","","","",""
"220","","bandit","312","801428","0.0-274.0-0.0","64578212","wem/bandit_single","A03922113RU44GENR8ATX","pain","6","","75","K","2","","0","0","1","","0.3058344165","false","237","","0.1278978542","main_expt","","0.312969263","","0.3058344165","","0.4082659589","","","","","",""
"33","","bandit","313","803222","0.0-275.0-0.0","64578212","wem/bandit_single","A03922113RU44GENR8ATX","pain","6","","76","L","3","","0","1","0","","0.4108407801","false","238","","0.1509653188","main_expt","","0.380225341","","0.2931512536","","0.4108407801","","","","","",""
"2394","","bandit","314","807379","0.0-276.0-0.0","64578212","wem/bandit_single","A03922113RU44GENR8ATX","pain","6","","72","H","0","img/none_selected.jpg","0","0","1","","0.1919733462","false","239","","0.1919733462","main_expt","","0.3657076542","","0.2922133777","","0.4378360478","","","","","",""
"175","","bandit","315","809316","0.0-277.0-0.0","64578212","wem/bandit_single","A03922113RU44GENR8ATX","pain","6","","76","L","3","","0","1","0","","0.4467030129","false","240","","0.1751407906","main_expt","","0.3815359164","","0.3452033359","","0.4467030129","","","","","",""
"270","","bandit","316","811349","0.0-278.0-0.0","64578212","wem/bandit_single","A03922113RU44GENR8ATX","pain","6","","72","H","0","img/none_selected.jpg","0","0","1","","0.1759125222","false","241","","0.1759125222","main_expt","","0.3251101936","","0.3682897549","","0.4705393647","","","","","",""
"186","","bandit","317","813310","0.0-279.0-0.0","64578212","wem/bandit_single","A03922113RU44GENR8ATX","pain","6","","76","L","3","","0","0","1","","0.4610792938","false","242","","0.2137068054","main_expt","","0.3212185421","","0.3628947189","","0.4610792938","","","","","",""
"330","","bandit","318","815476","0.0-280.0-0.0","64578212","wem/bandit_single","A03922113RU44GENR8ATX","pain","6","","72","H","0","img/none_selected.jpg","0","0","1","","0.2179170348","false","243","","0.2179170348","main_expt","","0.3270030252","","0.3766569032","","0.4437729889","","","","","",""
"554","","bandit","319","817794","0.0-281.0-0.0","64578212","wem/bandit_single","A03922113RU44GENR8ATX","pain","6","","74","J","1","","0","0","1","","0.309973419","false","244","","0.2426329099","main_expt","","0.309973419","","0.377991886","","0.4199869792","","","","","",""
"318","","bandit","320","819875","0.0-282.0-0.0","64578212","wem/bandit_single","A03922113RU44GENR8ATX","pain","6","","75","K","2","","0","0","1","","0.304751896","false","245","","0.2351694379","main_expt","","0.3342881273","","0.304751896","","0.4183767379","","","","","",""
"238","","bandit","321","821874","0.0-283.0-0.0","64578212","wem/bandit_single","A03922113RU44GENR8ATX","pain","6","","76","L","3","","0","1","0","","0.4292136751","false","246","","0.2111663312","main_expt","","0.3149240913","","0.3348187262","","0.4292136751","","","","","",""
"251","","bandit","322","823894","0.0-284.0-0.0","64578212","wem/bandit_single","A03922113RU44GENR8ATX","pain","6","","76","L","3","","0","0","1","","0.4577956797","false","247","","0.1899020887","main_expt","","0.296458043","","0.3307987246","","0.4577956797","","","","","",""
"219","","bandit","323","825875","0.0-285.0-0.0","64578212","wem/bandit_single","A03922113RU44GENR8ATX","pain","6","","76","L","3","","0","1","0","","0.4586239927","false","248","","0.2151484255","main_expt","","0.3038576119","","0.3774544282","","0.4586239927","","","","","",""
"108","","bandit","324","827747","0.0-286.0-0.0","64578212","wem/bandit_single","A03922113RU44GENR8ATX","pain","6","","76","L","3","","0","0","1","","0.4709187109","false","249","","0.2454548658","main_expt","","0.3383832125","","0.3553688181","","0.4709187109","","","","","",""
"365","","bandit","325","829955","0.0-287.0-0.0","64578212","wem/bandit_single","A03922113RU44GENR8ATX","pain","6","","72","H","0","img/none_selected.jpg","0","0","1","","0.1973527755","false","250","","0.1973527755","main_expt","","0.3505221498","","0.3209961504","","0.4742496359","","","","","",""
"84","","bandit","326","831803","0.0-288.0-0.0","64578212","wem/bandit_single","A03922113RU44GENR8ATX","pain","6","","74","J","1","","0","0","1","","0.3439557404","false","251","","0.2459600056","main_expt","","0.3439557404","","0.2938420796","","0.4684276702","","","","","",""
"86","","bandit","327","833651","0.0-289.0-0.0","64578212","wem/bandit_single","A03922113RU44GENR8ATX","pain","6","","75","K","2","","0","0","1","","0.2377141092","false","252","","0.2361341643","main_expt","","0.3394881367","","0.2377141092","","0.465775704","","","","","",""
"142","","bandit","328","835555","0.0-290.0-0.0","64578212","wem/bandit_single","A03922113RU44GENR8ATX","pain","6","","76","L","3","","0","0","1","","0.4739398589","false","253","","0.2263014677","main_expt","","0.3195186677","","0.28098189","","0.4739398589","","","","","",""
"174","","bandit","329","837491","0.0-291.0-0.0","64578212","wem/bandit_single","A03922113RU44GENR8ATX","pain","6","","72","H","0","img/none_selected.jpg","0","0","1","","0.2384195691","false","254","","0.2384195691","main_expt","","0.3607388593","","0.36168886","","0.4709597483","","","","","",""
"66","","bandit","330","839324","0.0-292.0-0.0","64578212","wem/bandit_single","A03922113RU44GENR8ATX","pain","6","","76","L","3","","0","0","1","","0.468651231","false","255","","0.2186709452","main_expt","","0.3801942793","","0.3196270919","","0.468651231","","","","","",""
"268","","bandit","331","841362","0.0-293.0-0.0","64578212","wem/bandit_single","A03922113RU44GENR8ATX","pain","6","","72","H","0","img/none_selected.jpg","0","0","1","","0.1625458568","false","256","","0.1625458568","main_expt","","0.2987962353","","0.3201998045","","0.4837462493","","","","","",""
"257","","bandit","332","843397","0.0-294.0-0.0","64578212","wem/bandit_single","A03922113RU44GENR8ATX","pain","6","","76","L","3","","0","1","0","","0.4842399178","false","257","","0.159361747","main_expt","","0.272571782","","0.3576002339","","0.4842399178","","","","","",""
"437","","bandit","333","845605","0.0-295.0-0.0","64578212","wem/bandit_single","A03922113RU44GENR8ATX","pain","6","","76","L","3","","0","1","0","","0.4878873921","false","258","","0.1556255119","main_expt","","0.2593204486","","0.3715220428","","0.4878873921","","","","","",""
"42","","bandit","334","847411","0.0-296.0-0.0","64578212","wem/bandit_single","A03922113RU44GENR8ATX","pain","6","","76","L","3","","0","0","1","","0.4869160663","false","259","","0.1256368346","main_expt","","0.2951424317","","0.3730860303","","0.4869160663","","","","","",""
"78","","bandit","335","849251","0.0-297.0-0.0","64578212","wem/bandit_single","A03922113RU44GENR8ATX","pain","6","","76","L","3","","0","0","1","","0.4912834456","false","260","","0.1449854444","main_expt","","0.2369093976","","0.3724964978","","0.4912834456","","","","","",""
"238","","bandit","336","851250","0.0-298.0-0.0","64578212","wem/bandit_single","A03922113RU44GENR8ATX","pain","6","","72","H","0","img/none_selected.jpg","0","0","1","","0.1647157085","false","261","","0.1647157085","main_expt","","0.2234433316","","0.3574286068","","0.4907072989","","","","","",""
"70","","bandit","337","853080","0.0-299.0-0.0","64578212","wem/bandit_single","A03922113RU44GENR8ATX","pain","6","","74","J","1","","0","0","1","","0.215626833","false","262","","0.1586541082","main_expt","","0.215626833","","0.4204463107","","0.4904114062","","","","","",""
"257","","bandit","338","855108","0.0-300.0-0.0","64578212","wem/bandit_single","A03922113RU44GENR8ATX","pain","6","","75","K","2","","0","1","0","","0.4244263348","false","263","","0.1683870388","main_expt","","0.2227197798","","0.4244263348","","0.4900075499","","","","","",""
"339","","bandit","339","857229","0.0-301.0-0.0","64578212","wem/bandit_single","A03922113RU44GENR8ATX","pain","6","","76","L","3","","0","1","0","","0.4922230388","false","264","","0.2205087037","main_expt","","0.2113558788","","0.4217668892","","0.4922230388","","","","","",""
"142","","bandit","340","859171","0.0-302.0-0.0","64578212","wem/bandit_single","A03922113RU44GENR8ATX","pain","6","","75","K","2","","0","1","0","","0.3908218086","false","265","","0.1554736059","main_expt","","0.1814287308","","0.3908218086","","0.4892111554","","","","","",""
"141","","bandit","341","861075","0.0-303.0-0.0","64578212","wem/bandit_single","A03922113RU44GENR8ATX","pain","6","","76","L","3","","0","1","0","","0.4894097466","false","266","","0.1556775797","main_expt","","0.2579261203","","0.350583855","","0.4894097466","","","","","",""
"40","","bandit","342","862884","0.0-304.0-0.0","64578212","wem/bandit_single","A03922113RU44GENR8ATX","pain","6","","75","K","2","","0","1","0","","0.2971845499","false","267","","0.1732223335","main_expt","","0.3033521226","","0.2971845499","","0.4898547377","","","","","",""
"185","","bandit","343","864835","0.0-305.0-0.0","64578212","wem/bandit_single","A03922113RU44GENR8ATX","pain","6","","76","L","3","","0","1","0","","0.4960714099","false","268","","0.1670192172","main_expt","","0.2697057224","","0.3271935382","","0.4960714099","","","","","",""
"107","","bandit","344","866706","0.0-306.0-0.0","64578212","wem/bandit_single","A03922113RU44GENR8ATX","pain","6","","75","K","2","","0","1","0","","0.2912245063","false","269","","0.1666577124","main_expt","","0.3075876552","","0.2912245063","","0.4951393121","","","","","",""
"80","","bandit","345","868547","0.0-307.0-0.0","64578212","wem/bandit_single","A03922113RU44GENR8ATX","pain","6","","76","L","3","","0","0","1","","0.4903783272","false","270","","0.1133531577","main_expt","","0.3437361696","","0.3007980493","","0.4903783272","","","","","",""
"60","","bandit","346","870371","0.0-308.0-0.0","64578212","wem/bandit_single","A03922113RU44GENR8ATX","pain","6","","75","K","2","","0","0","1","","0.3025875308","false","271","","0.1453503833","main_expt","","0.2596534978","","0.3025875308","","0.4932948231","","","","","",""
"156","","bandit","347","872291","0.0-309.0-0.0","64578212","wem/bandit_single","A03922113RU44GENR8ATX","pain","6","","76","L","3","","0","1","0","","0.4950636705","false","272","","0.1542373291","main_expt","","0.2680739133","","0.2608882705","","0.4950636705","","","","","",""
"43","","bandit","348","874098","0.0-310.0-0.0","64578212","wem/bandit_single","A03922113RU44GENR8ATX","pain","6","","75","K","2","","0","0","1","","0.2985246063","false","273","","0.1312836042","main_expt","","0.2287209558","","0.2985246063","","0.4866982898","","","","","",""
"91","","bandit","349","875956","0.0-311.0-0.0","64578212","wem/bandit_single","A03922113RU44GENR8ATX","pain","6","","76","L","3","","0","1","0","","0.4654226264","false","274","","0.1616535947","main_expt","","0.2659047846","","0.296104213","","0.4654226264","","","","","",""
"77","","bandit","350","877799","0.0-312.0-0.0","64578212","wem/bandit_single","A03922113RU44GENR8ATX","pain","6","","76","L","3","","0","0","1","","0.4633702838","false","275","","0.163822666","main_expt","","0.2303642271","","0.2897414639","","0.4633702838","","","","","",""
"163","","bandit","351","879735","0.0-313.0-0.0","64578212","wem/bandit_single","A03922113RU44GENR8ATX","pain","6","","75","K","2","","0","0","1","","0.296822441","false","276","","0.1500588852","main_expt","","0.2631654739","","0.296822441","","0.4741710053","","","","","",""
"105","","bandit","352","881603","0.0-314.0-0.0","64578212","wem/bandit_single","A03922113RU44GENR8ATX","pain","6","","76","L","3","","0","0","1","","0.4821206929","false","277","","0.1975700973","main_expt","","0.2660527836","","0.2769528726","","0.4821206929","","","","","",""
"142","","bandit","353","883509","0.0-315.0-0.0","64578212","wem/bandit_single","A03922113RU44GENR8ATX","pain","6","","76","L","3","","0","0","1","","0.4704549119","false","278","","0.1355298524","main_expt","","0.2869547209","","0.3356585436","","0.4704549119","","","","","",""
"143","","bandit","354","885446","0.0-316.0-0.0","64578212","wem/bandit_single","A03922113RU44GENR8ATX","pain","6","","72","H","0","img/none_selected.jpg","0","0","1","","0.1437345226","false","279","","0.1437345226","main_expt","","0.3594721793","","0.3222384225","","0.4749598821","","","","","",""
"133","","bandit","355","887347","0.0-317.0-0.0","64578212","wem/bandit_single","A03922113RU44GENR8ATX","pain","6","","74","J","1","","0","0","1","","0.3903699723","false","280","","0.126787642","main_expt","","0.3903699723","","0.27346357","","0.4385317488","","","","","",""
"126","","bandit","356","889235","0.0-318.0-0.0","64578212","wem/bandit_single","A03922113RU44GENR8ATX","pain","6","","75","K","2","","0","1","0","","0.3633072925","false","281","","0.1765789866","main_expt","","0.4583904318","","0.3633072925","","0.4397970497","","","","","",""
"158","","bandit","357","891156","0.0-319.0-0.0","64578212","wem/bandit_single","A03922113RU44GENR8ATX","pain","6","","76","L","3","","0","0","1","","0.4485424667","false","282","","0.1659157347","main_expt","","0.4689346609","","0.3269934488","","0.4485424667","","","","","",""
"93","","bandit","358","893011","0.0-320.0-0.0","64578212","wem/bandit_single","A03922113RU44GENR8ATX","pain","6","","75","K","2","","0","0","1","","0.324321327","false","283","","0.1876778028","main_expt","","0.460541741","","0.324321327","","0.4460930912","","","","","",""
"190","","bandit","359","894962","0.0-321.0-0.0","64578212","wem/bandit_single","A03922113RU44GENR8ATX","pain","6","","75","K","2","","0","1","0","","0.2677217275","false","284","","0.2072959333","main_expt","","0.4485703909","","0.2677217275","","0.46041158","","","","","",""
"132","","bandit","360","896856","0.0-322.0-0.0","64578212","wem/bandit_single","A03922113RU44GENR8ATX","pain","6","","75","K","2","","0","0","1","","0.2832280908","false","285","","0.2171876524","main_expt","","0.4493749552","","0.2832280908","","0.4722631388","","","","","",""
"248","","bandit","361","898894","0.0-323.0-0.0","64578212","wem/bandit_single","A03922113RU44GENR8ATX","pain","6","","75","K","2","","0","0","1","","0.3338799161","false","286","","0.224404947","main_expt","","0.4223312446","","0.3338799161","","0.4710864859","","","","","",""
"173","","bandit","362","900890","0.0-324.0-0.0","64578212","wem/bandit_single","A03922113RU44GENR8ATX","pain","6","","76","L","3","","0","1","0","","0.4400158941","false","287","","0.2249093708","main_expt","","0.457140216","","0.3484096991","","0.4400158941","","","","","",""
"100","","bandit","363","902757","0.0-325.0-0.0","64578212","wem/bandit_single","A03922113RU44GENR8ATX","pain","6","","76","L","3","","0","0","1","","0.4036546776","false","288","","0.2219747159","main_expt","","0.4411377771","","0.3215301514","","0.4036546776","","","","","",""
"283","","bandit","364","904803","0.0-326.0-0.0","64578212","wem/bandit_single","A03922113RU44GENR8ATX","pain","6","","74","J","1","","0","0","1","","0.4501271696","false","289","","0.2183007497","main_expt","","0.4501271696","","0.2965974011","","0.4324218596","","","","","",""
"44","","bandit","365","906612","0.0-327.0-0.0","64578212","wem/bandit_single","A03922113RU44GENR8ATX","pain","6","","75","K","2","","0","0","1","","0.2926361454","false","290","","0.2481136515","main_expt","","0.4436507911","","0.2926361454","","0.4536473803","","","","","",""
"56","","bandit","366","908435","0.0-328.0-0.0","64578212","wem/bandit_single","A03922113RU44GENR8ATX","pain","6","","76","L","3","","0","1","0","","0.4634661847","false","291","","0.2972088317","main_expt","","0.4381939672","","0.243163711","","0.4634661847","","","","","",""
