"rt","responses","trial_type","trial_index","time_elapsed","internal_node_id","subjID","study","MID","cond","drift","key_press","respCharCode","respKey","respChoiceNum","respChoice","gems","bombs","no_reward","GemPrChosen","BombPrChosen","practice","trial_counter","WinPr_0","LosePr_0","trial_label","WinPr_1","LosePr_1","WinPr_2","LosePr_2","WinPr_3","LosePr_3","Q0","Q1","Q2","gender","age","ethnicity"
"15322","{""Q0"":""AR1IWBDA7MC86""}","survey-text","0","15327","0.0-0.0","65652892","wem/bandit_single","AR1IWBDA7MC86","pain","7","","","","","","","","","","","","","","","","","","","","","","","","","","",""
"2236","","text","1","18566","0.0-1.0","65652892","wem/bandit_single","AR1IWBDA7MC86","pain","7","32","","","","","","","","","","","","","","","","","","","","","","","","","",""
"5854","","text","2","24421","0.0-2.0","65652892","wem/bandit_single","AR1IWBDA7MC86","pain","7","32","","","","","","","","","","","","","","","","","","","","","","","","","",""
"94475","","text","3","118897","0.0-3.0","65652892","wem/bandit_single","AR1IWBDA7MC86","pain","7","32","","","","","","","","","","","","","","","","","","","","","","","","","",""
"17189","","text","4","136088","0.0-4.0","65652892","wem/bandit_single","AR1IWBDA7MC86","pain","7","32","","","","","","","","","","","","","","","","","","","","","","","","","",""
"13293","","text","5","149381","0.0-5.0","65652892","wem/bandit_single","AR1IWBDA7MC86","pain","7","32","","","","","","","","","","","","","","","","","","","","","","","","","",""
"6398","","text","6","155781","0.0-6.0","65652892","wem/bandit_single","AR1IWBDA7MC86","pain","7","32","","","","","","","","","","","","","","","","","","","","","","","","","",""
"3557","","text","7","159338","0.0-7.0","65652892","wem/bandit_single","AR1IWBDA7MC86","pain","7","32","","","","","","","","","","","","","","","","","","","","","","","","","",""
"3445","","text","8","162785","0.0-8.0","65652892","wem/bandit_single","AR1IWBDA7MC86","pain","7","32","","","","","","","","","","","","","","","","","","","","","","","","","",""
"2597","","text","9","165382","0.0-9.0","65652892","wem/bandit_single","AR1IWBDA7MC86","pain","7","32","","","","","","","","","","","","","","","","","","","","","","","","","",""
"3385","","text","10","168768","0.0-10.0","65652892","wem/bandit_single","AR1IWBDA7MC86","pain","7","32","","","","","","","","","","","","","","","","","","","","","","","","","",""
"7621","","text","11","176390","0.0-11.0","65652892","wem/bandit_single","AR1IWBDA7MC86","pain","7","32","","","","","","","","","","","","","","","","","","","","","","","","","",""
"1868","","bandit","12","179762","0.0-12.0-0.0","65652892","wem/bandit_single","AR1IWBDA7MC86","pain","7","","74","J","0","img/none_selected_demo.jpg","0","0","1","0","0","true","0","0","0","","","","","","","","","","","","",""
"164","","bandit","13","181682","0.0-13.0-0.0","65652892","wem/bandit_single","AR1IWBDA7MC86","pain","7","","75","K","0","img/none_selected_demo.jpg","0","0","1","0","0","true","0","0","0","","","","","","","","","","","","",""
"2651","","text","14","184585","0.0-14.0","65652892","wem/bandit_single","AR1IWBDA7MC86","pain","7","32","","","","","","","","","","","","","","","","","","","","","","","","","",""
"1715","","text","15","186300","0.0-15.0","65652892","wem/bandit_single","AR1IWBDA7MC86","pain","7","32","","","","","","","","","","","","","","","","","","","","","","","","","",""
"2447","","text","16","188748","0.0-16.0","65652892","wem/bandit_single","AR1IWBDA7MC86","pain","7","32","","","","","","","","","","","","","","","","","","","","","","","","","",""
"4289","","text","17","193038","0.0-17.0","65652892","wem/bandit_single","AR1IWBDA7MC86","pain","7","32","","","","","","","","","","","","","","","","","","","","","","","","","",""
"864","","bandit","18","195406","0.0-18.0-0.0","65652892","wem/bandit_single","AR1IWBDA7MC86","pain","7","","74","J","0","img/none_selected_demo.jpg","0","1","0","0","0.8","true","0","0","0.8","80_20_practice","0","0.2","","","","","","","","","",""
"1002","","bandit","19","198165","0.0-18.0-1.0","65652892","wem/bandit_single","AR1IWBDA7MC86","pain","7","","74","J","0","img/none_selected_demo.jpg","0","1","0","0","0.8","true","0","0","0.8","80_20_practice","0","0.2","","","","","","","","","",""
"8","","bandit","20","199928","0.0-18.0-2.0","65652892","wem/bandit_single","AR1IWBDA7MC86","pain","7","","74","J","0","img/none_selected_demo.jpg","0","1","0","0","0.8","true","0","0","0.8","80_20_practice","0","0.2","","","","","","","","","",""
"526","","bandit","21","202207","0.0-18.0-3.0","65652892","wem/bandit_single","AR1IWBDA7MC86","pain","7","","74","J","0","img/none_selected_demo.jpg","0","1","0","0","0.8","true","0","0","0.8","80_20_practice","0","0.2","","","","","","","","","",""
"178","","bandit","22","204140","0.0-18.0-4.0","65652892","wem/bandit_single","AR1IWBDA7MC86","pain","7","","74","J","0","img/none_selected_demo.jpg","0","1","0","0","0.8","true","0","0","0.8","80_20_practice","0","0.2","","","","","","","","","",""
"393","","bandit","23","206287","0.0-18.0-5.0","65652892","wem/bandit_single","AR1IWBDA7MC86","pain","7","","74","J","0","img/none_selected_demo.jpg","0","1","0","0","0.8","true","0","0","0.8","80_20_practice","0","0.2","","","","","","","","","",""
"31","","bandit","24","208072","0.0-18.0-6.0","65652892","wem/bandit_single","AR1IWBDA7MC86","pain","7","","74","J","0","img/none_selected_demo.jpg","0","0","1","0","0.8","true","0","0","0.8","80_20_practice","0","0.2","","","","","","","","","",""
"150","","bandit","25","209978","0.0-18.0-7.0","65652892","wem/bandit_single","AR1IWBDA7MC86","pain","7","","74","J","0","img/none_selected_demo.jpg","0","1","0","0","0.8","true","0","0","0.8","80_20_practice","0","0.2","","","","","","","","","",""
"2372","","bandit","26","214104","0.0-18.0-8.0","65652892","wem/bandit_single","AR1IWBDA7MC86","pain","7","","74","J","0","img/none_selected_demo.jpg","0","1","0","0","0.8","true","0","0","0.8","80_20_practice","0","0.2","","","","","","","","","",""
"1286","","bandit","27","217143","0.0-18.0-9.0","65652892","wem/bandit_single","AR1IWBDA7MC86","pain","7","","74","J","0","img/none_selected_demo.jpg","0","1","0","0","0.8","true","0","0","0.8","80_20_practice","0","0.2","","","","","","","","","",""
"2418","","bandit","28","221316","0.0-18.0-10.0","65652892","wem/bandit_single","AR1IWBDA7MC86","pain","7","","74","J","0","img/none_selected_demo.jpg","0","1","0","0","0.8","true","0","0","0.8","80_20_practice","0","0.2","","","","","","","","","",""
"138","","bandit","29","223209","0.0-18.0-11.0","65652892","wem/bandit_single","AR1IWBDA7MC86","pain","7","","74","J","0","img/none_selected_demo.jpg","0","0","1","0","0.8","true","0","0","0.8","80_20_practice","0","0.2","","","","","","","","","",""
"1621","","bandit","30","226586","0.0-18.0-12.0","65652892","wem/bandit_single","AR1IWBDA7MC86","pain","7","","74","J","0","img/none_selected_demo.jpg","0","1","0","0","0.8","true","0","0","0.8","80_20_practice","0","0.2","","","","","","","","","",""
"1340","","bandit","31","229682","0.0-18.0-13.0","65652892","wem/bandit_single","AR1IWBDA7MC86","pain","7","","74","J","0","img/none_selected_demo.jpg","0","0","1","0","0.8","true","0","0","0.8","80_20_practice","0","0.2","","","","","","","","","",""
"5","","bandit","32","231442","0.0-18.0-14.0","65652892","wem/bandit_single","AR1IWBDA7MC86","pain","7","","74","J","0","img/none_selected_demo.jpg","0","0","1","0","0.8","true","0","0","0.8","80_20_practice","0","0.2","","","","","","","","","",""
"1395","","bandit","33","234593","0.0-18.0-15.0","65652892","wem/bandit_single","AR1IWBDA7MC86","pain","7","","75","K","1","","0","1","0","0","0.2","true","0","0","0.8","80_20_practice","0","0.2","","","","","","","","","",""
"1611","","bandit","34","237958","0.0-18.0-16.0","65652892","wem/bandit_single","AR1IWBDA7MC86","pain","7","","75","K","1","","0","0","1","0","0.2","true","0","0","0.8","80_20_practice","0","0.2","","","","","","","","","",""
"1023","","bandit","35","240735","0.0-18.0-17.0","65652892","wem/bandit_single","AR1IWBDA7MC86","pain","7","","75","K","1","","0","0","1","0","0.2","true","0","0","0.8","80_20_practice","0","0.2","","","","","","","","","",""
"136","","bandit","36","242625","0.0-18.0-18.0","65652892","wem/bandit_single","AR1IWBDA7MC86","pain","7","","74","J","0","img/none_selected_demo.jpg","0","1","0","0","0.8","true","0","0","0.8","80_20_practice","0","0.2","","","","","","","","","",""
"173","","bandit","37","244553","0.0-18.0-19.0","65652892","wem/bandit_single","AR1IWBDA7MC86","pain","7","","74","J","0","img/none_selected_demo.jpg","0","1","0","0","0.8","true","0","0","0.8","80_20_practice","0","0.2","","","","","","","","","",""
"4711","","text","38","249516","0.0-19.0","65652892","wem/bandit_single","AR1IWBDA7MC86","pain","7","32","","","","","","","","","","","","","","","","","","","","","","","","","",""
"757","","bandit","39","251778","0.0-20.0-0.0","65652892","wem/bandit_single","AR1IWBDA7MC86","pain","7","","74","J","0","img/none_selected_demo.jpg","0","0","1","0","0","true","0","0","0","","0","0","","","","","","","","","",""
"4043","","text","40","256076","0.0-21.0","65652892","wem/bandit_single","AR1IWBDA7MC86","pain","7","32","","","","","","","","","","","","","","","","","","","","","","","","","",""
"2624","","text","41","258701","0.0-22.0","65652892","wem/bandit_single","AR1IWBDA7MC86","pain","7","32","","","","","","","","","","","","","","","","","","","","","","","","","",""
"3265","","text","42","261968","0.0-23.0","65652892","wem/bandit_single","AR1IWBDA7MC86","pain","7","32","","","","","","","","","","","","","","","","","","","","","","","","","",""
"2564","","text","43","264533","0.0-24.0","65652892","wem/bandit_single","AR1IWBDA7MC86","pain","7","32","","","","","","","","","","","","","","","","","","","","","","","","","",""
"8824","","text","44","273358","0.0-25.0","65652892","wem/bandit_single","AR1IWBDA7MC86","pain","7","32","","","","","","","","","","","","","","","","","","","","","","","","","",""
"2256","","text","45","275615","0.0-26.0","65652892","wem/bandit_single","AR1IWBDA7MC86","pain","7","32","","","","","","","","","","","","","","","","","","","","","","","","","",""
"6963","","text","46","282579","0.0-27.0","65652892","wem/bandit_single","AR1IWBDA7MC86","pain","7","32","","","","","","","","","","","","","","","","","","","","","","","","","",""
"3344","","text","47","285924","0.0-28.0","65652892","wem/bandit_single","AR1IWBDA7MC86","pain","7","32","","","","","","","","","","","","","","","","","","","","","","","","","",""
"7128","","text","48","293053","0.0-29.0","65652892","wem/bandit_single","AR1IWBDA7MC86","pain","7","32","","","","","","","","","","","","","","","","","","","","","","","","","",""
"1191","","text","49","294245","0.0-30.0","65652892","wem/bandit_single","AR1IWBDA7MC86","pain","7","32","","","","","","","","","","","","","","","","","","","","","","","","","",""
"1433","","text","50","295679","0.0-31.0","65652892","wem/bandit_single","AR1IWBDA7MC86","pain","7","32","","","","","","","","","","","","","","","","","","","","","","","","","",""
"597","","bandit","51","297780","0.0-32.0-0.0","65652892","wem/bandit_single","AR1IWBDA7MC86","pain","7","","72","H","0","img/none_selected.jpg","0","1","0","0","0.8","true","0","0","0.8","full_practice","0","0.2","0","0.6","0","0.2","","","","","",""
"851","","bandit","52","300386","0.0-32.0-1.0","65652892","wem/bandit_single","AR1IWBDA7MC86","pain","7","","72","H","0","img/none_selected.jpg","0","1","0","0","0.8","true","0","0","0.8","full_practice","0","0.2","0","0.6","0","0.2","","","","","",""
"1332","","bandit","53","303473","0.0-32.0-2.0","65652892","wem/bandit_single","AR1IWBDA7MC86","pain","7","","72","H","0","img/none_selected.jpg","0","0","1","0","0.8","true","0","0","0.8","full_practice","0","0.2","0","0.6","0","0.2","","","","","",""
"277","","bandit","54","305504","0.0-32.0-3.0","65652892","wem/bandit_single","AR1IWBDA7MC86","pain","7","","72","H","0","img/none_selected.jpg","0","1","0","0","0.8","true","0","0","0.8","full_practice","0","0.2","0","0.6","0","0.2","","","","","",""
"1204","","bandit","55","308463","0.0-32.0-4.0","65652892","wem/bandit_single","AR1IWBDA7MC86","pain","7","","72","H","0","img/none_selected.jpg","0","1","0","0","0.8","true","0","0","0.8","full_practice","0","0.2","0","0.6","0","0.2","","","","","",""
"61","","bandit","56","310278","0.0-32.0-5.0","65652892","wem/bandit_single","AR1IWBDA7MC86","pain","7","","72","H","0","img/none_selected.jpg","0","0","1","0","0.8","true","0","0","0.8","full_practice","0","0.2","0","0.6","0","0.2","","","","","",""
"1232","","bandit","57","313265","0.0-32.0-6.0","65652892","wem/bandit_single","AR1IWBDA7MC86","pain","7","","72","H","0","img/none_selected.jpg","0","0","1","0","0.8","true","0","0","0.8","full_practice","0","0.2","0","0.6","0","0.2","","","","","",""
"1","","bandit","58","315020","0.0-32.0-7.0","65652892","wem/bandit_single","AR1IWBDA7MC86","pain","7","","76","L","3","","0","0","1","0","0.2","true","0","0","0.8","full_practice","0","0.2","0","0.6","0","0.2","","","","","",""
"1701","","bandit","59","318476","0.0-32.0-8.0","65652892","wem/bandit_single","AR1IWBDA7MC86","pain","7","","75","K","2","","0","0","1","0","0.6","true","0","0","0.8","full_practice","0","0.2","0","0.6","0","0.2","","","","","",""
"1532","","bandit","60","321763","0.0-32.0-9.0","65652892","wem/bandit_single","AR1IWBDA7MC86","pain","7","","74","J","1","","0","0","1","0","0.2","true","0","0","0.8","full_practice","0","0.2","0","0.6","0","0.2","","","","","",""
"1547","","bandit","61","325067","0.0-32.0-10.0","65652892","wem/bandit_single","AR1IWBDA7MC86","pain","7","","72","H","0","img/none_selected.jpg","0","1","0","0","0.8","true","0","0","0.8","full_practice","0","0.2","0","0.6","0","0.2","","","","","",""
"353","","bandit","62","327175","0.0-32.0-11.0","65652892","wem/bandit_single","AR1IWBDA7MC86","pain","7","","72","H","0","img/none_selected.jpg","0","1","0","0","0.8","true","0","0","0.8","full_practice","0","0.2","0","0.6","0","0.2","","","","","",""
"146","","bandit","63","329076","0.0-32.0-12.0","65652892","wem/bandit_single","AR1IWBDA7MC86","pain","7","","72","H","0","img/none_selected.jpg","0","1","0","0","0.8","true","0","0","0.8","full_practice","0","0.2","0","0.6","0","0.2","","","","","",""
"1","","bandit","64","330833","0.0-32.0-13.0","65652892","wem/bandit_single","AR1IWBDA7MC86","pain","7","","72","H","0","img/none_selected.jpg","0","1","0","0","0.8","true","0","0","0.8","full_practice","0","0.2","0","0.6","0","0.2","","","","","",""
"20","","bandit","65","332610","0.0-32.0-14.0","65652892","wem/bandit_single","AR1IWBDA7MC86","pain","7","","72","H","0","img/none_selected.jpg","0","1","0","0","0.8","true","0","0","0.8","full_practice","0","0.2","0","0.6","0","0.2","","","","","",""
"823","","bandit","66","335189","0.0-32.0-15.0","65652892","wem/bandit_single","AR1IWBDA7MC86","pain","7","","72","H","0","img/none_selected.jpg","0","1","0","0","0.8","true","0","0","0.8","full_practice","0","0.2","0","0.6","0","0.2","","","","","",""
"66","","bandit","67","337011","0.0-32.0-16.0","65652892","wem/bandit_single","AR1IWBDA7MC86","pain","7","","72","H","0","img/none_selected.jpg","0","0","1","0","0.8","true","0","0","0.8","full_practice","0","0.2","0","0.6","0","0.2","","","","","",""
"76","","bandit","68","338844","0.0-32.0-17.0","65652892","wem/bandit_single","AR1IWBDA7MC86","pain","7","","72","H","0","img/none_selected.jpg","0","1","0","0","0.8","true","0","0","0.8","full_practice","0","0.2","0","0.6","0","0.2","","","","","",""
"28","","bandit","69","340626","0.0-32.0-18.0","65652892","wem/bandit_single","AR1IWBDA7MC86","pain","7","","72","H","0","img/none_selected.jpg","0","1","0","0","0.8","true","0","0","0.8","full_practice","0","0.2","0","0.6","0","0.2","","","","","",""
"168","","bandit","70","342551","0.0-32.0-19.0","65652892","wem/bandit_single","AR1IWBDA7MC86","pain","7","","72","H","0","img/none_selected.jpg","0","1","0","0","0.8","true","0","0","0.8","full_practice","0","0.2","0","0.6","0","0.2","","","","","",""
"2549","","text","71","345353","0.0-33.0","65652892","wem/bandit_single","AR1IWBDA7MC86","pain","7","32","","","","","","","","","","","","","","","","","","","","","","","","","",""
"6130","","text","72","352485","0.0-34.0","65652892","wem/bandit_single","AR1IWBDA7MC86","pain","7","32","","","","","","","","","","","","","","","","","","","","","","","","","",""
"1606","","text","73","354093","0.0-35.0","65652892","wem/bandit_single","AR1IWBDA7MC86","pain","7","32","","","","","","","","","","","","","","","","","","","","","","","","","",""
"3584","","text","74","357679","0.0-36.0","65652892","wem/bandit_single","AR1IWBDA7MC86","pain","7","32","","","","","","","","","","","","","","","","","","","","","","","","","",""
"3684","","text","75","361364","0.0-37.0","65652892","wem/bandit_single","AR1IWBDA7MC86","pain","7","32","","","","","","","","","","","","","","","","","","","","","","","","","",""
"1665","","bandit","76","364534","0.0-38.0-0.0","65652892","wem/bandit_single","AR1IWBDA7MC86","pain","7","","76","L","3","","0","0","1","","0.05137684772","false","1","","0.2046929885","main_expt","","0.4656663819","","0.182860278","","0.05137684772","","","","","",""
"300","","bandit","77","366588","0.0-39.0-0.0","65652892","wem/bandit_single","AR1IWBDA7MC86","pain","7","","75","K","2","","0","0","1","","0.1824128093","false","2","","0.1903203277","main_expt","","0.4696156166","","0.1824128093","","0.07150319997","","","","","",""
"819","","bandit","78","369163","0.0-40.0-0.0","65652892","wem/bandit_single","AR1IWBDA7MC86","pain","7","","74","J","1","","0","1","0","","0.477042595","false","3","","0.1806567389","main_expt","","0.477042595","","0.1671989933","","0.080703679","","","","","",""
"246","","bandit","79","371164","0.0-41.0-0.0","65652892","wem/bandit_single","AR1IWBDA7MC86","pain","7","","74","J","1","","0","1","0","","0.4833388502","false","4","","0.1746643784","main_expt","","0.4833388502","","0.1769774761","","0.09206073837","","","","","",""
"39","","bandit","80","372958","0.0-42.0-0.0","65652892","wem/bandit_single","AR1IWBDA7MC86","pain","7","","74","J","1","","0","0","1","","0.4679643189","false","5","","0.1575849224","main_expt","","0.4679643189","","0.1847579949","","0.09846378213","","","","","",""
"794","","bandit","81","375507","0.0-43.0-0.0","65652892","wem/bandit_single","AR1IWBDA7MC86","pain","7","","74","J","1","","0","1","0","","0.4728114282","false","6","","0.1848921601","main_expt","","0.4728114282","","0.2263389119","","0.07982937149","","","","","",""
"322","","bandit","82","377584","0.0-44.0-0.0","65652892","wem/bandit_single","AR1IWBDA7MC86","pain","7","","74","J","1","","0","1","0","","0.4763129956","false","7","","0.2090417599","main_expt","","0.4763129956","","0.233500047","","0.08361087011","","","","","",""
"16","","bandit","83","379356","0.0-45.0-0.0","65652892","wem/bandit_single","AR1IWBDA7MC86","pain","7","","74","J","1","","0","1","0","","0.4605171502","false","8","","0.2340345007","main_expt","","0.4605171502","","0.2213385325","","0.1210475052","","","","","",""
"0","","bandit","84","381111","0.0-46.0-0.0","65652892","wem/bandit_single","AR1IWBDA7MC86","pain","7","","74","J","1","","0","1","0","","0.457599345","false","9","","0.2388832632","main_expt","","0.457599345","","0.216727727","","0.1023248189","","","","","",""
"40","","bandit","85","382907","0.0-47.0-0.0","65652892","wem/bandit_single","AR1IWBDA7MC86","pain","7","","74","J","1","","0","0","1","","0.4514273669","false","10","","0.2336568073","main_expt","","0.4514273669","","0.1757193701","","0.1311876697","","","","","",""
"39","","bandit","86","384701","0.0-48.0-0.0","65652892","wem/bandit_single","AR1IWBDA7MC86","pain","7","","75","K","2","","0","0","1","","0.221687112","false","11","","0.2682397485","main_expt","","0.461109344","","0.221687112","","0.1171839072","","","","","",""
"18","","bandit","87","386474","0.0-49.0-0.0","65652892","wem/bandit_single","AR1IWBDA7MC86","pain","7","","72","H","0","img/none_selected.jpg","0","1","0","","0.2855743842","false","12","","0.2855743842","main_expt","","0.4750360261","","0.1693148256","","0.09103905321","","","","","",""
"657","","bandit","88","388887","0.0-50.0-0.0","65652892","wem/bandit_single","AR1IWBDA7MC86","pain","7","","72","H","0","img/none_selected.jpg","0","1","0","","0.2877368863","false","13","","0.2877368863","main_expt","","0.4882900813","","0.1861997022","","0.08195125901","","","","","",""
"964","","bandit","89","391605","0.0-51.0-0.0","65652892","wem/bandit_single","AR1IWBDA7MC86","pain","7","","72","H","0","img/none_selected.jpg","0","1","0","","0.2904717711","false","14","","0.2904717711","main_expt","","0.4836145896","","0.2056371894","","0.1022478824","","","","","",""
"598","","bandit","90","393957","0.0-52.0-0.0","65652892","wem/bandit_single","AR1IWBDA7MC86","pain","7","","72","H","0","img/none_selected.jpg","0","0","1","","0.3145527135","false","15","","0.3145527135","main_expt","","0.4841526839","","0.207651467","","0.1295923723","","","","","",""
"1039","","bandit","91","396751","0.0-53.0-0.0","65652892","wem/bandit_single","AR1IWBDA7MC86","pain","7","","72","H","0","img/none_selected.jpg","0","0","1","","0.2919685568","false","16","","0.2919685568","main_expt","","0.4733209008","","0.264879833","","0.1259026636","","","","","",""
"280","","bandit","92","398787","0.0-54.0-0.0","65652892","wem/bandit_single","AR1IWBDA7MC86","pain","7","","74","J","1","","0","0","1","","0.4548629562","false","17","","0.2437915417","main_expt","","0.4548629562","","0.301226273","","0.08714849596","","","","","",""
"407","","bandit","93","400950","0.0-55.0-0.0","65652892","wem/bandit_single","AR1IWBDA7MC86","pain","7","","72","H","0","img/none_selected.jpg","0","0","1","","0.2139729843","false","18","","0.2139729843","main_expt","","0.4423108412","","0.3355017989","","0.06082296625","","","","","",""
"134","","bandit","94","402839","0.0-56.0-0.0","65652892","wem/bandit_single","AR1IWBDA7MC86","pain","7","","76","L","3","","0","0","1","","0.04376078701","false","19","","0.2117718275","main_expt","","0.4510346454","","0.4066928382","","0.04376078701","","","","","",""
"249","","bandit","95","404843","0.0-57.0-0.0","65652892","wem/bandit_single","AR1IWBDA7MC86","pain","7","","75","K","2","","0","1","0","","0.4152799178","false","20","","0.2128214431","main_expt","","0.4522943673","","0.4152799178","","0.0431273538","","","","","",""
"17","","bandit","96","406616","0.0-58.0-0.0","65652892","wem/bandit_single","AR1IWBDA7MC86","pain","7","","75","K","2","","0","0","1","","0.4005545413","false","21","","0.2557511999","main_expt","","0.4213917452","","0.4005545413","","0.05700218709","","","","","",""
"22","","bandit","97","408392","0.0-59.0-0.0","65652892","wem/bandit_single","AR1IWBDA7MC86","pain","7","","75","K","2","","0","1","0","","0.4065945052","false","22","","0.2240556206","main_expt","","0.4055738921","","0.4065945052","","0.03008320558","","","","","",""
"313","","bandit","98","410461","0.0-60.0-0.0","65652892","wem/bandit_single","AR1IWBDA7MC86","pain","7","","75","K","2","","0","1","0","","0.4396923884","false","23","","0.1913455436","main_expt","","0.4102744642","","0.4396923884","","0.04675245401","","","","","",""
"30","","bandit","99","412246","0.0-61.0-0.0","65652892","wem/bandit_single","AR1IWBDA7MC86","pain","7","","75","K","2","","0","0","1","","0.4414607804","false","24","","0.1767964116","main_expt","","0.4215519413","","0.4414607804","","0.02664245213","","","","","",""
"323","","bandit","100","414325","0.0-62.0-0.0","65652892","wem/bandit_single","AR1IWBDA7MC86","pain","7","","75","K","2","","0","1","0","","0.430597795","false","25","","0.1667721477","main_expt","","0.4076768117","","0.430597795","","0.02443183667","","","","","",""
"195","","bandit","101","416275","0.0-63.0-0.0","65652892","wem/bandit_single","AR1IWBDA7MC86","pain","7","","75","K","2","","0","0","1","","0.4049624372","false","26","","0.132468293","main_expt","","0.3563873355","","0.4049624372","","0.02765515704","","","","","",""
"213","","bandit","102","418243","0.0-64.0-0.0","65652892","wem/bandit_single","AR1IWBDA7MC86","pain","7","","72","H","0","img/none_selected.jpg","0","1","0","","0.1283549716","false","27","","0.1283549716","main_expt","","0.3305608977","","0.3959859591","","0.05751586542","","","","","",""
"397","","bandit","103","420395","0.0-65.0-0.0","65652892","wem/bandit_single","AR1IWBDA7MC86","pain","7","","72","H","0","img/none_selected.jpg","0","0","1","","0.1218888314","false","28","","0.1218888314","main_expt","","0.323916825","","0.4316273603","","0.1046410472","","","","","",""
"464","","bandit","104","422613","0.0-66.0-0.0","65652892","wem/bandit_single","AR1IWBDA7MC86","pain","7","","72","H","0","img/none_selected.jpg","0","0","1","","0.08739650486","false","29","","0.08739650486","main_expt","","0.3256975875","","0.4618757987","","0.1174110135","","","","","",""
"158","","bandit","105","424525","0.0-67.0-0.0","65652892","wem/bandit_single","AR1IWBDA7MC86","pain","7","","75","K","2","","0","0","1","","0.4764599947","false","30","","0.1113113005","main_expt","","0.3590663193","","0.4764599947","","0.09344635718","","","","","",""
"82","","bandit","106","426362","0.0-68.0-0.0","65652892","wem/bandit_single","AR1IWBDA7MC86","pain","7","","74","J","1","","0","0","1","","0.2794303661","false","31","","0.1234593762","main_expt","","0.2794303661","","0.4870567238","","0.07228097062","","","","","",""
"122","","bandit","107","428240","0.0-69.0-0.0","65652892","wem/bandit_single","AR1IWBDA7MC86","pain","7","","76","L","3","","0","0","1","","0.06660380695","false","32","","0.1204693509","main_expt","","0.2725021833","","0.4744541924","","0.06660380695","","","","","",""
"39","","bandit","108","430035","0.0-70.0-0.0","65652892","wem/bandit_single","AR1IWBDA7MC86","pain","7","","76","L","3","","0","0","1","","0.06161000393","false","33","","0.1525092538","main_expt","","0.2662358977","","0.4595636441","","0.06161000393","","","","","",""
"203","","bandit","109","431993","0.0-71.0-0.0","65652892","wem/bandit_single","AR1IWBDA7MC86","pain","7","","75","K","2","","0","1","0","","0.4700794195","false","34","","0.0933794629","main_expt","","0.3062719381","","0.4700794195","","0.08245015188","","","","","",""
"91","","bandit","110","433838","0.0-72.0-0.0","65652892","wem/bandit_single","AR1IWBDA7MC86","pain","7","","75","K","2","","0","1","0","","0.46481425","false","35","","0.06693018499","main_expt","","0.3199342551","","0.46481425","","0.08195488018","","","","","",""
"4","","bandit","111","435597","0.0-73.0-0.0","65652892","wem/bandit_single","AR1IWBDA7MC86","pain","7","","75","K","2","","0","0","1","","0.4518384169","false","36","","0.09916465935","main_expt","","0.3039619122","","0.4518384169","","0.1004102013","","","","","",""
"272","","bandit","112","437623","0.0-74.0-0.0","65652892","wem/bandit_single","AR1IWBDA7MC86","pain","7","","75","K","2","","0","1","0","","0.439581627","false","37","","0.08872434017","main_expt","","0.2927636057","","0.439581627","","0.1390326598","","","","","",""
"119","","bandit","113","439497","0.0-75.0-0.0","65652892","wem/bandit_single","AR1IWBDA7MC86","pain","7","","75","K","2","","0","1","0","","0.3994664239","false","38","","0.08103487055","main_expt","","0.3513205482","","0.3994664239","","0.143322519","","","","","",""
"106","","bandit","114","441359","0.0-76.0-0.0","65652892","wem/bandit_single","AR1IWBDA7MC86","pain","7","","75","K","2","","0","0","1","","0.399239641","false","39","","0.09262773223","main_expt","","0.3199725693","","0.399239641","","0.1439849427","","","","","",""
"171","","bandit","115","443286","0.0-77.0-0.0","65652892","wem/bandit_single","AR1IWBDA7MC86","pain","7","","75","K","2","","0","0","1","","0.3842971785","false","40","","0.08276392867","main_expt","","0.2899826696","","0.3842971785","","0.1813186375","","","","","",""
"161","","bandit","116","445203","0.0-78.0-0.0","65652892","wem/bandit_single","AR1IWBDA7MC86","pain","7","","72","H","0","img/none_selected.jpg","0","0","1","","0.07889170896","false","41","","0.07889170896","main_expt","","0.2470457707","","0.3584077127","","0.182623784","","","","","",""
"157","","bandit","117","447116","0.0-79.0-0.0","65652892","wem/bandit_single","AR1IWBDA7MC86","pain","7","","74","J","1","","0","1","0","","0.2860815649","false","42","","0.1007082374","main_expt","","0.2860815649","","0.2940512223","","0.1310997782","","","","","",""
"342","","bandit","118","449215","0.0-80.0-0.0","65652892","wem/bandit_single","AR1IWBDA7MC86","pain","7","","74","J","1","","0","0","1","","0.3649324249","false","43","","0.04983151166","main_expt","","0.3649324249","","0.3274682868","","0.1211351308","","","","","",""
"381","","bandit","119","451352","0.0-81.0-0.0","65652892","wem/bandit_single","AR1IWBDA7MC86","pain","7","","74","J","1","","0","1","0","","0.3722884938","false","44","","0.06772206808","main_expt","","0.3722884938","","0.3105097628","","0.1032393721","","","","","",""
"369","","bandit","120","453478","0.0-82.0-0.0","65652892","wem/bandit_single","AR1IWBDA7MC86","pain","7","","74","J","1","","0","1","0","","0.3589666793","false","45","","0.07082322934","main_expt","","0.3589666793","","0.3253779088","","0.145243047","","","","","",""
"11","","bandit","121","455246","0.0-83.0-0.0","65652892","wem/bandit_single","AR1IWBDA7MC86","pain","7","","74","J","1","","0","0","1","","0.309469461","false","46","","0.08302100682","main_expt","","0.309469461","","0.2907447256","","0.1871821161","","","","","",""
"55","","bandit","122","457056","0.0-84.0-0.0","65652892","wem/bandit_single","AR1IWBDA7MC86","pain","7","","74","J","1","","0","0","1","","0.3486132663","false","47","","0.04947507936","main_expt","","0.3486132663","","0.2922490699","","0.1827431821","","","","","",""
"102","","bandit","123","458914","0.0-85.0-0.0","65652892","wem/bandit_single","AR1IWBDA7MC86","pain","7","","76","L","3","","0","0","1","","0.1863443356","false","48","","0.05970491685","main_expt","","0.3613151755","","0.3012354267","","0.1863443356","","","","","",""
"501","","bandit","124","461171","0.0-86.0-0.0","65652892","wem/bandit_single","AR1IWBDA7MC86","pain","7","","75","K","2","","0","0","1","","0.3199255499","false","49","","0.05846806591","main_expt","","0.3810076255","","0.3199255499","","0.2089920758","","","","","",""
"246","","bandit","125","463174","0.0-87.0-0.0","65652892","wem/bandit_single","AR1IWBDA7MC86","pain","7","","76","L","3","","0","0","1","","0.2204805957","false","50","","0.08078022322","main_expt","","0.3528158806","","0.3246792682","","0.2204805957","","","","","",""
"149","","bandit","126","465080","0.0-88.0-0.0","65652892","wem/bandit_single","AR1IWBDA7MC86","pain","7","","72","H","0","img/none_selected.jpg","0","0","1","","0.08366705542","false","51","","0.08366705542","main_expt","","0.4127521961","","0.3158487008","","0.2796788854","","","","","",""
"107","","bandit","127","466943","0.0-89.0-0.0","65652892","wem/bandit_single","AR1IWBDA7MC86","pain","7","","75","K","2","","0","0","1","","0.2764666405","false","52","","0.1365111474","main_expt","","0.4034362436","","0.2764666405","","0.2870992152","","","","","",""
"216","","bandit","128","468914","0.0-90.0-0.0","65652892","wem/bandit_single","AR1IWBDA7MC86","pain","7","","74","J","1","","0","1","0","","0.4268522392","false","53","","0.1238361543","main_expt","","0.4268522392","","0.2740398937","","0.3176469779","","","","","",""
"190","","bandit","129","470860","0.0-91.0-0.0","65652892","wem/bandit_single","AR1IWBDA7MC86","pain","7","","74","J","1","","0","0","1","","0.4471231168","false","54","","0.1150058699","main_expt","","0.4471231168","","0.2499565254","","0.3407727651","","","","","",""
"229","","bandit","130","472847","0.0-92.0-0.0","65652892","wem/bandit_single","AR1IWBDA7MC86","pain","7","","74","J","1","","0","0","1","","0.4397300441","false","55","","0.1498695165","main_expt","","0.4397300441","","0.221305586","","0.380871147","","","","","",""
"92","","bandit","131","474696","0.0-93.0-0.0","65652892","wem/bandit_single","AR1IWBDA7MC86","pain","7","","74","J","1","","0","0","1","","0.4266514607","false","56","","0.1559096332","main_expt","","0.4266514607","","0.2513729962","","0.3614982187","","","","","",""
"127","","bandit","132","476581","0.0-94.0-0.0","65652892","wem/bandit_single","AR1IWBDA7MC86","pain","7","","75","K","2","","0","0","1","","0.254621842","false","57","","0.139260175","main_expt","","0.4351066669","","0.254621842","","0.3219973572","","","","","",""
"154","","bandit","133","478491","0.0-95.0-0.0","65652892","wem/bandit_single","AR1IWBDA7MC86","pain","7","","75","K","2","","0","0","1","","0.2911199408","false","58","","0.1101041774","main_expt","","0.4114765848","","0.2911199408","","0.3136466855","","","","","",""
"229","","bandit","134","480476","0.0-96.0-0.0","65652892","wem/bandit_single","AR1IWBDA7MC86","pain","7","","72","H","0","img/none_selected.jpg","0","0","1","","0.1619704935","false","59","","0.1619704935","main_expt","","0.4331866813","","0.3260103257","","0.3553654786","","","","","",""
"97","","bandit","135","482329","0.0-97.0-0.0","65652892","wem/bandit_single","AR1IWBDA7MC86","pain","7","","76","L","3","","0","0","1","","0.302494743","false","60","","0.1023472493","main_expt","","0.4452666195","","0.3801831719","","0.302494743","","","","","",""
"99","","bandit","136","484183","0.0-98.0-0.0","65652892","wem/bandit_single","AR1IWBDA7MC86","pain","7","","76","L","3","","0","0","1","","0.3194951829","false","61","","0.1659923055","main_expt","","0.4533212266","","0.4097171909","","0.3194951829","","","","","",""
"6","","bandit","137","485947","0.0-99.0-0.0","65652892","wem/bandit_single","AR1IWBDA7MC86","pain","7","","72","H","0","img/none_selected.jpg","0","1","0","","0.1773336283","false","62","","0.1773336283","main_expt","","0.4546633602","","0.4297251169","","0.3491175101","","","","","",""
"69","","bandit","138","487772","0.0-100.0-0.0","65652892","wem/bandit_single","AR1IWBDA7MC86","pain","7","","72","H","0","img/none_selected.jpg","0","0","1","","0.1838898345","false","63","","0.1838898345","main_expt","","0.431915851","","0.4523537282","","0.3618657485","","","","","",""
"109","","bandit","139","489636","0.0-101.0-0.0","65652892","wem/bandit_single","AR1IWBDA7MC86","pain","7","","72","H","0","img/none_selected.jpg","0","1","0","","0.1535376321","false","64","","0.1535376321","main_expt","","0.4397857724","","0.4577822331","","0.3331995431","","","","","",""
"130","","bandit","140","491523","0.0-102.0-0.0","65652892","wem/bandit_single","AR1IWBDA7MC86","pain","7","","72","H","0","img/none_selected.jpg","0","0","1","","0.1696059705","false","65","","0.1696059705","main_expt","","0.3803141428","","0.4366397349","","0.3222916502","","","","","",""
"142","","bandit","141","493423","0.0-103.0-0.0","65652892","wem/bandit_single","AR1IWBDA7MC86","pain","7","","72","H","0","img/none_selected.jpg","0","0","1","","0.1747776373","false","66","","0.1747776373","main_expt","","0.4318665216","","0.4223045317","","0.2935747005","","","","","",""
"194","","bandit","142","495372","0.0-104.0-0.0","65652892","wem/bandit_single","AR1IWBDA7MC86","pain","7","","74","J","1","","0","1","0","","0.3783394243","false","67","","0.1880318686","main_expt","","0.3783394243","","0.453094409","","0.272098099","","","","","",""
"120","","bandit","143","497247","0.0-105.0-0.0","65652892","wem/bandit_single","AR1IWBDA7MC86","pain","7","","74","J","1","","0","0","1","","0.3424409758","false","68","","0.1703396733","main_expt","","0.3424409758","","0.4441165928","","0.2839543474","","","","","",""
"105","","bandit","144","499108","0.0-106.0-0.0","65652892","wem/bandit_single","AR1IWBDA7MC86","pain","7","","74","J","1","","0","0","1","","0.3825588005","false","69","","0.2041307244","main_expt","","0.3825588005","","0.437102529","","0.3106529802","","","","","",""
"54","","bandit","145","500918","0.0-107.0-0.0","65652892","wem/bandit_single","AR1IWBDA7MC86","pain","7","","75","K","2","","0","1","0","","0.463010405","false","70","","0.2380468473","main_expt","","0.4019939479","","0.463010405","","0.2152651325","","","","","",""
"32","","bandit","146","502706","0.0-108.0-0.0","65652892","wem/bandit_single","AR1IWBDA7MC86","pain","7","","75","K","2","","0","1","0","","0.4511055106","false","71","","0.2540220497","main_expt","","0.3995375499","","0.4511055106","","0.2150247356","","","","","",""
"170","","bandit","147","504632","0.0-109.0-0.0","65652892","wem/bandit_single","AR1IWBDA7MC86","pain","7","","75","K","2","","0","0","1","","0.456238914","false","72","","0.2877519017","main_expt","","0.3655493795","","0.456238914","","0.2196699897","","","","","",""
"411","","bandit","148","506799","0.0-110.0-0.0","65652892","wem/bandit_single","AR1IWBDA7MC86","pain","7","","75","K","2","","0","1","0","","0.4499554287","false","73","","0.3090267326","main_expt","","0.3443296275","","0.4499554287","","0.2086164273","","","","","",""
"103","","bandit","149","508658","0.0-111.0-0.0","65652892","wem/bandit_single","AR1IWBDA7MC86","pain","7","","75","K","2","","0","0","1","","0.4439780401","false","74","","0.3400901674","main_expt","","0.3647916216","","0.4439780401","","0.2226006448","","","","","",""
"172","","bandit","150","510584","0.0-112.0-0.0","65652892","wem/bandit_single","AR1IWBDA7MC86","pain","7","","75","K","2","","0","0","1","","0.4332341766","false","75","","0.3519214117","main_expt","","0.3531956798","","0.4332341766","","0.2015377479","","","","","",""
"356","","bandit","151","512697","0.0-113.0-0.0","65652892","wem/bandit_single","AR1IWBDA7MC86","pain","7","","75","K","2","","0","1","0","","0.4241516559","false","76","","0.3621584499","main_expt","","0.3375826797","","0.4241516559","","0.2614433548","","","","","",""
"154","","bandit","152","514606","0.0-114.0-0.0","65652892","wem/bandit_single","AR1IWBDA7MC86","pain","7","","75","K","2","","0","0","1","","0.404580079","false","77","","0.3919288513","main_expt","","0.3389323042","","0.404580079","","0.3216300101","","","","","",""
"271","","bandit","153","516632","0.0-115.0-0.0","65652892","wem/bandit_single","AR1IWBDA7MC86","pain","7","","75","K","2","","0","1","0","","0.4291019186","false","78","","0.3733142104","main_expt","","0.3633343286","","0.4291019186","","0.3253900192","","","","","",""
"11","","bandit","154","518399","0.0-116.0-0.0","65652892","wem/bandit_single","AR1IWBDA7MC86","pain","7","","75","K","2","","0","1","0","","0.4431072694","false","79","","0.3594898906","main_expt","","0.35510173","","0.4431072694","","0.3253799771","","","","","",""
"76","","bandit","155","520231","0.0-117.0-0.0","65652892","wem/bandit_single","AR1IWBDA7MC86","pain","7","","75","K","2","","0","1","0","","0.4443251544","false","80","","0.3740263767","main_expt","","0.3313699227","","0.4443251544","","0.321449248","","","","","",""
"145","","bandit","156","522132","0.0-118.0-0.0","65652892","wem/bandit_single","AR1IWBDA7MC86","pain","7","","75","K","2","","0","0","1","","0.4222806544","false","81","","0.4031190442","main_expt","","0.3545786091","","0.4222806544","","0.3644617874","","","","","",""
"18","","bandit","157","523907","0.0-119.0-0.0","65652892","wem/bandit_single","AR1IWBDA7MC86","pain","7","","75","K","2","","0","1","0","","0.4348184101","false","82","","0.397551472","main_expt","","0.36958943","","0.4348184101","","0.3646727683","","","","","",""
"150","","bandit","158","525813","0.0-120.0-0.0","65652892","wem/bandit_single","AR1IWBDA7MC86","pain","7","","75","K","2","","0","1","0","","0.4237956171","false","83","","0.4251589807","main_expt","","0.3818301908","","0.4237956171","","0.3823543101","","","","","",""
"129","","bandit","159","527702","0.0-121.0-0.0","65652892","wem/bandit_single","AR1IWBDA7MC86","pain","7","","75","K","2","","0","1","0","","0.4255820551","false","84","","0.406460911","main_expt","","0.3841316884","","0.4255820551","","0.3927357351","","","","","",""
"123","","bandit","160","529580","0.0-122.0-0.0","65652892","wem/bandit_single","AR1IWBDA7MC86","pain","7","","75","K","2","","0","1","0","","0.4407045426","false","85","","0.4190094225","main_expt","","0.3769873451","","0.4407045426","","0.3242792488","","","","","",""
"17","","bandit","161","531352","0.0-123.0-0.0","65652892","wem/bandit_single","AR1IWBDA7MC86","pain","7","","75","K","2","","0","0","1","","0.4276882268","false","86","","0.4006115864","main_expt","","0.3624331431","","0.4276882268","","0.3257651096","","","","","",""
"64","","bandit","162","533172","0.0-124.0-0.0","65652892","wem/bandit_single","AR1IWBDA7MC86","pain","7","","75","K","2","","0","0","1","","0.4430021271","false","87","","0.3761684651","main_expt","","0.356636023","","0.4430021271","","0.3768973447","","","","","",""
"242","","bandit","163","535170","0.0-125.0-0.0","65652892","wem/bandit_single","AR1IWBDA7MC86","pain","7","","75","K","2","","0","0","1","","0.4259892117","false","88","","0.3935355307","main_expt","","0.392705536","","0.4259892117","","0.3333804566","","","","","",""
"3","","bandit","164","536930","0.0-126.0-0.0","65652892","wem/bandit_single","AR1IWBDA7MC86","pain","7","","75","K","2","","0","1","0","","0.4451393147","false","89","","0.3870426381","main_expt","","0.39579544","","0.4451393147","","0.3326985542","","","","","",""
"165","","bandit","165","538850","0.0-127.0-0.0","65652892","wem/bandit_single","AR1IWBDA7MC86","pain","7","","75","K","2","","0","0","1","","0.4450202473","false","90","","0.3838573884","main_expt","","0.3832348421","","0.4450202473","","0.3392082427","","","","","",""
"19","","bandit","166","540626","0.0-128.0-0.0","65652892","wem/bandit_single","AR1IWBDA7MC86","pain","7","","75","K","2","","0","1","0","","0.428726471","false","91","","0.376063899","main_expt","","0.4009824957","","0.428726471","","0.2686139101","","","","","",""
"148","","bandit","167","542531","0.0-129.0-0.0","65652892","wem/bandit_single","AR1IWBDA7MC86","pain","7","","75","K","2","","0","1","0","","0.4207086611","false","92","","0.3877690924","main_expt","","0.360902971","","0.4207086611","","0.247120026","","","","","",""
"81","","bandit","168","544369","0.0-130.0-0.0","65652892","wem/bandit_single","AR1IWBDA7MC86","pain","7","","75","K","2","","0","1","0","","0.4271109851","false","93","","0.3832772702","main_expt","","0.4098322422","","0.4271109851","","0.1945967668","","","","","",""
"92","","bandit","169","546218","0.0-131.0-0.0","65652892","wem/bandit_single","AR1IWBDA7MC86","pain","7","","75","K","2","","0","0","1","","0.3988025755","false","94","","0.3569295009","main_expt","","0.365685068","","0.3988025755","","0.2059940606","","","","","",""
"197","","bandit","170","548169","0.0-132.0-0.0","65652892","wem/bandit_single","AR1IWBDA7MC86","pain","7","","75","K","2","","0","0","1","","0.3413505888","false","95","","0.3462427099","main_expt","","0.3246475432","","0.3413505888","","0.2276463074","","","","","",""
"109","","bandit","171","550034","0.0-133.0-0.0","65652892","wem/bandit_single","AR1IWBDA7MC86","pain","7","","72","H","0","img/none_selected.jpg","0","0","1","","0.2902370181","false","96","","0.2902370181","main_expt","","0.3155220288","","0.2791034264","","0.3088064785","","","","","",""
"184","","bandit","172","551975","0.0-134.0-0.0","65652892","wem/bandit_single","AR1IWBDA7MC86","pain","7","","74","J","1","","0","1","0","","0.2920368253","false","97","","0.2679909325","main_expt","","0.2920368253","","0.2300358144","","0.3167474357","","","","","",""
"82","","bandit","173","553813","0.0-135.0-0.0","65652892","wem/bandit_single","AR1IWBDA7MC86","pain","7","","74","J","1","","0","0","1","","0.3060047135","false","98","","0.1827708427","main_expt","","0.3060047135","","0.245913642","","0.3311058144","","","","","",""
"56","","bandit","174","555624","0.0-136.0-0.0","65652892","wem/bandit_single","AR1IWBDA7MC86","pain","7","","76","L","3","","0","0","1","","0.2831383079","false","99","","0.1847148603","main_expt","","0.2834300817","","0.1977736678","","0.2831383079","","","","","",""
"119","","bandit","175","557500","0.0-137.0-0.0","65652892","wem/bandit_single","AR1IWBDA7MC86","pain","7","","74","J","1","","0","0","1","","0.3094748938","false","100","","0.230590463","main_expt","","0.3094748938","","0.2300987319","","0.2697282324","","","","","",""
"0","","bandit","176","559257","0.0-138.0-0.0","65652892","wem/bandit_single","AR1IWBDA7MC86","pain","7","","75","K","2","","0","0","1","","0.2375929523","false","101","","0.2036778932","main_expt","","0.2776834174","","0.2375929523","","0.2908511313","","","","","",""
"79","","bandit","177","561093","0.0-139.0-0.0","65652892","wem/bandit_single","AR1IWBDA7MC86","pain","7","","72","H","0","img/none_selected.jpg","0","0","1","","0.2146692458","false","102","","0.2146692458","main_expt","","0.2649828438","","0.2034833152","","0.3371086545","","","","","",""
"135","","bandit","178","562984","0.0-140.0-0.0","65652892","wem/bandit_single","AR1IWBDA7MC86","pain","7","","75","K","2","","0","1","0","","0.2510503681","false","103","","0.2194044235","main_expt","","0.1977849252","","0.2510503681","","0.2925399581","","","","","",""
"34","","bandit","179","564774","0.0-141.0-0.0","65652892","wem/bandit_single","AR1IWBDA7MC86","pain","7","","75","K","2","","0","0","1","","0.2563420723","false","104","","0.2869514305","main_expt","","0.164180841","","0.2563420723","","0.229866195","","","","","",""
"165","","bandit","180","566696","0.0-142.0-0.0","65652892","wem/bandit_single","AR1IWBDA7MC86","pain","7","","75","K","2","","0","0","1","","0.2025228913","false","105","","0.2577924419","main_expt","","0.1410880488","","0.2025228913","","0.2786648232","","","","","",""
"169","","bandit","181","568621","0.0-143.0-0.0","65652892","wem/bandit_single","AR1IWBDA7MC86","pain","7","","75","K","2","","0","1","0","","0.2288818116","false","106","","0.2984789445","main_expt","","0.2151151798","","0.2288818116","","0.2907959635","","","","","",""
"215","","bandit","182","570591","0.0-144.0-0.0","65652892","wem/bandit_single","AR1IWBDA7MC86","pain","7","","75","K","2","","0","0","1","","0.2725684277","false","107","","0.2483059356","main_expt","","0.2068678097","","0.2725684277","","0.2934471614","","","","","",""
"33","","bandit","183","572381","0.0-145.0-0.0","65652892","wem/bandit_single","AR1IWBDA7MC86","pain","7","","75","K","2","","0","0","1","","0.2725367566","false","108","","0.2177203031","main_expt","","0.1775779384","","0.2725367566","","0.2761460559","","","","","",""
"162","","bandit","184","574301","0.0-146.0-0.0","65652892","wem/bandit_single","AR1IWBDA7MC86","pain","7","","76","L","3","","0","0","1","","0.3154055318","false","109","","0.2155336726","main_expt","","0.1633907035","","0.2645412755","","0.3154055318","","","","","",""
"38","","bandit","185","576098","0.0-147.0-0.0","65652892","wem/bandit_single","AR1IWBDA7MC86","pain","7","","74","J","1","","0","0","1","","0.1918139944","false","110","","0.2012134729","main_expt","","0.1918139944","","0.2537238549","","0.3375256398","","","","","",""
"97","","bandit","186","577950","0.0-148.0-0.0","65652892","wem/bandit_single","AR1IWBDA7MC86","pain","7","","72","H","0","img/none_selected.jpg","0","1","0","","0.1362677005","false","111","","0.1362677005","main_expt","","0.1512725872","","0.2404930496","","0.3575411602","","","","","",""
"61","","bandit","187","579768","0.0-149.0-0.0","65652892","wem/bandit_single","AR1IWBDA7MC86","pain","7","","72","H","0","img/none_selected.jpg","0","0","1","","0.1146466799","false","112","","0.1146466799","main_expt","","0.1579322392","","0.2031918028","","0.3357984678","","","","","",""
"109","","bandit","188","581634","0.0-150.0-0.0","65652892","wem/bandit_single","AR1IWBDA7MC86","pain","7","","75","K","2","","0","0","1","","0.2649243105","false","113","","0.1503083978","main_expt","","0.1638150459","","0.2649243105","","0.2950954247","","","","","",""
"69","","bandit","189","583460","0.0-151.0-0.0","65652892","wem/bandit_single","AR1IWBDA7MC86","pain","7","","75","K","2","","0","0","1","","0.2669290767","false","114","","0.1750780752","main_expt","","0.1913716077","","0.2669290767","","0.3242299597","","","","","",""
"90","","bandit","190","585308","0.0-152.0-0.0","65652892","wem/bandit_single","AR1IWBDA7MC86","pain","7","","74","J","1","","0","0","1","","0.1762938339","false","115","","0.1486636943","main_expt","","0.1762938339","","0.2538219684","","0.3224166769","","","","","",""
"367","","bandit","191","587432","0.0-153.0-0.0","65652892","wem/bandit_single","AR1IWBDA7MC86","pain","7","","76","L","3","","0","1","0","","0.3512221687","false","116","","0.149377163","main_expt","","0.1696576366","","0.2987800907","","0.3512221687","","","","","",""
"142","","bandit","192","589330","0.0-154.0-0.0","65652892","wem/bandit_single","AR1IWBDA7MC86","pain","7","","76","L","3","","0","1","0","","0.3854596622","false","117","","0.1255156769","main_expt","","0.1743908607","","0.2863147972","","0.3854596622","","","","","",""
"13","","bandit","193","591099","0.0-155.0-0.0","65652892","wem/bandit_single","AR1IWBDA7MC86","pain","7","","76","L","3","","0","0","1","","0.3311459155","false","118","","0.09405737873","main_expt","","0.2187419408","","0.2863485017","","0.3311459155","","","","","",""
"1810","","bandit","194","594665","0.0-156.0-0.0","65652892","wem/bandit_single","AR1IWBDA7MC86","pain","7","","76","L","3","","0","0","1","","0.3243143835","false","119","","0.0580133569","main_expt","","0.2602037773","","0.2704451175","","0.3243143835","","","","","",""
"1064","","bandit","195","597485","0.0-157.0-0.0","65652892","wem/bandit_single","AR1IWBDA7MC86","pain","7","","76","L","3","","0","1","0","","0.3830596167","false","120","","0.04965982272","main_expt","","0.2665240463","","0.2545920365","","0.3830596167","","","","","",""
"4312","","bandit","196","603552","0.0-158.0-0.0","65652892","wem/bandit_single","AR1IWBDA7MC86","pain","7","","76","L","3","","0","1","0","","0.4451194006","false","121","","0.05452098248","main_expt","","0.2300357123","","0.323502768","","0.4451194006","","","","","",""
"43","","bandit","197","605352","0.0-159.0-0.0","65652892","wem/bandit_single","AR1IWBDA7MC86","pain","7","","76","L","3","","0","1","0","","0.4636898934","false","122","","0.0475995955","main_expt","","0.2071140152","","0.3380353075","","0.4636898934","","","","","",""
"201","","bandit","198","607310","0.0-160.0-0.0","65652892","wem/bandit_single","AR1IWBDA7MC86","pain","7","","76","L","3","","0","1","0","","0.4384370655","false","123","","0.04799769062","main_expt","","0.2590656513","","0.341491638","","0.4384370655","","","","","",""
"415","","bandit","199","609481","0.0-161.0-0.0","65652892","wem/bandit_single","AR1IWBDA7MC86","pain","7","","76","L","3","","0","0","1","","0.456933673","false","124","","0.06454195205","main_expt","","0.2492473134","","0.3269941981","","0.456933673","","","","","",""
"274","","bandit","200","611511","0.0-162.0-0.0","65652892","wem/bandit_single","AR1IWBDA7MC86","pain","7","","76","L","3","","0","1","0","","0.4834692703","false","125","","0.0570469748","main_expt","","0.2569957816","","0.3263020805","","0.4834692703","","","","","",""
"152","","bandit","201","613419","0.0-163.0-0.0","65652892","wem/bandit_single","AR1IWBDA7MC86","pain","7","","76","L","3","","0","1","0","","0.4895912119","false","126","","0.06214194377","main_expt","","0.2715808503","","0.3377655475","","0.4895912119","","","","","",""
"166","","bandit","202","615341","0.0-164.0-0.0","65652892","wem/bandit_single","AR1IWBDA7MC86","pain","7","","76","L","3","","0","1","0","","0.4791977258","false","127","","0.06219251386","main_expt","","0.3260406689","","0.3489319456","","0.4791977258","","","","","",""
"166","","bandit","203","617263","0.0-165.0-0.0","65652892","wem/bandit_single","AR1IWBDA7MC86","pain","7","","76","L","3","","0","1","0","","0.4772399827","false","128","","0.06192095676","main_expt","","0.3487232841","","0.3450526125","","0.4772399827","","","","","",""
"147","","bandit","204","619168","0.0-166.0-0.0","65652892","wem/bandit_single","AR1IWBDA7MC86","pain","7","","76","L","3","","0","0","1","","0.4688955373","false","129","","0.03846933599","main_expt","","0.3601162145","","0.3297424559","","0.4688955373","","","","","",""
"92314","","bandit","205","713238","0.0-167.0-0.0","65652892","wem/bandit_single","AR1IWBDA7MC86","pain","7","","76","L","3","","0","1","0","","0.4651179545","false","130","","0.02330960587","main_expt","","0.4185413006","","0.3731420779","","0.4651179545","","","","","",""
"185","","bandit","206","715181","0.0-168.0-0.0","65652892","wem/bandit_single","AR1IWBDA7MC86","pain","7","","76","L","3","","0","1","0","","0.4794739162","false","131","","0.03495479357","main_expt","","0.4537663544","","0.325638262","","0.4794739162","","","","","",""
"162","","bandit","207","717102","0.0-169.0-0.0","65652892","wem/bandit_single","AR1IWBDA7MC86","pain","7","","76","L","3","","0","1","0","","0.4679846252","false","132","","0.02752519027","main_expt","","0.4489861829","","0.3132782049","","0.4679846252","","","","","",""
"345","","bandit","208","719203","0.0-170.0-0.0","65652892","wem/bandit_single","AR1IWBDA7MC86","pain","7","","76","L","3","","0","0","1","","0.4636487781","false","133","","0.03239645132","main_expt","","0.4465240103","","0.3552481716","","0.4636487781","","","","","",""
"2156","","bandit","209","723115","0.0-171.0-0.0","65652892","wem/bandit_single","AR1IWBDA7MC86","pain","7","","76","L","3","","0","0","1","","0.4578614037","false","134","","0.02361228775","main_expt","","0.4286255731","","0.3478795997","","0.4578614037","","","","","",""
"680","","bandit","210","725553","0.0-172.0-0.0","65652892","wem/bandit_single","AR1IWBDA7MC86","pain","7","","76","L","3","","0","0","1","","0.4339873336","false","135","","0.01378345967","main_expt","","0.3969320342","","0.3394088604","","0.4339873336","","","","","",""
"29","","bandit","211","727337","0.0-173.0-0.0","65652892","wem/bandit_single","AR1IWBDA7MC86","pain","7","","76","L","3","","0","1","0","","0.4091277288","false","136","","0.01349892684","main_expt","","0.3975573163","","0.3739095734","","0.4091277288","","","","","",""
"310","","bandit","212","729405","0.0-174.0-0.0","65652892","wem/bandit_single","AR1IWBDA7MC86","pain","7","","76","L","3","","0","1","0","","0.4024864596","false","137","","0.01373747566","main_expt","","0.4226438881","","0.3319731639","","0.4024864596","","","","","",""
"781","","bandit","213","731943","0.0-175.0-0.0","65652892","wem/bandit_single","AR1IWBDA7MC86","pain","7","","76","L","3","","0","1","0","","0.3793932322","false","138","","0.009346923256","main_expt","","0.383622376","","0.3427854578","","0.3793932322","","","","","",""
"201","","bandit","214","733901","0.0-176.0-0.0","65652892","wem/bandit_single","AR1IWBDA7MC86","pain","7","","76","L","3","","0","0","1","","0.3940691536","false","139","","0.005947695369","main_expt","","0.3892077266","","0.2804250852","","0.3940691536","","","","","",""
"332","","bandit","215","735990","0.0-177.0-0.0","65652892","wem/bandit_single","AR1IWBDA7MC86","pain","7","","76","L","3","","0","0","1","","0.3878174143","false","140","","0.003062149202","main_expt","","0.3721285976","","0.294489168","","0.3878174143","","","","","",""
"79","","bandit","216","737826","0.0-178.0-0.0","65652892","wem/bandit_single","AR1IWBDA7MC86","pain","7","","76","L","3","","0","1","0","","0.3671315422","false","141","","0.003723800288","main_expt","","0.403063379","","0.2849233321","","0.3671315422","","","","","",""
"310","","bandit","217","739895","0.0-179.0-0.0","65652892","wem/bandit_single","AR1IWBDA7MC86","pain","7","","76","L","3","","0","0","1","","0.338830911","false","142","","0.003048460602","main_expt","","0.3916907223","","0.2605380125","","0.338830911","","","","","",""
"49","","bandit","218","741700","0.0-180.0-0.0","65652892","wem/bandit_single","AR1IWBDA7MC86","pain","7","","76","L","3","","0","0","1","","0.2709557481","false","143","","0.002664125267","main_expt","","0.4212357341","","0.3030740536","","0.2709557481","","","","","",""
"44","","bandit","219","743500","0.0-181.0-0.0","65652892","wem/bandit_single","AR1IWBDA7MC86","pain","7","","76","L","3","","0","0","1","","0.249986241","false","144","","0.0015633636","main_expt","","0.3944164323","","0.29766321","","0.249986241","","","","","",""
"145","","bandit","220","745402","0.0-182.0-0.0","65652892","wem/bandit_single","AR1IWBDA7MC86","pain","7","","72","H","0","img/none_selected.jpg","0","0","1","","0.002084593646","false","145","","0.002084593646","main_expt","","0.4129391908","","0.2862291296","","0.2694710106","","","","","",""
"360","","bandit","221","747518","0.0-183.0-0.0","65652892","wem/bandit_single","AR1IWBDA7MC86","pain","7","","72","H","0","img/none_selected.jpg","0","0","1","","0.0008356934022","false","146","","0.0008356934022","main_expt","","0.4027876266","","0.3151642481","","0.3099728414","","","","","",""
"145","","bandit","222","749421","0.0-184.0-0.0","65652892","wem/bandit_single","AR1IWBDA7MC86","pain","7","","74","J","1","","0","0","1","","0.3906291495","false","147","","0.00187417998","main_expt","","0.3906291495","","0.3261334855","","0.3010760093","","","","","",""
"50","","bandit","223","751227","0.0-185.0-0.0","65652892","wem/bandit_single","AR1IWBDA7MC86","pain","7","","74","J","1","","0","0","1","","0.3718958907","false","148","","0.001549413081","main_expt","","0.3718958907","","0.3605999671","","0.2861733563","","","","","",""
"93","","bandit","224","753077","0.0-186.0-0.0","65652892","wem/bandit_single","AR1IWBDA7MC86","pain","7","","75","K","2","","0","1","0","","0.3848975894","false","149","","0.002318569837","main_expt","","0.3513552953","","0.3848975894","","0.2613296644","","","","","",""
"74","","bandit","225","754908","0.0-187.0-0.0","65652892","wem/bandit_single","AR1IWBDA7MC86","pain","7","","75","K","2","","0","0","1","","0.3680345664","false","150","","0.002401941109","main_expt","","0.3796712552","","0.3680345664","","0.2955554784","","","","","",""
"106","","bandit","226","756770","0.0-188.0-0.0","65652892","wem/bandit_single","AR1IWBDA7MC86","pain","7","","75","K","2","","0","0","1","","0.3517559312","false","151","","0.002416650241","main_expt","","0.4275550045","","0.3517559312","","0.2928365899","","","","","",""
"30","","bandit","227","758556","0.0-189.0-0.0","65652892","wem/bandit_single","AR1IWBDA7MC86","pain","7","","75","K","2","","0","1","0","","0.3963282571","false","152","","0.002533271813","main_expt","","0.4266807854","","0.3963282571","","0.3000067833","","","","","",""
"139","","bandit","228","760452","0.0-190.0-0.0","65652892","wem/bandit_single","AR1IWBDA7MC86","pain","7","","75","K","2","","0","1","0","","0.432842039","false","153","","0.00322942279","main_expt","","0.4633151701","","0.432842039","","0.2757802357","","","","","",""
"130","","bandit","229","762338","0.0-191.0-0.0","65652892","wem/bandit_single","AR1IWBDA7MC86","pain","7","","75","K","2","","0","1","0","","0.4134551824","false","154","","0.003404333974","main_expt","","0.4723469507","","0.4134551824","","0.3252288772","","","","","",""
"110","","bandit","230","764206","0.0-192.0-0.0","65652892","wem/bandit_single","AR1IWBDA7MC86","pain","7","","75","K","2","","0","1","0","","0.426737857","false","155","","0.008925030754","main_expt","","0.4829251431","","0.426737857","","0.2746928085","","","","","",""
"75","","bandit","231","766039","0.0-193.0-0.0","65652892","wem/bandit_single","AR1IWBDA7MC86","pain","7","","75","K","2","","0","1","0","","0.4289541051","false","156","","0.005317619152","main_expt","","0.4753947098","","0.4289541051","","0.2881451241","","","","","",""
"155","","bandit","232","767951","0.0-194.0-0.0","65652892","wem/bandit_single","AR1IWBDA7MC86","pain","7","","75","K","2","","0","1","0","","0.4593738684","false","157","","0.002657446392","main_expt","","0.4686295074","","0.4593738684","","0.2861132768","","","","","",""
"45","","bandit","233","769752","0.0-195.0-0.0","65652892","wem/bandit_single","AR1IWBDA7MC86","pain","7","","75","K","2","","0","0","1","","0.4716769587","false","158","","0.005349678466","main_expt","","0.4746137902","","0.4716769587","","0.2382703247","","","","","",""
"73","","bandit","234","771583","0.0-196.0-0.0","65652892","wem/bandit_single","AR1IWBDA7MC86","pain","7","","75","K","2","","0","0","1","","0.4566829936","false","159","","0.00353293949","main_expt","","0.4626257703","","0.4566829936","","0.2650616746","","","","","",""
"308","","bandit","235","773648","0.0-197.0-0.0","65652892","wem/bandit_single","AR1IWBDA7MC86","pain","7","","75","K","2","","0","0","1","","0.4684401337","false","160","","0.004525880368","main_expt","","0.4690497323","","0.4684401337","","0.2841227011","","","","","",""
"162","","bandit","236","775566","0.0-198.0-0.0","65652892","wem/bandit_single","AR1IWBDA7MC86","pain","7","","75","K","2","","0","1","0","","0.4327192474","false","161","","0.00364468733","main_expt","","0.4605728382","","0.4327192474","","0.3103310899","","","","","",""
"126","","bandit","237","777449","0.0-199.0-0.0","65652892","wem/bandit_single","AR1IWBDA7MC86","pain","7","","75","K","2","","0","1","0","","0.4158578039","false","162","","0.004567203872","main_expt","","0.4663204896","","0.4158578039","","0.2990864795","","","","","",""
"239","","bandit","238","779447","0.0-200.0-0.0","65652892","wem/bandit_single","AR1IWBDA7MC86","pain","7","","75","K","2","","0","0","1","","0.4206849782","false","163","","0.003538815","main_expt","","0.4626626357","","0.4206849782","","0.2650304997","","","","","",""
"74","","bandit","239","781277","0.0-201.0-0.0","65652892","wem/bandit_single","AR1IWBDA7MC86","pain","7","","75","K","2","","0","1","0","","0.4276923589","false","164","","0.002896615325","main_expt","","0.4672680551","","0.4276923589","","0.2877519924","","","","","",""
"50","","bandit","240","783084","0.0-202.0-0.0","65652892","wem/bandit_single","AR1IWBDA7MC86","pain","7","","75","K","2","","0","0","1","","0.4204466813","false","165","","0.004500484281","main_expt","","0.455015491","","0.4204466813","","0.2818109827","","","","","",""
"80","","bandit","241","784920","0.0-203.0-0.0","65652892","wem/bandit_single","AR1IWBDA7MC86","pain","7","","76","L","3","","0","1","0","","0.324785045","false","166","","0.01017739848","main_expt","","0.4201800218","","0.4229734844","","0.324785045","","","","","",""
"30","","bandit","242","786706","0.0-204.0-0.0","65652892","wem/bandit_single","AR1IWBDA7MC86","pain","7","","76","L","3","","0","0","1","","0.3339304688","false","167","","0.0129517719","main_expt","","0.4430085171","","0.4474449943","","0.3339304688","","","","","",""
"23","","bandit","243","788486","0.0-205.0-0.0","65652892","wem/bandit_single","AR1IWBDA7MC86","pain","7","","76","L","3","","0","0","1","","0.3351003476","false","168","","0.009045291763","main_expt","","0.4526671473","","0.4458086367","","0.3351003476","","","","","",""
"96","","bandit","244","790339","0.0-206.0-0.0","65652892","wem/bandit_single","AR1IWBDA7MC86","pain","7","","76","L","3","","0","0","1","","0.3556935824","false","169","","0.01553154223","main_expt","","0.4477525289","","0.4619433307","","0.3556935824","","","","","",""
"123","","bandit","245","792220","0.0-207.0-0.0","65652892","wem/bandit_single","AR1IWBDA7MC86","pain","7","","75","K","2","","0","0","1","","0.4703570947","false","170","","0.01787531072","main_expt","","0.41154262","","0.4703570947","","0.3690608098","","","","","",""
"4","","bandit","246","793983","0.0-208.0-0.0","65652892","wem/bandit_single","AR1IWBDA7MC86","pain","7","","75","K","2","","0","1","0","","0.474742395","false","171","","0.01316551092","main_expt","","0.37868858","","0.474742395","","0.3631266209","","","","","",""
"146","","bandit","247","795885","0.0-209.0-0.0","65652892","wem/bandit_single","AR1IWBDA7MC86","pain","7","","75","K","2","","0","0","1","","0.4773845315","false","172","","0.0172037691","main_expt","","0.3971498268","","0.4773845315","","0.3392191481","","","","","",""
"1","","bandit","248","797645","0.0-210.0-0.0","65652892","wem/bandit_single","AR1IWBDA7MC86","pain","7","","75","K","2","","0","1","0","","0.4680058345","false","173","","0.01427011775","main_expt","","0.4319579383","","0.4680058345","","0.2931772585","","","","","",""
"113","","bandit","249","799517","0.0-211.0-0.0","65652892","wem/bandit_single","AR1IWBDA7MC86","pain","7","","75","K","2","","0","0","1","","0.4561145842","false","174","","0.01057019218","main_expt","","0.4174714043","","0.4561145842","","0.2750831853","","","","","",""
"170","","bandit","250","801444","0.0-212.0-0.0","65652892","wem/bandit_single","AR1IWBDA7MC86","pain","7","","75","K","2","","0","0","1","","0.472279608","false","175","","0.007255369755","main_expt","","0.3846013355","","0.472279608","","0.2997345097","","","","","",""
"147","","bandit","251","803348","0.0-213.0-0.0","65652892","wem/bandit_single","AR1IWBDA7MC86","pain","7","","75","K","2","","0","1","0","","0.4602447812","false","176","","0.01305273867","main_expt","","0.4019342833","","0.4602447812","","0.3402413884","","","","","",""
"193","","bandit","252","805301","0.0-214.0-0.0","65652892","wem/bandit_single","AR1IWBDA7MC86","pain","7","","75","K","2","","0","1","0","","0.4343313091","false","177","","0.0133150908","main_expt","","0.4211485366","","0.4343313091","","0.3099882557","","","","","",""
"144","","bandit","253","807202","0.0-215.0-0.0","65652892","wem/bandit_single","AR1IWBDA7MC86","pain","7","","75","K","2","","0","0","1","","0.4048428007","false","178","","0.01259822705","main_expt","","0.4133977621","","0.4048428007","","0.2761175095","","","","","",""
"113","","bandit","254","809072","0.0-216.0-0.0","65652892","wem/bandit_single","AR1IWBDA7MC86","pain","7","","75","K","2","","0","0","1","","0.3826353834","false","179","","0.008971211221","main_expt","","0.4395013083","","0.3826353834","","0.3053987856","","","","","",""
"106","","bandit","255","810936","0.0-217.0-0.0","65652892","wem/bandit_single","AR1IWBDA7MC86","pain","7","","75","K","2","","0","0","1","","0.3352628501","false","180","","0.01053614943","main_expt","","0.4385200931","","0.3352628501","","0.291880519","","","","","",""
"65","","bandit","256","812758","0.0-218.0-0.0","65652892","wem/bandit_single","AR1IWBDA7MC86","pain","7","","74","J","1","","0","0","1","","0.4225113135","false","181","","0.01184041186","main_expt","","0.4225113135","","0.2990499081","","0.298429346","","","","","",""
"31","","bandit","257","814548","0.0-219.0-0.0","65652892","wem/bandit_single","AR1IWBDA7MC86","pain","7","","74","J","1","","0","0","1","","0.3723799893","false","182","","0.03042574256","main_expt","","0.3723799893","","0.3698835663","","0.3343264324","","","","","",""
"139","","bandit","258","816445","0.0-220.0-0.0","65652892","wem/bandit_single","AR1IWBDA7MC86","pain","7","","72","H","0","img/none_selected.jpg","0","0","1","","0.03286829004","false","183","","0.03286829004","main_expt","","0.3790924375","","0.3849917371","","0.2890729732","","","","","",""
"231","","bandit","259","818433","0.0-221.0-0.0","65652892","wem/bandit_single","AR1IWBDA7MC86","pain","7","","72","H","0","img/none_selected.jpg","0","0","1","","0.05565884368","false","184","","0.05565884368","main_expt","","0.4122006093","","0.3560661239","","0.1975841231","","","","","",""
"139","","bandit","260","820330","0.0-222.0-0.0","65652892","wem/bandit_single","AR1IWBDA7MC86","pain","7","","75","K","2","","0","0","1","","0.3637043243","false","185","","0.05703602855","main_expt","","0.3681720139","","0.3637043243","","0.213981158","","","","","",""
"3","","bandit","261","822090","0.0-223.0-0.0","65652892","wem/bandit_single","AR1IWBDA7MC86","pain","7","","76","L","3","","0","0","1","","0.1690135127","false","186","","0.08167625523","main_expt","","0.3735732413","","0.370254809","","0.1690135127","","","","","",""
"64","","bandit","262","823913","0.0-224.0-0.0","65652892","wem/bandit_single","AR1IWBDA7MC86","pain","7","","75","K","2","","0","0","1","","0.3451477914","false","187","","0.08146612985","main_expt","","0.3763431734","","0.3451477914","","0.2606776113","","","","","",""
"46","","bandit","263","825716","0.0-225.0-0.0","65652892","wem/bandit_single","AR1IWBDA7MC86","pain","7","","76","L","3","","0","1","0","","0.2431197375","false","188","","0.09365986726","main_expt","","0.3515668436","","0.3939300048","","0.2431197375","","","","","",""
"11","","bandit","264","827484","0.0-226.0-0.0","65652892","wem/bandit_single","AR1IWBDA7MC86","pain","7","","76","L","3","","0","0","1","","0.2308206277","false","189","","0.09268069957","main_expt","","0.3343836861","","0.4136030152","","0.2308206277","","","","","",""
"85","","bandit","265","829326","0.0-227.0-0.0","65652892","wem/bandit_single","AR1IWBDA7MC86","pain","7","","76","L","3","","0","0","1","","0.2025271702","false","190","","0.08594859785","main_expt","","0.2525345787","","0.4261376259","","0.2025271702","","","","","",""
"101","","bandit","266","831186","0.0-228.0-0.0","65652892","wem/bandit_single","AR1IWBDA7MC86","pain","7","","75","K","2","","0","0","1","","0.3908696756","false","191","","0.08932588753","main_expt","","0.2685183708","","0.3908696756","","0.2751540988","","","","","",""
"183","","bandit","267","833125","0.0-229.0-0.0","65652892","wem/bandit_single","AR1IWBDA7MC86","pain","7","","74","J","1","","0","0","1","","0.2572514827","false","192","","0.1064261942","main_expt","","0.2572514827","","0.4106222578","","0.2569606715","","","","","",""
"168","","bandit","268","835050","0.0-230.0-0.0","65652892","wem/bandit_single","AR1IWBDA7MC86","pain","7","","72","H","0","img/none_selected.jpg","0","1","0","","0.1536879749","false","193","","0.1536879749","main_expt","","0.1969756064","","0.4282135821","","0.2874900681","","","","","",""
"68","","bandit","269","836874","0.0-231.0-0.0","65652892","wem/bandit_single","AR1IWBDA7MC86","pain","7","","72","H","0","img/none_selected.jpg","0","0","1","","0.1389913839","false","194","","0.1389913839","main_expt","","0.2134952627","","0.4423695223","","0.1735349233","","","","","",""
"147","","bandit","270","838780","0.0-232.0-0.0","65652892","wem/bandit_single","AR1IWBDA7MC86","pain","7","","72","H","0","img/none_selected.jpg","0","0","1","","0.1439418744","false","195","","0.1439418744","main_expt","","0.1620875807","","0.4594299266","","0.1922880567","","","","","",""
"127","","bandit","271","840664","0.0-233.0-0.0","65652892","wem/bandit_single","AR1IWBDA7MC86","pain","7","","72","H","0","img/none_selected.jpg","0","0","1","","0.131143091","false","196","","0.131143091","main_expt","","0.166822232","","0.4446405127","","0.180833075","","","","","",""
"138","","bandit","272","842559","0.0-234.0-0.0","65652892","wem/bandit_single","AR1IWBDA7MC86","pain","7","","75","K","2","","0","1","0","","0.4559667881","false","197","","0.1358316141","main_expt","","0.1951417713","","0.4559667881","","0.2213655201","","","","","",""
"170","","bandit","273","844487","0.0-235.0-0.0","65652892","wem/bandit_single","AR1IWBDA7MC86","pain","7","","75","K","2","","0","0","1","","0.4760465659","false","198","","0.1271866158","main_expt","","0.1946571809","","0.4760465659","","0.1886922679","","","","","",""
"28","","bandit","274","846274","0.0-236.0-0.0","65652892","wem/bandit_single","AR1IWBDA7MC86","pain","7","","75","K","2","","0","1","0","","0.4682530898","false","199","","0.1427164763","main_expt","","0.125569753","","0.4682530898","","0.1960792333","","","","","",""
"27","","bandit","275","848059","0.0-237.0-0.0","65652892","wem/bandit_single","AR1IWBDA7MC86","pain","7","","75","K","2","","0","1","0","","0.4722721777","false","200","","0.1465126473","main_expt","","0.110010897","","0.4722721777","","0.2093645874","","","","","",""
"170","","bandit","276","849989","0.0-238.0-0.0","65652892","wem/bandit_single","AR1IWBDA7MC86","pain","7","","75","K","2","","0","0","1","","0.4739800601","false","201","","0.1271257608","main_expt","","0.1280762957","","0.4739800601","","0.1673165995","","","","","",""
"23","","bandit","277","851768","0.0-239.0-0.0","65652892","wem/bandit_single","AR1IWBDA7MC86","pain","7","","75","K","2","","0","1","0","","0.479726886","false","202","","0.08657179739","main_expt","","0.1402913484","","0.479726886","","0.2086438453","","","","","",""
"157","","bandit","278","853682","0.0-240.0-0.0","65652892","wem/bandit_single","AR1IWBDA7MC86","pain","7","","75","K","2","","0","0","1","","0.4642372742","false","203","","0.09313456927","main_expt","","0.2217412738","","0.4642372742","","0.1973992815","","","","","",""
"40","","bandit","279","855479","0.0-241.0-0.0","65652892","wem/bandit_single","AR1IWBDA7MC86","pain","7","","75","K","2","","0","1","0","","0.4560882558","false","204","","0.1497906572","main_expt","","0.2231628045","","0.4560882558","","0.2256674954","","","","","",""
"203","","bandit","280","857438","0.0-242.0-0.0","65652892","wem/bandit_single","AR1IWBDA7MC86","pain","7","","75","K","2","","0","1","0","","0.4525737262","false","205","","0.1829644856","main_expt","","0.2170181201","","0.4525737262","","0.2163874892","","","","","",""
"102","","bandit","281","859300","0.0-243.0-0.0","65652892","wem/bandit_single","AR1IWBDA7MC86","pain","7","","75","K","2","","0","1","0","","0.4550624295","false","206","","0.1612057882","main_expt","","0.2796725078","","0.4550624295","","0.2197086186","","","","","",""
"17","","bandit","282","861073","0.0-244.0-0.0","65652892","wem/bandit_single","AR1IWBDA7MC86","pain","7","","75","K","2","","0","0","1","","0.4723612306","false","207","","0.1697938272","main_expt","","0.2817680811","","0.4723612306","","0.2065154411","","","","","",""
"211","","bandit","283","863043","0.0-245.0-0.0","65652892","wem/bandit_single","AR1IWBDA7MC86","pain","7","","75","K","2","","0","1","0","","0.4766034411","false","208","","0.1559958766","main_expt","","0.2823403198","","0.4766034411","","0.1685179651","","","","","",""
"171","","bandit","284","864973","0.0-246.0-0.0","65652892","wem/bandit_single","AR1IWBDA7MC86","pain","7","","75","K","2","","0","1","0","","0.483515399","false","209","","0.1446830505","main_expt","","0.3618902866","","0.483515399","","0.138461816","","","","","",""
"86","","bandit","285","866816","0.0-247.0-0.0","65652892","wem/bandit_single","AR1IWBDA7MC86","pain","7","","75","K","2","","0","1","0","","0.4880418707","false","210","","0.1231196185","main_expt","","0.373554641","","0.4880418707","","0.1494322788","","","","","",""
"74","","bandit","286","868646","0.0-248.0-0.0","65652892","wem/bandit_single","AR1IWBDA7MC86","pain","7","","75","K","2","","0","1","0","","0.4802592994","false","211","","0.1456244431","main_expt","","0.4160488284","","0.4802592994","","0.1799359977","","","","","",""
"59","","bandit","287","870463","0.0-249.0-0.0","65652892","wem/bandit_single","AR1IWBDA7MC86","pain","7","","75","K","2","","0","0","1","","0.4738887763","false","212","","0.1656867557","main_expt","","0.381710399","","0.4738887763","","0.1810857181","","","","","",""
"214","","bandit","288","872433","0.0-250.0-0.0","65652892","wem/bandit_single","AR1IWBDA7MC86","pain","7","","75","K","2","","0","0","1","","0.4808850683","false","213","","0.224977978","main_expt","","0.3769148707","","0.4808850683","","0.1615137558","","","","","",""
"47","","bandit","289","874237","0.0-251.0-0.0","65652892","wem/bandit_single","AR1IWBDA7MC86","pain","7","","75","K","2","","0","1","0","","0.4825694391","false","214","","0.307554285","main_expt","","0.3476207329","","0.4825694391","","0.1650702933","","","","","",""
"141","","bandit","290","876136","0.0-252.0-0.0","65652892","wem/bandit_single","AR1IWBDA7MC86","pain","7","","75","K","2","","0","1","0","","0.4847107186","false","215","","0.3638187162","main_expt","","0.3089741626","","0.4847107186","","0.1804791034","","","","","",""
"197","","bandit","291","878089","0.0-253.0-0.0","65652892","wem/bandit_single","AR1IWBDA7MC86","pain","7","","75","K","2","","0","0","1","","0.4809007894","false","216","","0.3543809852","main_expt","","0.3674618518","","0.4809007894","","0.1573161505","","","","","",""
"5","","bandit","292","879851","0.0-254.0-0.0","65652892","wem/bandit_single","AR1IWBDA7MC86","pain","7","","75","K","2","","0","1","0","","0.4741770765","false","217","","0.3301156576","main_expt","","0.3283657719","","0.4741770765","","0.1434716653","","","","","",""
"146","","bandit","293","881753","0.0-255.0-0.0","65652892","wem/bandit_single","AR1IWBDA7MC86","pain","7","","75","K","2","","0","0","1","","0.4819245576","false","218","","0.3132999057","main_expt","","0.3302734852","","0.4819245576","","0.1911838451","","","","","",""
"86","","bandit","294","883596","0.0-256.0-0.0","65652892","wem/bandit_single","AR1IWBDA7MC86","pain","7","","75","K","2","","0","0","1","","0.4793241995","false","219","","0.2205266592","main_expt","","0.3554571327","","0.4793241995","","0.1441129831","","","","","",""
"137","","bandit","295","885490","0.0-257.0-0.0","65652892","wem/bandit_single","AR1IWBDA7MC86","pain","7","","75","K","2","","0","1","0","","0.4713672071","false","220","","0.2167078271","main_expt","","0.319330444","","0.4713672071","","0.1920309772","","","","","",""
"110","","bandit","296","887357","0.0-258.0-0.0","65652892","wem/bandit_single","AR1IWBDA7MC86","pain","7","","75","K","2","","0","1","0","","0.4728071858","false","221","","0.2038989409","main_expt","","0.3105046037","","0.4728071858","","0.1770810464","","","","","",""
"145","","bandit","297","889260","0.0-259.0-0.0","65652892","wem/bandit_single","AR1IWBDA7MC86","pain","7","","75","K","2","","0","0","1","","0.4742115633","false","222","","0.18760722","main_expt","","0.2971369975","","0.4742115633","","0.1726735039","","","","","",""
"56","","bandit","298","891073","0.0-260.0-0.0","65652892","wem/bandit_single","AR1IWBDA7MC86","pain","7","","75","K","2","","0","0","1","","0.4606319974","false","223","","0.1794058889","main_expt","","0.2924153056","","0.4606319974","","0.1935596247","","","","","",""
"90","","bandit","299","892921","0.0-261.0-0.0","65652892","wem/bandit_single","AR1IWBDA7MC86","pain","7","","75","K","2","","0","1","0","","0.4796626282","false","224","","0.1973287288","main_expt","","0.3251713444","","0.4796626282","","0.184290804","","","","","",""
"129","","bandit","300","894808","0.0-262.0-0.0","65652892","wem/bandit_single","AR1IWBDA7MC86","pain","7","","75","K","2","","0","1","0","","0.4770938662","false","225","","0.1657141015","main_expt","","0.3191667618","","0.4770938662","","0.1182631535","","","","","",""
"221","","bandit","301","896788","0.0-263.0-0.0","65652892","wem/bandit_single","AR1IWBDA7MC86","pain","7","","75","K","2","","0","1","0","","0.4753940461","false","226","","0.1333985498","main_expt","","0.3163975521","","0.4753940461","","0.1243406576","","","","","",""
"162","","bandit","302","898707","0.0-264.0-0.0","65652892","wem/bandit_single","AR1IWBDA7MC86","pain","7","","75","K","2","","0","1","0","","0.4692559414","false","227","","0.1426718429","main_expt","","0.3153023093","","0.4692559414","","0.1887705619","","","","","",""
"204","","bandit","303","900669","0.0-265.0-0.0","65652892","wem/bandit_single","AR1IWBDA7MC86","pain","7","","75","K","2","","0","0","1","","0.4549715312","false","228","","0.1510234048","main_expt","","0.252814401","","0.4549715312","","0.1594511678","","","","","",""
"17","","bandit","304","902444","0.0-266.0-0.0","65652892","wem/bandit_single","AR1IWBDA7MC86","pain","7","","75","K","2","","0","0","1","","0.4818432606","false","229","","0.1786638104","main_expt","","0.2830586582","","0.4818432606","","0.1582092687","","","","","",""
"41","","bandit","305","904243","0.0-267.0-0.0","65652892","wem/bandit_single","AR1IWBDA7MC86","pain","7","","75","K","2","","0","1","0","","0.4542350274","false","230","","0.1564383184","main_expt","","0.2124451555","","0.4542350274","","0.149178519","","","","","",""
"124","","bandit","306","906129","0.0-268.0-0.0","65652892","wem/bandit_single","AR1IWBDA7MC86","pain","7","","75","K","2","","0","0","1","","0.4646494747","false","231","","0.1398607303","main_expt","","0.1175217461","","0.4646494747","","0.2063022429","","","","","",""
"180","","bandit","307","908067","0.0-269.0-0.0","65652892","wem/bandit_single","AR1IWBDA7MC86","pain","7","","75","K","2","","0","0","1","","0.4617677548","false","232","","0.1323980205","main_expt","","0.144677577","","0.4617677548","","0.2424934828","","","","","",""
"229","","bandit","308","910055","0.0-270.0-0.0","65652892","wem/bandit_single","AR1IWBDA7MC86","pain","7","","75","K","2","","0","1","0","","0.4535872836","false","233","","0.1510374747","main_expt","","0.1555092754","","0.4535872836","","0.2404462099","","","","","",""
"217","","bandit","309","912028","0.0-271.0-0.0","65652892","wem/bandit_single","AR1IWBDA7MC86","pain","7","","75","K","2","","0","0","1","","0.4297764401","false","234","","0.133247495","main_expt","","0.1250762939","","0.4297764401","","0.1830028502","","","","","",""
"61","","bandit","310","913848","0.0-272.0-0.0","65652892","wem/bandit_single","AR1IWBDA7MC86","pain","7","","72","H","0","img/none_selected.jpg","0","0","1","","0.1666928205","false","235","","0.1666928205","main_expt","","0.1094925358","","0.4335441617","","0.2197419317","","","","","",""
"62","","bandit","311","915667","0.0-273.0-0.0","65652892","wem/bandit_single","AR1IWBDA7MC86","pain","7","","72","H","0","img/none_selected.jpg","0","1","0","","0.1772374327","false","236","","0.1772374327","main_expt","","0.09099935704","","0.4390497594","","0.2537285896","","","","","",""
"81","","bandit","312","917505","0.0-274.0-0.0","65652892","wem/bandit_single","AR1IWBDA7MC86","pain","7","","72","H","0","img/none_selected.jpg","0","0","1","","0.2093850131","false","237","","0.2093850131","main_expt","","0.07445530481","","0.4557250369","","0.2967198922","","","","","",""
"7","","bandit","313","919272","0.0-275.0-0.0","65652892","wem/bandit_single","AR1IWBDA7MC86","pain","7","","72","H","0","img/none_selected.jpg","0","0","1","","0.2323540058","false","238","","0.2323540058","main_expt","","0.1160826651","","0.4712934341","","0.2716881628","","","","","",""
"118","","bandit","314","921148","0.0-276.0-0.0","65652892","wem/bandit_single","AR1IWBDA7MC86","pain","7","","75","K","2","","0","1","0","","0.4744109467","false","239","","0.2527052166","main_expt","","0.1935594103","","0.4744109467","","0.2840113657","","","","","",""
"66","","bandit","315","922971","0.0-277.0-0.0","65652892","wem/bandit_single","AR1IWBDA7MC86","pain","7","","75","K","2","","0","1","0","","0.4856904038","false","240","","0.2429338356","main_expt","","0.2305108235","","0.4856904038","","0.3274134878","","","","","",""
"77","","bandit","316","924806","0.0-278.0-0.0","65652892","wem/bandit_single","AR1IWBDA7MC86","pain","7","","75","K","2","","0","0","1","","0.474377245","false","241","","0.2422046893","main_expt","","0.23744922","","0.474377245","","0.3106351565","","","","","",""
"146","","bandit","317","926711","0.0-279.0-0.0","65652892","wem/bandit_single","AR1IWBDA7MC86","pain","7","","75","K","2","","0","1","0","","0.4699498903","false","242","","0.1974588069","main_expt","","0.2644088126","","0.4699498903","","0.276301991","","","","","",""
"143","","bandit","318","928612","0.0-280.0-0.0","65652892","wem/bandit_single","AR1IWBDA7MC86","pain","7","","75","K","2","","0","1","0","","0.4696131401","false","243","","0.1697106736","main_expt","","0.3029471314","","0.4696131401","","0.2682550828","","","","","",""
"100","","bandit","319","930471","0.0-281.0-0.0","65652892","wem/bandit_single","AR1IWBDA7MC86","pain","7","","75","K","2","","0","1","0","","0.4519085084","false","244","","0.1495066821","main_expt","","0.2869027424","","0.4519085084","","0.2717267912","","","","","",""
"94","","bandit","320","932324","0.0-282.0-0.0","65652892","wem/bandit_single","AR1IWBDA7MC86","pain","7","","75","K","2","","0","1","0","","0.4620487724","false","245","","0.1664551864","main_expt","","0.2928347339","","0.4620487724","","0.2480355477","","","","","",""
"187","","bandit","321","934271","0.0-283.0-0.0","65652892","wem/bandit_single","AR1IWBDA7MC86","pain","7","","75","K","2","","0","0","1","","0.4553277256","false","246","","0.1660340973","main_expt","","0.2537870262","","0.4553277256","","0.2978011657","","","","","",""
"14","","bandit","322","936042","0.0-284.0-0.0","65652892","wem/bandit_single","AR1IWBDA7MC86","pain","7","","75","K","2","","0","1","0","","0.4470790686","false","247","","0.2232834288","main_expt","","0.220788829","","0.4470790686","","0.3183795364","","","","","",""
"81","","bandit","323","937881","0.0-285.0-0.0","65652892","wem/bandit_single","AR1IWBDA7MC86","pain","7","","75","K","2","","0","1","0","","0.4370243233","false","248","","0.2337066106","main_expt","","0.2260039815","","0.4370243233","","0.3496285813","","","","","",""
"208","","bandit","324","939846","0.0-286.0-0.0","65652892","wem/bandit_single","AR1IWBDA7MC86","pain","7","","75","K","2","","0","1","0","","0.4344986606","false","249","","0.2555848542","main_expt","","0.2536259712","","0.4344986606","","0.3450691196","","","","","",""
"49","","bandit","325","941654","0.0-287.0-0.0","65652892","wem/bandit_single","AR1IWBDA7MC86","pain","7","","75","K","2","","0","1","0","","0.4418367533","false","250","","0.2423579198","main_expt","","0.2748463286","","0.4418367533","","0.3451339369","","","","","",""
"100","","bandit","326","943512","0.0-288.0-0.0","65652892","wem/bandit_single","AR1IWBDA7MC86","pain","7","","75","K","2","","0","1","0","","0.4227475224","false","251","","0.2275025436","main_expt","","0.2623633266","","0.4227475224","","0.3928119302","","","","","",""
"111","","bandit","327","945379","0.0-289.0-0.0","65652892","wem/bandit_single","AR1IWBDA7MC86","pain","7","","75","K","2","","0","1","0","","0.423648384","false","252","","0.2868871138","main_expt","","0.3173920108","","0.423648384","","0.3926241496","","","","","",""
"117","","bandit","328","947256","0.0-290.0-0.0","65652892","wem/bandit_single","AR1IWBDA7MC86","pain","7","","75","K","2","","0","0","1","","0.4321428437","false","253","","0.2719675916","main_expt","","0.3172059241","","0.4321428437","","0.4074069762","","","","","",""
"190","","bandit","329","949204","0.0-291.0-0.0","65652892","wem/bandit_single","AR1IWBDA7MC86","pain","7","","75","K","2","","0","0","1","","0.4621147124","false","254","","0.3118638267","main_expt","","0.3200237469","","0.4621147124","","0.3831412703","","","","","",""
"116","","bandit","330","951078","0.0-292.0-0.0","65652892","wem/bandit_single","AR1IWBDA7MC86","pain","7","","75","K","2","","0","1","0","","0.4586218194","false","255","","0.2103897122","main_expt","","0.3358809316","","0.4586218194","","0.3639457665","","","","","",""
"188","","bandit","331","953024","0.0-293.0-0.0","65652892","wem/bandit_single","AR1IWBDA7MC86","pain","7","","75","K","2","","0","0","1","","0.4661438042","false","256","","0.2053105091","main_expt","","0.3288682213","","0.4661438042","","0.3353936822","","","","","",""
"107","","bandit","332","954889","0.0-294.0-0.0","65652892","wem/bandit_single","AR1IWBDA7MC86","pain","7","","75","K","2","","0","0","1","","0.4746145216","false","257","","0.2101260802","main_expt","","0.3298558235","","0.4746145216","","0.3457786028","","","","","",""
"79","","bandit","333","956726","0.0-295.0-0.0","65652892","wem/bandit_single","AR1IWBDA7MC86","pain","7","","75","K","2","","0","0","1","","0.479590246","false","258","","0.251470712","main_expt","","0.3544886593","","0.479590246","","0.3336199161","","","","","",""
"47","","bandit","334","958532","0.0-296.0-0.0","65652892","wem/bandit_single","AR1IWBDA7MC86","pain","7","","75","K","2","","0","1","0","","0.4543592645","false","259","","0.2320991284","main_expt","","0.3380036538","","0.4543592645","","0.3182937175","","","","","",""
"7","","bandit","335","960298","0.0-297.0-0.0","65652892","wem/bandit_single","AR1IWBDA7MC86","pain","7","","75","K","2","","0","1","0","","0.4591910344","false","260","","0.2850429488","main_expt","","0.2797544445","","0.4591910344","","0.3004718715","","","","","",""
"4","","bandit","336","962061","0.0-298.0-0.0","65652892","wem/bandit_single","AR1IWBDA7MC86","pain","7","","75","K","2","","0","0","1","","0.4416244086","false","261","","0.3396488321","main_expt","","0.2594239605","","0.4416244086","","0.2969538951","","","","","",""
"126","","bandit","337","963945","0.0-299.0-0.0","65652892","wem/bandit_single","AR1IWBDA7MC86","pain","7","","75","K","2","","0","0","1","","0.410126596","false","262","","0.243241633","main_expt","","0.2804023839","","0.410126596","","0.336502974","","","","","",""
"128","","bandit","338","965832","0.0-300.0-0.0","65652892","wem/bandit_single","AR1IWBDA7MC86","pain","7","","75","K","2","","0","0","1","","0.3852167719","false","263","","0.221101122","main_expt","","0.2526654216","","0.3852167719","","0.3417757729","","","","","",""
"160","","bandit","339","967749","0.0-301.0-0.0","65652892","wem/bandit_single","AR1IWBDA7MC86","pain","7","","76","L","3","","0","1","0","","0.3288238543","false","264","","0.2475963948","main_expt","","0.2262009497","","0.4048243192","","0.3288238543","","","","","",""
"233","","bandit","340","969740","0.0-302.0-0.0","65652892","wem/bandit_single","AR1IWBDA7MC86","pain","7","","76","L","3","","0","0","1","","0.2661945806","false","265","","0.2472156829","main_expt","","0.2111455706","","0.3671025299","","0.2661945806","","","","","",""
"66","","bandit","341","971566","0.0-303.0-0.0","65652892","wem/bandit_single","AR1IWBDA7MC86","pain","7","","76","L","3","","0","0","1","","0.2831053071","false","266","","0.2257792125","main_expt","","0.1816972253","","0.366792141","","0.2831053071","","","","","",""
"60","","bandit","342","973384","0.0-304.0-0.0","65652892","wem/bandit_single","AR1IWBDA7MC86","pain","7","","72","H","0","img/none_selected.jpg","0","0","1","","0.2434052149","false","267","","0.2434052149","main_expt","","0.08996407949","","0.3187551676","","0.2814616526","","","","","",""
"62","","bandit","343","975204","0.0-305.0-0.0","65652892","wem/bandit_single","AR1IWBDA7MC86","pain","7","","74","J","1","","0","0","1","","0.08316088703","false","268","","0.2472891614","main_expt","","0.08316088703","","0.2992927481","","0.2698532634","","","","","",""
"123","","bandit","344","977086","0.0-306.0-0.0","65652892","wem/bandit_single","AR1IWBDA7MC86","pain","7","","75","K","2","","0","0","1","","0.3158706852","false","269","","0.2592343403","main_expt","","0.132755096","","0.3158706852","","0.332936287","","","","","",""
"176","","bandit","345","979020","0.0-307.0-0.0","65652892","wem/bandit_single","AR1IWBDA7MC86","pain","7","","75","K","2","","0","1","0","","0.3399881701","false","270","","0.2626766442","main_expt","","0.1295257529","","0.3399881701","","0.3520051328","","","","","",""
"12","","bandit","346","980790","0.0-308.0-0.0","65652892","wem/bandit_single","AR1IWBDA7MC86","pain","7","","75","K","2","","0","0","1","","0.3425846673","false","271","","0.2889536683","main_expt","","0.1243547369","","0.3425846673","","0.319936882","","","","","",""
"146","","bandit","347","982695","0.0-309.0-0.0","65652892","wem/bandit_single","AR1IWBDA7MC86","pain","7","","75","K","2","","0","1","0","","0.3661992365","false","272","","0.3519527746","main_expt","","0.1129401117","","0.3661992365","","0.3526338178","","","","","",""
"1","","bandit","348","984454","0.0-310.0-0.0","65652892","wem/bandit_single","AR1IWBDA7MC86","pain","7","","75","K","2","","0","0","1","","0.3548292996","false","273","","0.3142239271","main_expt","","0.07602588951","","0.3548292996","","0.3661190652","","","","","",""
"197","","bandit","349","986411","0.0-311.0-0.0","65652892","wem/bandit_single","AR1IWBDA7MC86","pain","7","","75","K","2","","0","1","0","","0.3015993901","false","274","","0.2858465014","main_expt","","0.08326080211","","0.3015993901","","0.3531355024","","","","","",""
"87","","bandit","350","988255","0.0-312.0-0.0","65652892","wem/bandit_single","AR1IWBDA7MC86","pain","7","","75","K","2","","0","1","0","","0.3074537736","false","275","","0.2833142968","main_expt","","0.1117875064","","0.3074537736","","0.3710682781","","","","","",""
"206","","bandit","351","990221","0.0-313.0-0.0","65652892","wem/bandit_single","AR1IWBDA7MC86","pain","7","","75","K","2","","0","0","1","","0.2995557441","false","276","","0.303505508","main_expt","","0.1087564456","","0.2995557441","","0.3039620657","","","","","",""
"43","","bandit","352","992022","0.0-314.0-0.0","65652892","wem/bandit_single","AR1IWBDA7MC86","pain","7","","75","K","2","","0","0","1","","0.3372524479","false","277","","0.2503405658","main_expt","","0.1402577261","","0.3372524479","","0.3661174243","","","","","",""
"34","","bandit","353","993815","0.0-315.0-0.0","65652892","wem/bandit_single","AR1IWBDA7MC86","pain","7","","75","K","2","","0","0","1","","0.3941332117","false","278","","0.2575241406","main_expt","","0.1639331241","","0.3941332117","","0.3603903852","","","","","",""
"43","","bandit","354","995615","0.0-316.0-0.0","65652892","wem/bandit_single","AR1IWBDA7MC86","pain","7","","75","K","2","","0","1","0","","0.369807449","false","279","","0.2537993043","main_expt","","0.08855821706","","0.369807449","","0.3865241344","","","","","",""
"224","","bandit","355","997596","0.0-317.0-0.0","65652892","wem/bandit_single","AR1IWBDA7MC86","pain","7","","75","K","2","","0","0","1","","0.3726167961","false","280","","0.1734094061","main_expt","","0.1116659285","","0.3726167961","","0.3941828848","","","","","",""
"28","","bandit","356","999385","0.0-318.0-0.0","65652892","wem/bandit_single","AR1IWBDA7MC86","pain","7","","75","K","2","","0","0","1","","0.3849966858","false","281","","0.1846732939","main_expt","","0.1032088387","","0.3849966858","","0.4060440919","","","","","",""
"334","","bandit","357","1001477","0.0-319.0-0.0","65652892","wem/bandit_single","AR1IWBDA7MC86","pain","7","","76","L","3","","0","0","1","","0.3855255831","false","282","","0.1808782366","main_expt","","0.1449157137","","0.4081920515","","0.3855255831","","","","","",""
"143","","bandit","358","1003378","0.0-320.0-0.0","65652892","wem/bandit_single","AR1IWBDA7MC86","pain","7","","76","L","3","","0","0","1","","0.3694157076","false","283","","0.1375342675","main_expt","","0.1649674285","","0.3930572229","","0.3694157076","","","","","",""
"2","","bandit","359","1005139","0.0-321.0-0.0","65652892","wem/bandit_single","AR1IWBDA7MC86","pain","7","","72","H","0","img/none_selected.jpg","0","0","1","","0.1029306966","false","284","","0.1029306966","main_expt","","0.1373277791","","0.379410926","","0.4137550783","","","","","",""
"176","","bandit","360","1007072","0.0-322.0-0.0","65652892","wem/bandit_single","AR1IWBDA7MC86","pain","7","","74","J","1","","0","0","1","","0.1616488504","false","285","","0.08821361919","main_expt","","0.1616488504","","0.3947179778","","0.4268254387","","","","","",""
"101","","bandit","361","1008931","0.0-323.0-0.0","65652892","wem/bandit_single","AR1IWBDA7MC86","pain","7","","75","K","2","","0","0","1","","0.4036344472","false","286","","0.08321279743","main_expt","","0.1306737704","","0.4036344472","","0.4115685589","","","","","",""
"268","","bandit","362","1010956","0.0-324.0-0.0","65652892","wem/bandit_single","AR1IWBDA7MC86","pain","7","","75","K","2","","0","0","1","","0.4025981517","false","287","","0.0595967864","main_expt","","0.2059275786","","0.4025981517","","0.3828423493","","","","","",""
"66","","bandit","363","1012779","0.0-325.0-0.0","65652892","wem/bandit_single","AR1IWBDA7MC86","pain","7","","76","L","3","","0","0","1","","0.4121581376","false","288","","0.06539189492","main_expt","","0.1892738114","","0.4183513528","","0.4121581376","","","","","",""
"109","","bandit","364","1014646","0.0-326.0-0.0","65652892","wem/bandit_single","AR1IWBDA7MC86","pain","7","","76","L","3","","0","1","0","","0.4227758831","false","289","","0.06484578344","main_expt","","0.1656659279","","0.4516793017","","0.4227758831","","","","","",""
"106","","bandit","365","1016511","0.0-327.0-0.0","65652892","wem/bandit_single","AR1IWBDA7MC86","pain","7","","76","L","3","","0","0","1","","0.4149367164","false","290","","0.06626982825","main_expt","","0.1814252587","","0.4112115972","","0.4149367164","","","","","",""
"70","","bandit","366","1018338","0.0-328.0-0.0","65652892","wem/bandit_single","AR1IWBDA7MC86","pain","7","","76","L","3","","0","1","0","","0.399757838","false","291","","0.1096348163","main_expt","","0.2385479929","","0.4372982331","","0.399757838","","","","","",""
"85","","bandit","367","1020181","0.0-329.0-0.0","65652892","wem/bandit_single","AR1IWBDA7MC86","pain","7","","76","L","3","","0","1","0","","0.3846886596","false","292","","0.1604398542","main_expt","","0.2322046479","","0.4238416902","","0.3846886596","","","","","",""
"176","","bandit","368","1022114","0.0-330.0-0.0","65652892","wem/bandit_single","AR1IWBDA7MC86","pain","7","","76","L","3","","0","0","1","","0.3364000065","false","293","","0.1714651471","main_expt","","0.223393304","","0.4034354509","","0.3364000065","","","","","",""
"12","","bandit","369","1023885","0.0-331.0-0.0","65652892","wem/bandit_single","AR1IWBDA7MC86","pain","7","","76","L","3","","0","0","1","","0.3545739736","false","294","","0.1378543876","main_expt","","0.2290093083","","0.4093667064","","0.3545739736","","","","","",""
"85","","bandit","370","1025728","0.0-332.0-0.0","65652892","wem/bandit_single","AR1IWBDA7MC86","pain","7","","76","L","3","","0","0","1","","0.2891777922","false","295","","0.1243446737","main_expt","","0.2875464899","","0.4294791191","","0.2891777922","","","","","",""
"213","","bandit","371","1027700","0.0-333.0-0.0","65652892","wem/bandit_single","AR1IWBDA7MC86","pain","7","","76","L","3","","0","0","1","","0.2084544567","false","296","","0.1831574145","main_expt","","0.2880416719","","0.4289259587","","0.2084544567","","","","","",""
"130","","bandit","372","1029588","0.0-334.0-0.0","65652892","wem/bandit_single","AR1IWBDA7MC86","pain","7","","74","J","1","","0","0","1","","0.2144640116","false","297","","0.1645554297","main_expt","","0.2144640116","","0.4073385017","","0.2481546198","","","","","",""
"123","","bandit","373","1031470","0.0-335.0-0.0","65652892","wem/bandit_single","AR1IWBDA7MC86","pain","7","","74","J","1","","0","0","1","","0.2150894671","false","298","","0.1424629524","main_expt","","0.2150894671","","0.3914212946","","0.2961938921","","","","","",""
"179","","bandit","374","1033408","0.0-336.0-0.0","65652892","wem/bandit_single","AR1IWBDA7MC86","pain","7","","72","H","0","img/none_selected.jpg","0","0","1","","0.1581050354","false","299","","0.1581050354","main_expt","","0.2407822334","","0.3813238847","","0.2840976989","","","","","",""
"191","","bandit","375","1035358","0.0-337.0-0.0","65652892","wem/bandit_single","AR1IWBDA7MC86","pain","7","","72","H","0","img/none_selected.jpg","0","0","1","","0.1028467187","false","300","","0.1028467187","main_expt","","0.2400142118","","0.3955358319","","0.2546407964","","","","","",""
"162","","bandit","376","1037278","0.0-338.0-0.0","65652892","wem/bandit_single","AR1IWBDA7MC86","pain","7","","75","K","2","","0","0","1","","0.3883447362","false","301","","0.109482406","main_expt","","0.1787170458","","0.3883447362","","0.1933688023","","","","","",""
