"rt","responses","trial_type","trial_index","time_elapsed","internal_node_id","subjID","study","MID","cond","drift","key_press","respCharCode","respKey","respChoiceNum","respChoice","gems","bombs","no_reward","GemPrChosen","BombPrChosen","practice","trial_counter","WinPr_0","LosePr_0","trial_label","WinPr_1","LosePr_1","WinPr_2","LosePr_2","WinPr_3","LosePr_3","Q0","Q1","Q2","gender","age","ethnicity"
"5646","{""Q0"":""A20IXK8ZV8N72H""}","survey-text","0","5650","0.0-0.0","66144748","wem/bandit_single","A20IXK8ZV8N72H","gain","1","","","","","","","","","","","","","","","","","","","","","","","","","","",""
"1523","","text","1","8175","0.0-1.0","66144748","wem/bandit_single","A20IXK8ZV8N72H","gain","1","32","","","","","","","","","","","","","","","","","","","","","","","","","",""
"2321","","text","2","10497","0.0-2.0","66144748","wem/bandit_single","A20IXK8ZV8N72H","gain","1","32","","","","","","","","","","","","","","","","","","","","","","","","","",""
"12480","","text","3","22979","0.0-3.0","66144748","wem/bandit_single","A20IXK8ZV8N72H","gain","1","32","","","","","","","","","","","","","","","","","","","","","","","","","",""
"21735","","text","4","44714","0.0-4.0","66144748","wem/bandit_single","A20IXK8ZV8N72H","gain","1","32","","","","","","","","","","","","","","","","","","","","","","","","","",""
"6110","","text","5","50826","0.0-5.0","66144748","wem/bandit_single","A20IXK8ZV8N72H","gain","1","32","","","","","","","","","","","","","","","","","","","","","","","","","",""
"3846","","text","6","54673","0.0-6.0","66144748","wem/bandit_single","A20IXK8ZV8N72H","gain","1","32","","","","","","","","","","","","","","","","","","","","","","","","","",""
"3145","","text","7","57818","0.0-7.0","66144748","wem/bandit_single","A20IXK8ZV8N72H","gain","1","32","","","","","","","","","","","","","","","","","","","","","","","","","",""
"934","","text","8","58754","0.0-8.0","66144748","wem/bandit_single","A20IXK8ZV8N72H","gain","1","32","","","","","","","","","","","","","","","","","","","","","","","","","",""
"1583","","text","9","60338","0.0-9.0","66144748","wem/bandit_single","A20IXK8ZV8N72H","gain","1","32","","","","","","","","","","","","","","","","","","","","","","","","","",""
"1567","","text","10","61905","0.0-10.0","66144748","wem/bandit_single","A20IXK8ZV8N72H","gain","1","32","","","","","","","","","","","","","","","","","","","","","","","","","",""
"2015","","text","11","63921","0.0-11.0","66144748","wem/bandit_single","A20IXK8ZV8N72H","gain","1","32","","","","","","","","","","","","","","","","","","","","","","","","","",""
"1117","","bandit","12","66543","0.0-12.0-0.0","66144748","wem/bandit_single","A20IXK8ZV8N72H","gain","1","","74","J","0","img/none_selected_demo.jpg","0","0","1","0","0","true","0","0","0","","","","","","","","","","","","",""
"492","","bandit","13","68790","0.0-13.0-0.0","66144748","wem/bandit_single","A20IXK8ZV8N72H","gain","1","","75","K","0","img/none_selected_demo.jpg","0","0","1","0","0","true","0","0","0","","","","","","","","","","","","",""
"1017","","text","14","70060","0.0-14.0","66144748","wem/bandit_single","A20IXK8ZV8N72H","gain","1","32","","","","","","","","","","","","","","","","","","","","","","","","","",""
"1023","","text","15","71084","0.0-15.0","66144748","wem/bandit_single","A20IXK8ZV8N72H","gain","1","32","","","","","","","","","","","","","","","","","","","","","","","","","",""
"1558","","text","16","72644","0.0-16.0","66144748","wem/bandit_single","A20IXK8ZV8N72H","gain","1","32","","","","","","","","","","","","","","","","","","","","","","","","","",""
"2335","","text","17","74980","0.0-17.0","66144748","wem/bandit_single","A20IXK8ZV8N72H","gain","1","32","","","","","","","","","","","","","","","","","","","","","","","","","",""
"1016","","bandit","18","77499","0.0-18.0-0.0","66144748","wem/bandit_single","A20IXK8ZV8N72H","gain","1","","74","J","0","img/none_selected_demo.jpg","1","0","0","0.8","0","true","0","0.8","0","80_20_practice","0.2","0","","","","","","","","","",""
"76","","bandit","19","79330","0.0-18.0-1.0","66144748","wem/bandit_single","A20IXK8ZV8N72H","gain","1","","74","J","0","img/none_selected_demo.jpg","0","0","1","0.8","0","true","0","0.8","0","80_20_practice","0.2","0","","","","","","","","","",""
"8","","bandit","20","81093","0.0-18.0-2.0","66144748","wem/bandit_single","A20IXK8ZV8N72H","gain","1","","74","J","0","img/none_selected_demo.jpg","1","0","0","0.8","0","true","0","0.8","0","80_20_practice","0.2","0","","","","","","","","","",""
"954","","bandit","21","83802","0.0-18.0-3.0","66144748","wem/bandit_single","A20IXK8ZV8N72H","gain","1","","74","J","0","img/none_selected_demo.jpg","0","0","1","0.8","0","true","0","0.8","0","80_20_practice","0.2","0","","","","","","","","","",""
"166","","bandit","22","85722","0.0-18.0-4.0","66144748","wem/bandit_single","A20IXK8ZV8N72H","gain","1","","75","K","1","","0","0","1","0.2","0","true","0","0.8","0","80_20_practice","0.2","0","","","","","","","","","",""
"61","","bandit","23","87539","0.0-18.0-5.0","66144748","wem/bandit_single","A20IXK8ZV8N72H","gain","1","","75","K","1","","1","0","0","0.2","0","true","0","0.8","0","80_20_practice","0.2","0","","","","","","","","","",""
"26","","bandit","24","89321","0.0-18.0-6.0","66144748","wem/bandit_single","A20IXK8ZV8N72H","gain","1","","75","K","1","","1","0","0","0.2","0","true","0","0.8","0","80_20_practice","0.2","0","","","","","","","","","",""
"1149","","bandit","25","92226","0.0-18.0-7.0","66144748","wem/bandit_single","A20IXK8ZV8N72H","gain","1","","75","K","1","","1","0","0","0.2","0","true","0","0.8","0","80_20_practice","0.2","0","","","","","","","","","",""
"246","","bandit","26","94226","0.0-18.0-8.0","66144748","wem/bandit_single","A20IXK8ZV8N72H","gain","1","","75","K","1","","0","0","1","0.2","0","true","0","0.8","0","80_20_practice","0.2","0","","","","","","","","","",""
"38","","bandit","27","96018","0.0-18.0-9.0","66144748","wem/bandit_single","A20IXK8ZV8N72H","gain","1","","75","K","1","","1","0","0","0.2","0","true","0","0.8","0","80_20_practice","0.2","0","","","","","","","","","",""
"1021","","bandit","28","98794","0.0-18.0-10.0","66144748","wem/bandit_single","A20IXK8ZV8N72H","gain","1","","75","K","1","","0","0","1","0.2","0","true","0","0.8","0","80_20_practice","0.2","0","","","","","","","","","",""
"430","","bandit","29","100980","0.0-18.0-11.0","66144748","wem/bandit_single","A20IXK8ZV8N72H","gain","1","","75","K","1","","0","0","1","0.2","0","true","0","0.8","0","80_20_practice","0.2","0","","","","","","","","","",""
"380","","bandit","30","103115","0.0-18.0-12.0","66144748","wem/bandit_single","A20IXK8ZV8N72H","gain","1","","75","K","1","","1","0","0","0.2","0","true","0","0.8","0","80_20_practice","0.2","0","","","","","","","","","",""
"532","","bandit","31","105402","0.0-18.0-13.0","66144748","wem/bandit_single","A20IXK8ZV8N72H","gain","1","","75","K","1","","0","0","1","0.2","0","true","0","0.8","0","80_20_practice","0.2","0","","","","","","","","","",""
"68","","bandit","32","107227","0.0-18.0-14.0","66144748","wem/bandit_single","A20IXK8ZV8N72H","gain","1","","74","J","0","img/none_selected_demo.jpg","1","0","0","0.8","0","true","0","0.8","0","80_20_practice","0.2","0","","","","","","","","","",""
"76","","bandit","33","109059","0.0-18.0-15.0","66144748","wem/bandit_single","A20IXK8ZV8N72H","gain","1","","74","J","0","img/none_selected_demo.jpg","1","0","0","0.8","0","true","0","0.8","0","80_20_practice","0.2","0","","","","","","","","","",""
"268","","bandit","34","111083","0.0-18.0-16.0","66144748","wem/bandit_single","A20IXK8ZV8N72H","gain","1","","74","J","0","img/none_selected_demo.jpg","1","0","0","0.8","0","true","0","0.8","0","80_20_practice","0.2","0","","","","","","","","","",""
"1068","","bandit","35","113908","0.0-18.0-17.0","66144748","wem/bandit_single","A20IXK8ZV8N72H","gain","1","","74","J","0","img/none_selected_demo.jpg","1","0","0","0.8","0","true","0","0.8","0","80_20_practice","0.2","0","","","","","","","","","",""
"162","","bandit","36","115827","0.0-18.0-18.0","66144748","wem/bandit_single","A20IXK8ZV8N72H","gain","1","","74","J","0","img/none_selected_demo.jpg","0","0","1","0.8","0","true","0","0.8","0","80_20_practice","0.2","0","","","","","","","","","",""
"204","","bandit","37","117786","0.0-18.0-19.0","66144748","wem/bandit_single","A20IXK8ZV8N72H","gain","1","","74","J","0","img/none_selected_demo.jpg","1","0","0","0.8","0","true","0","0.8","0","80_20_practice","0.2","0","","","","","","","","","",""
"2454","","text","38","120492","0.0-19.0","66144748","wem/bandit_single","A20IXK8ZV8N72H","gain","1","32","","","","","","","","","","","","","","","","","","","","","","","","","",""
"862","","bandit","39","122860","0.0-20.0-0.0","66144748","wem/bandit_single","A20IXK8ZV8N72H","gain","1","","74","J","0","img/none_selected_demo.jpg","0","0","1","0","0","true","0","0","0","","0","0","","","","","","","","","",""
"2932","","text","40","126044","0.0-21.0","66144748","wem/bandit_single","A20IXK8ZV8N72H","gain","1","32","","","","","","","","","","","","","","","","","","","","","","","","","",""
"3847","","text","41","129894","0.0-22.0","66144748","wem/bandit_single","A20IXK8ZV8N72H","gain","1","32","","","","","","","","","","","","","","","","","","","","","","","","","",""
"1527","","text","42","131422","0.0-23.0","66144748","wem/bandit_single","A20IXK8ZV8N72H","gain","1","32","","","","","","","","","","","","","","","","","","","","","","","","","",""
"1479","","text","43","132903","0.0-24.0","66144748","wem/bandit_single","A20IXK8ZV8N72H","gain","1","32","","","","","","","","","","","","","","","","","","","","","","","","","",""
"9023","","text","44","141926","0.0-25.0","66144748","wem/bandit_single","A20IXK8ZV8N72H","gain","1","32","","","","","","","","","","","","","","","","","","","","","","","","","",""
"2463","","text","45","144390","0.0-26.0","66144748","wem/bandit_single","A20IXK8ZV8N72H","gain","1","32","","","","","","","","","","","","","","","","","","","","","","","","","",""
"5255","","text","46","149647","0.0-27.0","66144748","wem/bandit_single","A20IXK8ZV8N72H","gain","1","32","","","","","","","","","","","","","","","","","","","","","","","","","",""
"22766","","text","47","172416","0.0-28.0","66144748","wem/bandit_single","A20IXK8ZV8N72H","gain","1","32","","","","","","","","","","","","","","","","","","","","","","","","","",""
"3890","","text","48","176309","0.0-29.0","66144748","wem/bandit_single","A20IXK8ZV8N72H","gain","1","32","","","","","","","","","","","","","","","","","","","","","","","","","",""
"1575","","text","49","177885","0.0-30.0","66144748","wem/bandit_single","A20IXK8ZV8N72H","gain","1","32","","","","","","","","","","","","","","","","","","","","","","","","","",""
"1328","","text","50","179214","0.0-31.0","66144748","wem/bandit_single","A20IXK8ZV8N72H","gain","1","32","","","","","","","","","","","","","","","","","","","","","","","","","",""
"845","","bandit","51","181568","0.0-32.0-0.0","66144748","wem/bandit_single","A20IXK8ZV8N72H","gain","1","","72","H","0","img/none_selected.jpg","1","0","0","0.8","0","true","0","0.8","0","full_practice","0.2","0","0.6","0","0.2","0","","","","","",""
"34","","bandit","52","183356","0.0-32.0-1.0","66144748","wem/bandit_single","A20IXK8ZV8N72H","gain","1","","72","H","0","img/none_selected.jpg","1","0","0","0.8","0","true","0","0.8","0","full_practice","0.2","0","0.6","0","0.2","0","","","","","",""
"2836","","bandit","53","187949","0.0-32.0-2.0","66144748","wem/bandit_single","A20IXK8ZV8N72H","gain","1","","72","H","0","img/none_selected.jpg","1","0","0","0.8","0","true","0","0.8","0","full_practice","0.2","0","0.6","0","0.2","0","","","","","",""
"137","","bandit","54","189872","0.0-32.0-3.0","66144748","wem/bandit_single","A20IXK8ZV8N72H","gain","1","","72","H","0","img/none_selected.jpg","1","0","0","0.8","0","true","0","0.8","0","full_practice","0.2","0","0.6","0","0.2","0","","","","","",""
"67","","bandit","55","191694","0.0-32.0-4.0","66144748","wem/bandit_single","A20IXK8ZV8N72H","gain","1","","72","H","0","img/none_selected.jpg","1","0","0","0.8","0","true","0","0.8","0","full_practice","0.2","0","0.6","0","0.2","0","","","","","",""
"669","","bandit","56","194118","0.0-32.0-5.0","66144748","wem/bandit_single","A20IXK8ZV8N72H","gain","1","","72","H","0","img/none_selected.jpg","1","0","0","0.8","0","true","0","0.8","0","full_practice","0.2","0","0.6","0","0.2","0","","","","","",""
"350","","bandit","57","196223","0.0-32.0-6.0","66144748","wem/bandit_single","A20IXK8ZV8N72H","gain","1","","72","H","0","img/none_selected.jpg","1","0","0","0.8","0","true","0","0.8","0","full_practice","0.2","0","0.6","0","0.2","0","","","","","",""
"212","","bandit","58","198191","0.0-32.0-7.0","66144748","wem/bandit_single","A20IXK8ZV8N72H","gain","1","","72","H","0","img/none_selected.jpg","1","0","0","0.8","0","true","0","0.8","0","full_practice","0.2","0","0.6","0","0.2","0","","","","","",""
"221","","bandit","59","200168","0.0-32.0-8.0","66144748","wem/bandit_single","A20IXK8ZV8N72H","gain","1","","72","H","0","img/none_selected.jpg","0","0","1","0.8","0","true","0","0.8","0","full_practice","0.2","0","0.6","0","0.2","0","","","","","",""
"84","","bandit","60","202007","0.0-32.0-9.0","66144748","wem/bandit_single","A20IXK8ZV8N72H","gain","1","","72","H","0","img/none_selected.jpg","1","0","0","0.8","0","true","0","0.8","0","full_practice","0.2","0","0.6","0","0.2","0","","","","","",""
"14438","","bandit","61","218204","0.0-32.0-10.0","66144748","wem/bandit_single","A20IXK8ZV8N72H","gain","1","","74","J","1","","1","0","0","0.2","0","true","0","0.8","0","full_practice","0.2","0","0.6","0","0.2","0","","","","","",""
"272","","bandit","62","220231","0.0-32.0-11.0","66144748","wem/bandit_single","A20IXK8ZV8N72H","gain","1","","74","J","1","","1","0","0","0.2","0","true","0","0.8","0","full_practice","0.2","0","0.6","0","0.2","0","","","","","",""
"173","","bandit","63","222159","0.0-32.0-12.0","66144748","wem/bandit_single","A20IXK8ZV8N72H","gain","1","","74","J","1","","0","0","1","0.2","0","true","0","0.8","0","full_practice","0.2","0","0.6","0","0.2","0","","","","","",""
"84","","bandit","64","223998","0.0-32.0-13.0","66144748","wem/bandit_single","A20IXK8ZV8N72H","gain","1","","74","J","1","","0","0","1","0.2","0","true","0","0.8","0","full_practice","0.2","0","0.6","0","0.2","0","","","","","",""
"1132","","bandit","65","226886","0.0-32.0-14.0","66144748","wem/bandit_single","A20IXK8ZV8N72H","gain","1","","74","J","1","","0","0","1","0.2","0","true","0","0.8","0","full_practice","0.2","0","0.6","0","0.2","0","","","","","",""
"1478","","bandit","66","230119","0.0-32.0-15.0","66144748","wem/bandit_single","A20IXK8ZV8N72H","gain","1","","74","J","1","","0","0","1","0.2","0","true","0","0.8","0","full_practice","0.2","0","0.6","0","0.2","0","","","","","",""
"620","","bandit","67","232496","0.0-32.0-16.0","66144748","wem/bandit_single","A20IXK8ZV8N72H","gain","1","","74","J","1","","0","0","1","0.2","0","true","0","0.8","0","full_practice","0.2","0","0.6","0","0.2","0","","","","","",""
"620","","bandit","68","234871","0.0-32.0-17.0","66144748","wem/bandit_single","A20IXK8ZV8N72H","gain","1","","74","J","1","","1","0","0","0.2","0","true","0","0.8","0","full_practice","0.2","0","0.6","0","0.2","0","","","","","",""
"205","","bandit","69","236831","0.0-32.0-18.0","66144748","wem/bandit_single","A20IXK8ZV8N72H","gain","1","","74","J","1","","0","0","1","0.2","0","true","0","0.8","0","full_practice","0.2","0","0.6","0","0.2","0","","","","","",""
"76","","bandit","70","238663","0.0-32.0-19.0","66144748","wem/bandit_single","A20IXK8ZV8N72H","gain","1","","74","J","1","","1","0","0","0.2","0","true","0","0.8","0","full_practice","0.2","0","0.6","0","0.2","0","","","","","",""
"1985","","text","71","240906","0.0-33.0","66144748","wem/bandit_single","A20IXK8ZV8N72H","gain","1","32","","","","","","","","","","","","","","","","","","","","","","","","","",""
"7557","","text","72","249466","0.0-34.0","66144748","wem/bandit_single","A20IXK8ZV8N72H","gain","1","32","","","","","","","","","","","","","","","","","","","","","","","","","",""
"3467","","text","73","252935","0.0-35.0","66144748","wem/bandit_single","A20IXK8ZV8N72H","gain","1","32","","","","","","","","","","","","","","","","","","","","","","","","","",""
"4259","","text","74","257196","0.0-36.0","66144748","wem/bandit_single","A20IXK8ZV8N72H","gain","1","32","","","","","","","","","","","","","","","","","","","","","","","","","",""
"3606","","text","75","260804","0.0-37.0","66144748","wem/bandit_single","A20IXK8ZV8N72H","gain","1","32","","","","","","","","","","","","","","","","","","","","","","","","","",""
"1707","","bandit","76","264017","0.0-38.0-0.0","66144748","wem/bandit_single","A20IXK8ZV8N72H","gain","1","","72","H","0","img/none_selected.jpg","0","0","1","0.1079408374","","false","1","0.1079408374","","main_expt","0.433486002","","0.04371116513","","0.1765468105","","","","","","",""
"172","","bandit","77","265945","0.0-39.0-0.0","66144748","wem/bandit_single","A20IXK8ZV8N72H","gain","1","","72","H","0","img/none_selected.jpg","1","0","0","0.1605706499","","false","2","0.1605706499","","main_expt","0.4446307222","","0.0204546363","","0.1569258514","","","","","","",""
"348","","bandit","78","268049","0.0-40.0-0.0","66144748","wem/bandit_single","A20IXK8ZV8N72H","gain","1","","72","H","0","img/none_selected.jpg","1","0","0","0.1829447669","","false","3","0.1829447669","","main_expt","0.4522438858","","0.02109221713","","0.1639246388","","","","","","",""
"165","","bandit","79","269969","0.0-41.0-0.0","66144748","wem/bandit_single","A20IXK8ZV8N72H","gain","1","","72","H","0","img/none_selected.jpg","0","0","1","0.1756642407","","false","4","0.1756642407","","main_expt","0.4330109471","","0.04448829896","","0.2130332657","","","","","","",""
"45","","bandit","80","271769","0.0-42.0-0.0","66144748","wem/bandit_single","A20IXK8ZV8N72H","gain","1","","72","H","0","img/none_selected.jpg","0","0","1","0.1349544936","","false","5","0.1349544936","","main_expt","0.4678508314","","0.03824555068","","0.1939577492","","","","","","",""
"197","","bandit","81","273722","0.0-43.0-0.0","66144748","wem/bandit_single","A20IXK8ZV8N72H","gain","1","","74","J","1","","0","0","1","0.4644602632","","false","6","0.1356037804","","main_expt","0.4644602632","","0.03028715703","","0.2419857306","","","","","","",""
"77","","bandit","82","275561","0.0-44.0-0.0","66144748","wem/bandit_single","A20IXK8ZV8N72H","gain","1","","74","J","1","","0","0","1","0.4575746565","","false","7","0.1731738011","","main_expt","0.4575746565","","0.0280090558","","0.2437977828","","","","","","",""
"155","","bandit","83","277473","0.0-45.0-0.0","66144748","wem/bandit_single","A20IXK8ZV8N72H","gain","1","","74","J","1","","0","0","1","0.4508833002","","false","8","0.1697830552","","main_expt","0.4508833002","","0.01994926529","","0.2910779813","","","","","","",""
"52","","bandit","84","279280","0.0-46.0-0.0","66144748","wem/bandit_single","A20IXK8ZV8N72H","gain","1","","74","J","1","","0","0","1","0.446295775","","false","9","0.1792782501","","main_expt","0.446295775","","0.02255652904","","0.3043628405","","","","","","",""
"46","","bandit","85","281081","0.0-47.0-0.0","66144748","wem/bandit_single","A20IXK8ZV8N72H","gain","1","","74","J","1","","0","0","1","0.4564580261","","false","10","0.1705688187","","main_expt","0.4564580261","","0.02794315976","","0.3568141906","","","","","","",""
"85","","bandit","86","282921","0.0-48.0-0.0","66144748","wem/bandit_single","A20IXK8ZV8N72H","gain","1","","75","K","2","","0","0","1","0.02289966844","","false","11","0.1974022207","","main_expt","0.4233437492","","0.02289966844","","0.3439843329","","","","","","",""
"85","","bandit","87","284762","0.0-49.0-0.0","66144748","wem/bandit_single","A20IXK8ZV8N72H","gain","1","","75","K","2","","0","0","1","0.01510656417","","false","12","0.1753487428","","main_expt","0.4129107721","","0.01510656417","","0.2959247237","","","","","","",""
"123","","bandit","88","286641","0.0-50.0-0.0","66144748","wem/bandit_single","A20IXK8ZV8N72H","gain","1","","75","K","2","","0","0","1","0.01475809492","","false","13","0.1858973774","","main_expt","0.4188058581","","0.01475809492","","0.2711511111","","","","","","",""
"237","","bandit","89","288634","0.0-51.0-0.0","66144748","wem/bandit_single","A20IXK8ZV8N72H","gain","1","","75","K","2","","0","0","1","0.00909265887","","false","14","0.1873997244","","main_expt","0.4542155744","","0.00909265887","","0.2351285692","","","","","","",""
"158","","bandit","90","290547","0.0-52.0-0.0","66144748","wem/bandit_single","A20IXK8ZV8N72H","gain","1","","75","K","2","","0","0","1","0.004683339805","","false","15","0.2079034381","","main_expt","0.4436127815","","0.004683339805","","0.3299180318","","","","","","",""
"75","","bandit","91","292377","0.0-53.0-0.0","66144748","wem/bandit_single","A20IXK8ZV8N72H","gain","1","","76","L","3","","0","0","1","0.3382291528","","false","16","0.2116662278","","main_expt","0.4255220112","","0.007493295572","","0.3382291528","","","","","","",""
"52","","bandit","92","294185","0.0-54.0-0.0","66144748","wem/bandit_single","A20IXK8ZV8N72H","gain","1","","76","L","3","","1","0","0","0.3890963744","","false","17","0.2460799228","","main_expt","0.4221090449","","0.009835384986","","0.3890963744","","","","","","",""
"252","","bandit","93","296193","0.0-55.0-0.0","66144748","wem/bandit_single","A20IXK8ZV8N72H","gain","1","","76","L","3","","0","0","1","0.3102907615","","false","18","0.2725156425","","main_expt","0.4157246332","","0.01282838009","","0.3102907615","","","","","","",""
"101","","bandit","94","298049","0.0-56.0-0.0","66144748","wem/bandit_single","A20IXK8ZV8N72H","gain","1","","76","L","3","","0","0","1","0.2734902963","","false","19","0.319312936","","main_expt","0.4000612909","","0.03935122736","","0.2734902963","","","","","","",""
"81","","bandit","95","299888","0.0-57.0-0.0","66144748","wem/bandit_single","A20IXK8ZV8N72H","gain","1","","76","L","3","","1","0","0","0.2157414593","","false","20","0.3449168397","","main_expt","0.4116546581","","0.03712672215","","0.2157414593","","","","","","",""
"61","","bandit","96","301706","0.0-58.0-0.0","66144748","wem/bandit_single","A20IXK8ZV8N72H","gain","1","","72","H","0","img/none_selected.jpg","1","0","0","0.2668327531","","false","21","0.2668327531","","main_expt","0.4276829816","","0.02631596187","","0.2148325275","","","","","","",""
"314","","bandit","97","303778","0.0-59.0-0.0","66144748","wem/bandit_single","A20IXK8ZV8N72H","gain","1","","72","H","0","img/none_selected.jpg","1","0","0","0.2786929748","","false","22","0.2786929748","","main_expt","0.3861543943","","0.0338100911","","0.1819582271","","","","","","",""
"171","","bandit","98","305707","0.0-60.0-0.0","66144748","wem/bandit_single","A20IXK8ZV8N72H","gain","1","","72","H","0","img/none_selected.jpg","0","0","1","0.2012253143","","false","23","0.2012253143","","main_expt","0.3815006395","","0.06132921526","","0.1776669961","","","","","","",""
"84","","bandit","99","307546","0.0-61.0-0.0","66144748","wem/bandit_single","A20IXK8ZV8N72H","gain","1","","72","H","0","img/none_selected.jpg","1","0","0","0.1363446769","","false","24","0.1363446769","","main_expt","0.4063144844","","0.06546003458","","0.2595803745","","","","","","",""
"67","","bandit","100","309369","0.0-62.0-0.0","66144748","wem/bandit_single","A20IXK8ZV8N72H","gain","1","","72","H","0","img/none_selected.jpg","1","0","0","0.1395957504","","false","25","0.1395957504","","main_expt","0.3218764758","","0.08327489459","","0.2184946748","","","","","","",""
"36","","bandit","101","311164","0.0-63.0-0.0","66144748","wem/bandit_single","A20IXK8ZV8N72H","gain","1","","72","H","0","img/none_selected.jpg","0","0","1","0.1095431569","","false","26","0.1095431569","","main_expt","0.3190898414","","0.06117167893","","0.2382025465","","","","","","",""
"11","","bandit","102","312932","0.0-64.0-0.0","66144748","wem/bandit_single","A20IXK8ZV8N72H","gain","1","","72","H","0","img/none_selected.jpg","0","0","1","0.1290148999","","false","27","0.1290148999","","main_expt","0.361309168","","0.03494965278","","0.2249508913","","","","","","",""
"28","","bandit","103","314715","0.0-65.0-0.0","66144748","wem/bandit_single","A20IXK8ZV8N72H","gain","1","","72","H","0","img/none_selected.jpg","0","0","1","0.09304199486","","false","28","0.09304199486","","main_expt","0.3247985582","","0.02964638986","","0.2388683754","","","","","","",""
"69","","bandit","104","316541","0.0-66.0-0.0","66144748","wem/bandit_single","A20IXK8ZV8N72H","gain","1","","74","J","1","","0","0","1","0.3358989687","","false","29","0.1042487788","","main_expt","0.3358989687","","0.03498116837","","0.238121012","","","","","","",""
"17","","bandit","105","318316","0.0-67.0-0.0","66144748","wem/bandit_single","A20IXK8ZV8N72H","gain","1","","75","K","2","","0","0","1","0.04244048525","","false","30","0.1177759499","","main_expt","0.3833706669","","0.04244048525","","0.2995264376","","","","","","",""
"68","","bandit","106","320141","0.0-68.0-0.0","66144748","wem/bandit_single","A20IXK8ZV8N72H","gain","1","","76","L","3","","0","0","1","0.2738636663","","false","31","0.1177925617","","main_expt","0.365606812","","0.06152315655","","0.2738636663","","","","","","",""
"20","","bandit","107","321916","0.0-69.0-0.0","66144748","wem/bandit_single","A20IXK8ZV8N72H","gain","1","","74","J","1","","1","0","0","0.3376656117","","false","32","0.08495919706","","main_expt","0.3376656117","","0.04890303061","","0.3185168498","","","","","","",""
"37","","bandit","108","323709","0.0-70.0-0.0","66144748","wem/bandit_single","A20IXK8ZV8N72H","gain","1","","74","J","1","","0","0","1","0.3632929272","","false","33","0.09918690981","","main_expt","0.3632929272","","0.06913310411","","0.3160257618","","","","","","",""
"267","","bandit","109","325733","0.0-71.0-0.0","66144748","wem/bandit_single","A20IXK8ZV8N72H","gain","1","","74","J","1","","0","0","1","0.4008603673","","false","34","0.1267106232","","main_expt","0.4008603673","","0.07311713639","","0.3411570355","","","","","","",""
"51","","bandit","110","327542","0.0-72.0-0.0","66144748","wem/bandit_single","A20IXK8ZV8N72H","gain","1","","75","K","2","","0","0","1","0.08374615962","","false","35","0.1076928618","","main_expt","0.4024879816","","0.08374615962","","0.3190481916","","","","","","",""
"126","","bandit","111","329424","0.0-73.0-0.0","66144748","wem/bandit_single","A20IXK8ZV8N72H","gain","1","","76","L","3","","0","0","1","0.3264142162","","false","36","0.1298816773","","main_expt","0.3740303516","","0.08182693844","","0.3264142162","","","","","","",""
"119","","bandit","112","331300","0.0-74.0-0.0","66144748","wem/bandit_single","A20IXK8ZV8N72H","gain","1","","72","H","0","img/none_selected.jpg","0","0","1","0.1459487567","","false","37","0.1459487567","","main_expt","0.3728306432","","0.1343371601","","0.3198880486","","","","","","",""
"45","","bandit","113","333101","0.0-75.0-0.0","66144748","wem/bandit_single","A20IXK8ZV8N72H","gain","1","","74","J","1","","0","0","1","0.3805434418","","false","38","0.1339045699","","main_expt","0.3805434418","","0.155986589","","0.3683112265","","","","","","",""
"35","","bandit","114","334894","0.0-76.0-0.0","66144748","wem/bandit_single","A20IXK8ZV8N72H","gain","1","","75","K","2","","0","0","1","0.1477757124","","false","39","0.1345127174","","main_expt","0.3969568822","","0.1477757124","","0.3427238384","","","","","","",""
"50","","bandit","115","336700","0.0-77.0-0.0","66144748","wem/bandit_single","A20IXK8ZV8N72H","gain","1","","76","L","3","","0","0","1","0.3218453083","","false","40","0.1283460502","","main_expt","0.3988554294","","0.1673850924","","0.3218453083","","","","","","",""
"20","","bandit","116","338477","0.0-78.0-0.0","66144748","wem/bandit_single","A20IXK8ZV8N72H","gain","1","","72","H","0","img/none_selected.jpg","0","0","1","0.120913883","","false","41","0.120913883","","main_expt","0.4510691137","","0.1798739011","","0.3085515908","","","","","","",""
"588","","bandit","117","340820","0.0-79.0-0.0","66144748","wem/bandit_single","A20IXK8ZV8N72H","gain","1","","74","J","1","","1","0","0","0.4575220824","","false","42","0.1045942129","","main_expt","0.4575220824","","0.1559165864","","0.3072415044","","","","","","",""
"44","","bandit","118","342621","0.0-80.0-0.0","66144748","wem/bandit_single","A20IXK8ZV8N72H","gain","1","","74","J","1","","1","0","0","0.4425049573","","false","43","0.09432917568","","main_expt","0.4425049573","","0.1058033922","","0.272500382","","","","","","",""
"20","","bandit","119","344397","0.0-81.0-0.0","66144748","wem/bandit_single","A20IXK8ZV8N72H","gain","1","","74","J","1","","0","0","1","0.4232077065","","false","44","0.07221407183","","main_expt","0.4232077065","","0.08489334424","","0.2865836788","","","","","","",""
"908","","bandit","120","347060","0.0-82.0-0.0","66144748","wem/bandit_single","A20IXK8ZV8N72H","gain","1","","74","J","1","","1","0","0","0.4098430077","","false","45","0.05666738762","","main_expt","0.4098430077","","0.05905190464","","0.2991622886","","","","","","",""
"356","","bandit","121","349172","0.0-83.0-0.0","66144748","wem/bandit_single","A20IXK8ZV8N72H","gain","1","","74","J","1","","1","0","0","0.4038708701","","false","46","0.03432969329","","main_expt","0.4038708701","","0.06331323714","","0.2531917612","","","","","","",""
"68","","bandit","122","350996","0.0-84.0-0.0","66144748","wem/bandit_single","A20IXK8ZV8N72H","gain","1","","74","J","1","","1","0","0","0.4162646915","","false","47","0.03955917442","","main_expt","0.4162646915","","0.05657329797","","0.174020607","","","","","","",""
"52","","bandit","123","352804","0.0-85.0-0.0","66144748","wem/bandit_single","A20IXK8ZV8N72H","gain","1","","74","J","1","","0","0","1","0.4188900116","","false","48","0.02792503423","","main_expt","0.4188900116","","0.04718629669","","0.1890064997","","","","","","",""
"67","","bandit","124","354629","0.0-86.0-0.0","66144748","wem/bandit_single","A20IXK8ZV8N72H","gain","1","","74","J","1","","0","0","1","0.4566014176","","false","49","0.03726959289","","main_expt","0.4566014176","","0.03289244517","","0.218442061","","","","","","",""
"35","","bandit","125","356420","0.0-87.0-0.0","66144748","wem/bandit_single","A20IXK8ZV8N72H","gain","1","","74","J","1","","0","0","1","0.4447058567","","false","50","0.03358305353","","main_expt","0.4447058567","","0.03266450512","","0.1635183119","","","","","","",""
"28","","bandit","126","358204","0.0-88.0-0.0","66144748","wem/bandit_single","A20IXK8ZV8N72H","gain","1","","74","J","1","","0","0","1","0.4304926469","","false","51","0.03344521258","","main_expt","0.4304926469","","0.03026904774","","0.1366577914","","","","","","",""
"68","","bandit","127","360028","0.0-89.0-0.0","66144748","wem/bandit_single","A20IXK8ZV8N72H","gain","1","","74","J","1","","0","0","1","0.4221781581","","false","52","0.04269272659","","main_expt","0.4221781581","","0.03251993274","","0.1797398031","","","","","","",""
"125","","bandit","128","361909","0.0-90.0-0.0","66144748","wem/bandit_single","A20IXK8ZV8N72H","gain","1","","75","K","2","","0","0","1","0.03960602941","","false","53","0.023815337","","main_expt","0.3687481665","","0.03960602941","","0.2893410322","","","","","","",""
"107","","bandit","129","363772","0.0-91.0-0.0","66144748","wem/bandit_single","A20IXK8ZV8N72H","gain","1","","76","L","3","","1","0","0","0.2985665456","","false","54","0.02455785224","","main_expt","0.3458934235","","0.05707063203","","0.2985665456","","","","","","",""
"81","","bandit","130","365612","0.0-92.0-0.0","66144748","wem/bandit_single","A20IXK8ZV8N72H","gain","1","","76","L","3","","1","0","0","0.3336948264","","false","55","0.03998391886","","main_expt","0.4042580408","","0.04044117434","","0.3336948264","","","","","","",""
"123","","bandit","131","367492","0.0-93.0-0.0","66144748","wem/bandit_single","A20IXK8ZV8N72H","gain","1","","76","L","3","","0","0","1","0.282194417","","false","56","0.06538112884","","main_expt","0.4471112694","","0.05627119328","","0.282194417","","","","","","",""
"43","","bandit","132","369291","0.0-94.0-0.0","66144748","wem/bandit_single","A20IXK8ZV8N72H","gain","1","","76","L","3","","1","0","0","0.3239389597","","false","57","0.08662171517","","main_expt","0.4640351361","","0.06172895681","","0.3239389597","","","","","","",""
"60","","bandit","133","371141","0.0-95.0-0.0","66144748","wem/bandit_single","A20IXK8ZV8N72H","gain","1","","76","L","3","","0","0","1","0.3114288274","","false","58","0.08191290536","","main_expt","0.4654795878","","0.0708730922","","0.3114288274","","","","","","",""
"29","","bandit","134","372930","0.0-96.0-0.0","66144748","wem/bandit_single","A20IXK8ZV8N72H","gain","1","","76","L","3","","0","0","1","0.3090129124","","false","59","0.06359390603","","main_expt","0.477644797","","0.06307994893","","0.3090129124","","","","","","",""
"137","","bandit","135","374823","0.0-97.0-0.0","66144748","wem/bandit_single","A20IXK8ZV8N72H","gain","1","","76","L","3","","0","0","1","0.3273240357","","false","60","0.1113565871","","main_expt","0.4637057102","","0.06865221942","","0.3273240357","","","","","","",""
"76","","bandit","136","376655","0.0-98.0-0.0","66144748","wem/bandit_single","A20IXK8ZV8N72H","gain","1","","72","H","0","img/none_selected.jpg","0","0","1","0.1224908949","","false","61","0.1224908949","","main_expt","0.4575353452","","0.04710261487","","0.333760802","","","","","","",""
"189","","bandit","137","378599","0.0-99.0-0.0","66144748","wem/bandit_single","A20IXK8ZV8N72H","gain","1","","74","J","1","","0","0","1","0.4511824808","","false","62","0.1011510181","","main_expt","0.4511824808","","0.04180279512","","0.3721083552","","","","","","",""
"29","","bandit","138","380384","0.0-100.0-0.0","66144748","wem/bandit_single","A20IXK8ZV8N72H","gain","1","","75","K","2","","0","0","1","0.04669584184","","false","63","0.1241823521","","main_expt","0.4522744543","","0.04669584184","","0.3366911892","","","","","","",""
"67","","bandit","139","382207","0.0-101.0-0.0","66144748","wem/bandit_single","A20IXK8ZV8N72H","gain","1","","76","L","3","","0","0","1","0.352845708","","false","64","0.1277445844","","main_expt","0.4534383651","","0.04699929359","","0.352845708","","","","","","",""
"12","","bandit","140","383975","0.0-102.0-0.0","66144748","wem/bandit_single","A20IXK8ZV8N72H","gain","1","","72","H","0","img/none_selected.jpg","0","0","1","0.1594820305","","false","65","0.1594820305","","main_expt","0.4578128414","","0.06422912444","","0.3797865956","","","","","","",""
"35","","bandit","141","385768","0.0-103.0-0.0","66144748","wem/bandit_single","A20IXK8ZV8N72H","gain","1","","74","J","1","","0","0","1","0.4675149648","","false","66","0.1902728197","","main_expt","0.4675149648","","0.09107067683","","0.3776123686","","","","","","",""
"84","","bandit","142","387607","0.0-104.0-0.0","66144748","wem/bandit_single","A20IXK8ZV8N72H","gain","1","","75","K","2","","0","0","1","0.1295134299","","false","67","0.1915604568","","main_expt","0.4801185054","","0.1295134299","","0.3520302909","","","","","","",""
"37","","bandit","143","389401","0.0-105.0-0.0","66144748","wem/bandit_single","A20IXK8ZV8N72H","gain","1","","76","L","3","","0","0","1","0.3563070861","","false","68","0.2292904293","","main_expt","0.4853911876","","0.1501953896","","0.3563070861","","","","","","",""
"50","","bandit","144","391207","0.0-106.0-0.0","66144748","wem/bandit_single","A20IXK8ZV8N72H","gain","1","","72","H","0","img/none_selected.jpg","0","0","1","0.2982444272","","false","69","0.2982444272","","main_expt","0.45952887","","0.2120393587","","0.3773129781","","","","","","",""
"36","","bandit","145","392999","0.0-107.0-0.0","66144748","wem/bandit_single","A20IXK8ZV8N72H","gain","1","","74","J","1","","0","0","1","0.4519788387","","false","70","0.2038928517","","main_expt","0.4519788387","","0.2046372205","","0.3620092878","","","","","","",""
"109","","bandit","146","394865","0.0-108.0-0.0","66144748","wem/bandit_single","A20IXK8ZV8N72H","gain","1","","75","K","2","","0","0","1","0.1711657315","","false","71","0.2470144531","","main_expt","0.4644284496","","0.1711657315","","0.3689610789","","","","","","",""
"106","","bandit","147","396728","0.0-109.0-0.0","66144748","wem/bandit_single","A20IXK8ZV8N72H","gain","1","","76","L","3","","0","0","1","0.335535794","","false","72","0.2339224101","","main_expt","0.4275080271","","0.1804367846","","0.335535794","","","","","","",""
"35","","bandit","148","398519","0.0-110.0-0.0","66144748","wem/bandit_single","A20IXK8ZV8N72H","gain","1","","72","H","0","img/none_selected.jpg","0","0","1","0.198403553","","false","73","0.198403553","","main_expt","0.4333248441","","0.1582310148","","0.3669127126","","","","","","",""
"60","","bandit","149","400336","0.0-111.0-0.0","66144748","wem/bandit_single","A20IXK8ZV8N72H","gain","1","","74","J","1","","1","0","0","0.4272577829","","false","74","0.2162510441","","main_expt","0.4272577829","","0.1300952354","","0.3360165716","","","","","","",""
"91","","bandit","150","402182","0.0-112.0-0.0","66144748","wem/bandit_single","A20IXK8ZV8N72H","gain","1","","74","J","1","","1","0","0","0.353629049","","false","75","0.2467290531","","main_expt","0.353629049","","0.1414689969","","0.3379177146","","","","","","",""
"285","","bandit","151","404224","0.0-113.0-0.0","66144748","wem/bandit_single","A20IXK8ZV8N72H","gain","1","","74","J","1","","0","0","1","0.3526453175","","false","76","0.2199510863","","main_expt","0.3526453175","","0.1315789974","","0.3489784935","","","","","","",""
"205","","bandit","152","406185","0.0-114.0-0.0","66144748","wem/bandit_single","A20IXK8ZV8N72H","gain","1","","74","J","1","","1","0","0","0.397337216","","false","77","0.1600424727","","main_expt","0.397337216","","0.1054244057","","0.2843927136","","","","","","",""
"27","","bandit","153","407968","0.0-115.0-0.0","66144748","wem/bandit_single","A20IXK8ZV8N72H","gain","1","","74","J","1","","0","0","1","0.3747850168","","false","78","0.1366877547","","main_expt","0.3747850168","","0.1028875903","","0.2585585406","","","","","","",""
"18","","bandit","154","409745","0.0-116.0-0.0","66144748","wem/bandit_single","A20IXK8ZV8N72H","gain","1","","74","J","1","","1","0","0","0.3500135026","","false","79","0.1608027171","","main_expt","0.3500135026","","0.1010795136","","0.2211992803","","","","","","",""
"73","","bandit","155","411576","0.0-117.0-0.0","66144748","wem/bandit_single","A20IXK8ZV8N72H","gain","1","","74","J","1","","1","0","0","0.3362224365","","false","80","0.2004121585","","main_expt","0.3362224365","","0.09661145037","","0.1670678668","","","","","","",""
"1339","","bandit","156","414671","0.0-118.0-0.0","66144748","wem/bandit_single","A20IXK8ZV8N72H","gain","1","","74","J","1","","0","0","1","0.3626400229","","false","81","0.2100463009","","main_expt","0.3626400229","","0.06079528701","","0.1536487801","","","","","","",""
"237","","bandit","157","416664","0.0-119.0-0.0","66144748","wem/bandit_single","A20IXK8ZV8N72H","gain","1","","74","J","1","","0","0","1","0.3433004166","","false","82","0.2313995655","","main_expt","0.3433004166","","0.0561923849","","0.164055667","","","","","","",""
"171","","bandit","158","418591","0.0-120.0-0.0","66144748","wem/bandit_single","A20IXK8ZV8N72H","gain","1","","74","J","1","","0","0","1","0.3564809269","","false","83","0.1805974068","","main_expt","0.3564809269","","0.05471979201","","0.1795096781","","","","","","",""
"107","","bandit","159","420454","0.0-121.0-0.0","66144748","wem/bandit_single","A20IXK8ZV8N72H","gain","1","","75","K","2","","0","0","1","0.04961315052","","false","84","0.1351257884","","main_expt","0.3403656385","","0.04961315052","","0.1568762326","","","","","","",""
"53","","bandit","160","422263","0.0-122.0-0.0","66144748","wem/bandit_single","A20IXK8ZV8N72H","gain","1","","76","L","3","","0","0","1","0.1857208284","","false","85","0.1372280885","","main_expt","0.3009252634","","0.05195310968","","0.1857208284","","","","","","",""
"43","","bandit","161","424064","0.0-123.0-0.0","66144748","wem/bandit_single","A20IXK8ZV8N72H","gain","1","","72","H","0","img/none_selected.jpg","0","0","1","0.1685840628","","false","86","0.1685840628","","main_expt","0.3067316121","","0.05385113756","","0.2180329602","","","","","","",""
"58","","bandit","162","425880","0.0-124.0-0.0","66144748","wem/bandit_single","A20IXK8ZV8N72H","gain","1","","74","J","1","","1","0","0","0.3073916088","","false","87","0.1654340797","","main_expt","0.3073916088","","0.08202519069","","0.1893737279","","","","","","",""
"115","","bandit","163","427752","0.0-125.0-0.0","66144748","wem/bandit_single","A20IXK8ZV8N72H","gain","1","","74","J","1","","0","0","1","0.301504441","","false","88","0.1870328522","","main_expt","0.301504441","","0.04873944257","","0.2309201776","","","","","","",""
"43","","bandit","164","429551","0.0-126.0-0.0","66144748","wem/bandit_single","A20IXK8ZV8N72H","gain","1","","74","J","1","","1","0","0","0.3324072184","","false","89","0.1786415591","","main_expt","0.3324072184","","0.05553778571","","0.2368651839","","","","","","",""
"27","","bandit","165","431337","0.0-127.0-0.0","66144748","wem/bandit_single","A20IXK8ZV8N72H","gain","1","","74","J","1","","0","0","1","0.3245139686","","false","90","0.2293974223","","main_expt","0.3245139686","","0.04980790846","","0.2459093935","","","","","","",""
"156","","bandit","166","433250","0.0-128.0-0.0","66144748","wem/bandit_single","A20IXK8ZV8N72H","gain","1","","74","J","1","","1","0","0","0.3310751299","","false","91","0.2407797963","","main_expt","0.3310751299","","0.05804880768","","0.2371609774","","","","","","",""
"51","","bandit","167","435057","0.0-129.0-0.0","66144748","wem/bandit_single","A20IXK8ZV8N72H","gain","1","","74","J","1","","1","0","0","0.3717444616","","false","92","0.2337544695","","main_expt","0.3717444616","","0.0614883172","","0.260478489","","","","","","",""
"1380","","bandit","168","438194","0.0-130.0-0.0","66144748","wem/bandit_single","A20IXK8ZV8N72H","gain","1","","74","J","1","","1","0","0","0.3846532122","","false","93","0.2589688886","","main_expt","0.3846532122","","0.0764333552","","0.2595992258","","","","","","",""
"330","","bandit","169","440282","0.0-131.0-0.0","66144748","wem/bandit_single","A20IXK8ZV8N72H","gain","1","","74","J","1","","0","0","1","0.4017211595","","false","94","0.2699529923","","main_expt","0.4017211595","","0.1280824273","","0.206568391","","","","","","",""
"370","","bandit","170","442409","0.0-132.0-0.0","66144748","wem/bandit_single","A20IXK8ZV8N72H","gain","1","","74","J","1","","1","0","0","0.3736639641","","false","95","0.2626559999","","main_expt","0.3736639641","","0.1191245721","","0.1846794781","","","","","","",""
"92","","bandit","171","444257","0.0-133.0-0.0","66144748","wem/bandit_single","A20IXK8ZV8N72H","gain","1","","74","J","1","","1","0","0","0.3220453652","","false","96","0.2196428224","","main_expt","0.3220453652","","0.08526153109","","0.2484851932","","","","","","",""
"76","","bandit","172","446089","0.0-134.0-0.0","66144748","wem/bandit_single","A20IXK8ZV8N72H","gain","1","","74","J","1","","1","0","0","0.2964534367","","false","97","0.1922289922","","main_expt","0.2964534367","","0.0775518538","","0.198145661","","","","","","",""
"1293","","bandit","173","449140","0.0-135.0-0.0","66144748","wem/bandit_single","A20IXK8ZV8N72H","gain","1","","74","J","1","","0","0","1","0.3388366936","","false","98","0.2328023708","","main_expt","0.3388366936","","0.08824897118","","0.1738253929","","","","","","",""
"496","","bandit","174","451394","0.0-136.0-0.0","66144748","wem/bandit_single","A20IXK8ZV8N72H","gain","1","","74","J","1","","1","0","0","0.4233536788","","false","99","0.2606341713","","main_expt","0.4233536788","","0.08912321317","","0.1261523865","","","","","","",""
"378","","bandit","175","453529","0.0-137.0-0.0","66144748","wem/bandit_single","A20IXK8ZV8N72H","gain","1","","74","J","1","","0","0","1","0.3799029244","","false","100","0.310387162","","main_expt","0.3799029244","","0.1217067293","","0.1368684177","","","","","","",""
"124","","bandit","176","455412","0.0-138.0-0.0","66144748","wem/bandit_single","A20IXK8ZV8N72H","gain","1","","74","J","1","","1","0","0","0.3644029447","","false","101","0.3802628165","","main_expt","0.3644029447","","0.08537200695","","0.1262970555","","","","","","",""
"23","","bandit","177","457193","0.0-139.0-0.0","66144748","wem/bandit_single","A20IXK8ZV8N72H","gain","1","","74","J","1","","0","0","1","0.3414838768","","false","102","0.4133848668","","main_expt","0.3414838768","","0.09606980913","","0.1022564356","","","","","","",""
"42","","bandit","178","458994","0.0-140.0-0.0","66144748","wem/bandit_single","A20IXK8ZV8N72H","gain","1","","74","J","1","","0","0","1","0.3691073091","","false","103","0.4352089555","","main_expt","0.3691073091","","0.09968925047","","0.07046703442","","","","","","",""
"523","","bandit","179","461274","0.0-141.0-0.0","66144748","wem/bandit_single","A20IXK8ZV8N72H","gain","1","","74","J","1","","1","0","0","0.3386210986","","false","104","0.4248252031","","main_expt","0.3386210986","","0.1070137741","","0.08582175226","","","","","","",""
"227","","bandit","180","463258","0.0-142.0-0.0","66144748","wem/bandit_single","A20IXK8ZV8N72H","gain","1","","74","J","1","","0","0","1","0.3517858304","","false","105","0.4382512542","","main_expt","0.3517858304","","0.1086060941","","0.08910626196","","","","","","",""
"251","","bandit","181","465266","0.0-143.0-0.0","66144748","wem/bandit_single","A20IXK8ZV8N72H","gain","1","","74","J","1","","0","0","1","0.4016578568","","false","106","0.4551412652","","main_expt","0.4016578568","","0.1006724549","","0.09380004764","","","","","","",""
"83","","bandit","182","467107","0.0-144.0-0.0","66144748","wem/bandit_single","A20IXK8ZV8N72H","gain","1","","74","J","1","","0","0","1","0.3951748439","","false","107","0.4481373055","","main_expt","0.3951748439","","0.07769839914","","0.08916311959","","","","","","",""
"25","","bandit","183","468889","0.0-145.0-0.0","66144748","wem/bandit_single","A20IXK8ZV8N72H","gain","1","","75","K","2","","0","0","1","0.09470950607","","false","108","0.4611843773","","main_expt","0.3933810371","","0.09470950607","","0.1635033392","","","","","","",""
"44","","bandit","184","470690","0.0-146.0-0.0","66144748","wem/bandit_single","A20IXK8ZV8N72H","gain","1","","76","L","3","","1","0","0","0.1923408453","","false","109","0.416280782","","main_expt","0.3961603237","","0.1117426234","","0.1923408453","","","","","","",""
"122","","bandit","185","472569","0.0-147.0-0.0","66144748","wem/bandit_single","A20IXK8ZV8N72H","gain","1","","76","L","3","","1","0","0","0.1668397223","","false","110","0.3959176693","","main_expt","0.3933476799","","0.1190643529","","0.1668397223","","","","","","",""
"114","","bandit","186","474440","0.0-148.0-0.0","66144748","wem/bandit_single","A20IXK8ZV8N72H","gain","1","","76","L","3","","0","0","1","0.1254506171","","false","111","0.3881072513","","main_expt","0.3953313537","","0.1605091549","","0.1254506171","","","","","","",""
"181","","bandit","187","476379","0.0-149.0-0.0","66144748","wem/bandit_single","A20IXK8ZV8N72H","gain","1","","76","L","3","","0","0","1","0.1596839241","","false","112","0.3430735849","","main_expt","0.3398422341","","0.1531505469","","0.1596839241","","","","","","",""
"50","","bandit","188","478186","0.0-150.0-0.0","66144748","wem/bandit_single","A20IXK8ZV8N72H","gain","1","","76","L","3","","0","0","1","0.1986187203","","false","113","0.3036143476","","main_expt","0.375538402","","0.1796188848","","0.1986187203","","","","","","",""
"43","","bandit","189","479985","0.0-151.0-0.0","66144748","wem/bandit_single","A20IXK8ZV8N72H","gain","1","","76","L","3","","0","0","1","0.2334514198","","false","114","0.3581708668","","main_expt","0.3629483147","","0.1820080726","","0.2334514198","","","","","","",""
"53","","bandit","190","481794","0.0-152.0-0.0","66144748","wem/bandit_single","A20IXK8ZV8N72H","gain","1","","76","L","3","","0","0","1","0.1892672839","","false","115","0.2948471219","","main_expt","0.2969550108","","0.2050936175","","0.1892672839","","","","","","",""
"67","","bandit","191","483617","0.0-153.0-0.0","66144748","wem/bandit_single","A20IXK8ZV8N72H","gain","1","","72","H","0","img/none_selected.jpg","1","0","0","0.2711132382","","false","116","0.2711132382","","main_expt","0.260261953","","0.2071503316","","0.1507180646","","","","","","",""
"113","","bandit","192","485506","0.0-154.0-0.0","66144748","wem/bandit_single","A20IXK8ZV8N72H","gain","1","","72","H","0","img/none_selected.jpg","1","0","0","0.3124997295","","false","117","0.3124997295","","main_expt","0.2626326191","","0.2359882763","","0.1830546279","","","","","","",""
"188","","bandit","193","487450","0.0-155.0-0.0","66144748","wem/bandit_single","A20IXK8ZV8N72H","gain","1","","72","H","0","img/none_selected.jpg","0","0","1","0.3888019654","","false","118","0.3888019654","","main_expt","0.2933310536","","0.2388261631","","0.1415506149","","","","","","",""
"123","","bandit","194","489329","0.0-156.0-0.0","66144748","wem/bandit_single","A20IXK8ZV8N72H","gain","1","","72","H","0","img/none_selected.jpg","0","0","1","0.3695751837","","false","119","0.3695751837","","main_expt","0.2469992957","","0.2470137322","","0.1814909568","","","","","","",""
"210","","bandit","195","491287","0.0-157.0-0.0","66144748","wem/bandit_single","A20IXK8ZV8N72H","gain","1","","72","H","0","img/none_selected.jpg","1","0","0","0.3471196364","","false","120","0.3471196364","","main_expt","0.2186909282","","0.209676098","","0.1900691043","","","","","","",""
"485","","bandit","196","493530","0.0-158.0-0.0","66144748","wem/bandit_single","A20IXK8ZV8N72H","gain","1","","72","H","0","img/none_selected.jpg","0","0","1","0.3164400491","","false","121","0.3164400491","","main_expt","0.1915374776","","0.2058519679","","0.2002257321","","","","","","",""
"57","","bandit","197","495344","0.0-159.0-0.0","66144748","wem/bandit_single","A20IXK8ZV8N72H","gain","1","","72","H","0","img/none_selected.jpg","1","0","0","0.3565888941","","false","122","0.3565888941","","main_expt","0.1666700693","","0.1409467191","","0.2000360786","","","","","","",""
"68","","bandit","198","497168","0.0-160.0-0.0","66144748","wem/bandit_single","A20IXK8ZV8N72H","gain","1","","72","H","0","img/none_selected.jpg","1","0","0","0.3293983066","","false","123","0.3293983066","","main_expt","0.1779758636","","0.08785727187","","0.1656706666","","","","","","",""
"84","","bandit","199","499008","0.0-161.0-0.0","66144748","wem/bandit_single","A20IXK8ZV8N72H","gain","1","","72","H","0","img/none_selected.jpg","0","0","1","0.3202360925","","false","124","0.3202360925","","main_expt","0.2483730269","","0.1153756664","","0.2433115295","","","","","","",""
"203","","bandit","200","500969","0.0-162.0-0.0","66144748","wem/bandit_single","A20IXK8ZV8N72H","gain","1","","72","H","0","img/none_selected.jpg","0","0","1","0.3478690395","","false","125","0.3478690395","","main_expt","0.2274485556","","0.1211147435","","0.1810024247","","","","","","",""
"226","","bandit","201","502952","0.0-163.0-0.0","66144748","wem/bandit_single","A20IXK8ZV8N72H","gain","1","","72","H","0","img/none_selected.jpg","0","0","1","0.3312811416","","false","126","0.3312811416","","main_expt","0.2506805994","","0.1434737457","","0.2138299762","","","","","","",""
"59","","bandit","202","504769","0.0-164.0-0.0","66144748","wem/bandit_single","A20IXK8ZV8N72H","gain","1","","74","J","1","","0","0","1","0.2520497492","","false","127","0.2641060438","","main_expt","0.2520497492","","0.1970801631","","0.1993304114","","","","","","",""
"690","","bandit","203","507217","0.0-165.0-0.0","66144748","wem/bandit_single","A20IXK8ZV8N72H","gain","1","","75","K","2","","0","0","1","0.2891253811","","false","128","0.2239657692","","main_expt","0.1948091286","","0.2891253811","","0.2602773644","","","","","","",""
"195","","bandit","204","509169","0.0-166.0-0.0","66144748","wem/bandit_single","A20IXK8ZV8N72H","gain","1","","76","L","3","","0","0","1","0.2960784606","","false","129","0.2243581634","","main_expt","0.1749799719","","0.2389970352","","0.2960784606","","","","","","",""
"43","","bandit","205","510968","0.0-167.0-0.0","66144748","wem/bandit_single","A20IXK8ZV8N72H","gain","1","","72","H","0","img/none_selected.jpg","1","0","0","0.2215765871","","false","130","0.2215765871","","main_expt","0.1950546205","","0.2613596901","","0.2720271615","","","","","","",""
"418","","bandit","206","513144","0.0-168.0-0.0","66144748","wem/bandit_single","A20IXK8ZV8N72H","gain","1","","72","H","0","img/none_selected.jpg","0","0","1","0.1796651873","","false","131","0.1796651873","","main_expt","0.2501377387","","0.2254289723","","0.2403459828","","","","","","",""
"181","","bandit","207","515081","0.0-169.0-0.0","66144748","wem/bandit_single","A20IXK8ZV8N72H","gain","1","","72","H","0","img/none_selected.jpg","0","0","1","0.1946412172","","false","132","0.1946412172","","main_expt","0.2275015869","","0.2759434303","","0.2261584059","","","","","","",""
"130","","bandit","208","516968","0.0-170.0-0.0","66144748","wem/bandit_single","A20IXK8ZV8N72H","gain","1","","72","H","0","img/none_selected.jpg","0","0","1","0.2390261597","","false","133","0.2390261597","","main_expt","0.1961271051","","0.3153186182","","0.225512635","","","","","","",""
"130","","bandit","209","518885","0.0-171.0-0.0","66144748","wem/bandit_single","A20IXK8ZV8N72H","gain","1","","74","J","1","","0","0","1","0.2508816485","","false","134","0.227958871","","main_expt","0.2508816485","","0.2950667763","","0.2119287539","","","","","","",""
"39","","bandit","210","520681","0.0-172.0-0.0","66144748","wem/bandit_single","A20IXK8ZV8N72H","gain","1","","75","K","2","","0","0","1","0.3307223606","","false","135","0.2312014448","","main_expt","0.3394706536","","0.3307223606","","0.1980603764","","","","","","",""
"61","","bandit","211","522504","0.0-173.0-0.0","66144748","wem/bandit_single","A20IXK8ZV8N72H","gain","1","","76","L","3","","0","0","1","0.2325476757","","false","136","0.27599984","","main_expt","0.2837829406","","0.3298223854","","0.2325476757","","","","","","",""
"50","","bandit","212","524312","0.0-174.0-0.0","66144748","wem/bandit_single","A20IXK8ZV8N72H","gain","1","","72","H","0","img/none_selected.jpg","0","0","1","0.2313694212","","false","137","0.2313694212","","main_expt","0.3024244849","","0.3330531331","","0.2334264213","","","","","","",""
"19","","bandit","213","526090","0.0-175.0-0.0","66144748","wem/bandit_single","A20IXK8ZV8N72H","gain","1","","74","J","1","","0","0","1","0.3473265679","","false","138","0.1816115857","","main_expt","0.3473265679","","0.292929501","","0.3107735177","","","","","","",""
"762","","bandit","214","528609","0.0-176.0-0.0","66144748","wem/bandit_single","A20IXK8ZV8N72H","gain","1","","75","K","2","","1","0","0","0.2849421758","","false","139","0.1658496667","","main_expt","0.2828336224","","0.2849421758","","0.3374098654","","","","","","",""
"84","","bandit","215","530449","0.0-177.0-0.0","66144748","wem/bandit_single","A20IXK8ZV8N72H","gain","1","","75","K","2","","0","0","1","0.3149573531","","false","140","0.1644365985","","main_expt","0.3238397914","","0.3149573531","","0.3401298673","","","","","","",""
"131","","bandit","216","532342","0.0-178.0-0.0","66144748","wem/bandit_single","A20IXK8ZV8N72H","gain","1","","75","K","2","","0","0","1","0.2937847178","","false","141","0.16055167","","main_expt","0.3490905252","","0.2937847178","","0.363539884","","","","","","",""
"831","","bandit","217","534938","0.0-179.0-0.0","66144748","wem/bandit_single","A20IXK8ZV8N72H","gain","1","","75","K","2","","1","0","0","0.2695919138","","false","142","0.1426499966","","main_expt","0.337853111","","0.2695919138","","0.3207651517","","","","","","",""
"265","","bandit","218","536960","0.0-180.0-0.0","66144748","wem/bandit_single","A20IXK8ZV8N72H","gain","1","","75","K","2","","0","0","1","0.206179854","","false","143","0.1133276474","","main_expt","0.3475703167","","0.206179854","","0.2976941359","","","","","","",""
"28","","bandit","219","538744","0.0-181.0-0.0","66144748","wem/bandit_single","A20IXK8ZV8N72H","gain","1","","75","K","2","","1","0","0","0.2123329462","","false","144","0.1351054788","","main_expt","0.3809945211","","0.2123329462","","0.2405576463","","","","","","",""
"52","","bandit","220","540553","0.0-182.0-0.0","66144748","wem/bandit_single","A20IXK8ZV8N72H","gain","1","","75","K","2","","1","0","0","0.2144195617","","false","145","0.1703546958","","main_expt","0.3842622547","","0.2144195617","","0.2513929943","","","","","","",""
"210","","bandit","221","542520","0.0-183.0-0.0","66144748","wem/bandit_single","A20IXK8ZV8N72H","gain","1","","75","K","2","","1","0","0","0.2264269311","","false","146","0.1382352341","","main_expt","0.4068715463","","0.2264269311","","0.2665850657","","","","","","",""
"129","","bandit","222","544408","0.0-184.0-0.0","66144748","wem/bandit_single","A20IXK8ZV8N72H","gain","1","","75","K","2","","0","0","1","0.2458089499","","false","147","0.1111211324","","main_expt","0.3690267696","","0.2458089499","","0.2742171136","","","","","","",""
"1075","","bandit","223","547242","0.0-185.0-0.0","66144748","wem/bandit_single","A20IXK8ZV8N72H","gain","1","","75","K","2","","0","0","1","0.2581131455","","false","148","0.1046256567","","main_expt","0.3999465919","","0.2581131455","","0.2504516377","","","","","","",""
"234","","bandit","224","549233","0.0-186.0-0.0","66144748","wem/bandit_single","A20IXK8ZV8N72H","gain","1","","75","K","2","","0","0","1","0.2055420423","","false","149","0.09450025474","","main_expt","0.3823047489","","0.2055420423","","0.2749888299","","","","","","",""
"410","","bandit","225","551389","0.0-187.0-0.0","66144748","wem/bandit_single","A20IXK8ZV8N72H","gain","1","","76","L","3","","0","0","1","0.2199302859","","false","150","0.08682851814","","main_expt","0.3970301866","","0.2196547661","","0.2199302859","","","","","","",""
"173","","bandit","226","553318","0.0-188.0-0.0","66144748","wem/bandit_single","A20IXK8ZV8N72H","gain","1","","72","H","0","img/none_selected.jpg","0","0","1","0.0775356828","","false","151","0.0775356828","","main_expt","0.4141828336","","0.2311854424","","0.228921305","","","","","","",""
"67","","bandit","227","555142","0.0-189.0-0.0","66144748","wem/bandit_single","A20IXK8ZV8N72H","gain","1","","74","J","1","","1","0","0","0.4233092002","","false","152","0.08719832593","","main_expt","0.4233092002","","0.2692750042","","0.1858313389","","","","","","",""
"163","","bandit","228","557062","0.0-190.0-0.0","66144748","wem/bandit_single","A20IXK8ZV8N72H","gain","1","","74","J","1","","1","0","0","0.3961827626","","false","153","0.06950392785","","main_expt","0.3961827626","","0.3209664266","","0.2253380596","","","","","","",""
"444","","bandit","229","559265","0.0-191.0-0.0","66144748","wem/bandit_single","A20IXK8ZV8N72H","gain","1","","74","J","1","","1","0","0","0.4023640633","","false","154","0.09734883616","","main_expt","0.4023640633","","0.2633096479","","0.1787374968","","","","","","",""
"98","","bandit","230","561119","0.0-192.0-0.0","66144748","wem/bandit_single","A20IXK8ZV8N72H","gain","1","","74","J","1","","0","0","1","0.3927422998","","false","155","0.1078867986","","main_expt","0.3927422998","","0.2611493198","","0.1026625787","","","","","","",""
"298","","bandit","231","563174","0.0-193.0-0.0","66144748","wem/bandit_single","A20IXK8ZV8N72H","gain","1","","74","J","1","","1","0","0","0.3696188161","","false","156","0.09294383108","","main_expt","0.3696188161","","0.2556392324","","0.1201393653","","","","","","",""
"140","","bandit","232","565070","0.0-194.0-0.0","66144748","wem/bandit_single","A20IXK8ZV8N72H","gain","1","","74","J","1","","0","0","1","0.3562863837","","false","157","0.1344904143","","main_expt","0.3562863837","","0.2237912435","","0.1601810659","","","","","","",""
"347","","bandit","233","567174","0.0-195.0-0.0","66144748","wem/bandit_single","A20IXK8ZV8N72H","gain","1","","74","J","1","","0","0","1","0.3891013447","","false","158","0.1682501471","","main_expt","0.3891013447","","0.2269937079","","0.2178666355","","","","","","",""
"619","","bandit","234","569551","0.0-196.0-0.0","66144748","wem/bandit_single","A20IXK8ZV8N72H","gain","1","","74","J","1","","0","0","1","0.3771509201","","false","159","0.1859978291","","main_expt","0.3771509201","","0.2244600926","","0.2088119712","","","","","","",""
"578","","bandit","235","571887","0.0-197.0-0.0","66144748","wem/bandit_single","A20IXK8ZV8N72H","gain","1","","75","K","2","","1","0","0","0.231654425","","false","160","0.1169857497","","main_expt","0.3677966378","","0.231654425","","0.2853399033","","","","","","",""
"35","","bandit","236","573680","0.0-198.0-0.0","66144748","wem/bandit_single","A20IXK8ZV8N72H","gain","1","","75","K","2","","0","0","1","0.2415747561","","false","161","0.1131976547","","main_expt","0.3691576932","","0.2415747561","","0.2755093387","","","","","","",""
"31","","bandit","237","575470","0.0-199.0-0.0","66144748","wem/bandit_single","A20IXK8ZV8N72H","gain","1","","75","K","2","","0","0","1","0.1807921844","","false","162","0.1560378341","","main_expt","0.3102253273","","0.1807921844","","0.2706635439","","","","","","",""
"10","","bandit","238","577237","0.0-200.0-0.0","66144748","wem/bandit_single","A20IXK8ZV8N72H","gain","1","","75","K","2","","0","0","1","0.1986212186","","false","163","0.1200759877","","main_expt","0.3361037566","","0.1986212186","","0.2856851073","","","","","","",""
"155","","bandit","239","579151","0.0-201.0-0.0","66144748","wem/bandit_single","A20IXK8ZV8N72H","gain","1","","76","L","3","","1","0","0","0.3188827228","","false","164","0.1198838954","","main_expt","0.3097300036","","0.1799022971","","0.3188827228","","","","","","",""
"82","","bandit","240","580992","0.0-202.0-0.0","66144748","wem/bandit_single","A20IXK8ZV8N72H","gain","1","","76","L","3","","0","0","1","0.3258940933","","false","165","0.1397308529","","main_expt","0.3234169084","","0.2610149466","","0.3258940933","","","","","","",""
"26","","bandit","241","582775","0.0-203.0-0.0","66144748","wem/bandit_single","A20IXK8ZV8N72H","gain","1","","76","L","3","","0","0","1","0.3525092479","","false","166","0.1506282743","","main_expt","0.3201458278","","0.2673729835","","0.3525092479","","","","","","",""
"114","","bandit","242","584646","0.0-204.0-0.0","66144748","wem/bandit_single","A20IXK8ZV8N72H","gain","1","","76","L","3","","1","0","0","0.3919017073","","false","167","0.1407574557","","main_expt","0.366643239","","0.169486101","","0.3919017073","","","","","","",""
"32","","bandit","243","586438","0.0-205.0-0.0","66144748","wem/bandit_single","A20IXK8ZV8N72H","gain","1","","76","L","3","","1","0","0","0.3855955566","","false","168","0.1217255528","","main_expt","0.3877512758","","0.1997030364","","0.3855955566","","","","","","",""
"19","","bandit","244","588214","0.0-206.0-0.0","66144748","wem/bandit_single","A20IXK8ZV8N72H","gain","1","","76","L","3","","0","0","1","0.3882436634","","false","169","0.118108524","","main_expt","0.3733196812","","0.2391799942","","0.3882436634","","","","","","",""
"2","","bandit","245","589975","0.0-207.0-0.0","66144748","wem/bandit_single","A20IXK8ZV8N72H","gain","1","","76","L","3","","1","0","0","0.4096789578","","false","170","0.0750780909","","main_expt","0.3616719183","","0.2239577552","","0.4096789578","","","","","","",""
"18","","bandit","246","591751","0.0-208.0-0.0","66144748","wem/bandit_single","A20IXK8ZV8N72H","gain","1","","76","L","3","","0","0","1","0.4326257363","","false","171","0.07048665386","","main_expt","0.3222484871","","0.2175962327","","0.4326257363","","","","","","",""
"90","","bandit","247","593608","0.0-209.0-0.0","66144748","wem/bandit_single","A20IXK8ZV8N72H","gain","1","","76","L","3","","1","0","0","0.4381189537","","false","172","0.09439478605","","main_expt","0.2849842628","","0.2061205584","","0.4381189537","","","","","","",""
"104","","bandit","248","595469","0.0-210.0-0.0","66144748","wem/bandit_single","A20IXK8ZV8N72H","gain","1","","76","L","3","","0","0","1","0.3823577146","","false","173","0.05932603211","","main_expt","0.2896949147","","0.1787022686","","0.3823577146","","","","","","",""
"68","","bandit","249","597295","0.0-211.0-0.0","66144748","wem/bandit_single","A20IXK8ZV8N72H","gain","1","","76","L","3","","1","0","0","0.4155511425","","false","174","0.1019229976","","main_expt","0.260829927","","0.1782801474","","0.4155511425","","","","","","",""
"138","","bandit","250","599191","0.0-212.0-0.0","66144748","wem/bandit_single","A20IXK8ZV8N72H","gain","1","","76","L","3","","0","0","1","0.4391025654","","false","175","0.1270031357","","main_expt","0.1608433896","","0.1723114597","","0.4391025654","","","","","","",""
"51","","bandit","251","601000","0.0-213.0-0.0","66144748","wem/bandit_single","A20IXK8ZV8N72H","gain","1","","76","L","3","","0","0","1","0.4654332747","","false","176","0.1519507126","","main_expt","0.1924323662","","0.1714247165","","0.4654332747","","","","","","",""
"177","","bandit","252","602934","0.0-214.0-0.0","66144748","wem/bandit_single","A20IXK8ZV8N72H","gain","1","","76","L","3","","0","0","1","0.4862166952","","false","177","0.2645819263","","main_expt","0.1942299772","","0.2003569552","","0.4862166952","","","","","","",""
"75","","bandit","253","604766","0.0-215.0-0.0","66144748","wem/bandit_single","A20IXK8ZV8N72H","gain","1","","72","H","0","img/none_selected.jpg","1","0","0","0.2497033982","","false","178","0.2497033982","","main_expt","0.2266891382","","0.1848954505","","0.4878504479","","","","","","",""
"123","","bandit","254","606646","0.0-216.0-0.0","66144748","wem/bandit_single","A20IXK8ZV8N72H","gain","1","","72","H","0","img/none_selected.jpg","0","0","1","0.2464833147","","false","179","0.2464833147","","main_expt","0.193755509","","0.120488448","","0.4925433574","","","","","","",""
"83","","bandit","255","608486","0.0-217.0-0.0","66144748","wem/bandit_single","A20IXK8ZV8N72H","gain","1","","72","H","0","img/none_selected.jpg","0","0","1","0.191435525","","false","180","0.191435525","","main_expt","0.2143300014","","0.09518531587","","0.4863546804","","","","","","",""
"51","","bandit","256","610294","0.0-218.0-0.0","66144748","wem/bandit_single","A20IXK8ZV8N72H","gain","1","","72","H","0","img/none_selected.jpg","0","0","1","0.2095150634","","false","181","0.2095150634","","main_expt","0.1996101457","","0.1110105533","","0.4898831258","","","","","","",""
"75","","bandit","257","612117","0.0-219.0-0.0","66144748","wem/bandit_single","A20IXK8ZV8N72H","gain","1","","74","J","1","","0","0","1","0.220362663","","false","182","0.2238619417","","main_expt","0.220362663","","0.1321710188","","0.4702328405","","","","","","",""
"7","","bandit","258","613886","0.0-220.0-0.0","66144748","wem/bandit_single","A20IXK8ZV8N72H","gain","1","","75","K","2","","1","0","0","0.07205074818","","false","183","0.172430875","","main_expt","0.2087999581","","0.07205074818","","0.4443650637","","","","","","",""
"25","","bandit","259","615669","0.0-221.0-0.0","66144748","wem/bandit_single","A20IXK8ZV8N72H","gain","1","","75","K","2","","0","0","1","0.08140980564","","false","184","0.1537152065","","main_expt","0.2693368533","","0.08140980564","","0.4395551327","","","","","","",""
"58","","bandit","260","617486","0.0-222.0-0.0","66144748","wem/bandit_single","A20IXK8ZV8N72H","gain","1","","75","K","2","","0","0","1","0.07005875891","","false","185","0.1089078126","","main_expt","0.3177788722","","0.07005875891","","0.427498872","","","","","","",""
"89","","bandit","261","619334","0.0-223.0-0.0","66144748","wem/bandit_single","A20IXK8ZV8N72H","gain","1","","75","K","2","","0","0","1","0.04712836877","","false","186","0.1150542287","","main_expt","0.3093747324","","0.04712836877","","0.4126395781","","","","","","",""
"115","","bandit","262","621206","0.0-224.0-0.0","66144748","wem/bandit_single","A20IXK8ZV8N72H","gain","1","","76","L","3","","1","0","0","0.4059631444","","false","187","0.07877539194","","main_expt","0.3361469263","","0.07097221374","","0.4059631444","","","","","","",""
"161","","bandit","263","623125","0.0-225.0-0.0","66144748","wem/bandit_single","A20IXK8ZV8N72H","gain","1","","76","L","3","","0","0","1","0.4007853126","","false","188","0.06234325246","","main_expt","0.3096611705","","0.04255461481","","0.4007853126","","","","","","",""
"147","","bandit","264","625029","0.0-226.0-0.0","66144748","wem/bandit_single","A20IXK8ZV8N72H","gain","1","","76","L","3","","0","0","1","0.4208201059","","false","189","0.07748383332","","main_expt","0.298651231","","0.03834091028","","0.4208201059","","","","","","",""
"59","","bandit","265","626845","0.0-227.0-0.0","66144748","wem/bandit_single","A20IXK8ZV8N72H","gain","1","","76","L","3","","0","0","1","0.4249824956","","false","190","0.08864116925","","main_expt","0.3361123746","","0.03101500858","","0.4249824956","","","","","","",""
"122","","bandit","266","628725","0.0-228.0-0.0","66144748","wem/bandit_single","A20IXK8ZV8N72H","gain","1","","72","H","0","img/none_selected.jpg","0","0","1","0.1114019665","","false","191","0.1114019665","","main_expt","0.3529126189","","0.05137759752","","0.4519194686","","","","","","",""
"17","","bandit","267","630501","0.0-229.0-0.0","66144748","wem/bandit_single","A20IXK8ZV8N72H","gain","1","","74","J","1","","0","0","1","0.3806900048","","false","192","0.0944181321","","main_expt","0.3806900048","","0.05101019331","","0.449072141","","","","","","",""
"81","","bandit","268","632340","0.0-230.0-0.0","66144748","wem/bandit_single","A20IXK8ZV8N72H","gain","1","","75","K","2","","0","0","1","0.0408087357","","false","193","0.09015445577","","main_expt","0.3191299148","","0.0408087357","","0.4069092802","","","","","","",""
"67","","bandit","269","634166","0.0-231.0-0.0","66144748","wem/bandit_single","A20IXK8ZV8N72H","gain","1","","76","L","3","","0","0","1","0.399300076","","false","194","0.09569888082","","main_expt","0.3350705725","","0.04787233925","","0.399300076","","","","","","",""
"50","","bandit","270","635974","0.0-232.0-0.0","66144748","wem/bandit_single","A20IXK8ZV8N72H","gain","1","","72","H","0","img/none_selected.jpg","0","0","1","0.1521563302","","false","195","0.1521563302","","main_expt","0.3579412151","","0.07297342555","","0.4028519225","","","","","","",""
"57","","bandit","271","637791","0.0-233.0-0.0","66144748","wem/bandit_single","A20IXK8ZV8N72H","gain","1","","74","J","1","","0","0","1","0.4135102269","","false","196","0.1612876033","","main_expt","0.4135102269","","0.1090796252","","0.3708283831","","","","","","",""
"250","","bandit","272","639797","0.0-234.0-0.0","66144748","wem/bandit_single","A20IXK8ZV8N72H","gain","1","","75","K","2","","0","0","1","0.1141593934","","false","197","0.1818980103","","main_expt","0.4368922102","","0.1141593934","","0.3992028251","","","","","","",""
"203","","bandit","273","641757","0.0-235.0-0.0","66144748","wem/bandit_single","A20IXK8ZV8N72H","gain","1","","76","L","3","","1","0","0","0.3662313723","","false","198","0.1426991491","","main_expt","0.4329908538","","0.1247063377","","0.3662313723","","","","","","",""
"130","","bandit","274","643645","0.0-236.0-0.0","66144748","wem/bandit_single","A20IXK8ZV8N72H","gain","1","","76","L","3","","0","0","1","0.3667285709","","false","199","0.1339470975","","main_expt","0.4458308372","","0.1324590526","","0.3667285709","","","","","","",""
"260","","bandit","275","645662","0.0-237.0-0.0","66144748","wem/bandit_single","A20IXK8ZV8N72H","gain","1","","76","L","3","","1","0","0","0.365396467","","false","200","0.1615481579","","main_expt","0.4535445428","","0.1062358191","","0.365396467","","","","","","",""
"346","","bandit","276","647767","0.0-238.0-0.0","66144748","wem/bandit_single","A20IXK8ZV8N72H","gain","1","","76","L","3","","0","0","1","0.3413602931","","false","201","0.1889616495","","main_expt","0.4258040833","","0.1027729413","","0.3413602931","","","","","","",""
"18","","bandit","277","649541","0.0-239.0-0.0","66144748","wem/bandit_single","A20IXK8ZV8N72H","gain","1","","76","L","3","","0","0","1","0.3655369163","","false","202","0.2043886565","","main_expt","0.413157784","","0.09207086273","","0.3655369163","","","","","","",""
"88","","bandit","278","651390","0.0-240.0-0.0","66144748","wem/bandit_single","A20IXK8ZV8N72H","gain","1","","76","L","3","","1","0","0","0.3301706169","","false","203","0.2274570119","","main_expt","0.358983575","","0.1409949376","","0.3301706169","","","","","","",""
"17","","bandit","279","653165","0.0-241.0-0.0","66144748","wem/bandit_single","A20IXK8ZV8N72H","gain","1","","76","L","3","","1","0","0","0.3305557625","","false","204","0.1795680912","","main_expt","0.3354839288","","0.2067441942","","0.3305557625","","","","","","",""
"92","","bandit","280","655014","0.0-242.0-0.0","66144748","wem/bandit_single","A20IXK8ZV8N72H","gain","1","","76","L","3","","0","0","1","0.3332543728","","false","205","0.1823506393","","main_expt","0.3814446138","","0.2171549514","","0.3332543728","","","","","","",""
"33","","bandit","281","656805","0.0-243.0-0.0","66144748","wem/bandit_single","A20IXK8ZV8N72H","gain","1","","76","L","3","","0","0","1","0.270761893","","false","206","0.1401809595","","main_expt","0.4069937863","","0.1399251859","","0.270761893","","","","","","",""
"80","","bandit","282","658645","0.0-244.0-0.0","66144748","wem/bandit_single","A20IXK8ZV8N72H","gain","1","","76","L","3","","0","0","1","0.2595670132","","false","207","0.1651993972","","main_expt","0.4261201247","","0.1700254018","","0.2595670132","","","","","","",""
"83","","bandit","283","660485","0.0-245.0-0.0","66144748","wem/bandit_single","A20IXK8ZV8N72H","gain","1","","72","H","0","img/none_selected.jpg","0","0","1","0.1803987852","","false","208","0.1803987852","","main_expt","0.4105702951","","0.1831619311","","0.2772442529","","","","","","",""
"144","","bandit","284","662387","0.0-246.0-0.0","66144748","wem/bandit_single","A20IXK8ZV8N72H","gain","1","","74","J","1","","1","0","0","0.402481318","","false","209","0.1470434113","","main_expt","0.402481318","","0.151215806","","0.2654441326","","","","","","",""
"172","","bandit","285","664318","0.0-247.0-0.0","66144748","wem/bandit_single","A20IXK8ZV8N72H","gain","1","","74","J","1","","0","0","1","0.4378094136","","false","210","0.1375860563","","main_expt","0.4378094136","","0.1841878728","","0.2475709295","","","","","","",""
"3","","bandit","286","666077","0.0-248.0-0.0","66144748","wem/bandit_single","A20IXK8ZV8N72H","gain","1","","74","J","1","","0","0","1","0.4174257438","","false","211","0.1181257803","","main_expt","0.4174257438","","0.190591144","","0.1836637302","","","","","","",""
"107","","bandit","287","667941","0.0-249.0-0.0","66144748","wem/bandit_single","A20IXK8ZV8N72H","gain","1","","74","J","1","","0","0","1","0.4235695044","","false","212","0.1284194295","","main_expt","0.4235695044","","0.2024219406","","0.2018671691","","","","","","",""
"114","","bandit","288","669830","0.0-250.0-0.0","66144748","wem/bandit_single","A20IXK8ZV8N72H","gain","1","","75","K","2","","1","0","0","0.1985525674","","false","213","0.1088774305","","main_expt","0.4112054282","","0.1985525674","","0.1807811906","","","","","","",""
"91","","bandit","289","671667","0.0-251.0-0.0","66144748","wem/bandit_single","A20IXK8ZV8N72H","gain","1","","75","K","2","","0","0","1","0.1940352924","","false","214","0.07230623063","","main_expt","0.3986702209","","0.1940352924","","0.2432807767","","","","","","",""
"59","","bandit","290","673483","0.0-252.0-0.0","66144748","wem/bandit_single","A20IXK8ZV8N72H","gain","1","","75","K","2","","0","0","1","0.1155678072","","false","215","0.07963887701","","main_expt","0.4379561577","","0.1155678072","","0.2167976264","","","","","","",""
"155","","bandit","291","675395","0.0-253.0-0.0","66144748","wem/bandit_single","A20IXK8ZV8N72H","gain","1","","75","K","2","","0","0","1","0.08288275022","","false","216","0.0792987172","","main_expt","0.425003275","","0.08288275022","","0.2963745884","","","","","","",""
"152","","bandit","292","677307","0.0-254.0-0.0","66144748","wem/bandit_single","A20IXK8ZV8N72H","gain","1","","76","L","3","","1","0","0","0.2704200786","","false","217","0.07576557353","","main_expt","0.4398514333","","0.1108164962","","0.2704200786","","","","","","",""
"128","","bandit","293","679195","0.0-255.0-0.0","66144748","wem/bandit_single","A20IXK8ZV8N72H","gain","1","","76","L","3","","0","0","1","0.2057322541","","false","218","0.05946619603","","main_expt","0.4307107256","","0.1166222362","","0.2057322541","","","","","","",""
"40","","bandit","294","680995","0.0-256.0-0.0","66144748","wem/bandit_single","A20IXK8ZV8N72H","gain","1","","76","L","3","","0","0","1","0.2143414454","","false","219","0.07419684477","","main_expt","0.4236121262","","0.1441412427","","0.2143414454","","","","","","",""
"175","","bandit","295","682932","0.0-257.0-0.0","66144748","wem/bandit_single","A20IXK8ZV8N72H","gain","1","","76","L","3","","0","0","1","0.1630835619","","false","220","0.09297922461","","main_expt","0.4020148519","","0.1460318591","","0.1630835619","","","","","","",""
"113","","bandit","296","684802","0.0-258.0-0.0","66144748","wem/bandit_single","A20IXK8ZV8N72H","gain","1","","72","H","0","img/none_selected.jpg","1","0","0","0.1429286242","","false","221","0.1429286242","","main_expt","0.4073181559","","0.1068666799","","0.1536312793","","","","","","",""
"1037","","bandit","297","687596","0.0-259.0-0.0","66144748","wem/bandit_single","A20IXK8ZV8N72H","gain","1","","72","H","0","img/none_selected.jpg","0","0","1","0.1708286753","","false","222","0.1708286753","","main_expt","0.3651123295","","0.1101844092","","0.2214617817","","","","","","",""
"41","","bandit","298","689398","0.0-260.0-0.0","66144748","wem/bandit_single","A20IXK8ZV8N72H","gain","1","","72","H","0","img/none_selected.jpg","0","0","1","0.1461267001","","false","223","0.1461267001","","main_expt","0.3836441325","","0.0707480467","","0.2273662723","","","","","","",""
"32","","bandit","299","691187","0.0-261.0-0.0","66144748","wem/bandit_single","A20IXK8ZV8N72H","gain","1","","72","H","0","img/none_selected.jpg","0","0","1","0.144808321","","false","224","0.144808321","","main_expt","0.3982756155","","0.06117493494","","0.1894352557","","","","","","",""
"67","","bandit","300","693011","0.0-262.0-0.0","66144748","wem/bandit_single","A20IXK8ZV8N72H","gain","1","","74","J","1","","1","0","0","0.3942448394","","false","225","0.1890777341","","main_expt","0.3942448394","","0.0615688762","","0.1292085382","","","","","","",""
"112","","bandit","301","694885","0.0-263.0-0.0","66144748","wem/bandit_single","A20IXK8ZV8N72H","gain","1","","74","J","1","","0","0","1","0.4169515918","","false","226","0.1442837472","","main_expt","0.4169515918","","0.05052633559","","0.1530858041","","","","","","",""
"1","","bandit","302","696643","0.0-264.0-0.0","66144748","wem/bandit_single","A20IXK8ZV8N72H","gain","1","","74","J","1","","0","0","1","0.4204191544","","false","227","0.1425852804","","main_expt","0.4204191544","","0.05726050712","","0.1593334253","","","","","","",""
"1","","bandit","303","698404","0.0-265.0-0.0","66144748","wem/bandit_single","A20IXK8ZV8N72H","gain","1","","74","J","1","","1","0","0","0.4091886","","false","228","0.1116716659","","main_expt","0.4091886","","0.0758768547","","0.1247523642","","","","","","",""
"20","","bandit","304","700180","0.0-266.0-0.0","66144748","wem/bandit_single","A20IXK8ZV8N72H","gain","1","","74","J","1","","0","0","1","0.407276644","","false","229","0.1206121499","","main_expt","0.407276644","","0.07022353505","","0.1463700977","","","","","","",""
"1193","","bandit","305","703132","0.0-267.0-0.0","66144748","wem/bandit_single","A20IXK8ZV8N72H","gain","1","","74","J","1","","0","0","1","0.4254558538","","false","230","0.1168532629","","main_expt","0.4254558538","","0.06577032649","","0.1402324221","","","","","","",""
"195","","bandit","306","705087","0.0-268.0-0.0","66144748","wem/bandit_single","A20IXK8ZV8N72H","gain","1","","74","J","1","","0","0","1","0.4259586803","","false","231","0.0916199044","","main_expt","0.4259586803","","0.06313303242","","0.1914784592","","","","","","",""
"663","","bandit","307","707508","0.0-269.0-0.0","66144748","wem/bandit_single","A20IXK8ZV8N72H","gain","1","","75","K","2","","0","0","1","0.05490827263","","false","232","0.09573807812","","main_expt","0.4429649496","","0.05490827263","","0.1507361932","","","","","","",""
"282","","bandit","308","709548","0.0-270.0-0.0","66144748","wem/bandit_single","A20IXK8ZV8N72H","gain","1","","75","K","2","","0","0","1","0.04200611561","","false","233","0.1246926578","","main_expt","0.4456598826","","0.04200611561","","0.1902650793","","","","","","",""
"74","","bandit","309","711403","0.0-271.0-0.0","66144748","wem/bandit_single","A20IXK8ZV8N72H","gain","1","","76","L","3","","0","0","1","0.2663902881","","false","234","0.122457211","","main_expt","0.4504169918","","0.0550058871","","0.2663902881","","","","","","",""
"153","","bandit","310","713316","0.0-272.0-0.0","66144748","wem/bandit_single","A20IXK8ZV8N72H","gain","1","","72","H","0","img/none_selected.jpg","0","0","1","0.1561374187","","false","235","0.1561374187","","main_expt","0.4255816076","","0.06273227262","","0.257874652","","","","","","",""
"57","","bandit","311","715132","0.0-273.0-0.0","66144748","wem/bandit_single","A20IXK8ZV8N72H","gain","1","","74","J","1","","0","0","1","0.4262424011","","false","236","0.1726763947","","main_expt","0.4262424011","","0.09869136657","","0.2134416149","","","","","","",""
"185","","bandit","312","717075","0.0-274.0-0.0","66144748","wem/bandit_single","A20IXK8ZV8N72H","gain","1","","75","K","2","","0","0","1","0.06464195797","","false","237","0.163453789","","main_expt","0.4314914545","","0.06464195797","","0.1655180868","","","","","","",""
"346","","bandit","313","719179","0.0-275.0-0.0","66144748","wem/bandit_single","A20IXK8ZV8N72H","gain","1","","76","L","3","","0","0","1","0.1528926348","","false","238","0.1511244057","","main_expt","0.4580147213","","0.1092425733","","0.1528926348","","","","","","",""
"183","","bandit","314","721123","0.0-276.0-0.0","66144748","wem/bandit_single","A20IXK8ZV8N72H","gain","1","","72","H","0","img/none_selected.jpg","0","0","1","0.1170855371","","false","239","0.1170855371","","main_expt","0.4437162142","","0.08920017271","","0.1594670864","","","","","","",""
"195","","bandit","315","723075","0.0-277.0-0.0","66144748","wem/bandit_single","A20IXK8ZV8N72H","gain","1","","74","J","1","","1","0","0","0.4423909474","","false","240","0.1281478965","","main_expt","0.4423909474","","0.138477068","","0.104293197","","","","","","",""
"26","","bandit","316","724860","0.0-278.0-0.0","66144748","wem/bandit_single","A20IXK8ZV8N72H","gain","1","","74","J","1","","1","0","0","0.4542424264","","false","241","0.1579661802","","main_expt","0.4542424264","","0.1249513709","","0.07968297136","","","","","","",""
"426","","bandit","317","727045","0.0-279.0-0.0","66144748","wem/bandit_single","A20IXK8ZV8N72H","gain","1","","74","J","1","","1","0","0","0.4659063812","","false","242","0.1345462726","","main_expt","0.4659063812","","0.09754639251","","0.07079416442","","","","","","",""
"584","","bandit","318","729388","0.0-280.0-0.0","66144748","wem/bandit_single","A20IXK8ZV8N72H","gain","1","","74","J","1","","1","0","0","0.4702771719","","false","243","0.1793426478","","main_expt","0.4702771719","","0.1223474156","","0.08709770617","","","","","","",""
"131","","bandit","319","731275","0.0-281.0-0.0","66144748","wem/bandit_single","A20IXK8ZV8N72H","gain","1","","74","J","1","","1","0","0","0.4678480784","","false","244","0.1623289848","","main_expt","0.4678480784","","0.1004902073","","0.08252109256","","","","","","",""
"177","","bandit","320","733210","0.0-282.0-0.0","66144748","wem/bandit_single","A20IXK8ZV8N72H","gain","1","","74","J","1","","0","0","1","0.4608336118","","false","245","0.1638267454","","main_expt","0.4608336118","","0.09372717231","","0.07130924754","","","","","","",""
"83","","bandit","321","735050","0.0-283.0-0.0","66144748","wem/bandit_single","A20IXK8ZV8N72H","gain","1","","74","J","1","","1","0","0","0.4455928316","","false","246","0.1794660524","","main_expt","0.4455928316","","0.1004977064","","0.06886742221","","","","","","",""
"2","","bandit","322","736810","0.0-284.0-0.0","66144748","wem/bandit_single","A20IXK8ZV8N72H","gain","1","","74","J","1","","0","0","1","0.4322927154","","false","247","0.1751092572","","main_expt","0.4322927154","","0.09336015453","","0.064138504","","","","","","",""
"187","","bandit","323","738755","0.0-285.0-0.0","66144748","wem/bandit_single","A20IXK8ZV8N72H","gain","1","","74","J","1","","1","0","0","0.4293825987","","false","248","0.188480637","","main_expt","0.4293825987","","0.09552903486","","0.05051083443","","","","","","",""
"3368","","bandit","324","743919","0.0-286.0-0.0","66144748","wem/bandit_single","A20IXK8ZV8N72H","gain","1","","74","J","1","","0","0","1","0.4338924945","","false","249","0.1718025207","","main_expt","0.4338924945","","0.1087111068","","0.05514480776","","","","","","",""
"12","","bandit","325","745692","0.0-287.0-0.0","66144748","wem/bandit_single","A20IXK8ZV8N72H","gain","1","","74","J","1","","1","0","0","0.4356531551","","false","250","0.1377417152","","main_expt","0.4356531551","","0.08296073337","","0.02780796002","","","","","","",""
"72","","bandit","326","747523","0.0-288.0-0.0","66144748","wem/bandit_single","A20IXK8ZV8N72H","gain","1","","74","J","1","","0","0","1","0.4561881598","","false","251","0.1623098307","","main_expt","0.4561881598","","0.08988728922","","0.02786711831","","","","","","",""
"42","","bandit","327","749324","0.0-289.0-0.0","66144748","wem/bandit_single","A20IXK8ZV8N72H","gain","1","","74","J","1","","1","0","0","0.4517263236","","false","252","0.1702242208","","main_expt","0.4517263236","","0.07043490844","","0.03881205422","","","","","","",""
"17","","bandit","328","751098","0.0-290.0-0.0","66144748","wem/bandit_single","A20IXK8ZV8N72H","gain","1","","74","J","1","","0","0","1","0.4280730872","","false","253","0.1571297736","","main_expt","0.4280730872","","0.06648959932","","0.03211176865","","","","","","",""
"659","","bandit","329","753514","0.0-291.0-0.0","66144748","wem/bandit_single","A20IXK8ZV8N72H","gain","1","","74","J","1","","1","0","0","0.3976691957","","false","254","0.1311762281","","main_expt","0.3976691957","","0.04750248463","","0.02501863174","","","","","","",""
"34","","bandit","330","755307","0.0-292.0-0.0","66144748","wem/bandit_single","A20IXK8ZV8N72H","gain","1","","74","J","1","","0","0","1","0.3920211634","","false","255","0.1262313745","","main_expt","0.3920211634","","0.0685067328","","0.03845468041","","","","","","",""
"58","","bandit","331","757123","0.0-293.0-0.0","66144748","wem/bandit_single","A20IXK8ZV8N72H","gain","1","","74","J","1","","0","0","1","0.3802568344","","false","256","0.08888936201","","main_expt","0.3802568344","","0.06106940649","","0.03093107714","","","","","","",""
"106","","bandit","332","758987","0.0-294.0-0.0","66144748","wem/bandit_single","A20IXK8ZV8N72H","gain","1","","74","J","1","","1","0","0","0.4153547565","","false","257","0.1016624202","","main_expt","0.4153547565","","0.03925251802","","0.02284381284","","","","","","",""
"34","","bandit","333","760779","0.0-295.0-0.0","66144748","wem/bandit_single","A20IXK8ZV8N72H","gain","1","","74","J","1","","1","0","0","0.412770775","","false","258","0.1201960749","","main_expt","0.412770775","","0.07528758783","","0.01195927332","","","","","","",""
"819","","bandit","334","763355","0.0-296.0-0.0","66144748","wem/bandit_single","A20IXK8ZV8N72H","gain","1","","74","J","1","","0","0","1","0.4364469878","","false","259","0.09869940493","","main_expt","0.4364469878","","0.06168900656","","0.009837890866","","","","","","",""
"25","","bandit","335","765139","0.0-297.0-0.0","66144748","wem/bandit_single","A20IXK8ZV8N72H","gain","1","","74","J","1","","0","0","1","0.4143686848","","false","260","0.140367269","","main_expt","0.4143686848","","0.05358732337","","0.01652501309","","","","","","",""
"714","","bandit","336","767611","0.0-298.0-0.0","66144748","wem/bandit_single","A20IXK8ZV8N72H","gain","1","","74","J","1","","0","0","1","0.3932103286","","false","261","0.107121031","","main_expt","0.3932103286","","0.05974294151","","0.0246934762","","","","","","",""
"10","","bandit","337","769393","0.0-299.0-0.0","66144748","wem/bandit_single","A20IXK8ZV8N72H","gain","1","","75","K","2","","0","0","1","0.0656558392","","false","262","0.142880744","","main_expt","0.4299042069","","0.0656558392","","0.02217338967","","","","","","",""
"84","","bandit","338","771235","0.0-300.0-0.0","66144748","wem/bandit_single","A20IXK8ZV8N72H","gain","1","","76","L","3","","0","0","1","0.02538488248","","false","263","0.1398656543","","main_expt","0.3864913748","","0.08006927963","","0.02538488248","","","","","","",""
"122","","bandit","339","773114","0.0-301.0-0.0","66144748","wem/bandit_single","A20IXK8ZV8N72H","gain","1","","72","H","0","img/none_selected.jpg","0","0","1","0.185630342","","false","264","0.185630342","","main_expt","0.3721946297","","0.07803510261","","0.03542132602","","","","","","",""
"313","","bandit","340","775186","0.0-302.0-0.0","66144748","wem/bandit_single","A20IXK8ZV8N72H","gain","1","","74","J","1","","1","0","0","0.3326379545","","false","265","0.1483619715","","main_expt","0.3326379545","","0.08917846028","","0.03052618628","","","","","","",""
"58","","bandit","341","777003","0.0-303.0-0.0","66144748","wem/bandit_single","A20IXK8ZV8N72H","gain","1","","74","J","1","","1","0","0","0.3337002386","","false","266","0.1677753502","","main_expt","0.3337002386","","0.1562168236","","0.02388326919","","","","","","",""
"152","","bandit","342","778915","0.0-304.0-0.0","66144748","wem/bandit_single","A20IXK8ZV8N72H","gain","1","","74","J","1","","0","0","1","0.3044940876","","false","267","0.1748953786","","main_expt","0.3044940876","","0.1873085091","","0.01496915784","","","","","","",""
"74","","bandit","343","780746","0.0-305.0-0.0","66144748","wem/bandit_single","A20IXK8ZV8N72H","gain","1","","74","J","1","","1","0","0","0.2966269971","","false","268","0.152215306","","main_expt","0.2966269971","","0.1850807086","","0.01735494223","","","","","","",""
"3","","bandit","344","782508","0.0-306.0-0.0","66144748","wem/bandit_single","A20IXK8ZV8N72H","gain","1","","74","J","1","","0","0","1","0.2617435325","","false","269","0.1420691147","","main_expt","0.2617435325","","0.1461958128","","0.01365938384","","","","","","",""
"1","","bandit","345","784267","0.0-307.0-0.0","66144748","wem/bandit_single","A20IXK8ZV8N72H","gain","1","","74","J","1","","1","0","0","0.2599280147","","false","270","0.1338049101","","main_expt","0.2599280147","","0.1348565207","","0.01871615964","","","","","","",""
"1","","bandit","346","786027","0.0-308.0-0.0","66144748","wem/bandit_single","A20IXK8ZV8N72H","gain","1","","74","J","1","","1","0","0","0.2499936179","","false","271","0.1178923734","","main_expt","0.2499936179","","0.1588166083","","0.01663887187","","","","","","",""
"937","","bandit","347","788724","0.0-309.0-0.0","66144748","wem/bandit_single","A20IXK8ZV8N72H","gain","1","","74","J","1","","1","0","0","0.2703142459","","false","272","0.1436833609","","main_expt","0.2703142459","","0.1288650497","","0.01973971225","","","","","","",""
"40","","bandit","348","790524","0.0-310.0-0.0","66144748","wem/bandit_single","A20IXK8ZV8N72H","gain","1","","74","J","1","","1","0","0","0.2835249431","","false","273","0.1917782062","","main_expt","0.2835249431","","0.1414039315","","0.01954424634","","","","","","",""
"13","","bandit","349","792296","0.0-311.0-0.0","66144748","wem/bandit_single","A20IXK8ZV8N72H","gain","1","","74","J","1","","0","0","1","0.2906451875","","false","274","0.1657285368","","main_expt","0.2906451875","","0.1132613661","","0.008862655739","","","","","","",""
"57","","bandit","350","794111","0.0-312.0-0.0","66144748","wem/bandit_single","A20IXK8ZV8N72H","gain","1","","74","J","1","","0","0","1","0.2670480505","","false","275","0.1420329436","","main_expt","0.2670480505","","0.1396690899","","0.0094605031","","","","","","",""
"1351","","bandit","351","797223","0.0-313.0-0.0","66144748","wem/bandit_single","A20IXK8ZV8N72H","gain","1","","74","J","1","","1","0","0","0.2358592403","","false","276","0.1369756733","","main_expt","0.2358592403","","0.1109816737","","0.01191149084","","","","","","",""
"119","","bandit","352","799103","0.0-314.0-0.0","66144748","wem/bandit_single","A20IXK8ZV8N72H","gain","1","","74","J","1","","0","0","1","0.1877967456","","false","277","0.1781068979","","main_expt","0.1877967456","","0.08046464388","","0.00904810236","","","","","","",""
"9","","bandit","353","800872","0.0-315.0-0.0","66144748","wem/bandit_single","A20IXK8ZV8N72H","gain","1","","74","J","1","","0","0","1","0.1537245983","","false","278","0.248352092","","main_expt","0.1537245983","","0.07407019324","","0.007795284796","","","","","","",""
"2544","","bandit","354","805176","0.0-316.0-0.0","66144748","wem/bandit_single","A20IXK8ZV8N72H","gain","1","","74","J","1","","0","0","1","0.1662011111","","false","279","0.263219496","","main_expt","0.1662011111","","0.06478755197","","0.01747653863","","","","","","",""
"25","","bandit","355","806958","0.0-317.0-0.0","66144748","wem/bandit_single","A20IXK8ZV8N72H","gain","1","","75","K","2","","0","0","1","0.04895059186","","false","280","0.210776847","","main_expt","0.1622625537","","0.04895059186","","0.02326096521","","","","","","",""
"562","","bandit","356","809280","0.0-318.0-0.0","66144748","wem/bandit_single","A20IXK8ZV8N72H","gain","1","","76","L","3","","0","0","1","0.03290281633","","false","281","0.1901401854","","main_expt","0.2160365104","","0.04598133094","","0.03290281633","","","","","","",""
"47","","bandit","357","811087","0.0-319.0-0.0","66144748","wem/bandit_single","A20IXK8ZV8N72H","gain","1","","72","H","0","img/none_selected.jpg","1","0","0","0.1692674388","","false","282","0.1692674388","","main_expt","0.2031844556","","0.0454431083","","0.03647511751","","","","","","",""
"457","","bandit","358","813303","0.0-320.0-0.0","66144748","wem/bandit_single","A20IXK8ZV8N72H","gain","1","","72","H","0","img/none_selected.jpg","1","0","0","0.1697823826","","false","283","0.1697823826","","main_expt","0.236778666","","0.0377119091","","0.0381479171","","","","","","",""
"97","","bandit","359","815159","0.0-321.0-0.0","66144748","wem/bandit_single","A20IXK8ZV8N72H","gain","1","","72","H","0","img/none_selected.jpg","1","0","0","0.1647860582","","false","284","0.1647860582","","main_expt","0.2082896542","","0.0346676025","","0.04237273713","","","","","","",""
"304","","bandit","360","817223","0.0-322.0-0.0","66144748","wem/bandit_single","A20IXK8ZV8N72H","gain","1","","72","H","0","img/none_selected.jpg","0","0","1","0.2346467376","","false","285","0.2346467376","","main_expt","0.1682052712","","0.03394591187","","0.08736605616","","","","","","",""
"73","","bandit","361","819054","0.0-323.0-0.0","66144748","wem/bandit_single","A20IXK8ZV8N72H","gain","1","","72","H","0","img/none_selected.jpg","0","0","1","0.1651037306","","false","286","0.1651037306","","main_expt","0.1287852917","","0.03437308726","","0.149418319","","","","","","",""
"1058","","bandit","362","821871","0.0-324.0-0.0","66144748","wem/bandit_single","A20IXK8ZV8N72H","gain","1","","72","H","0","img/none_selected.jpg","0","0","1","0.113933185","","false","287","0.113933185","","main_expt","0.0739145169","","0.043905831","","0.2149685411","","","","","","",""
"120","","bandit","363","823751","0.0-325.0-0.0","66144748","wem/bandit_single","A20IXK8ZV8N72H","gain","1","","74","J","1","","1","0","0","0.08295252225","","false","288","0.08260993421","","main_expt","0.08295252225","","0.02064047927","","0.181398065","","","","","","",""
"89","","bandit","364","825598","0.0-326.0-0.0","66144748","wem/bandit_single","A20IXK8ZV8N72H","gain","1","","74","J","1","","0","0","1","0.0479508895","","false","289","0.07260323305","","main_expt","0.0479508895","","0.0250169619","","0.1523032639","","","","","","",""
"142","","bandit","365","827505","0.0-327.0-0.0","66144748","wem/bandit_single","A20IXK8ZV8N72H","gain","1","","74","J","1","","0","0","1","0.05498143303","","false","290","0.06306400378","","main_expt","0.05498143303","","0.04785043425","","0.1404761367","","","","","","",""
"1510","","bandit","366","830774","0.0-328.0-0.0","66144748","wem/bandit_single","A20IXK8ZV8N72H","gain","1","","74","J","1","","0","0","1","0.06238518006","","false","291","0.06173149747","","main_expt","0.06238518006","","0.05997729544","","0.1639955189","","","","","","",""
"490","","bandit","367","833022","0.0-329.0-0.0","66144748","wem/bandit_single","A20IXK8ZV8N72H","gain","1","","75","K","2","","0","0","1","0.08013724224","","false","292","0.049421281","","main_expt","0.06246846358","","0.08013724224","","0.1365824739","","","","","","",""
"290","","bandit","368","835072","0.0-330.0-0.0","66144748","wem/bandit_single","A20IXK8ZV8N72H","gain","1","","75","K","2","","0","0","1","0.08257915178","","false","293","0.04661139695","","main_expt","0.0635142122","","0.08257915178","","0.2190436779","","","","","","",""
"177","","bandit","369","837007","0.0-331.0-0.0","66144748","wem/bandit_single","A20IXK8ZV8N72H","gain","1","","75","K","2","","0","0","1","0.07979116831","","false","294","0.05266196286","","main_expt","0.1078883856","","0.07979116831","","0.2961987497","","","","","","",""
"58","","bandit","370","838823","0.0-332.0-0.0","66144748","wem/bandit_single","A20IXK8ZV8N72H","gain","1","","76","L","3","","0","0","1","0.3422413176","","false","295","0.0541153793","","main_expt","0.1065048767","","0.1168190604","","0.3422413176","","","","","","",""
"223","","bandit","371","840806","0.0-333.0-0.0","66144748","wem/bandit_single","A20IXK8ZV8N72H","gain","1","","76","L","3","","0","0","1","0.3023757447","","false","296","0.03514166697","","main_expt","0.1528862056","","0.1280513587","","0.3023757447","","","","","","",""
"130","","bandit","372","842694","0.0-334.0-0.0","66144748","wem/bandit_single","A20IXK8ZV8N72H","gain","1","","76","L","3","","0","0","1","0.3744966898","","false","297","0.0293008482","","main_expt","0.1655716118","","0.1545711336","","0.3744966898","","","","","","",""
"42","","bandit","373","844495","0.0-335.0-0.0","66144748","wem/bandit_single","A20IXK8ZV8N72H","gain","1","","72","H","0","img/none_selected.jpg","0","0","1","0.03311380314","","false","298","0.03311380314","","main_expt","0.1725180782","","0.1485956324","","0.3702548021","","","","","","",""
"11","","bandit","374","846264","0.0-336.0-0.0","66144748","wem/bandit_single","A20IXK8ZV8N72H","gain","1","","74","J","1","","0","0","1","0.1569797065","","false","299","0.02365994183","","main_expt","0.1569797065","","0.1680902507","","0.3675060033","","","","","","",""
