"rt","responses","trial_type","trial_index","time_elapsed","internal_node_id","subjID","study","MID","cond","drift","key_press","respCharCode","respKey","respChoiceNum","respChoice","gems","bombs","no_reward","GemPrChosen","BombPrChosen","practice","trial_counter","WinPr_0","LosePr_0","trial_label","WinPr_1","LosePr_1","WinPr_2","LosePr_2","WinPr_3","LosePr_3","Q0","Q1","Q2","gender","age","ethnicity"
"93794","{""Q0"":""A3J0IAI8AJBGKX""}","survey-text","0","93828","0.0-0.0","66610103","wem/bandit_single","A3J0IAI8AJBGKX","pain","4","","","","","","","","","","","","","","","","","","","","","","","","","","",""
"3017","","text","1","97903","0.0-1.0","66610103","wem/bandit_single","A3J0IAI8AJBGKX","pain","4","32","","","","","","","","","","","","","","","","","","","","","","","","","",""
"16686","","text","2","114605","0.0-2.0","66610103","wem/bandit_single","A3J0IAI8AJBGKX","pain","4","32","","","","","","","","","","","","","","","","","","","","","","","","","",""
"23838","","text","3","138464","0.0-3.0","66610103","wem/bandit_single","A3J0IAI8AJBGKX","pain","4","32","","","","","","","","","","","","","","","","","","","","","","","","","",""
"17663","","text","4","156143","0.0-4.0","66610103","wem/bandit_single","A3J0IAI8AJBGKX","pain","4","32","","","","","","","","","","","","","","","","","","","","","","","","","",""
"7641","","text","5","163795","0.0-5.0","66610103","wem/bandit_single","A3J0IAI8AJBGKX","pain","4","32","","","","","","","","","","","","","","","","","","","","","","","","","",""
"9970","","text","6","173774","0.0-6.0","66610103","wem/bandit_single","A3J0IAI8AJBGKX","pain","4","32","","","","","","","","","","","","","","","","","","","","","","","","","",""
"11371","","text","7","185173","0.0-7.0","66610103","wem/bandit_single","A3J0IAI8AJBGKX","pain","4","32","","","","","","","","","","","","","","","","","","","","","","","","","",""
"6800","","text","8","191993","0.0-8.0","66610103","wem/bandit_single","A3J0IAI8AJBGKX","pain","4","32","","","","","","","","","","","","","","","","","","","","","","","","","",""
"96119","","text","9","288137","0.0-9.0","66610103","wem/bandit_single","A3J0IAI8AJBGKX","pain","4","32","","","","","","","","","","","","","","","","","","","","","","","","","",""
"5586","","text","10","293734","0.0-10.0","66610103","wem/bandit_single","A3J0IAI8AJBGKX","pain","4","32","","","","","","","","","","","","","","","","","","","","","","","","","",""
"5023","","text","11","298773","0.0-11.0","66610103","wem/bandit_single","A3J0IAI8AJBGKX","pain","4","32","","","","","","","","","","","","","","","","","","","","","","","","","",""
"822","","bandit","12","301358","0.0-12.0-0.0","66610103","wem/bandit_single","A3J0IAI8AJBGKX","pain","4","","74","J","0","img/none_selected_demo.jpg","0","0","1","0","0","true","0","0","0","","","","","","","","","","","","",""
"117","","bandit","13","303780","0.0-13.0-0.0","66610103","wem/bandit_single","A3J0IAI8AJBGKX","pain","4","","75","K","0","img/none_selected_demo.jpg","0","0","1","0","0","true","0","0","0","","","","","","","","","","","","",""
"2572","","text","14","306945","0.0-14.0","66610103","wem/bandit_single","A3J0IAI8AJBGKX","pain","4","32","","","","","","","","","","","","","","","","","","","","","","","","","",""
"1702","","text","15","308664","0.0-15.0","66610103","wem/bandit_single","A3J0IAI8AJBGKX","pain","4","32","","","","","","","","","","","","","","","","","","","","","","","","","",""
"10069","","text","16","318750","0.0-16.0","66610103","wem/bandit_single","A3J0IAI8AJBGKX","pain","4","32","","","","","","","","","","","","","","","","","","","","","","","","","",""
"9514","","text","17","328298","0.0-17.0","66610103","wem/bandit_single","A3J0IAI8AJBGKX","pain","4","32","","","","","","","","","","","","","","","","","","","","","","","","","",""
"1796","","bandit","18","332161","0.0-18.0-0.0","66610103","wem/bandit_single","A3J0IAI8AJBGKX","pain","4","","74","J","0","img/none_selected_demo.jpg","0","1","0","0","0.8","true","0","0","0.8","80_20_practice","0","0.2","","","","","","","","","",""
"1077","","bandit","19","335349","0.0-18.0-1.0","66610103","wem/bandit_single","A3J0IAI8AJBGKX","pain","4","","75","K","1","","0","0","1","0","0.2","true","0","0","0.8","80_20_practice","0","0.2","","","","","","","","","",""
"727","","bandit","20","338088","0.0-18.0-2.0","66610103","wem/bandit_single","A3J0IAI8AJBGKX","pain","4","","75","K","1","","0","1","0","0","0.2","true","0","0","0.8","80_20_practice","0","0.2","","","","","","","","","",""
"656","","bandit","21","341249","0.0-18.0-3.0","66610103","wem/bandit_single","A3J0IAI8AJBGKX","pain","4","","74","J","0","img/none_selected_demo.jpg","0","1","0","0","0.8","true","0","0","0.8","80_20_practice","0","0.2","","","","","","","","","",""
"695","","bandit","22","344823","0.0-18.0-4.0","66610103","wem/bandit_single","A3J0IAI8AJBGKX","pain","4","","74","J","0","img/none_selected_demo.jpg","0","1","0","0","0.8","true","0","0","0.8","80_20_practice","0","0.2","","","","","","","","","",""
"130","","bandit","23","347623","0.0-18.0-5.0","66610103","wem/bandit_single","A3J0IAI8AJBGKX","pain","4","","74","J","0","img/none_selected_demo.jpg","0","1","0","0","0.8","true","0","0","0.8","80_20_practice","0","0.2","","","","","","","","","",""
"3401","","bandit","24","353807","0.0-18.0-6.0","66610103","wem/bandit_single","A3J0IAI8AJBGKX","pain","4","","75","K","1","","0","0","1","0","0.2","true","0","0","0.8","80_20_practice","0","0.2","","","","","","","","","",""
"667","","bandit","25","356360","0.0-18.0-7.0","66610103","wem/bandit_single","A3J0IAI8AJBGKX","pain","4","","75","K","1","","0","0","1","0","0.2","true","0","0","0.8","80_20_practice","0","0.2","","","","","","","","","",""
"220","","bandit","26","358733","0.0-18.0-8.0","66610103","wem/bandit_single","A3J0IAI8AJBGKX","pain","4","","75","K","1","","0","0","1","0","0.2","true","0","0","0.8","80_20_practice","0","0.2","","","","","","","","","",""
"2998","","bandit","27","364137","0.0-18.0-9.0","66610103","wem/bandit_single","A3J0IAI8AJBGKX","pain","4","","74","J","0","img/none_selected_demo.jpg","0","1","0","0","0.8","true","0","0","0.8","80_20_practice","0","0.2","","","","","","","","","",""
"230","","bandit","28","366880","0.0-18.0-10.0","66610103","wem/bandit_single","A3J0IAI8AJBGKX","pain","4","","75","K","1","","0","0","1","0","0.2","true","0","0","0.8","80_20_practice","0","0.2","","","","","","","","","",""
"96","","bandit","29","369381","0.0-18.0-11.0","66610103","wem/bandit_single","A3J0IAI8AJBGKX","pain","4","","74","J","0","img/none_selected_demo.jpg","0","1","0","0","0.8","true","0","0","0.8","80_20_practice","0","0.2","","","","","","","","","",""
"209","","bandit","30","371620","0.0-18.0-12.0","66610103","wem/bandit_single","A3J0IAI8AJBGKX","pain","4","","74","J","0","img/none_selected_demo.jpg","0","1","0","0","0.8","true","0","0","0.8","80_20_practice","0","0.2","","","","","","","","","",""
"788","","bandit","31","374668","0.0-18.0-13.0","66610103","wem/bandit_single","A3J0IAI8AJBGKX","pain","4","","75","K","1","","0","0","1","0","0.2","true","0","0","0.8","80_20_practice","0","0.2","","","","","","","","","",""
"2160","","bandit","32","378785","0.0-18.0-14.0","66610103","wem/bandit_single","A3J0IAI8AJBGKX","pain","4","","74","J","0","img/none_selected_demo.jpg","0","1","0","0","0.8","true","0","0","0.8","80_20_practice","0","0.2","","","","","","","","","",""
"648","","bandit","33","382903","0.0-18.0-15.0","66610103","wem/bandit_single","A3J0IAI8AJBGKX","pain","4","","75","K","1","","0","0","1","0","0.2","true","0","0","0.8","80_20_practice","0","0.2","","","","","","","","","",""
"1302","","bandit","34","387099","0.0-18.0-16.0","66610103","wem/bandit_single","A3J0IAI8AJBGKX","pain","4","","75","K","1","","0","1","0","0","0.2","true","0","0","0.8","80_20_practice","0","0.2","","","","","","","","","",""
"303","","bandit","35","389481","0.0-18.0-17.0","66610103","wem/bandit_single","A3J0IAI8AJBGKX","pain","4","","74","J","0","img/none_selected_demo.jpg","0","1","0","0","0.8","true","0","0","0.8","80_20_practice","0","0.2","","","","","","","","","",""
"795","","bandit","36","392637","0.0-18.0-18.0","66610103","wem/bandit_single","A3J0IAI8AJBGKX","pain","4","","74","J","0","img/none_selected_demo.jpg","0","1","0","0","0.8","true","0","0","0.8","80_20_practice","0","0.2","","","","","","","","","",""
"794","","bandit","37","397005","0.0-18.0-19.0","66610103","wem/bandit_single","A3J0IAI8AJBGKX","pain","4","","74","J","0","img/none_selected_demo.jpg","0","1","0","0","0.8","true","0","0","0.8","80_20_practice","0","0.2","","","","","","","","","",""
"4796","","text","38","402246","0.0-19.0","66610103","wem/bandit_single","A3J0IAI8AJBGKX","pain","4","32","","","","","","","","","","","","","","","","","","","","","","","","","",""
"3175","","bandit","39","407266","0.0-20.0-0.0","66610103","wem/bandit_single","A3J0IAI8AJBGKX","pain","4","","74","J","0","img/none_selected_demo.jpg","0","0","1","0","0","true","0","0","0","","0","0","","","","","","","","","",""
"5542","","text","40","413115","0.0-21.0","66610103","wem/bandit_single","A3J0IAI8AJBGKX","pain","4","32","","","","","","","","","","","","","","","","","","","","","","","","","",""
"3784","","text","41","416920","0.0-22.0","66610103","wem/bandit_single","A3J0IAI8AJBGKX","pain","4","32","","","","","","","","","","","","","","","","","","","","","","","","","",""
"3198","","text","42","420138","0.0-23.0","66610103","wem/bandit_single","A3J0IAI8AJBGKX","pain","4","32","","","","","","","","","","","","","","","","","","","","","","","","","",""
"5430","","text","43","425594","0.0-24.0","66610103","wem/bandit_single","A3J0IAI8AJBGKX","pain","4","32","","","","","","","","","","","","","","","","","","","","","","","","","",""
"11798","","text","44","437425","0.0-25.0","66610103","wem/bandit_single","A3J0IAI8AJBGKX","pain","4","32","","","","","","","","","","","","","","","","","","","","","","","","","",""
"2601","","text","45","440046","0.0-26.0","66610103","wem/bandit_single","A3J0IAI8AJBGKX","pain","4","32","","","","","","","","","","","","","","","","","","","","","","","","","",""
"6212","","text","46","446272","0.0-27.0","66610103","wem/bandit_single","A3J0IAI8AJBGKX","pain","4","32","","","","","","","","","","","","","","","","","","","","","","","","","",""
"3138","","text","47","449430","0.0-28.0","66610103","wem/bandit_single","A3J0IAI8AJBGKX","pain","4","32","","","","","","","","","","","","","","","","","","","","","","","","","",""
"14892","","text","48","464350","0.0-29.0","66610103","wem/bandit_single","A3J0IAI8AJBGKX","pain","4","32","","","","","","","","","","","","","","","","","","","","","","","","","",""
"1665","","text","49","466032","0.0-30.0","66610103","wem/bandit_single","A3J0IAI8AJBGKX","pain","4","32","","","","","","","","","","","","","","","","","","","","","","","","","",""
"4872","","text","50","470923","0.0-31.0","66610103","wem/bandit_single","A3J0IAI8AJBGKX","pain","4","32","","","","","","","","","","","","","","","","","","","","","","","","","",""
"1039","","bandit","51","473660","0.0-32.0-0.0","66610103","wem/bandit_single","A3J0IAI8AJBGKX","pain","4","","72","H","0","img/none_selected.jpg","0","0","1","0","0.8","true","0","0","0.8","full_practice","0","0.2","0","0.6","0","0.2","","","","","",""
"471","","bandit","52","476300","0.0-32.0-1.0","66610103","wem/bandit_single","A3J0IAI8AJBGKX","pain","4","","74","J","1","","0","0","1","0","0.2","true","0","0","0.8","full_practice","0","0.2","0","0.6","0","0.2","","","","","",""
"262","","bandit","53","479448","0.0-32.0-2.0","66610103","wem/bandit_single","A3J0IAI8AJBGKX","pain","4","","75","K","2","","0","1","0","0","0.6","true","0","0","0.8","full_practice","0","0.2","0","0.6","0","0.2","","","","","",""
"188","","bandit","54","481539","0.0-32.0-3.0","66610103","wem/bandit_single","A3J0IAI8AJBGKX","pain","4","","76","L","3","","0","0","1","0","0.2","true","0","0","0.8","full_practice","0","0.2","0","0.6","0","0.2","","","","","",""
"1205","","bandit","55","485074","0.0-32.0-4.0","66610103","wem/bandit_single","A3J0IAI8AJBGKX","pain","4","","72","H","0","img/none_selected.jpg","0","1","0","0","0.8","true","0","0","0.8","full_practice","0","0.2","0","0.6","0","0.2","","","","","",""
"1134","","bandit","56","488303","0.0-32.0-5.0","66610103","wem/bandit_single","A3J0IAI8AJBGKX","pain","4","","72","H","0","img/none_selected.jpg","0","1","0","0","0.8","true","0","0","0.8","full_practice","0","0.2","0","0.6","0","0.2","","","","","",""
"576","","bandit","57","491068","0.0-32.0-6.0","66610103","wem/bandit_single","A3J0IAI8AJBGKX","pain","4","","74","J","1","","0","1","0","0","0.2","true","0","0","0.8","full_practice","0","0.2","0","0.6","0","0.2","","","","","",""
"291","","bandit","58","493309","0.0-32.0-7.0","66610103","wem/bandit_single","A3J0IAI8AJBGKX","pain","4","","75","K","2","","0","1","0","0","0.6","true","0","0","0.8","full_practice","0","0.2","0","0.6","0","0.2","","","","","",""
"330","","bandit","59","496835","0.0-32.0-8.0","66610103","wem/bandit_single","A3J0IAI8AJBGKX","pain","4","","76","L","3","","0","1","0","0","0.2","true","0","0","0.8","full_practice","0","0.2","0","0.6","0","0.2","","","","","",""
"427","","bandit","60","499483","0.0-32.0-9.0","66610103","wem/bandit_single","A3J0IAI8AJBGKX","pain","4","","76","L","3","","0","0","1","0","0.2","true","0","0","0.8","full_practice","0","0.2","0","0.6","0","0.2","","","","","",""
"660","","bandit","61","502477","0.0-32.0-10.0","66610103","wem/bandit_single","A3J0IAI8AJBGKX","pain","4","","76","L","3","","0","1","0","0","0.2","true","0","0","0.8","full_practice","0","0.2","0","0.6","0","0.2","","","","","",""
"1852","","bandit","62","506437","0.0-32.0-11.0","66610103","wem/bandit_single","A3J0IAI8AJBGKX","pain","4","","75","K","2","","0","1","0","0","0.6","true","0","0","0.8","full_practice","0","0.2","0","0.6","0","0.2","","","","","",""
"367","","bandit","63","510572","0.0-32.0-12.0","66610103","wem/bandit_single","A3J0IAI8AJBGKX","pain","4","","75","K","2","","0","1","0","0","0.6","true","0","0","0.8","full_practice","0","0.2","0","0.6","0","0.2","","","","","",""
"149","","bandit","64","512903","0.0-32.0-13.0","66610103","wem/bandit_single","A3J0IAI8AJBGKX","pain","4","","74","J","1","","0","0","1","0","0.2","true","0","0","0.8","full_practice","0","0.2","0","0.6","0","0.2","","","","","",""
"281","","bandit","65","515207","0.0-32.0-14.0","66610103","wem/bandit_single","A3J0IAI8AJBGKX","pain","4","","74","J","1","","0","0","1","0","0.2","true","0","0","0.8","full_practice","0","0.2","0","0.6","0","0.2","","","","","",""
"82","","bandit","66","517399","0.0-32.0-15.0","66610103","wem/bandit_single","A3J0IAI8AJBGKX","pain","4","","72","H","0","img/none_selected.jpg","0","0","1","0","0.8","true","0","0","0.8","full_practice","0","0.2","0","0.6","0","0.2","","","","","",""
"825","","bandit","67","520999","0.0-32.0-16.0","66610103","wem/bandit_single","A3J0IAI8AJBGKX","pain","4","","72","H","0","img/none_selected.jpg","0","0","1","0","0.8","true","0","0","0.8","full_practice","0","0.2","0","0.6","0","0.2","","","","","",""
"479","","bandit","68","523523","0.0-32.0-17.0","66610103","wem/bandit_single","A3J0IAI8AJBGKX","pain","4","","75","K","2","","0","1","0","0","0.6","true","0","0","0.8","full_practice","0","0.2","0","0.6","0","0.2","","","","","",""
"279","","bandit","69","525658","0.0-32.0-18.0","66610103","wem/bandit_single","A3J0IAI8AJBGKX","pain","4","","76","L","3","","0","0","1","0","0.2","true","0","0","0.8","full_practice","0","0.2","0","0.6","0","0.2","","","","","",""
"158","","bandit","70","527751","0.0-32.0-19.0","66610103","wem/bandit_single","A3J0IAI8AJBGKX","pain","4","","75","K","2","","0","1","0","0","0.6","true","0","0","0.8","full_practice","0","0.2","0","0.6","0","0.2","","","","","",""
"2725","","text","71","530808","0.0-33.0","66610103","wem/bandit_single","A3J0IAI8AJBGKX","pain","4","32","","","","","","","","","","","","","","","","","","","","","","","","","",""
"8404","","text","72","540395","0.0-34.0","66610103","wem/bandit_single","A3J0IAI8AJBGKX","pain","4","32","","","","","","","","","","","","","","","","","","","","","","","","","",""
"3578","","text","73","544002","0.0-35.0","66610103","wem/bandit_single","A3J0IAI8AJBGKX","pain","4","32","","","","","","","","","","","","","","","","","","","","","","","","","",""
"4226","","text","74","548255","0.0-36.0","66610103","wem/bandit_single","A3J0IAI8AJBGKX","pain","4","32","","","","","","","","","","","","","","","","","","","","","","","","","",""
"5286","","text","75","553556","0.0-37.0","66610103","wem/bandit_single","A3J0IAI8AJBGKX","pain","4","32","","","","","","","","","","","","","","","","","","","","","","","","","",""
"2429","","bandit","76","558200","0.0-38.0-0.0","66610103","wem/bandit_single","A3J0IAI8AJBGKX","pain","4","","76","L","3","","0","0","1","","0.2633340886","false","1","","0.1534711312","main_expt","","0.04789219489","","0.1530555908","","0.2633340886","","","","","",""
"591","","bandit","77","560872","0.0-39.0-0.0","66610103","wem/bandit_single","A3J0IAI8AJBGKX","pain","4","","72","H","0","img/none_selected.jpg","0","0","1","","0.1140054314","false","2","","0.1140054314","main_expt","","0.06526788736","","0.103598712","","0.288049036","","","","","",""
"346","","bandit","78","563630","0.0-40.0-0.0","66610103","wem/bandit_single","A3J0IAI8AJBGKX","pain","4","","76","L","3","","0","0","1","","0.2979487298","false","3","","0.1012650834","main_expt","","0.04764418461","","0.08136741005","","0.2979487298","","","","","",""
"414","","bandit","79","567114","0.0-41.0-0.0","66610103","wem/bandit_single","A3J0IAI8AJBGKX","pain","4","","74","J","1","","0","0","1","","0.05056035824","false","4","","0.09541256236","main_expt","","0.05056035824","","0.08723083084","","0.3306303211","","","","","",""
"382","","bandit","80","570856","0.0-42.0-0.0","66610103","wem/bandit_single","A3J0IAI8AJBGKX","pain","4","","74","J","1","","0","1","0","","0.05944929255","false","5","","0.07842998328","main_expt","","0.05944929255","","0.1255982651","","0.2438199519","","","","","",""
"702","","bandit","81","574178","0.0-43.0-0.0","66610103","wem/bandit_single","A3J0IAI8AJBGKX","pain","4","","74","J","1","","0","0","1","","0.09562353852","false","6","","0.09158282766","main_expt","","0.09562353852","","0.09044777998","","0.2362074668","","","","","",""
"300","","bandit","82","576420","0.0-44.0-0.0","66610103","wem/bandit_single","A3J0IAI8AJBGKX","pain","4","","75","K","2","","0","1","0","","0.1067491613","false","7","","0.09712353232","main_expt","","0.08069121891","","0.1067491613","","0.2591683673","","","","","",""
"2848","","bandit","83","581919","0.0-45.0-0.0","66610103","wem/bandit_single","A3J0IAI8AJBGKX","pain","4","","75","K","2","","0","0","1","","0.15597148","false","8","","0.08440361392","main_expt","","0.07203927837","","0.15597148","","0.2299415188","","","","","",""
"197","","bandit","84","585013","0.0-46.0-0.0","66610103","wem/bandit_single","A3J0IAI8AJBGKX","pain","4","","75","K","2","","0","0","1","","0.2250404859","false","9","","0.102519384","main_expt","","0.08219025907","","0.2250404859","","0.2057198223","","","","","",""
"255","","bandit","85","587549","0.0-47.0-0.0","66610103","wem/bandit_single","A3J0IAI8AJBGKX","pain","4","","72","H","0","img/none_selected.jpg","0","0","1","","0.06157476224","false","10","","0.06157476224","main_expt","","0.06517742799","","0.2205918947","","0.2002554128","","","","","",""
"225","","bandit","86","589817","0.0-48.0-0.0","66610103","wem/bandit_single","A3J0IAI8AJBGKX","pain","4","","74","J","1","","0","0","1","","0.0549201251","false","11","","0.05516119966","main_expt","","0.0549201251","","0.1999173076","","0.2390702858","","","","","",""
"21","","bandit","87","592093","0.0-49.0-0.0","66610103","wem/bandit_single","A3J0IAI8AJBGKX","pain","4","","74","J","1","","0","0","1","","0.0630283727","false","12","","0.04311537102","main_expt","","0.0630283727","","0.2006159367","","0.2309669968","","","","","",""
"234","","bandit","88","595232","0.0-50.0-0.0","66610103","wem/bandit_single","A3J0IAI8AJBGKX","pain","4","","74","J","1","","0","0","1","","0.07136250487","false","13","","0.03895599675","main_expt","","0.07136250487","","0.202674457","","0.2667386483","","","","","",""
"390","","bandit","89","597829","0.0-51.0-0.0","66610103","wem/bandit_single","A3J0IAI8AJBGKX","pain","4","","76","L","3","","0","0","1","","0.2057326914","false","14","","0.03256744162","main_expt","","0.07333211558","","0.152812741","","0.2057326914","","","","","",""
"389","","bandit","90","600538","0.0-52.0-0.0","66610103","wem/bandit_single","A3J0IAI8AJBGKX","pain","4","","76","L","3","","0","0","1","","0.2081585857","false","15","","0.01982065674","main_expt","","0.1154740655","","0.1648564856","","0.2081585857","","","","","",""
"376","","bandit","91","602984","0.0-53.0-0.0","66610103","wem/bandit_single","A3J0IAI8AJBGKX","pain","4","","75","K","2","","0","0","1","","0.1619055423","false","16","","0.04082574049","main_expt","","0.1011313391","","0.1619055423","","0.1909184248","","","","","",""
"179","","bandit","92","605201","0.0-54.0-0.0","66610103","wem/bandit_single","A3J0IAI8AJBGKX","pain","4","","75","K","2","","0","0","1","","0.1651197045","false","17","","0.0363298649","main_expt","","0.1447019112","","0.1651197045","","0.2198432556","","","","","",""
"197","","bandit","93","607600","0.0-55.0-0.0","66610103","wem/bandit_single","A3J0IAI8AJBGKX","pain","4","","72","H","0","img/none_selected.jpg","0","1","0","","0.07917382237","false","18","","0.07917382237","main_expt","","0.1039364862","","0.1079041081","","0.2347766335","","","","","",""
"148","","bandit","94","610186","0.0-56.0-0.0","66610103","wem/bandit_single","A3J0IAI8AJBGKX","pain","4","","72","H","0","img/none_selected.jpg","0","0","1","","0.08476555987","false","19","","0.08476555987","main_expt","","0.08759831402","","0.1059999363","","0.24668571","","","","","",""
"107","","bandit","95","613057","0.0-57.0-0.0","66610103","wem/bandit_single","A3J0IAI8AJBGKX","pain","4","","74","J","1","","0","0","1","","0.08010338479","false","20","","0.04047152317","main_expt","","0.08010338479","","0.1197169881","","0.2355281317","","","","","",""
"164","","bandit","96","615396","0.0-58.0-0.0","66610103","wem/bandit_single","A3J0IAI8AJBGKX","pain","4","","72","H","0","img/none_selected.jpg","0","0","1","","0.07021106672","false","21","","0.07021106672","main_expt","","0.07820488182","","0.1338215077","","0.2290721377","","","","","",""
"129","","bandit","97","617798","0.0-59.0-0.0","66610103","wem/bandit_single","A3J0IAI8AJBGKX","pain","4","","72","H","0","img/none_selected.jpg","0","0","1","","0.08794503477","false","22","","0.08794503477","main_expt","","0.06301774499","","0.1691749215","","0.1982968879","","","","","",""
"289","","bandit","98","621379","0.0-60.0-0.0","66610103","wem/bandit_single","A3J0IAI8AJBGKX","pain","4","","72","H","0","img/none_selected.jpg","0","0","1","","0.07274518233","false","23","","0.07274518233","main_expt","","0.04380944514","","0.2100599157","","0.1991555028","","","","","",""
"274","","bandit","99","624880","0.0-61.0-0.0","66610103","wem/bandit_single","A3J0IAI8AJBGKX","pain","4","","76","L","3","","0","1","0","","0.1700743611","false","24","","0.09602528561","main_expt","","0.04485861341","","0.1763606332","","0.1700743611","","","","","",""
"572","","bandit","100","627592","0.0-62.0-0.0","66610103","wem/bandit_single","A3J0IAI8AJBGKX","pain","4","","76","L","3","","0","0","1","","0.2303117276","false","25","","0.07148754983","main_expt","","0.08350983839","","0.1155065599","","0.2303117276","","","","","",""
"915","","bandit","101","630716","0.0-63.0-0.0","66610103","wem/bandit_single","A3J0IAI8AJBGKX","pain","4","","76","L","3","","0","0","1","","0.2615068669","false","26","","0.05591681381","main_expt","","0.04946014148","","0.08411514459","","0.2615068669","","","","","",""
"34","","bandit","102","633021","0.0-64.0-0.0","66610103","wem/bandit_single","A3J0IAI8AJBGKX","pain","4","","75","K","2","","0","0","1","","0.1192049255","false","27","","0.06488914964","main_expt","","0.07008172503","","0.1192049255","","0.2108316327","","","","","",""
"274","","bandit","103","635216","0.0-65.0-0.0","66610103","wem/bandit_single","A3J0IAI8AJBGKX","pain","4","","75","K","2","","0","0","1","","0.1530516972","false","28","","0.07067710387","main_expt","","0.09766989806","","0.1530516972","","0.2616222854","","","","","",""
"131","","bandit","104","637373","0.0-66.0-0.0","66610103","wem/bandit_single","A3J0IAI8AJBGKX","pain","4","","74","J","1","","0","1","0","","0.1020433103","false","29","","0.06184318105","main_expt","","0.1020433103","","0.1243035263","","0.2754145478","","","","","",""
"398","","bandit","105","640464","0.0-67.0-0.0","66610103","wem/bandit_single","A3J0IAI8AJBGKX","pain","4","","74","J","1","","0","0","1","","0.1128186897","false","30","","0.06562203124","main_expt","","0.1128186897","","0.2106934108","","0.3091083038","","","","","",""
"601","","bandit","106","644063","0.0-68.0-0.0","66610103","wem/bandit_single","A3J0IAI8AJBGKX","pain","4","","72","H","0","img/none_selected.jpg","0","0","1","","0.06340423818","false","31","","0.06340423818","main_expt","","0.1021038766","","0.269819176","","0.3032558385","","","","","",""
"215","","bandit","107","646804","0.0-69.0-0.0","66610103","wem/bandit_single","A3J0IAI8AJBGKX","pain","4","","74","J","1","","0","0","1","","0.1010238501","false","32","","0.08582013972","main_expt","","0.1010238501","","0.2415851803","","0.3160124579","","","","","",""
"77","","bandit","108","648920","0.0-70.0-0.0","66610103","wem/bandit_single","A3J0IAI8AJBGKX","pain","4","","76","L","3","","0","0","1","","0.355825184","false","33","","0.1020351259","main_expt","","0.0674926465","","0.2754451294","","0.355825184","","","","","",""
"452","","bandit","109","652332","0.0-71.0-0.0","66610103","wem/bandit_single","A3J0IAI8AJBGKX","pain","4","","75","K","2","","0","0","1","","0.3566428969","false","34","","0.07925884201","main_expt","","0.1007783216","","0.3566428969","","0.3380280112","","","","","",""
"64","","bandit","110","654963","0.0-72.0-0.0","66610103","wem/bandit_single","A3J0IAI8AJBGKX","pain","4","","75","K","2","","0","0","1","","0.2652811253","false","35","","0.06071167626","main_expt","","0.09542819821","","0.2652811253","","0.3772093912","","","","","",""
"1436","","bandit","111","659066","0.0-73.0-0.0","66610103","wem/bandit_single","A3J0IAI8AJBGKX","pain","4","","75","K","2","","0","0","1","","0.2472166127","false","36","","0.05331310492","main_expt","","0.07425724813","","0.2472166127","","0.3916459715","","","","","",""
"564","","bandit","112","661979","0.0-74.0-0.0","66610103","wem/bandit_single","A3J0IAI8AJBGKX","pain","4","","75","K","2","","0","0","1","","0.2941536534","false","37","","0.08395737389","main_expt","","0.07325651263","","0.2941536534","","0.3724196513","","","","","",""
"218","","bandit","113","664191","0.0-75.0-0.0","66610103","wem/bandit_single","A3J0IAI8AJBGKX","pain","4","","75","K","2","","0","0","1","","0.2850199379","false","38","","0.07562804978","main_expt","","0.06058557764","","0.2850199379","","0.3885064771","","","","","",""
"1518","","bandit","114","669121","0.0-76.0-0.0","66610103","wem/bandit_single","A3J0IAI8AJBGKX","pain","4","","74","J","1","","0","0","1","","0.05480529152","false","39","","0.06339693541","main_expt","","0.05480529152","","0.2308750992","","0.4332305888","","","","","",""
"167","","bandit","115","672144","0.0-77.0-0.0","66610103","wem/bandit_single","A3J0IAI8AJBGKX","pain","4","","74","J","1","","0","0","1","","0.08480448704","false","40","","0.07741261751","main_expt","","0.08480448704","","0.2166928419","","0.4320021358","","","","","",""
"571","","bandit","116","674771","0.0-78.0-0.0","66610103","wem/bandit_single","A3J0IAI8AJBGKX","pain","4","","74","J","1","","0","0","1","","0.07863220129","false","41","","0.08199889575","main_expt","","0.07863220129","","0.222341992","","0.4378374231","","","","","",""
"365","","bandit","117","677357","0.0-79.0-0.0","66610103","wem/bandit_single","A3J0IAI8AJBGKX","pain","4","","74","J","1","","0","0","1","","0.07947159818","false","42","","0.1252939417","main_expt","","0.07947159818","","0.2420609394","","0.4138470733","","","","","",""
"322","","bandit","118","680172","0.0-80.0-0.0","66610103","wem/bandit_single","A3J0IAI8AJBGKX","pain","4","","74","J","1","","0","0","1","","0.0747194724","false","43","","0.1464491551","main_expt","","0.0747194724","","0.2683234569","","0.3618848001","","","","","",""
"738","","bandit","119","683543","0.0-81.0-0.0","66610103","wem/bandit_single","A3J0IAI8AJBGKX","pain","4","","76","L","3","","0","0","1","","0.3902132048","false","44","","0.1846315016","main_expt","","0.06873866496","","0.2592073096","","0.3902132048","","","","","",""
"654","","bandit","120","686345","0.0-82.0-0.0","66610103","wem/bandit_single","A3J0IAI8AJBGKX","pain","4","","76","L","3","","0","0","1","","0.370584769","false","45","","0.1454302639","main_expt","","0.05624711086","","0.258850709","","0.370584769","","","","","",""
"151","","bandit","121","689794","0.0-83.0-0.0","66610103","wem/bandit_single","A3J0IAI8AJBGKX","pain","4","","76","L","3","","0","1","0","","0.3416192418","false","46","","0.1420401956","main_expt","","0.06710767933","","0.2162528617","","0.3416192418","","","","","",""
"299","","bandit","122","692065","0.0-84.0-0.0","66610103","wem/bandit_single","A3J0IAI8AJBGKX","pain","4","","76","L","3","","0","0","1","","0.3254497978","false","47","","0.2049545467","main_expt","","0.05828218186","","0.1380472806","","0.3254497978","","","","","",""
"225","","bandit","123","695641","0.0-85.0-0.0","66610103","wem/bandit_single","A3J0IAI8AJBGKX","pain","4","","76","L","3","","0","1","0","","0.3438960799","false","48","","0.1608881285","main_expt","","0.1161016377","","0.1673270425","","0.3438960799","","","","","",""
"441","","bandit","124","698196","0.0-86.0-0.0","66610103","wem/bandit_single","A3J0IAI8AJBGKX","pain","4","","76","L","3","","0","0","1","","0.3405395495","false","49","","0.2001806823","main_expt","","0.1135844416","","0.1637821127","","0.3405395495","","","","","",""
"380","","bandit","125","700508","0.0-87.0-0.0","66610103","wem/bandit_single","A3J0IAI8AJBGKX","pain","4","","76","L","3","","0","1","0","","0.3305224856","false","50","","0.2061381611","main_expt","","0.1646239324","","0.1826101584","","0.3305224856","","","","","",""
"254","","bandit","126","703592","0.0-88.0-0.0","66610103","wem/bandit_single","A3J0IAI8AJBGKX","pain","4","","76","L","3","","0","0","1","","0.2304924019","false","51","","0.2369791141","main_expt","","0.1699716213","","0.2270371056","","0.2304924019","","","","","",""
"282","","bandit","127","707073","0.0-89.0-0.0","66610103","wem/bandit_single","A3J0IAI8AJBGKX","pain","4","","76","L","3","","0","1","0","","0.2832256505","false","52","","0.2378663067","main_expt","","0.1762937123","","0.2203225001","","0.2832256505","","","","","",""
"676","","bandit","128","710021","0.0-90.0-0.0","66610103","wem/bandit_single","A3J0IAI8AJBGKX","pain","4","","76","L","3","","0","0","1","","0.2391441838","false","53","","0.2063519028","main_expt","","0.2287193473","","0.2776849753","","0.2391441838","","","","","",""
"648","","bandit","129","713079","0.0-91.0-0.0","66610103","wem/bandit_single","A3J0IAI8AJBGKX","pain","4","","76","L","3","","0","0","1","","0.2697071588","false","54","","0.2439582882","main_expt","","0.2356834932","","0.2454572706","","0.2697071588","","","","","",""
"196","","bandit","130","716755","0.0-92.0-0.0","66610103","wem/bandit_single","A3J0IAI8AJBGKX","pain","4","","74","J","1","","0","1","0","","0.306547883","false","55","","0.2381950618","main_expt","","0.306547883","","0.2382153161","","0.2875326611","","","","","",""
"418","","bandit","131","719378","0.0-93.0-0.0","66610103","wem/bandit_single","A3J0IAI8AJBGKX","pain","4","","74","J","1","","0","0","1","","0.2853582168","false","56","","0.1800346575","main_expt","","0.2853582168","","0.1960908288","","0.2854258916","","","","","",""
"768","","bandit","132","723079","0.0-94.0-0.0","66610103","wem/bandit_single","A3J0IAI8AJBGKX","pain","4","","76","L","3","","0","1","0","","0.3445045135","false","57","","0.2336203315","main_expt","","0.2834250679","","0.2042340564","","0.3445045135","","","","","",""
"343","","bandit","133","725378","0.0-95.0-0.0","66610103","wem/bandit_single","A3J0IAI8AJBGKX","pain","4","","74","J","1","","0","0","1","","0.2690284398","false","58","","0.189887459","main_expt","","0.2690284398","","0.1490893454","","0.3390226593","","","","","",""
"656","","bandit","134","728109","0.0-96.0-0.0","66610103","wem/bandit_single","A3J0IAI8AJBGKX","pain","4","","74","J","1","","0","1","0","","0.2616697142","false","59","","0.1548607402","main_expt","","0.2616697142","","0.1581154669","","0.2666291788","","","","","",""
"164","","bandit","135","730407","0.0-97.0-0.0","66610103","wem/bandit_single","A3J0IAI8AJBGKX","pain","4","","76","L","3","","0","0","1","","0.246985882","false","60","","0.1233285174","main_expt","","0.2704186185","","0.1715954381","","0.246985882","","","","","",""
"132","","bandit","136","732713","0.0-98.0-0.0","66610103","wem/bandit_single","A3J0IAI8AJBGKX","pain","4","","76","L","3","","0","0","1","","0.2171589204","false","61","","0.186549837","main_expt","","0.3376037184","","0.1999420892","","0.2171589204","","","","","",""
"878","","bandit","137","736061","0.0-99.0-0.0","66610103","wem/bandit_single","A3J0IAI8AJBGKX","pain","4","","74","J","1","","0","1","0","","0.3098521258","false","62","","0.1420872584","main_expt","","0.3098521258","","0.1539309088","","0.2677831299","","","","","",""
"193","","bandit","138","738347","0.0-100.0-0.0","66610103","wem/bandit_single","A3J0IAI8AJBGKX","pain","4","","74","J","1","","0","1","0","","0.3137631198","false","63","","0.151707711","main_expt","","0.3137631198","","0.1085632924","","0.2303454974","","","","","",""
"437","","bandit","139","741412","0.0-101.0-0.0","66610103","wem/bandit_single","A3J0IAI8AJBGKX","pain","4","","74","J","1","","0","1","0","","0.3179430645","false","64","","0.1474827626","main_expt","","0.3179430645","","0.1370187426","","0.196947777","","","","","",""
"1889","","bandit","140","745424","0.0-102.0-0.0","66610103","wem/bandit_single","A3J0IAI8AJBGKX","pain","4","","74","J","1","","0","0","1","","0.2980330155","false","65","","0.1746529425","main_expt","","0.2980330155","","0.1322062037","","0.1645630622","","","","","",""
"374","","bandit","141","748653","0.0-103.0-0.0","66610103","wem/bandit_single","A3J0IAI8AJBGKX","pain","4","","76","L","3","","0","0","1","","0.1533283495","false","66","","0.1310865155","main_expt","","0.2537140377","","0.1496501041","","0.1533283495","","","","","",""
"1256","","bandit","142","752385","0.0-104.0-0.0","66610103","wem/bandit_single","A3J0IAI8AJBGKX","pain","4","","72","H","0","img/none_selected.jpg","0","0","1","","0.1370872981","false","67","","0.1370872981","main_expt","","0.2153704701","","0.1626820295","","0.1708403009","","","","","",""
"1522","","bandit","143","755892","0.0-105.0-0.0","66610103","wem/bandit_single","A3J0IAI8AJBGKX","pain","4","","72","H","0","img/none_selected.jpg","0","0","1","","0.09914494933","false","68","","0.09914494933","main_expt","","0.2417705853","","0.1989514297","","0.1887917493","","","","","",""
"1925","","bandit","144","761047","0.0-106.0-0.0","66610103","wem/bandit_single","A3J0IAI8AJBGKX","pain","4","","75","K","2","","0","0","1","","0.1888867792","false","69","","0.1092411584","main_expt","","0.3235463827","","0.1888867792","","0.2160515082","","","","","",""
"1048","","bandit","145","764142","0.0-107.0-0.0","66610103","wem/bandit_single","A3J0IAI8AJBGKX","pain","4","","75","K","2","","0","0","1","","0.1767550628","false","70","","0.1213917008","main_expt","","0.3647615206","","0.1767550628","","0.2778565133","","","","","",""
"408","","bandit","146","766717","0.0-108.0-0.0","66610103","wem/bandit_single","A3J0IAI8AJBGKX","pain","4","","74","J","1","","0","1","0","","0.3472934012","false","71","","0.1479005197","main_expt","","0.3472934012","","0.1253641033","","0.2623699359","","","","","",""
"761","","bandit","147","770229","0.0-109.0-0.0","66610103","wem/bandit_single","A3J0IAI8AJBGKX","pain","4","","74","J","1","","0","0","1","","0.2965124106","false","72","","0.1931369739","main_expt","","0.2965124106","","0.1319365506","","0.2574081817","","","","","",""
"731","","bandit","148","774223","0.0-110.0-0.0","66610103","wem/bandit_single","A3J0IAI8AJBGKX","pain","4","","76","L","3","","0","0","1","","0.2503470883","false","73","","0.1900103681","main_expt","","0.2823595977","","0.1061905376","","0.2503470883","","","","","",""
"556","","bandit","149","777367","0.0-111.0-0.0","66610103","wem/bandit_single","A3J0IAI8AJBGKX","pain","4","","76","L","3","","0","1","0","","0.2710758316","false","74","","0.1344428369","main_expt","","0.2835749375","","0.1303083533","","0.2710758316","","","","","",""
"336","","bandit","150","779885","0.0-112.0-0.0","66610103","wem/bandit_single","A3J0IAI8AJBGKX","pain","4","","76","L","3","","0","0","1","","0.260759121","false","75","","0.1528357022","main_expt","","0.3526847528","","0.1359111238","","0.260759121","","","","","",""
"2885","","bandit","151","786208","0.0-113.0-0.0","66610103","wem/bandit_single","A3J0IAI8AJBGKX","pain","4","","76","L","3","","0","1","0","","0.2610050464","false","76","","0.1898592508","main_expt","","0.3434196486","","0.1128391495","","0.2610050464","","","","","",""
"688","","bandit","152","789133","0.0-114.0-0.0","66610103","wem/bandit_single","A3J0IAI8AJBGKX","pain","4","","76","L","3","","0","0","1","","0.1920601856","false","77","","0.191464519","main_expt","","0.3073782559","","0.1118044987","","0.1920601856","","","","","",""
"1396","","bandit","153","792732","0.0-115.0-0.0","66610103","wem/bandit_single","A3J0IAI8AJBGKX","pain","4","","76","L","3","","0","0","1","","0.1726035312","false","78","","0.2665821314","main_expt","","0.3200097729","","0.1315400358","","0.1726035312","","","","","",""
"110","","bandit","154","795227","0.0-116.0-0.0","66610103","wem/bandit_single","A3J0IAI8AJBGKX","pain","4","","74","J","1","","0","0","1","","0.3406321397","false","79","","0.2510402579","main_expt","","0.3406321397","","0.1421279646","","0.1974193715","","","","","",""
"202","","bandit","155","797546","0.0-117.0-0.0","66610103","wem/bandit_single","A3J0IAI8AJBGKX","pain","4","","74","J","1","","0","1","0","","0.2934749235","false","80","","0.2803090616","main_expt","","0.2934749235","","0.1666910293","","0.1771423485","","","","","",""
"370","","bandit","156","801194","0.0-118.0-0.0","66610103","wem/bandit_single","A3J0IAI8AJBGKX","pain","4","","74","J","1","","0","1","0","","0.3080678564","false","81","","0.3053401272","main_expt","","0.3080678564","","0.1514130178","","0.1689426189","","","","","",""
"791","","bandit","157","804892","0.0-119.0-0.0","66610103","wem/bandit_single","A3J0IAI8AJBGKX","pain","4","","74","J","1","","0","0","1","","0.3118316764","false","82","","0.3079009489","main_expt","","0.3118316764","","0.1667518413","","0.2008945118","","","","","",""
"1930","","bandit","158","809336","0.0-120.0-0.0","66610103","wem/bandit_single","A3J0IAI8AJBGKX","pain","4","","76","L","3","","0","0","1","","0.2679993971","false","83","","0.3294465445","main_expt","","0.2539803618","","0.1620161121","","0.2679993971","","","","","",""
"446","","bandit","159","812095","0.0-121.0-0.0","66610103","wem/bandit_single","A3J0IAI8AJBGKX","pain","4","","76","L","3","","0","0","1","","0.2187304288","false","84","","0.3567704092","main_expt","","0.2665148507","","0.1920696542","","0.2187304288","","","","","",""
"1093","","bandit","160","816087","0.0-122.0-0.0","66610103","wem/bandit_single","A3J0IAI8AJBGKX","pain","4","","72","H","0","img/none_selected.jpg","0","1","0","","0.3637986046","false","85","","0.3637986046","main_expt","","0.2638978108","","0.1790321084","","0.2668074714","","","","","",""
"563","","bandit","161","819157","0.0-123.0-0.0","66610103","wem/bandit_single","A3J0IAI8AJBGKX","pain","4","","74","J","1","","0","0","1","","0.2430370424","false","86","","0.3661817966","main_expt","","0.2430370424","","0.1644507099","","0.3011617684","","","","","",""
"188","","bandit","162","821861","0.0-124.0-0.0","66610103","wem/bandit_single","A3J0IAI8AJBGKX","pain","4","","72","H","0","img/none_selected.jpg","0","0","1","","0.349996741","false","87","","0.349996741","main_expt","","0.2369050713","","0.1731377232","","0.2866912597","","","","","",""
"123","","bandit","163","824200","0.0-125.0-0.0","66610103","wem/bandit_single","A3J0IAI8AJBGKX","pain","4","","76","L","3","","0","0","1","","0.2921806028","false","88","","0.3021468993","main_expt","","0.2322244834","","0.1562940882","","0.2921806028","","","","","",""
"406","","bandit","164","826766","0.0-126.0-0.0","66610103","wem/bandit_single","A3J0IAI8AJBGKX","pain","4","","75","K","2","","0","0","1","","0.1344734597","false","89","","0.2752269066","main_expt","","0.214722025","","0.1344734597","","0.2877077994","","","","","",""
"237","","bandit","165","830161","0.0-127.0-0.0","66610103","wem/bandit_single","A3J0IAI8AJBGKX","pain","4","","72","H","0","img/none_selected.jpg","0","1","0","","0.3172240337","false","90","","0.3172240337","main_expt","","0.1767670318","","0.1192135027","","0.2390413286","","","","","",""
"382","","bandit","166","832773","0.0-128.0-0.0","66610103","wem/bandit_single","A3J0IAI8AJBGKX","pain","4","","72","H","0","img/none_selected.jpg","0","0","1","","0.3049723864","false","91","","0.3049723864","main_expt","","0.1391375388","","0.1639104845","","0.2582098676","","","","","",""
"64","","bandit","167","835014","0.0-129.0-0.0","66610103","wem/bandit_single","A3J0IAI8AJBGKX","pain","4","","75","K","2","","0","1","0","","0.1960431165","false","92","","0.3261529518","main_expt","","0.1283323985","","0.1960431165","","0.3066747335","","","","","",""
"315","","bandit","168","837286","0.0-130.0-0.0","66610103","wem/bandit_single","A3J0IAI8AJBGKX","pain","4","","75","K","2","","0","1","0","","0.2137056669","false","93","","0.3550538726","main_expt","","0.07538544447","","0.2137056669","","0.3051362106","","","","","",""
"300","","bandit","169","840273","0.0-131.0-0.0","66610103","wem/bandit_single","A3J0IAI8AJBGKX","pain","4","","75","K","2","","0","1","0","","0.2188004936","false","94","","0.3335231974","main_expt","","0.07407963518","","0.2188004936","","0.3433649514","","","","","",""
"620","","bandit","170","843047","0.0-132.0-0.0","66610103","wem/bandit_single","A3J0IAI8AJBGKX","pain","4","","75","K","2","","0","0","1","","0.2442185641","false","95","","0.3060397856","main_expt","","0.06265185683","","0.2442185641","","0.3638642947","","","","","",""
"993","","bandit","171","847404","0.0-133.0-0.0","66610103","wem/bandit_single","A3J0IAI8AJBGKX","pain","4","","72","H","0","img/none_selected.jpg","0","0","1","","0.3420618169","false","96","","0.3420618169","main_expt","","0.0626930361","","0.2062156096","","0.3433071503","","","","","",""
"281","","bandit","172","849908","0.0-134.0-0.0","66610103","wem/bandit_single","A3J0IAI8AJBGKX","pain","4","","74","J","1","","0","0","1","","0.03702031205","false","97","","0.3451805041","main_expt","","0.03702031205","","0.1824441478","","0.3287523936","","","","","",""
"655","","bandit","173","852554","0.0-135.0-0.0","66610103","wem/bandit_single","A3J0IAI8AJBGKX","pain","4","","74","J","1","","0","0","1","","0.02896114516","false","98","","0.3067376926","main_expt","","0.02896114516","","0.1741419228","","0.3384657171","","","","","",""
"238","","bandit","174","856127","0.0-136.0-0.0","66610103","wem/bandit_single","A3J0IAI8AJBGKX","pain","4","","75","K","2","","0","1","0","","0.1402348549","false","99","","0.2980645096","main_expt","","0.04301278827","","0.1402348549","","0.3929596429","","","","","",""
"379","","bandit","175","859608","0.0-137.0-0.0","66610103","wem/bandit_single","A3J0IAI8AJBGKX","pain","4","","75","K","2","","0","1","0","","0.1856728267","false","100","","0.2862788702","main_expt","","0.03198738169","","0.1856728267","","0.3972918561","","","","","",""
"863","","bandit","176","862979","0.0-138.0-0.0","66610103","wem/bandit_single","A3J0IAI8AJBGKX","pain","4","","75","K","2","","0","1","0","","0.1731032509","false","101","","0.2622165861","main_expt","","0.03387094668","","0.1731032509","","0.4064604032","","","","","",""
"1077","","bandit","177","866053","0.0-139.0-0.0","66610103","wem/bandit_single","A3J0IAI8AJBGKX","pain","4","","75","K","2","","0","0","1","","0.1387116465","false","102","","0.3261799811","main_expt","","0.0235124197","","0.1387116465","","0.4273413635","","","","","",""
"437","","bandit","178","868605","0.0-140.0-0.0","66610103","wem/bandit_single","A3J0IAI8AJBGKX","pain","4","","75","K","2","","0","0","1","","0.1880660303","false","103","","0.334814711","main_expt","","0.02482610326","","0.1880660303","","0.4566487837","","","","","",""
"285","","bandit","179","871307","0.0-141.0-0.0","66610103","wem/bandit_single","A3J0IAI8AJBGKX","pain","4","","74","J","1","","0","0","1","","0.03330094042","false","104","","0.3486298313","main_expt","","0.03330094042","","0.142060421","","0.459539636","","","","","",""
"434","","bandit","180","874144","0.0-142.0-0.0","66610103","wem/bandit_single","A3J0IAI8AJBGKX","pain","4","","76","L","3","","0","1","0","","0.4462881264","false","105","","0.3538911629","main_expt","","0.06543537915","","0.1839839798","","0.4462881264","","","","","",""
"679","","bandit","181","877157","0.0-143.0-0.0","66610103","wem/bandit_single","A3J0IAI8AJBGKX","pain","4","","76","L","3","","0","1","0","","0.4417011126","false","106","","0.3886974852","main_expt","","0.07051160025","","0.1691947451","","0.4417011126","","","","","",""
"458","","bandit","182","881148","0.0-144.0-0.0","66610103","wem/bandit_single","A3J0IAI8AJBGKX","pain","4","","76","L","3","","0","0","1","","0.4419194373","false","107","","0.3489433712","main_expt","","0.08830456602","","0.180010917","","0.4419194373","","","","","",""
"625","","bandit","183","884056","0.0-145.0-0.0","66610103","wem/bandit_single","A3J0IAI8AJBGKX","pain","4","","76","L","3","","0","0","1","","0.4061848383","false","108","","0.3901728218","main_expt","","0.05921849724","","0.1338722415","","0.4061848383","","","","","",""
"470","","bandit","184","886714","0.0-146.0-0.0","66610103","wem/bandit_single","A3J0IAI8AJBGKX","pain","4","","74","J","1","","0","0","1","","0.04581125366","false","109","","0.4006799949","main_expt","","0.04581125366","","0.1350853679","","0.3906669636","","","","","",""
"529","","bandit","185","889673","0.0-147.0-0.0","66610103","wem/bandit_single","A3J0IAI8AJBGKX","pain","4","","74","J","1","","0","0","1","","0.08345510588","false","110","","0.3867714499","main_expt","","0.08345510588","","0.184551263","","0.3969614195","","","","","",""
"357","","bandit","186","892292","0.0-148.0-0.0","66610103","wem/bandit_single","A3J0IAI8AJBGKX","pain","4","","75","K","2","","0","0","1","","0.2635344293","false","111","","0.4252141842","main_expt","","0.07355878572","","0.2635344293","","0.370186674","","","","","",""
"266","","bandit","187","894760","0.0-149.0-0.0","66610103","wem/bandit_single","A3J0IAI8AJBGKX","pain","4","","75","K","2","","0","0","1","","0.2972025743","false","112","","0.4197282726","main_expt","","0.09226575929","","0.2972025743","","0.3488043283","","","","","",""
"1838","","bandit","188","898963","0.0-150.0-0.0","66610103","wem/bandit_single","A3J0IAI8AJBGKX","pain","4","","72","H","0","img/none_selected.jpg","0","1","0","","0.4371411526","false","113","","0.4371411526","main_expt","","0.07711661396","","0.2853398636","","0.2886117592","","","","","",""
"415","","bandit","189","902486","0.0-151.0-0.0","66610103","wem/bandit_single","A3J0IAI8AJBGKX","pain","4","","72","H","0","img/none_selected.jpg","0","0","1","","0.4523407119","false","114","","0.4523407119","main_expt","","0.09366406151","","0.2354235092","","0.3507025671","","","","","",""
"244","","bandit","190","904888","0.0-152.0-0.0","66610103","wem/bandit_single","A3J0IAI8AJBGKX","pain","4","","74","J","1","","0","0","1","","0.09297781317","false","115","","0.4544977282","main_expt","","0.09297781317","","0.2228923984","","0.3308051733","","","","","",""
"167","","bandit","191","907174","0.0-153.0-0.0","66610103","wem/bandit_single","A3J0IAI8AJBGKX","pain","4","","75","K","2","","0","0","1","","0.182615248","false","116","","0.4458191396","main_expt","","0.09292735615","","0.182615248","","0.2696902145","","","","","",""
"23","","bandit","192","909468","0.0-154.0-0.0","66610103","wem/bandit_single","A3J0IAI8AJBGKX","pain","4","","76","L","3","","0","0","1","","0.3048340551","false","117","","0.4384124693","main_expt","","0.1277349031","","0.1702457594","","0.3048340551","","","","","",""
"271","","bandit","193","912915","0.0-155.0-0.0","66610103","wem/bandit_single","A3J0IAI8AJBGKX","pain","4","","76","L","3","","0","0","1","","0.2682044258","false","118","","0.4590850855","main_expt","","0.1057820856","","0.2075823826","","0.2682044258","","","","","",""
"455","","bandit","194","916306","0.0-156.0-0.0","66610103","wem/bandit_single","A3J0IAI8AJBGKX","pain","4","","72","H","0","img/none_selected.jpg","0","0","1","","0.4718937063","false","119","","0.4718937063","main_expt","","0.08453932314","","0.2281388084","","0.2314514612","","","","","",""
"649","","bandit","195","919244","0.0-157.0-0.0","66610103","wem/bandit_single","A3J0IAI8AJBGKX","pain","4","","75","K","2","","0","0","1","","0.2620651535","false","120","","0.4645470247","main_expt","","0.1106897037","","0.2620651535","","0.197474053","","","","","",""
"177","","bandit","196","921489","0.0-158.0-0.0","66610103","wem/bandit_single","A3J0IAI8AJBGKX","pain","4","","74","J","1","","0","0","1","","0.1200625234","false","121","","0.4422277234","main_expt","","0.1200625234","","0.2953433235","","0.1819521248","","","","","",""
"486","","bandit","197","923934","0.0-159.0-0.0","66610103","wem/bandit_single","A3J0IAI8AJBGKX","pain","4","","74","J","1","","0","0","1","","0.1570760405","false","122","","0.4150525319","main_expt","","0.1570760405","","0.2702367277","","0.171732915","","","","","",""
"456","","bandit","198","926359","0.0-160.0-0.0","66610103","wem/bandit_single","A3J0IAI8AJBGKX","pain","4","","75","K","2","","0","0","1","","0.3190818872","false","123","","0.4356762379","main_expt","","0.1616024906","","0.3190818872","","0.1577660673","","","","","",""
"214","","bandit","199","929001","0.0-161.0-0.0","66610103","wem/bandit_single","A3J0IAI8AJBGKX","pain","4","","76","L","3","","0","1","0","","0.1384195938","false","124","","0.4475351861","main_expt","","0.1371750093","","0.3415455108","","0.1384195938","","","","","",""
"824","","bandit","200","932256","0.0-162.0-0.0","66610103","wem/bandit_single","A3J0IAI8AJBGKX","pain","4","","76","L","3","","0","0","1","","0.1367208018","false","125","","0.4310995666","main_expt","","0.1293707667","","0.3955313072","","0.1367208018","","","","","",""
"295","","bandit","201","934526","0.0-163.0-0.0","66610103","wem/bandit_single","A3J0IAI8AJBGKX","pain","4","","72","H","0","img/none_selected.jpg","0","1","0","","0.4246911586","false","126","","0.4246911586","main_expt","","0.1231453761","","0.4150522509","","0.14570125","","","","","",""
"903","","bandit","202","937609","0.0-164.0-0.0","66610103","wem/bandit_single","A3J0IAI8AJBGKX","pain","4","","72","H","0","img/none_selected.jpg","0","0","1","","0.3855858577","false","127","","0.3855858577","main_expt","","0.1044431599","","0.3803228979","","0.116128816","","","","","",""
"545","","bandit","203","943639","0.0-165.0-0.0","66610103","wem/bandit_single","A3J0IAI8AJBGKX","pain","4","","75","K","2","","0","0","1","","0.4028097642","false","128","","0.3886900275","main_expt","","0.07509994275","","0.4028097642","","0.1118736017","","","","","",""
"1133","","bandit","204","947196","0.0-166.0-0.0","66610103","wem/bandit_single","A3J0IAI8AJBGKX","pain","4","","74","J","1","","0","0","1","","0.07499531951","false","129","","0.3712880315","main_expt","","0.07499531951","","0.3759087187","","0.1153634536","","","","","",""
"2012","","bandit","205","952180","0.0-167.0-0.0","66610103","wem/bandit_single","A3J0IAI8AJBGKX","pain","4","","76","L","3","","0","0","1","","0.09323577747","false","130","","0.3163545042","main_expt","","0.06898381409","","0.3578404683","","0.09323577747","","","","","",""
"637","","bandit","206","954816","0.0-168.0-0.0","66610103","wem/bandit_single","A3J0IAI8AJBGKX","pain","4","","72","H","0","img/none_selected.jpg","0","1","0","","0.3203759455","false","131","","0.3203759455","main_expt","","0.08255272978","","0.3874222675","","0.1064947735","","","","","",""
"546","","bandit","207","958618","0.0-169.0-0.0","66610103","wem/bandit_single","A3J0IAI8AJBGKX","pain","4","","72","H","0","img/none_selected.jpg","0","1","0","","0.3128419263","false","132","","0.3128419263","main_expt","","0.06266196304","","0.3773694481","","0.1574274544","","","","","",""
"1085","","bandit","208","962097","0.0-170.0-0.0","66610103","wem/bandit_single","A3J0IAI8AJBGKX","pain","4","","72","H","0","img/none_selected.jpg","0","1","0","","0.3057041938","false","133","","0.3057041938","main_expt","","0.06584579886","","0.3961249281","","0.1613106331","","","","","",""
"941","","bandit","209","965460","0.0-171.0-0.0","66610103","wem/bandit_single","A3J0IAI8AJBGKX","pain","4","","72","H","0","img/none_selected.jpg","0","0","1","","0.2816585421","false","134","","0.2816585421","main_expt","","0.05935363428","","0.4152923946","","0.1660744508","","","","","",""
"538","","bandit","210","968025","0.0-172.0-0.0","66610103","wem/bandit_single","A3J0IAI8AJBGKX","pain","4","","76","L","3","","0","0","1","","0.1973964499","false","135","","0.2955422992","main_expt","","0.05732645975","","0.4424865849","","0.1973964499","","","","","",""
"525","","bandit","211","970999","0.0-173.0-0.0","66610103","wem/bandit_single","A3J0IAI8AJBGKX","pain","4","","74","J","1","","0","0","1","","0.07342087183","false","136","","0.3509846551","main_expt","","0.07342087183","","0.4465543098","","0.1813196928","","","","","",""
"520","","bandit","212","973667","0.0-174.0-0.0","66610103","wem/bandit_single","A3J0IAI8AJBGKX","pain","4","","75","K","2","","0","0","1","","0.4520996047","false","137","","0.3344410146","main_expt","","0.07676045657","","0.4520996047","","0.1859539446","","","","","",""
"1010","","bandit","213","977795","0.0-175.0-0.0","66610103","wem/bandit_single","A3J0IAI8AJBGKX","pain","4","","72","H","0","img/none_selected.jpg","0","0","1","","0.2657268636","false","138","","0.2657268636","main_expt","","0.09127868582","","0.428300575","","0.1014888705","","","","","",""
"1218","","bandit","214","981025","0.0-176.0-0.0","66610103","wem/bandit_single","A3J0IAI8AJBGKX","pain","4","","75","K","2","","0","0","1","","0.419833238","false","139","","0.2267955479","main_expt","","0.1057771966","","0.419833238","","0.09034098631","","","","","",""
"2537","","bandit","215","985884","0.0-177.0-0.0","66610103","wem/bandit_single","A3J0IAI8AJBGKX","pain","4","","74","J","1","","0","0","1","","0.1134354218","false","140","","0.2278141127","main_expt","","0.1134354218","","0.423721229","","0.09102227313","","","","","",""
"1805","","bandit","216","989928","0.0-178.0-0.0","66610103","wem/bandit_single","A3J0IAI8AJBGKX","pain","4","","76","L","3","","0","0","1","","0.1095349378","false","141","","0.23653477","main_expt","","0.1205694848","","0.4382479885","","0.1095349378","","","","","",""
"1436","","bandit","217","993848","0.0-179.0-0.0","66610103","wem/bandit_single","A3J0IAI8AJBGKX","pain","4","","72","H","0","img/none_selected.jpg","0","0","1","","0.2155890047","false","142","","0.2155890047","main_expt","","0.1423721259","","0.4247465964","","0.1184068784","","","","","",""
"169","","bandit","218","996087","0.0-180.0-0.0","66610103","wem/bandit_single","A3J0IAI8AJBGKX","pain","4","","72","H","0","img/none_selected.jpg","0","0","1","","0.2203428631","false","143","","0.2203428631","main_expt","","0.1199770031","","0.3978340057","","0.1056920569","","","","","",""
"469","","bandit","219","998715","0.0-181.0-0.0","66610103","wem/bandit_single","A3J0IAI8AJBGKX","pain","4","","72","H","0","img/none_selected.jpg","0","1","0","","0.1834171178","false","144","","0.1834171178","main_expt","","0.1431068991","","0.4094639435","","0.1563123998","","","","","",""
"806","","bandit","220","1001557","0.0-182.0-0.0","66610103","wem/bandit_single","A3J0IAI8AJBGKX","pain","4","","72","H","0","img/none_selected.jpg","0","0","1","","0.2064693802","false","145","","0.2064693802","main_expt","","0.1630017245","","0.4198905501","","0.09088636348","","","","","",""
"1540","","bandit","221","1005341","0.0-183.0-0.0","66610103","wem/bandit_single","A3J0IAI8AJBGKX","pain","4","","72","H","0","img/none_selected.jpg","0","1","0","","0.1342941172","false","146","","0.1342941172","main_expt","","0.145034553","","0.4050886303","","0.0827806059","","","","","",""
"254","","bandit","222","1008964","0.0-184.0-0.0","66610103","wem/bandit_single","A3J0IAI8AJBGKX","pain","4","","72","H","0","img/none_selected.jpg","0","0","1","","0.1515740161","false","147","","0.1515740161","main_expt","","0.1488017726","","0.3785891444","","0.1149215639","","","","","",""
"223","","bandit","223","1011214","0.0-185.0-0.0","66610103","wem/bandit_single","A3J0IAI8AJBGKX","pain","4","","72","H","0","img/none_selected.jpg","0","0","1","","0.1212747878","false","148","","0.1212747878","main_expt","","0.1582677895","","0.3854511928","","0.1099148444","","","","","",""
"156","","bandit","224","1013474","0.0-186.0-0.0","66610103","wem/bandit_single","A3J0IAI8AJBGKX","pain","4","","72","H","0","img/none_selected.jpg","0","0","1","","0.08453377975","false","149","","0.08453377975","main_expt","","0.1647072654","","0.3928641012","","0.1127327795","","","","","",""
"671","","bandit","225","1016154","0.0-187.0-0.0","66610103","wem/bandit_single","A3J0IAI8AJBGKX","pain","4","","72","H","0","img/none_selected.jpg","0","0","1","","0.1060211344","false","150","","0.1060211344","main_expt","","0.1333243968","","0.3981420368","","0.1477728786","","","","","",""
"1261","","bandit","226","1022037","0.0-188.0-0.0","66610103","wem/bandit_single","A3J0IAI8AJBGKX","pain","4","","75","K","2","","0","0","1","","0.3954234158","false","151","","0.06473992137","main_expt","","0.1232516149","","0.3954234158","","0.1634569086","","","","","",""
"837","","bandit","227","1025396","0.0-189.0-0.0","66610103","wem/bandit_single","A3J0IAI8AJBGKX","pain","4","","75","K","2","","0","0","1","","0.3684376671","false","152","","0.07847139908","main_expt","","0.1218764731","","0.3684376671","","0.2119786212","","","","","",""
"446","","bandit","228","1027956","0.0-190.0-0.0","66610103","wem/bandit_single","A3J0IAI8AJBGKX","pain","4","","75","K","2","","0","0","1","","0.3586265296","false","153","","0.06170083269","main_expt","","0.1181944444","","0.3586265296","","0.190815194","","","","","",""
"565","","bandit","229","1030953","0.0-191.0-0.0","66610103","wem/bandit_single","A3J0IAI8AJBGKX","pain","4","","75","K","2","","0","0","1","","0.3711835277","false","154","","0.07752027139","main_expt","","0.1524072167","","0.3711835277","","0.2539230859","","","","","",""
"394","","bandit","230","1033487","0.0-192.0-0.0","66610103","wem/bandit_single","A3J0IAI8AJBGKX","pain","4","","76","L","3","","0","0","1","","0.2214647723","false","155","","0.07430376846","main_expt","","0.2181316645","","0.3296220366","","0.2214647723","","","","","",""
"252","","bandit","231","1036203","0.0-193.0-0.0","66610103","wem/bandit_single","A3J0IAI8AJBGKX","pain","4","","76","L","3","","0","0","1","","0.1812397975","false","156","","0.05925504694","main_expt","","0.213475765","","0.287903252","","0.1812397975","","","","","",""
"1511","","bandit","232","1040423","0.0-194.0-0.0","66610103","wem/bandit_single","A3J0IAI8AJBGKX","pain","4","","76","L","3","","0","0","1","","0.1447548225","false","157","","0.0737155059","main_expt","","0.2264995707","","0.296290929","","0.1447548225","","","","","",""
"699","","bandit","233","1043454","0.0-195.0-0.0","66610103","wem/bandit_single","A3J0IAI8AJBGKX","pain","4","","76","L","3","","0","0","1","","0.1458137519","false","158","","0.05755321342","main_expt","","0.2991482761","","0.2721348168","","0.1458137519","","","","","",""
"321","","bandit","234","1046811","0.0-196.0-0.0","66610103","wem/bandit_single","A3J0IAI8AJBGKX","pain","4","","74","J","1","","0","1","0","","0.3365391658","false","159","","0.1007830752","main_expt","","0.3365391658","","0.2765185667","","0.1035755389","","","","","",""
"602","","bandit","235","1050577","0.0-197.0-0.0","66610103","wem/bandit_single","A3J0IAI8AJBGKX","pain","4","","74","J","1","","0","0","1","","0.313402929","false","160","","0.06149362121","main_expt","","0.313402929","","0.3162688162","","0.1142027444","","","","","",""
"617","","bandit","236","1053947","0.0-198.0-0.0","66610103","wem/bandit_single","A3J0IAI8AJBGKX","pain","4","","74","J","1","","0","0","1","","0.3529908654","false","161","","0.09516109007","main_expt","","0.3529908654","","0.3302336848","","0.1510988582","","","","","",""
"558","","bandit","237","1056490","0.0-199.0-0.0","66610103","wem/bandit_single","A3J0IAI8AJBGKX","pain","4","","74","J","1","","0","0","1","","0.3608295961","false","162","","0.08429007215","main_expt","","0.3608295961","","0.3622896815","","0.1720124831","","","","","",""
"1411","","bandit","238","1061620","0.0-200.0-0.0","66610103","wem/bandit_single","A3J0IAI8AJBGKX","pain","4","","72","H","0","img/none_selected.jpg","0","1","0","","0.1199893575","false","163","","0.1199893575","main_expt","","0.4197284319","","0.3696580379","","0.2119433459","","","","","",""
"609","","bandit","239","1064423","0.0-201.0-0.0","66610103","wem/bandit_single","A3J0IAI8AJBGKX","pain","4","","72","H","0","img/none_selected.jpg","0","0","1","","0.1353867718","false","164","","0.1353867718","main_expt","","0.4162507976","","0.3217553384","","0.2413639604","","","","","",""
"1344","","bandit","240","1068839","0.0-202.0-0.0","66610103","wem/bandit_single","A3J0IAI8AJBGKX","pain","4","","72","H","0","img/none_selected.jpg","0","1","0","","0.08700720397","false","165","","0.08700720397","main_expt","","0.424344073","","0.2370356752","","0.3231443763","","","","","",""
"484","","bandit","241","1071310","0.0-203.0-0.0","66610103","wem/bandit_single","A3J0IAI8AJBGKX","pain","4","","72","H","0","img/none_selected.jpg","0","0","1","","0.09613155095","false","166","","0.09613155095","main_expt","","0.4385436022","","0.1952619304","","0.2907209657","","","","","",""
"535","","bandit","242","1074202","0.0-204.0-0.0","66610103","wem/bandit_single","A3J0IAI8AJBGKX","pain","4","","72","H","0","img/none_selected.jpg","0","0","1","","0.08740230362","false","167","","0.08740230362","main_expt","","0.4428370211","","0.2008635704","","0.2386263765","","","","","",""
"155","","bandit","243","1076927","0.0-205.0-0.0","66610103","wem/bandit_single","A3J0IAI8AJBGKX","pain","4","","72","H","0","img/none_selected.jpg","0","0","1","","0.1033010443","false","168","","0.1033010443","main_expt","","0.4475632301","","0.2872582577","","0.2802872421","","","","","",""
"220","","bandit","244","1079449","0.0-206.0-0.0","66610103","wem/bandit_single","A3J0IAI8AJBGKX","pain","4","","72","H","0","img/none_selected.jpg","0","0","1","","0.1288835215","false","169","","0.1288835215","main_expt","","0.4358894507","","0.2478638945","","0.2858578204","","","","","",""
"1122","","bandit","245","1082572","0.0-207.0-0.0","66610103","wem/bandit_single","A3J0IAI8AJBGKX","pain","4","","72","H","0","img/none_selected.jpg","0","0","1","","0.0821831217","false","170","","0.0821831217","main_expt","","0.4401344765","","0.2335785199","","0.3542119366","","","","","",""
"341","","bandit","246","1084894","0.0-208.0-0.0","66610103","wem/bandit_single","A3J0IAI8AJBGKX","pain","4","","76","L","3","","0","1","0","","0.363516632","false","171","","0.08448133796","main_expt","","0.4182824287","","0.263029084","","0.363516632","","","","","",""
"515","","bandit","247","1087362","0.0-209.0-0.0","66610103","wem/bandit_single","A3J0IAI8AJBGKX","pain","4","","76","L","3","","0","0","1","","0.3285232471","false","172","","0.1142172702","main_expt","","0.4206293302","","0.282237019","","0.3285232471","","","","","",""
"363","","bandit","248","1090991","0.0-210.0-0.0","66610103","wem/bandit_single","A3J0IAI8AJBGKX","pain","4","","76","L","3","","0","0","1","","0.3379934215","false","173","","0.1585219493","main_expt","","0.4424673434","","0.2798091978","","0.3379934215","","","","","",""
"347","","bandit","249","1093502","0.0-211.0-0.0","66610103","wem/bandit_single","A3J0IAI8AJBGKX","pain","4","","74","J","1","","0","0","1","","0.4470793942","false","174","","0.2167008269","main_expt","","0.4470793942","","0.2782342077","","0.2937018888","","","","","",""
"244","","bandit","250","1095815","0.0-212.0-0.0","66610103","wem/bandit_single","A3J0IAI8AJBGKX","pain","4","","74","J","1","","0","1","0","","0.4466152725","false","175","","0.2564405216","main_expt","","0.4466152725","","0.3095951925","","0.2691073907","","","","","",""
"678","","bandit","251","1098645","0.0-213.0-0.0","66610103","wem/bandit_single","A3J0IAI8AJBGKX","pain","4","","74","J","1","","0","1","0","","0.4622816701","false","176","","0.2740916264","main_expt","","0.4622816701","","0.3149167583","","0.2797966768","","","","","",""
"218","","bandit","252","1102122","0.0-214.0-0.0","66610103","wem/bandit_single","A3J0IAI8AJBGKX","pain","4","","74","J","1","","0","0","1","","0.4791174255","false","177","","0.2701885048","main_expt","","0.4791174255","","0.3057016371","","0.2956207272","","","","","",""
"2137","","bandit","253","1107430","0.0-215.0-0.0","66610103","wem/bandit_single","A3J0IAI8AJBGKX","pain","4","","75","K","2","","0","0","1","","0.2973749651","false","178","","0.2525299603","main_expt","","0.4878404122","","0.2973749651","","0.2903749226","","","","","",""
"449","","bandit","254","1110302","0.0-216.0-0.0","66610103","wem/bandit_single","A3J0IAI8AJBGKX","pain","4","","75","K","2","","0","0","1","","0.3205080684","false","179","","0.2923151224","main_expt","","0.4871204803","","0.3205080684","","0.2324022499","","","","","",""
"77","","bandit","255","1112648","0.0-217.0-0.0","66610103","wem/bandit_single","A3J0IAI8AJBGKX","pain","4","","75","K","2","","0","1","0","","0.3668921479","false","180","","0.2712435876","main_expt","","0.4783768728","","0.3668921479","","0.157369965","","","","","",""
"557","","bandit","256","1115183","0.0-218.0-0.0","66610103","wem/bandit_single","A3J0IAI8AJBGKX","pain","4","","75","K","2","","0","1","0","","0.36743573","false","181","","0.2911825171","main_expt","","0.4791844977","","0.36743573","","0.1928111427","","","","","",""
"728","","bandit","257","1119531","0.0-219.0-0.0","66610103","wem/bandit_single","A3J0IAI8AJBGKX","pain","4","","75","K","2","","0","0","1","","0.3444330154","false","182","","0.2812290194","main_expt","","0.4796326775","","0.3444330154","","0.1831473083","","","","","",""
"568","","bandit","258","1123903","0.0-220.0-0.0","66610103","wem/bandit_single","A3J0IAI8AJBGKX","pain","4","","75","K","2","","0","1","0","","0.376594699","false","183","","0.2998653002","main_expt","","0.4610412729","","0.376594699","","0.1367876881","","","","","",""
"332","","bandit","259","1126290","0.0-221.0-0.0","66610103","wem/bandit_single","A3J0IAI8AJBGKX","pain","4","","75","K","2","","0","0","1","","0.3576767422","false","184","","0.3019566185","main_expt","","0.4654872089","","0.3576767422","","0.1225312115","","","","","",""
"750","","bandit","260","1129015","0.0-222.0-0.0","66610103","wem/bandit_single","A3J0IAI8AJBGKX","pain","4","","75","K","2","","0","0","1","","0.3420219295","false","185","","0.3297019868","main_expt","","0.4579605539","","0.3420219295","","0.1342014861","","","","","",""
"471","","bandit","261","1131459","0.0-223.0-0.0","66610103","wem/bandit_single","A3J0IAI8AJBGKX","pain","4","","75","K","2","","0","0","1","","0.3398722127","false","186","","0.3522504082","main_expt","","0.4285966985","","0.3398722127","","0.1302900424","","","","","",""
"969","","bandit","262","1135208","0.0-224.0-0.0","66610103","wem/bandit_single","A3J0IAI8AJBGKX","pain","4","","74","J","1","","0","1","0","","0.4348535533","false","187","","0.3716798598","main_expt","","0.4348535533","","0.3329123812","","0.1721475048","","","","","",""
"740","","bandit","263","1138264","0.0-225.0-0.0","66610103","wem/bandit_single","A3J0IAI8AJBGKX","pain","4","","74","J","1","","0","1","0","","0.4485299143","false","188","","0.3516931858","main_expt","","0.4485299143","","0.3185375489","","0.194848396","","","","","",""
"605","","bandit","264","1142762","0.0-226.0-0.0","66610103","wem/bandit_single","A3J0IAI8AJBGKX","pain","4","","74","J","1","","0","0","1","","0.4108460603","false","189","","0.311825216","main_expt","","0.4108460603","","0.2819885058","","0.2010474049","","","","","",""
"901","","bandit","265","1146164","0.0-227.0-0.0","66610103","wem/bandit_single","A3J0IAI8AJBGKX","pain","4","","76","L","3","","0","0","1","","0.2388592571","false","190","","0.3228194114","main_expt","","0.4276881046","","0.2938453289","","0.2388592571","","","","","",""
"447","","bandit","266","1148957","0.0-228.0-0.0","66610103","wem/bandit_single","A3J0IAI8AJBGKX","pain","4","","72","H","0","img/none_selected.jpg","0","0","1","","0.3070679034","false","191","","0.3070679034","main_expt","","0.4252680513","","0.3252392313","","0.2125939305","","","","","",""
"348","","bandit","267","1152550","0.0-229.0-0.0","66610103","wem/bandit_single","A3J0IAI8AJBGKX","pain","4","","72","H","0","img/none_selected.jpg","0","0","1","","0.3224985291","false","192","","0.3224985291","main_expt","","0.4128843357","","0.2886148476","","0.2494953747","","","","","",""
"517","","bandit","268","1155426","0.0-230.0-0.0","66610103","wem/bandit_single","A3J0IAI8AJBGKX","pain","4","","72","H","0","img/none_selected.jpg","0","0","1","","0.3869795439","false","193","","0.3869795439","main_expt","","0.3935422506","","0.2985788169","","0.2831479201","","","","","",""
"258","","bandit","269","1157854","0.0-231.0-0.0","66610103","wem/bandit_single","A3J0IAI8AJBGKX","pain","4","","75","K","2","","0","0","1","","0.2480640489","false","194","","0.4012627402","main_expt","","0.3844836544","","0.2480640489","","0.3119862296","","","","","",""
"1545","","bandit","270","1161524","0.0-232.0-0.0","66610103","wem/bandit_single","A3J0IAI8AJBGKX","pain","4","","75","K","2","","0","0","1","","0.2512767584","false","195","","0.3984750166","main_expt","","0.3676726872","","0.2512767584","","0.3216729489","","","","","",""
"206","","bandit","271","1165162","0.0-233.0-0.0","66610103","wem/bandit_single","A3J0IAI8AJBGKX","pain","4","","76","L","3","","0","0","1","","0.3321806914","false","196","","0.354698241","main_expt","","0.3789354293","","0.2465093633","","0.3321806914","","","","","",""
"289","","bandit","272","1167706","0.0-234.0-0.0","66610103","wem/bandit_single","A3J0IAI8AJBGKX","pain","4","","76","L","3","","0","0","1","","0.3046277309","false","197","","0.388220233","main_expt","","0.3163718389","","0.2064088789","","0.3046277309","","","","","",""
"588","","bandit","273","1170304","0.0-235.0-0.0","66610103","wem/bandit_single","A3J0IAI8AJBGKX","pain","4","","74","J","1","","0","1","0","","0.3791854339","false","198","","0.3702696144","main_expt","","0.3791854339","","0.1991167995","","0.2780350238","","","","","",""
"839","","bandit","274","1173313","0.0-236.0-0.0","66610103","wem/bandit_single","A3J0IAI8AJBGKX","pain","4","","74","J","1","","0","0","1","","0.3677616307","false","199","","0.3901406761","main_expt","","0.3677616307","","0.217931059","","0.2933352516","","","","","",""
"1769","","bandit","275","1177193","0.0-237.0-0.0","66610103","wem/bandit_single","A3J0IAI8AJBGKX","pain","4","","76","L","3","","0","0","1","","0.2826656477","false","200","","0.3606677237","main_expt","","0.3696360463","","0.1684289921","","0.2826656477","","","","","",""
"3074","","bandit","276","1182401","0.0-238.0-0.0","66610103","wem/bandit_single","A3J0IAI8AJBGKX","pain","4","","72","H","0","img/none_selected.jpg","0","0","1","","0.3608273241","false","201","","0.3608273241","main_expt","","0.3685313937","","0.1526494416","","0.2337361703","","","","","",""
"975","","bandit","277","1185410","0.0-239.0-0.0","66610103","wem/bandit_single","A3J0IAI8AJBGKX","pain","4","","75","K","2","","0","1","0","","0.1474087426","false","202","","0.3495453025","main_expt","","0.354480527","","0.1474087426","","0.1697000529","","","","","",""
"777","","bandit","278","1188213","0.0-240.0-0.0","66610103","wem/bandit_single","A3J0IAI8AJBGKX","pain","4","","75","K","2","","0","0","1","","0.1499100939","false","203","","0.3660628182","main_expt","","0.3420940801","","0.1499100939","","0.1941246875","","","","","",""
"461","","bandit","279","1190774","0.0-241.0-0.0","66610103","wem/bandit_single","A3J0IAI8AJBGKX","pain","4","","74","J","1","","0","1","0","","0.3365711719","false","204","","0.337040125","main_expt","","0.3365711719","","0.173155318","","0.2006574904","","","","","",""
"921","","bandit","280","1194903","0.0-242.0-0.0","66610103","wem/bandit_single","A3J0IAI8AJBGKX","pain","4","","75","K","2","","0","0","1","","0.1813441082","false","205","","0.303371863","main_expt","","0.3517226909","","0.1813441082","","0.1905393187","","","","","",""
"245","","bandit","281","1197199","0.0-243.0-0.0","66610103","wem/bandit_single","A3J0IAI8AJBGKX","pain","4","","74","J","1","","0","0","1","","0.3476038752","false","206","","0.256221391","main_expt","","0.3476038752","","0.1491413167","","0.1715448013","","","","","",""
"223","","bandit","282","1199591","0.0-244.0-0.0","66610103","wem/bandit_single","A3J0IAI8AJBGKX","pain","4","","75","K","2","","0","0","1","","0.08847738283","false","207","","0.2368802791","main_expt","","0.3349551135","","0.08847738283","","0.1857981004","","","","","",""
"122","","bandit","283","1201788","0.0-245.0-0.0","66610103","wem/bandit_single","A3J0IAI8AJBGKX","pain","4","","74","J","1","","0","0","1","","0.342580335","false","208","","0.1949321076","main_expt","","0.342580335","","0.1283817583","","0.2102455122","","","","","",""
"853","","bandit","284","1206880","0.0-246.0-0.0","66610103","wem/bandit_single","A3J0IAI8AJBGKX","pain","4","","76","L","3","","0","0","1","","0.2400108979","false","209","","0.1838736563","main_expt","","0.3043768385","","0.116273769","","0.2400108979","","","","","",""
"824","","bandit","285","1210244","0.0-247.0-0.0","66610103","wem/bandit_single","A3J0IAI8AJBGKX","pain","4","","72","H","0","img/none_selected.jpg","0","0","1","","0.2021797606","false","210","","0.2021797606","main_expt","","0.2578785415","","0.1255054793","","0.2756077388","","","","","",""
"372","","bandit","286","1212808","0.0-248.0-0.0","66610103","wem/bandit_single","A3J0IAI8AJBGKX","pain","4","","72","H","0","img/none_selected.jpg","0","1","0","","0.1724183734","false","211","","0.1724183734","main_expt","","0.2684152162","","0.1183517879","","0.2509099491","","","","","",""
"492","","bandit","287","1215738","0.0-249.0-0.0","66610103","wem/bandit_single","A3J0IAI8AJBGKX","pain","4","","72","H","0","img/none_selected.jpg","0","0","1","","0.1730984207","false","212","","0.1730984207","main_expt","","0.2734791169","","0.05794836862","","0.1980821896","","","","","",""
"479","","bandit","288","1218692","0.0-250.0-0.0","66610103","wem/bandit_single","A3J0IAI8AJBGKX","pain","4","","76","L","3","","0","0","1","","0.1925164192","false","213","","0.1324166562","main_expt","","0.2278558496","","0.05975327623","","0.1925164192","","","","","",""
"376","","bandit","289","1222095","0.0-251.0-0.0","66610103","wem/bandit_single","A3J0IAI8AJBGKX","pain","4","","75","K","2","","0","0","1","","0.08438277685","false","214","","0.1503769339","main_expt","","0.3028606466","","0.08438277685","","0.2265747235","","","","","",""
"665","","bandit","290","1225080","0.0-252.0-0.0","66610103","wem/bandit_single","A3J0IAI8AJBGKX","pain","4","","74","J","1","","0","0","1","","0.2931323275","false","215","","0.1957560139","main_expt","","0.2931323275","","0.06249742642","","0.2019374621","","","","","",""
"341","","bandit","291","1227867","0.0-253.0-0.0","66610103","wem/bandit_single","A3J0IAI8AJBGKX","pain","4","","74","J","1","","0","1","0","","0.3496422565","false","216","","0.2405167914","main_expt","","0.3496422565","","0.03962767808","","0.1789305456","","","","","",""
"461","","bandit","292","1230506","0.0-254.0-0.0","66610103","wem/bandit_single","A3J0IAI8AJBGKX","pain","4","","74","J","1","","0","0","1","","0.3773047798","false","217","","0.1730494568","main_expt","","0.3773047798","","0.04234009702","","0.1749198907","","","","","",""
"443","","bandit","293","1233061","0.0-255.0-0.0","66610103","wem/bandit_single","A3J0IAI8AJBGKX","pain","4","","75","K","2","","0","0","1","","0.03503126556","false","218","","0.194438436","main_expt","","0.3416605923","","0.03503126556","","0.1735363699","","","","","",""
"143","","bandit","294","1235250","0.0-256.0-0.0","66610103","wem/bandit_single","A3J0IAI8AJBGKX","pain","4","","74","J","1","","0","0","1","","0.3559276739","false","219","","0.1883779435","main_expt","","0.3559276739","","0.04555228435","","0.2007391453","","","","","",""
"152","","bandit","295","1238634","0.0-257.0-0.0","66610103","wem/bandit_single","A3J0IAI8AJBGKX","pain","4","","74","J","1","","0","0","1","","0.3535435837","false","220","","0.146052069","main_expt","","0.3535435837","","0.03183460319","","0.2082644318","","","","","",""
"194","","bandit","296","1241097","0.0-258.0-0.0","66610103","wem/bandit_single","A3J0IAI8AJBGKX","pain","4","","76","L","3","","0","0","1","","0.1821586712","false","221","","0.1494285134","main_expt","","0.3418709783","","0.05071015327","","0.1821586712","","","","","",""
"285","","bandit","297","1243471","0.0-259.0-0.0","66610103","wem/bandit_single","A3J0IAI8AJBGKX","pain","4","","72","H","0","img/none_selected.jpg","0","0","1","","0.182387278","false","222","","0.182387278","main_expt","","0.3004905908","","0.04027023507","","0.2158533928","","","","","",""
"80","","bandit","298","1245842","0.0-260.0-0.0","66610103","wem/bandit_single","A3J0IAI8AJBGKX","pain","4","","75","K","2","","0","0","1","","0.05247893246","false","223","","0.198140534","main_expt","","0.3691689592","","0.05247893246","","0.1832968935","","","","","",""
"371","","bandit","299","1249223","0.0-261.0-0.0","66610103","wem/bandit_single","A3J0IAI8AJBGKX","pain","4","","74","J","1","","0","1","0","","0.2915556832","false","224","","0.1957066115","main_expt","","0.2915556832","","0.06352932029","","0.1701073256","","","","","",""
"920","","bandit","300","1253642","0.0-262.0-0.0","66610103","wem/bandit_single","A3J0IAI8AJBGKX","pain","4","","74","J","1","","0","0","1","","0.3175642321","false","225","","0.2132826896","main_expt","","0.3175642321","","0.04388745626","","0.1599508429","","","","","",""
"562","","bandit","301","1256519","0.0-263.0-0.0","66610103","wem/bandit_single","A3J0IAI8AJBGKX","pain","4","","74","J","1","","0","1","0","","0.2803716623","false","226","","0.2679811769","main_expt","","0.2803716623","","0.0536624769","","0.1801289829","","","","","",""
"584","","bandit","302","1259315","0.0-264.0-0.0","66610103","wem/bandit_single","A3J0IAI8AJBGKX","pain","4","","74","J","1","","0","0","1","","0.2506224893","false","227","","0.2101601544","main_expt","","0.2506224893","","0.07211167966","","0.1920788888","","","","","",""
"487","","bandit","303","1261780","0.0-265.0-0.0","66610103","wem/bandit_single","A3J0IAI8AJBGKX","pain","4","","74","J","1","","0","1","0","","0.2890404278","false","228","","0.1808571688","main_expt","","0.2890404278","","0.04486621846","","0.1540575712","","","","","",""
"193","","bandit","304","1264232","0.0-266.0-0.0","66610103","wem/bandit_single","A3J0IAI8AJBGKX","pain","4","","74","J","1","","0","0","1","","0.2746035793","false","229","","0.1132309001","main_expt","","0.2746035793","","0.05387953984","","0.161449161","","","","","",""
"173","","bandit","305","1266579","0.0-267.0-0.0","66610103","wem/bandit_single","A3J0IAI8AJBGKX","pain","4","","74","J","1","","0","0","1","","0.282726532","false","230","","0.1450818377","main_expt","","0.282726532","","0.03848872117","","0.1413021421","","","","","",""
"761","","bandit","306","1269811","0.0-268.0-0.0","66610103","wem/bandit_single","A3J0IAI8AJBGKX","pain","4","","74","J","1","","0","0","1","","0.3472256411","false","231","","0.1077137685","main_expt","","0.3472256411","","0.04669383004","","0.1745796094","","","","","",""
"303","","bandit","307","1272264","0.0-269.0-0.0","66610103","wem/bandit_single","A3J0IAI8AJBGKX","pain","4","","74","J","1","","0","0","1","","0.3994934702","false","232","","0.06427161289","main_expt","","0.3994934702","","0.03395804074","","0.1680880834","","","","","",""
"378","","bandit","308","1275052","0.0-270.0-0.0","66610103","wem/bandit_single","A3J0IAI8AJBGKX","pain","4","","76","L","3","","0","0","1","","0.213250795","false","233","","0.1060089469","main_expt","","0.4029083043","","0.05150109453","","0.213250795","","","","","",""
"402","","bandit","309","1279191","0.0-271.0-0.0","66610103","wem/bandit_single","A3J0IAI8AJBGKX","pain","4","","76","L","3","","0","0","1","","0.221091899","false","234","","0.1117154146","main_expt","","0.4486287737","","0.06099663442","","0.221091899","","","","","",""
"388","","bandit","310","1281949","0.0-272.0-0.0","66610103","wem/bandit_single","A3J0IAI8AJBGKX","pain","4","","75","K","2","","0","0","1","","0.05202127711","false","235","","0.1276115887","main_expt","","0.4561120354","","0.05202127711","","0.2688923835","","","","","",""
"553","","bandit","311","1285528","0.0-273.0-0.0","66610103","wem/bandit_single","A3J0IAI8AJBGKX","pain","4","","75","K","2","","0","0","1","","0.07001303924","false","236","","0.1786916187","main_expt","","0.4375102443","","0.07001303924","","0.2323123402","","","","","",""
"272","","bandit","312","1288176","0.0-274.0-0.0","66610103","wem/bandit_single","A3J0IAI8AJBGKX","pain","4","","72","H","0","img/none_selected.jpg","0","0","1","","0.1896980961","false","237","","0.1896980961","main_expt","","0.4582573195","","0.07602679398","","0.174764536","","","","","",""
"518","","bandit","313","1290716","0.0-275.0-0.0","66610103","wem/bandit_single","A3J0IAI8AJBGKX","pain","4","","72","H","0","img/none_selected.jpg","0","0","1","","0.2205101014","false","238","","0.2205101014","main_expt","","0.4463811869","","0.08775462142","","0.1654919337","","","","","",""
"291","","bandit","314","1293945","0.0-276.0-0.0","66610103","wem/bandit_single","A3J0IAI8AJBGKX","pain","4","","72","H","0","img/none_selected.jpg","0","0","1","","0.2661717939","false","239","","0.2661717939","main_expt","","0.4507479662","","0.06721086637","","0.2402574844","","","","","",""
"209","","bandit","315","1296143","0.0-277.0-0.0","66610103","wem/bandit_single","A3J0IAI8AJBGKX","pain","4","","74","J","1","","0","0","1","","0.4504038859","false","240","","0.1972661282","main_expt","","0.4504038859","","0.07433064979","","0.2445968751","","","","","",""
"935","","bandit","316","1299623","0.0-278.0-0.0","66610103","wem/bandit_single","A3J0IAI8AJBGKX","pain","4","","74","J","1","","0","1","0","","0.4346931185","false","241","","0.1868253343","main_expt","","0.4346931185","","0.08919714094","","0.2708632627","","","","","",""
"574","","bandit","317","1302341","0.0-279.0-0.0","66610103","wem/bandit_single","A3J0IAI8AJBGKX","pain","4","","74","J","1","","0","0","1","","0.3898892773","false","242","","0.1649449253","main_expt","","0.3898892773","","0.06159770715","","0.2047807489","","","","","",""
"294","","bandit","318","1305237","0.0-280.0-0.0","66610103","wem/bandit_single","A3J0IAI8AJBGKX","pain","4","","74","J","1","","0","1","0","","0.4033463229","false","243","","0.184368772","main_expt","","0.4033463229","","0.05299296545","","0.222122474","","","","","",""
"574","","bandit","319","1307827","0.0-281.0-0.0","66610103","wem/bandit_single","A3J0IAI8AJBGKX","pain","4","","74","J","1","","0","1","0","","0.4096532456","false","244","","0.2121467569","main_expt","","0.4096532456","","0.06275569833","","0.2425992204","","","","","",""
"944","","bandit","320","1310723","0.0-282.0-0.0","66610103","wem/bandit_single","A3J0IAI8AJBGKX","pain","4","","74","J","1","","0","1","0","","0.3779527256","false","245","","0.1894702338","main_expt","","0.3779527256","","0.06673215917","","0.2173978931","","","","","",""
"580","","bandit","321","1313608","0.0-283.0-0.0","66610103","wem/bandit_single","A3J0IAI8AJBGKX","pain","4","","74","J","1","","0","0","1","","0.3953318503","false","246","","0.2018459735","main_expt","","0.3953318503","","0.06500670021","","0.2218069129","","","","","",""
"278","","bandit","322","1316233","0.0-284.0-0.0","66610103","wem/bandit_single","A3J0IAI8AJBGKX","pain","4","","74","J","1","","0","0","1","","0.4287890539","false","247","","0.1986179994","main_expt","","0.4287890539","","0.07271559664","","0.1888628326","","","","","",""
"605","","bandit","323","1319372","0.0-285.0-0.0","66610103","wem/bandit_single","A3J0IAI8AJBGKX","pain","4","","74","J","1","","0","0","1","","0.4104310255","false","248","","0.1299779064","main_expt","","0.4104310255","","0.09654775784","","0.1722509531","","","","","",""
"122","","bandit","324","1323097","0.0-286.0-0.0","66610103","wem/bandit_single","A3J0IAI8AJBGKX","pain","4","","75","K","2","","0","0","1","","0.1179039307","false","249","","0.1590650881","main_expt","","0.4116337798","","0.1179039307","","0.2541205998","","","","","",""
"290","","bandit","325","1325858","0.0-287.0-0.0","66610103","wem/bandit_single","A3J0IAI8AJBGKX","pain","4","","75","K","2","","0","0","1","","0.1265890049","false","250","","0.1213614167","main_expt","","0.426505214","","0.1265890049","","0.2664885101","","","","","",""
"807","","bandit","326","1329150","0.0-288.0-0.0","66610103","wem/bandit_single","A3J0IAI8AJBGKX","pain","4","","75","K","2","","0","0","1","","0.1039398773","false","251","","0.1099334476","main_expt","","0.3949293487","","0.1039398773","","0.2519669898","","","","","",""
"239","","bandit","327","1331410","0.0-289.0-0.0","66610103","wem/bandit_single","A3J0IAI8AJBGKX","pain","4","","72","H","0","img/none_selected.jpg","0","0","1","","0.1087011898","false","252","","0.1087011898","main_expt","","0.3913077142","","0.107940897","","0.2932098873","","","","","",""
"348","","bandit","328","1333907","0.0-290.0-0.0","66610103","wem/bandit_single","A3J0IAI8AJBGKX","pain","4","","76","L","3","","0","0","1","","0.3179249839","false","253","","0.09397011719","main_expt","","0.3648650894","","0.1136461566","","0.3179249839","","","","","",""
"183","","bandit","329","1336109","0.0-291.0-0.0","66610103","wem/bandit_single","A3J0IAI8AJBGKX","pain","4","","72","H","0","img/none_selected.jpg","0","0","1","","0.08474648857","false","254","","0.08474648857","main_expt","","0.3452883024","","0.1374631792","","0.2908620441","","","","","",""
"223","","bandit","330","1338517","0.0-292.0-0.0","66610103","wem/bandit_single","A3J0IAI8AJBGKX","pain","4","","76","L","3","","0","1","0","","0.3067265453","false","255","","0.1025854271","main_expt","","0.2943306686","","0.1453945637","","0.3067265453","","","","","",""
"689","","bandit","331","1341476","0.0-293.0-0.0","66610103","wem/bandit_single","A3J0IAI8AJBGKX","pain","4","","76","L","3","","0","0","1","","0.3133222149","false","256","","0.08686152536","main_expt","","0.3225000795","","0.1543600678","","0.3133222149","","","","","",""
"177","","bandit","332","1344387","0.0-294.0-0.0","66610103","wem/bandit_single","A3J0IAI8AJBGKX","pain","4","","76","L","3","","0","1","0","","0.3194106209","false","257","","0.08667022303","main_expt","","0.3199750271","","0.107160473","","0.3194106209","","","","","",""
"61","","bandit","333","1346607","0.0-295.0-0.0","66610103","wem/bandit_single","A3J0IAI8AJBGKX","pain","4","","76","L","3","","0","0","1","","0.35032938","false","258","","0.1158580788","main_expt","","0.355105101","","0.0567043194","","0.35032938","","","","","",""
"269","","bandit","334","1348971","0.0-296.0-0.0","66610103","wem/bandit_single","A3J0IAI8AJBGKX","pain","4","","76","L","3","","0","0","1","","0.3856615787","false","259","","0.08241329339","main_expt","","0.3566572827","","0.05418204449","","0.3856615787","","","","","",""
"219","","bandit","335","1351327","0.0-297.0-0.0","66610103","wem/bandit_single","A3J0IAI8AJBGKX","pain","4","","76","L","3","","0","1","0","","0.3977147975","false","260","","0.09346186364","main_expt","","0.3492833521","","0.0423658587","","0.3977147975","","","","","",""
"754","","bandit","336","1354639","0.0-298.0-0.0","66610103","wem/bandit_single","A3J0IAI8AJBGKX","pain","4","","76","L","3","","0","0","1","","0.4011116255","false","261","","0.07434745577","main_expt","","0.3406934897","","0.08097208102","","0.4011116255","","","","","",""
"144","","bandit","337","1356847","0.0-299.0-0.0","66610103","wem/bandit_single","A3J0IAI8AJBGKX","pain","4","","76","L","3","","0","1","0","","0.4149706566","false","262","","0.1177047137","main_expt","","0.3604065233","","0.05731993864","","0.4149706566","","","","","",""
"338","","bandit","338","1359434","0.0-300.0-0.0","66610103","wem/bandit_single","A3J0IAI8AJBGKX","pain","4","","76","L","3","","0","0","1","","0.4476629791","false","263","","0.09530987449","main_expt","","0.3584147688","","0.07314079116","","0.4476629791","","","","","",""
"189","","bandit","339","1361631","0.0-301.0-0.0","66610103","wem/bandit_single","A3J0IAI8AJBGKX","pain","4","","76","L","3","","0","1","0","","0.4640453953","false","264","","0.07595610255","main_expt","","0.3723043834","","0.08382102311","","0.4640453953","","","","","",""
"224","","bandit","340","1365211","0.0-302.0-0.0","66610103","wem/bandit_single","A3J0IAI8AJBGKX","pain","4","","76","L","3","","0","0","1","","0.4465377191","false","265","","0.08850347459","main_expt","","0.316280577","","0.1065624759","","0.4465377191","","","","","",""
"501","","bandit","341","1371112","0.0-303.0-0.0","66610103","wem/bandit_single","A3J0IAI8AJBGKX","pain","4","","76","L","3","","0","1","0","","0.4183068553","false","266","","0.1215706641","main_expt","","0.269287162","","0.1253885588","","0.4183068553","","","","","",""
"835","","bandit","342","1374450","0.0-304.0-0.0","66610103","wem/bandit_single","A3J0IAI8AJBGKX","pain","4","","76","L","3","","0","0","1","","0.4268145795","false","267","","0.1841144129","main_expt","","0.2280314931","","0.09016252172","","0.4268145795","","","","","",""
"203","","bandit","343","1376817","0.0-305.0-0.0","66610103","wem/bandit_single","A3J0IAI8AJBGKX","pain","4","","76","L","3","","0","1","0","","0.4319202891","false","268","","0.1409141681","main_expt","","0.2243604643","","0.08700052181","","0.4319202891","","","","","",""
"170","","bandit","344","1379069","0.0-306.0-0.0","66610103","wem/bandit_single","A3J0IAI8AJBGKX","pain","4","","76","L","3","","0","0","1","","0.4493038861","false","269","","0.1011197226","main_expt","","0.2334807581","","0.09500676271","","0.4493038861","","","","","",""
"534","","bandit","345","1381809","0.0-307.0-0.0","66610103","wem/bandit_single","A3J0IAI8AJBGKX","pain","4","","76","L","3","","0","0","1","","0.443059266","false","270","","0.118556502","main_expt","","0.2376518603","","0.07607499825","","0.443059266","","","","","",""
"335","","bandit","346","1385463","0.0-308.0-0.0","66610103","wem/bandit_single","A3J0IAI8AJBGKX","pain","4","","76","L","3","","0","0","1","","0.4362671961","false","271","","0.131750931","main_expt","","0.2139372972","","0.08946946819","","0.4362671961","","","","","",""
"788","","bandit","347","1388675","0.0-309.0-0.0","66610103","wem/bandit_single","A3J0IAI8AJBGKX","pain","4","","76","L","3","","0","0","1","","0.4452199348","false","272","","0.174678733","main_expt","","0.157688628","","0.108288805","","0.4452199348","","","","","",""
"710","","bandit","348","1391478","0.0-310.0-0.0","66610103","wem/bandit_single","A3J0IAI8AJBGKX","pain","4","","75","K","2","","0","1","0","","0.105491008","false","273","","0.1730415972","main_expt","","0.271098703","","0.105491008","","0.454652927","","","","","",""
"742","","bandit","349","1394398","0.0-311.0-0.0","66610103","wem/bandit_single","A3J0IAI8AJBGKX","pain","4","","75","K","2","","0","0","1","","0.1059149547","false","274","","0.1520576313","main_expt","","0.2778056479","","0.1059149547","","0.4646374989","","","","","",""
"48","","bandit","350","1396693","0.0-312.0-0.0","66610103","wem/bandit_single","A3J0IAI8AJBGKX","pain","4","","75","K","2","","0","0","1","","0.09894283875","false","275","","0.1007060326","main_expt","","0.2698457611","","0.09894283875","","0.4535579815","","","","","",""
"483","","bandit","351","1399785","0.0-313.0-0.0","66610103","wem/bandit_single","A3J0IAI8AJBGKX","pain","4","","75","K","2","","0","0","1","","0.07695295732","false","276","","0.08844777519","main_expt","","0.2774836338","","0.07695295732","","0.4319407295","","","","","",""
"521","","bandit","352","1402692","0.0-314.0-0.0","66610103","wem/bandit_single","A3J0IAI8AJBGKX","pain","4","","72","H","0","img/none_selected.jpg","0","0","1","","0.1315613084","false","277","","0.1315613084","main_expt","","0.3222794015","","0.0896712608","","0.4475260374","","","","","",""
"493","","bandit","353","1405785","0.0-315.0-0.0","66610103","wem/bandit_single","A3J0IAI8AJBGKX","pain","4","","72","H","0","img/none_selected.jpg","0","0","1","","0.1508492864","false","278","","0.1508492864","main_expt","","0.3122447371","","0.1343695578","","0.4553849104","","","","","",""
"260","","bandit","354","1409401","0.0-316.0-0.0","66610103","wem/bandit_single","A3J0IAI8AJBGKX","pain","4","","74","J","1","","0","0","1","","0.2934764685","false","279","","0.1181182825","main_expt","","0.2934764685","","0.1106050404","","0.4621871954","","","","","",""
"344","","bandit","355","1411907","0.0-317.0-0.0","66610103","wem/bandit_single","A3J0IAI8AJBGKX","pain","4","","74","J","1","","0","0","1","","0.290984208","false","280","","0.1244803533","main_expt","","0.290984208","","0.114105974","","0.4482597109","","","","","",""
"1568","","bandit","356","1416590","0.0-318.0-0.0","66610103","wem/bandit_single","A3J0IAI8AJBGKX","pain","4","","74","J","1","","0","0","1","","0.2974260948","false","281","","0.105821284","main_expt","","0.2974260948","","0.1246337516","","0.4347423019","","","","","",""
"205","","bandit","357","1419003","0.0-319.0-0.0","66610103","wem/bandit_single","A3J0IAI8AJBGKX","pain","4","","76","L","3","","0","0","1","","0.4583393623","false","282","","0.1562468179","main_expt","","0.2972171025","","0.079988156","","0.4583393623","","","","","",""
"1600","","bandit","358","1423120","0.0-320.0-0.0","66610103","wem/bandit_single","A3J0IAI8AJBGKX","pain","4","","72","H","0","img/none_selected.jpg","0","0","1","","0.1478322318","false","283","","0.1478322318","main_expt","","0.2821487798","","0.06901380195","","0.4497532375","","","","","",""
"179","","bandit","359","1425490","0.0-321.0-0.0","66610103","wem/bandit_single","A3J0IAI8AJBGKX","pain","4","","72","H","0","img/none_selected.jpg","0","0","1","","0.1371678423","false","284","","0.1371678423","main_expt","","0.2739939459","","0.05901051183","","0.4312811421","","","","","",""
"237","","bandit","360","1429728","0.0-322.0-0.0","66610103","wem/bandit_single","A3J0IAI8AJBGKX","pain","4","","75","K","2","","0","0","1","","0.1126944794","false","285","","0.12762277","main_expt","","0.2251097973","","0.1126944794","","0.4599346403","","","","","",""
"337","","bandit","361","1432319","0.0-323.0-0.0","66610103","wem/bandit_single","A3J0IAI8AJBGKX","pain","4","","75","K","2","","0","0","1","","0.09646131279","false","286","","0.1587978561","main_expt","","0.2124690726","","0.09646131279","","0.4588450488","","","","","",""
"279","","bandit","362","1434783","0.0-324.0-0.0","66610103","wem/bandit_single","A3J0IAI8AJBGKX","pain","4","","74","J","1","","0","0","1","","0.2311163105","false","287","","0.1262084743","main_expt","","0.2311163105","","0.0795853072","","0.4684539465","","","","","",""
"231","","bandit","363","1438618","0.0-325.0-0.0","66610103","wem/bandit_single","A3J0IAI8AJBGKX","pain","4","","74","J","1","","0","0","1","","0.2178761709","false","288","","0.08849331384","main_expt","","0.2178761709","","0.07210460151","","0.4555823871","","","","","",""
"417","","bandit","364","1441219","0.0-326.0-0.0","66610103","wem/bandit_single","A3J0IAI8AJBGKX","pain","4","","76","L","3","","0","0","1","","0.4779982095","false","289","","0.1082793638","main_expt","","0.2656120211","","0.08807043944","","0.4779982095","","","","","",""
"2416","","bandit","365","1446567","0.0-327.0-0.0","66610103","wem/bandit_single","A3J0IAI8AJBGKX","pain","4","","76","L","3","","0","0","1","","0.4806691972","false","290","","0.1591187351","main_expt","","0.2756957417","","0.09097769709","","0.4806691972","","","","","",""
"226","","bandit","366","1448947","0.0-328.0-0.0","66610103","wem/bandit_single","A3J0IAI8AJBGKX","pain","4","","76","L","3","","0","0","1","","0.4856322508","false","291","","0.1766493085","main_expt","","0.3111580235","","0.1486720085","","0.4856322508","","","","","",""
"1035","","bandit","367","1452971","0.0-329.0-0.0","66610103","wem/bandit_single","A3J0IAI8AJBGKX","pain","4","","76","L","3","","0","0","1","","0.4905538215","false","292","","0.1303677554","main_expt","","0.3019137931","","0.166368556","","0.4905538215","","","","","",""
"2275","","bandit","368","1457809","0.0-330.0-0.0","66610103","wem/bandit_single","A3J0IAI8AJBGKX","pain","4","","72","H","0","img/none_selected.jpg","0","0","1","","0.1553518032","false","293","","0.1553518032","main_expt","","0.2930542664","","0.1516979355","","0.4915741327","","","","","",""
"848","","bandit","369","1461072","0.0-331.0-0.0","66610103","wem/bandit_single","A3J0IAI8AJBGKX","pain","4","","72","H","0","img/none_selected.jpg","0","0","1","","0.1586445557","false","294","","0.1586445557","main_expt","","0.294566814","","0.142642289","","0.4854109815","","","","","",""
"346","","bandit","370","1464013","0.0-332.0-0.0","66610103","wem/bandit_single","A3J0IAI8AJBGKX","pain","4","","75","K","2","","0","0","1","","0.1038045902","false","295","","0.1474370852","main_expt","","0.2590601899","","0.1038045902","","0.4737464351","","","","","",""
"90","","bandit","371","1466220","0.0-333.0-0.0","66610103","wem/bandit_single","A3J0IAI8AJBGKX","pain","4","","74","J","1","","0","0","1","","0.260130188","false","296","","0.1281429101","main_expt","","0.260130188","","0.1055366566","","0.4752126994","","","","","",""
"97","","bandit","372","1468439","0.0-334.0-0.0","66610103","wem/bandit_single","A3J0IAI8AJBGKX","pain","4","","75","K","2","","0","0","1","","0.07292146603","false","297","","0.1486346553","main_expt","","0.243487995","","0.07292146603","","0.47087989","","","","","",""
"233","","bandit","373","1470539","0.0-335.0-0.0","66610103","wem/bandit_single","A3J0IAI8AJBGKX","pain","4","","74","J","1","","0","0","1","","0.2746908113","false","298","","0.154412059","main_expt","","0.2746908113","","0.07361350609","","0.454436629","","","","","",""
