"rt","responses","trial_type","trial_index","time_elapsed","internal_node_id","subjID","study","MID","cond","drift","key_press","respCharCode","respKey","respChoiceNum","respChoice","gems","bombs","no_reward","GemPrChosen","BombPrChosen","practice","trial_counter","WinPr_0","LosePr_0","trial_label","WinPr_1","LosePr_1","WinPr_2","LosePr_2","WinPr_3","LosePr_3","Q0","Q1","Q2","gender","age","ethnicity"
"12827","{""Q0"":""A2VRDE2FHCBMF8""}","survey-text","0","12845","0.0-0.0","67760215","wem/bandit_single","A2VRDE2FHCBMF8","pain","1","","","","","","","","","","","","","","","","","","","","","","","","","","",""
"2078","","text","1","15953","0.0-1.0","67760215","wem/bandit_single","A2VRDE2FHCBMF8","pain","1","32","","","","","","","","","","","","","","","","","","","","","","","","","",""
"11958","","text","2","27917","0.0-2.0","67760215","wem/bandit_single","A2VRDE2FHCBMF8","pain","1","32","","","","","","","","","","","","","","","","","","","","","","","","","",""
"38529","","text","3","66453","0.0-3.0","67760215","wem/bandit_single","A2VRDE2FHCBMF8","pain","1","32","","","","","","","","","","","","","","","","","","","","","","","","","",""
"76862","","text","4","143322","0.0-4.0","67760215","wem/bandit_single","A2VRDE2FHCBMF8","pain","1","32","","","","","","","","","","","","","","","","","","","","","","","","","",""
"11772","","text","5","155099","0.0-5.0","67760215","wem/bandit_single","A2VRDE2FHCBMF8","pain","1","32","","","","","","","","","","","","","","","","","","","","","","","","","",""
"12253","","text","6","167355","0.0-6.0","67760215","wem/bandit_single","A2VRDE2FHCBMF8","pain","1","32","","","","","","","","","","","","","","","","","","","","","","","","","",""
"12014","","text","7","179373","0.0-7.0","67760215","wem/bandit_single","A2VRDE2FHCBMF8","pain","1","32","","","","","","","","","","","","","","","","","","","","","","","","","",""
"5488","","text","8","184865","0.0-8.0","67760215","wem/bandit_single","A2VRDE2FHCBMF8","pain","1","32","","","","","","","","","","","","","","","","","","","","","","","","","",""
"5248","","text","9","190115","0.0-9.0","67760215","wem/bandit_single","A2VRDE2FHCBMF8","pain","1","32","","","","","","","","","","","","","","","","","","","","","","","","","",""
"3327","","text","10","193446","0.0-10.0","67760215","wem/bandit_single","A2VRDE2FHCBMF8","pain","1","32","","","","","","","","","","","","","","","","","","","","","","","","","",""
"8117","","text","11","201568","0.0-11.0","67760215","wem/bandit_single","A2VRDE2FHCBMF8","pain","1","32","","","","","","","","","","","","","","","","","","","","","","","","","",""
"2701","","bandit","12","205801","0.0-12.0-0.0","67760215","wem/bandit_single","A2VRDE2FHCBMF8","pain","1","","74","J","0","img/none_selected_demo.jpg","0","0","1","0","0","true","0","0","0","","","","","","","","","","","","",""
"1160","","bandit","13","208731","0.0-13.0-0.0","67760215","wem/bandit_single","A2VRDE2FHCBMF8","pain","1","","75","K","0","img/none_selected_demo.jpg","0","0","1","0","0","true","0","0","0","","","","","","","","","","","","",""
"4264","","text","14","213251","0.0-14.0","67760215","wem/bandit_single","A2VRDE2FHCBMF8","pain","1","32","","","","","","","","","","","","","","","","","","","","","","","","","",""
"2904","","text","15","216161","0.0-15.0","67760215","wem/bandit_single","A2VRDE2FHCBMF8","pain","1","32","","","","","","","","","","","","","","","","","","","","","","","","","",""
"4820","","text","16","220985","0.0-16.0","67760215","wem/bandit_single","A2VRDE2FHCBMF8","pain","1","32","","","","","","","","","","","","","","","","","","","","","","","","","",""
"8555","","text","17","229545","0.0-17.0","67760215","wem/bandit_single","A2VRDE2FHCBMF8","pain","1","32","","","","","","","","","","","","","","","","","","","","","","","","","",""
"1128","","bandit","18","232184","0.0-18.0-0.0","67760215","wem/bandit_single","A2VRDE2FHCBMF8","pain","1","","74","J","0","img/none_selected_demo.jpg","0","1","0","0","0.8","true","0","0","0.8","80_20_practice","0","0.2","","","","","","","","","",""
"546","","bandit","19","234496","0.0-18.0-1.0","67760215","wem/bandit_single","A2VRDE2FHCBMF8","pain","1","","74","J","0","img/none_selected_demo.jpg","0","1","0","0","0.8","true","0","0","0.8","80_20_practice","0","0.2","","","","","","","","","",""
"349","","bandit","20","236608","0.0-18.0-2.0","67760215","wem/bandit_single","A2VRDE2FHCBMF8","pain","1","","74","J","0","img/none_selected_demo.jpg","0","1","0","0","0.8","true","0","0","0.8","80_20_practice","0","0.2","","","","","","","","","",""
"697","","bandit","21","239075","0.0-18.0-3.0","67760215","wem/bandit_single","A2VRDE2FHCBMF8","pain","1","","74","J","0","img/none_selected_demo.jpg","0","1","0","0","0.8","true","0","0","0.8","80_20_practice","0","0.2","","","","","","","","","",""
"334","","bandit","22","241170","0.0-18.0-4.0","67760215","wem/bandit_single","A2VRDE2FHCBMF8","pain","1","","74","J","0","img/none_selected_demo.jpg","0","1","0","0","0.8","true","0","0","0.8","80_20_practice","0","0.2","","","","","","","","","",""
"263","","bandit","23","243201","0.0-18.0-5.0","67760215","wem/bandit_single","A2VRDE2FHCBMF8","pain","1","","74","J","0","img/none_selected_demo.jpg","0","1","0","0","0.8","true","0","0","0.8","80_20_practice","0","0.2","","","","","","","","","",""
"420","","bandit","24","245392","0.0-18.0-6.0","67760215","wem/bandit_single","A2VRDE2FHCBMF8","pain","1","","74","J","0","img/none_selected_demo.jpg","0","1","0","0","0.8","true","0","0","0.8","80_20_practice","0","0.2","","","","","","","","","",""
"274","","bandit","25","247428","0.0-18.0-7.0","67760215","wem/bandit_single","A2VRDE2FHCBMF8","pain","1","","74","J","0","img/none_selected_demo.jpg","0","1","0","0","0.8","true","0","0","0.8","80_20_practice","0","0.2","","","","","","","","","",""
"326","","bandit","26","249515","0.0-18.0-8.0","67760215","wem/bandit_single","A2VRDE2FHCBMF8","pain","1","","74","J","0","img/none_selected_demo.jpg","0","1","0","0","0.8","true","0","0","0.8","80_20_practice","0","0.2","","","","","","","","","",""
"314","","bandit","27","251588","0.0-18.0-9.0","67760215","wem/bandit_single","A2VRDE2FHCBMF8","pain","1","","74","J","0","img/none_selected_demo.jpg","0","1","0","0","0.8","true","0","0","0.8","80_20_practice","0","0.2","","","","","","","","","",""
"452","","bandit","28","253799","0.0-18.0-10.0","67760215","wem/bandit_single","A2VRDE2FHCBMF8","pain","1","","75","K","1","","0","0","1","0","0.2","true","0","0","0.8","80_20_practice","0","0.2","","","","","","","","","",""
"277","","bandit","29","255849","0.0-18.0-11.0","67760215","wem/bandit_single","A2VRDE2FHCBMF8","pain","1","","74","J","0","img/none_selected_demo.jpg","0","1","0","0","0.8","true","0","0","0.8","80_20_practice","0","0.2","","","","","","","","","",""
"249","","bandit","30","257883","0.0-18.0-12.0","67760215","wem/bandit_single","A2VRDE2FHCBMF8","pain","1","","74","J","0","img/none_selected_demo.jpg","0","1","0","0","0.8","true","0","0","0.8","80_20_practice","0","0.2","","","","","","","","","",""
"343","","bandit","31","260015","0.0-18.0-13.0","67760215","wem/bandit_single","A2VRDE2FHCBMF8","pain","1","","74","J","0","img/none_selected_demo.jpg","0","1","0","0","0.8","true","0","0","0.8","80_20_practice","0","0.2","","","","","","","","","",""
"208","","bandit","32","261985","0.0-18.0-14.0","67760215","wem/bandit_single","A2VRDE2FHCBMF8","pain","1","","75","K","1","","0","1","0","0","0.2","true","0","0","0.8","80_20_practice","0","0.2","","","","","","","","","",""
"386","","bandit","33","264136","0.0-18.0-15.0","67760215","wem/bandit_single","A2VRDE2FHCBMF8","pain","1","","74","J","0","img/none_selected_demo.jpg","0","1","0","0","0.8","true","0","0","0.8","80_20_practice","0","0.2","","","","","","","","","",""
"506","","bandit","34","266404","0.0-18.0-16.0","67760215","wem/bandit_single","A2VRDE2FHCBMF8","pain","1","","74","J","0","img/none_selected_demo.jpg","0","0","1","0","0.8","true","0","0","0.8","80_20_practice","0","0.2","","","","","","","","","",""
"335","","bandit","35","268499","0.0-18.0-17.0","67760215","wem/bandit_single","A2VRDE2FHCBMF8","pain","1","","75","K","1","","0","0","1","0","0.2","true","0","0","0.8","80_20_practice","0","0.2","","","","","","","","","",""
"261","","bandit","36","270523","0.0-18.0-18.0","67760215","wem/bandit_single","A2VRDE2FHCBMF8","pain","1","","74","J","0","img/none_selected_demo.jpg","0","1","0","0","0.8","true","0","0","0.8","80_20_practice","0","0.2","","","","","","","","","",""
"426","","bandit","37","272744","0.0-18.0-19.0","67760215","wem/bandit_single","A2VRDE2FHCBMF8","pain","1","","74","J","0","img/none_selected_demo.jpg","0","1","0","0","0.8","true","0","0","0.8","80_20_practice","0","0.2","","","","","","","","","",""
"6408","","text","38","279418","0.0-19.0","67760215","wem/bandit_single","A2VRDE2FHCBMF8","pain","1","32","","","","","","","","","","","","","","","","","","","","","","","","","",""
"2505","","bandit","39","283437","0.0-20.0-0.0","67760215","wem/bandit_single","A2VRDE2FHCBMF8","pain","1","","74","J","0","img/none_selected_demo.jpg","0","0","1","0","0","true","0","0","0","","0","0","","","","","","","","","",""
"9853","","text","40","293580","0.0-21.0","67760215","wem/bandit_single","A2VRDE2FHCBMF8","pain","1","32","","","","","","","","","","","","","","","","","","","","","","","","","",""
"8319","","text","41","301906","0.0-22.0","67760215","wem/bandit_single","A2VRDE2FHCBMF8","pain","1","32","","","","","","","","","","","","","","","","","","","","","","","","","",""
"6387","","text","42","308300","0.0-23.0","67760215","wem/bandit_single","A2VRDE2FHCBMF8","pain","1","32","","","","","","","","","","","","","","","","","","","","","","","","","",""
"4494","","text","43","312800","0.0-24.0","67760215","wem/bandit_single","A2VRDE2FHCBMF8","pain","1","32","","","","","","","","","","","","","","","","","","","","","","","","","",""
"15389","","text","44","328194","0.0-25.0","67760215","wem/bandit_single","A2VRDE2FHCBMF8","pain","1","32","","","","","","","","","","","","","","","","","","","","","","","","","",""
"4960","","text","45","333160","0.0-26.0","67760215","wem/bandit_single","A2VRDE2FHCBMF8","pain","1","32","","","","","","","","","","","","","","","","","","","","","","","","","",""
"3806","","text","46","336973","0.0-27.0","67760215","wem/bandit_single","A2VRDE2FHCBMF8","pain","1","32","","","","","","","","","","","","","","","","","","","","","","","","","",""
"2290","","text","47","339268","0.0-28.0","67760215","wem/bandit_single","A2VRDE2FHCBMF8","pain","1","32","","","","","","","","","","","","","","","","","","","","","","","","","",""
"8250","","text","48","347526","0.0-29.0","67760215","wem/bandit_single","A2VRDE2FHCBMF8","pain","1","32","","","","","","","","","","","","","","","","","","","","","","","","","",""
"3298","","text","49","350830","0.0-30.0","67760215","wem/bandit_single","A2VRDE2FHCBMF8","pain","1","32","","","","","","","","","","","","","","","","","","","","","","","","","",""
"3904","","text","50","354738","0.0-31.0","67760215","wem/bandit_single","A2VRDE2FHCBMF8","pain","1","32","","","","","","","","","","","","","","","","","","","","","","","","","",""
"578","","bandit","51","356830","0.0-32.0-0.0","67760215","wem/bandit_single","A2VRDE2FHCBMF8","pain","1","","72","H","0","img/none_selected.jpg","0","1","0","0","0.8","true","0","0","0.8","full_practice","0","0.2","0","0.6","0","0.2","","","","","",""
"79","","bandit","52","358673","0.0-32.0-1.0","67760215","wem/bandit_single","A2VRDE2FHCBMF8","pain","1","","74","J","1","","0","0","1","0","0.2","true","0","0","0.8","full_practice","0","0.2","0","0.6","0","0.2","","","","","",""
"89","","bandit","53","360524","0.0-32.0-2.0","67760215","wem/bandit_single","A2VRDE2FHCBMF8","pain","1","","75","K","2","","0","0","1","0","0.6","true","0","0","0.8","full_practice","0","0.2","0","0.6","0","0.2","","","","","",""
"31","","bandit","54","362322","0.0-32.0-3.0","67760215","wem/bandit_single","A2VRDE2FHCBMF8","pain","1","","76","L","3","","0","0","1","0","0.2","true","0","0","0.8","full_practice","0","0.2","0","0.6","0","0.2","","","","","",""
"359","","bandit","55","364440","0.0-32.0-4.0","67760215","wem/bandit_single","A2VRDE2FHCBMF8","pain","1","","72","H","0","img/none_selected.jpg","0","0","1","0","0.8","true","0","0","0.8","full_practice","0","0.2","0","0.6","0","0.2","","","","","",""
"39","","bandit","56","366271","0.0-32.0-5.0","67760215","wem/bandit_single","A2VRDE2FHCBMF8","pain","1","","72","H","0","img/none_selected.jpg","0","1","0","0","0.8","true","0","0","0.8","full_practice","0","0.2","0","0.6","0","0.2","","","","","",""
"9","","bandit","57","368074","0.0-32.0-6.0","67760215","wem/bandit_single","A2VRDE2FHCBMF8","pain","1","","74","J","1","","0","0","1","0","0.2","true","0","0","0.8","full_practice","0","0.2","0","0.6","0","0.2","","","","","",""
"73","","bandit","58","369932","0.0-32.0-7.0","67760215","wem/bandit_single","A2VRDE2FHCBMF8","pain","1","","74","J","1","","0","0","1","0","0.2","true","0","0","0.8","full_practice","0","0.2","0","0.6","0","0.2","","","","","",""
"125","","bandit","59","371829","0.0-32.0-8.0","67760215","wem/bandit_single","A2VRDE2FHCBMF8","pain","1","","75","K","2","","0","0","1","0","0.6","true","0","0","0.8","full_practice","0","0.2","0","0.6","0","0.2","","","","","",""
"201","","bandit","60","373812","0.0-32.0-9.0","67760215","wem/bandit_single","A2VRDE2FHCBMF8","pain","1","","75","K","2","","0","1","0","0","0.6","true","0","0","0.8","full_practice","0","0.2","0","0.6","0","0.2","","","","","",""
"51","","bandit","61","375638","0.0-32.0-10.0","67760215","wem/bandit_single","A2VRDE2FHCBMF8","pain","1","","76","L","3","","0","0","1","0","0.2","true","0","0","0.8","full_practice","0","0.2","0","0.6","0","0.2","","","","","",""
"92","","bandit","62","377497","0.0-32.0-11.0","67760215","wem/bandit_single","A2VRDE2FHCBMF8","pain","1","","76","L","3","","0","0","1","0","0.2","true","0","0","0.8","full_practice","0","0.2","0","0.6","0","0.2","","","","","",""
"219","","bandit","63","379479","0.0-32.0-12.0","67760215","wem/bandit_single","A2VRDE2FHCBMF8","pain","1","","72","H","0","img/none_selected.jpg","0","1","0","0","0.8","true","0","0","0.8","full_practice","0","0.2","0","0.6","0","0.2","","","","","",""
"46","","bandit","64","381296","0.0-32.0-13.0","67760215","wem/bandit_single","A2VRDE2FHCBMF8","pain","1","","75","K","2","","0","1","0","0","0.6","true","0","0","0.8","full_practice","0","0.2","0","0.6","0","0.2","","","","","",""
"127","","bandit","65","383210","0.0-32.0-14.0","67760215","wem/bandit_single","A2VRDE2FHCBMF8","pain","1","","72","H","0","img/none_selected.jpg","0","1","0","0","0.8","true","0","0","0.8","full_practice","0","0.2","0","0.6","0","0.2","","","","","",""
"95","","bandit","66","385076","0.0-32.0-15.0","67760215","wem/bandit_single","A2VRDE2FHCBMF8","pain","1","","75","K","2","","0","1","0","0","0.6","true","0","0","0.8","full_practice","0","0.2","0","0.6","0","0.2","","","","","",""
"60","","bandit","67","386902","0.0-32.0-16.0","67760215","wem/bandit_single","A2VRDE2FHCBMF8","pain","1","","72","H","0","img/none_selected.jpg","0","1","0","0","0.8","true","0","0","0.8","full_practice","0","0.2","0","0.6","0","0.2","","","","","",""
"57","","bandit","68","388729","0.0-32.0-17.0","67760215","wem/bandit_single","A2VRDE2FHCBMF8","pain","1","","75","K","2","","0","0","1","0","0.6","true","0","0","0.8","full_practice","0","0.2","0","0.6","0","0.2","","","","","",""
"92","","bandit","69","390584","0.0-32.0-18.0","67760215","wem/bandit_single","A2VRDE2FHCBMF8","pain","1","","74","J","1","","0","0","1","0","0.2","true","0","0","0.8","full_practice","0","0.2","0","0.6","0","0.2","","","","","",""
"134","","bandit","70","392491","0.0-32.0-19.0","67760215","wem/bandit_single","A2VRDE2FHCBMF8","pain","1","","72","H","0","img/none_selected.jpg","0","1","0","0","0.8","true","0","0","0.8","full_practice","0","0.2","0","0.6","0","0.2","","","","","",""
"3976","","text","71","396735","0.0-33.0","67760215","wem/bandit_single","A2VRDE2FHCBMF8","pain","1","32","","","","","","","","","","","","","","","","","","","","","","","","","",""
"15683","","text","72","413425","0.0-34.0","67760215","wem/bandit_single","A2VRDE2FHCBMF8","pain","1","32","","","","","","","","","","","","","","","","","","","","","","","","","",""
"5795","","text","73","419226","0.0-35.0","67760215","wem/bandit_single","A2VRDE2FHCBMF8","pain","1","32","","","","","","","","","","","","","","","","","","","","","","","","","",""
"8881","","text","74","428114","0.0-36.0","67760215","wem/bandit_single","A2VRDE2FHCBMF8","pain","1","32","","","","","","","","","","","","","","","","","","","","","","","","","",""
"7508","","text","75","435631","0.0-37.0","67760215","wem/bandit_single","A2VRDE2FHCBMF8","pain","1","32","","","","","","","","","","","","","","","","","","","","","","","","","",""
"1618","","bandit","76","438760","0.0-38.0-0.0","67760215","wem/bandit_single","A2VRDE2FHCBMF8","pain","1","","74","J","1","","0","0","1","","0.1079408374","false","1","","0.1765468105","main_expt","","0.1079408374","","0.433486002","","0.04371116513","","","","","",""
"38","","bandit","77","440563","0.0-39.0-0.0","67760215","wem/bandit_single","A2VRDE2FHCBMF8","pain","1","","75","K","2","","0","1","0","","0.4446307222","false","2","","0.1569258514","main_expt","","0.1605706499","","0.4446307222","","0.0204546363","","","","","",""
"144","","bandit","78","442471","0.0-40.0-0.0","67760215","wem/bandit_single","A2VRDE2FHCBMF8","pain","1","","75","K","2","","0","0","1","","0.4522438858","false","3","","0.1639246388","main_expt","","0.1829447669","","0.4522438858","","0.02109221713","","","","","",""
"3","","bandit","79","444237","0.0-41.0-0.0","67760215","wem/bandit_single","A2VRDE2FHCBMF8","pain","1","","76","L","3","","0","0","1","","0.04448829896","false","4","","0.2130332657","main_expt","","0.1756642407","","0.4330109471","","0.04448829896","","","","","",""
"20","","bandit","80","446018","0.0-42.0-0.0","67760215","wem/bandit_single","A2VRDE2FHCBMF8","pain","1","","72","H","0","img/none_selected.jpg","0","0","1","","0.1939577492","false","5","","0.1939577492","main_expt","","0.1349544936","","0.4678508314","","0.03824555068","","","","","",""
"249","","bandit","81","448043","0.0-43.0-0.0","67760215","wem/bandit_single","A2VRDE2FHCBMF8","pain","1","","74","J","1","","0","0","1","","0.1356037804","false","6","","0.2419857306","main_expt","","0.1356037804","","0.4644602632","","0.03028715703","","","","","",""
"113","","bandit","82","449926","0.0-44.0-0.0","67760215","wem/bandit_single","A2VRDE2FHCBMF8","pain","1","","72","H","0","img/none_selected.jpg","0","0","1","","0.2437977828","false","7","","0.2437977828","main_expt","","0.1731738011","","0.4575746565","","0.0280090558","","","","","",""
"24","","bandit","83","451718","0.0-45.0-0.0","67760215","wem/bandit_single","A2VRDE2FHCBMF8","pain","1","","76","L","3","","0","0","1","","0.01994926529","false","8","","0.2910779813","main_expt","","0.1697830552","","0.4508833002","","0.01994926529","","","","","",""
"16","","bandit","84","453506","0.0-46.0-0.0","67760215","wem/bandit_single","A2VRDE2FHCBMF8","pain","1","","75","K","2","","0","0","1","","0.446295775","false","9","","0.3043628405","main_expt","","0.1792782501","","0.446295775","","0.02255652904","","","","","",""
"0","","bandit","85","455276","0.0-47.0-0.0","67760215","wem/bandit_single","A2VRDE2FHCBMF8","pain","1","","72","H","0","img/none_selected.jpg","0","1","0","","0.3568141906","false","10","","0.3568141906","main_expt","","0.1705688187","","0.4564580261","","0.02794315976","","","","","",""
"262","","bandit","86","457305","0.0-48.0-0.0","67760215","wem/bandit_single","A2VRDE2FHCBMF8","pain","1","","75","K","2","","0","0","1","","0.4233437492","false","11","","0.3439843329","main_expt","","0.1974022207","","0.4233437492","","0.02289966844","","","","","",""
"3","","bandit","87","459075","0.0-49.0-0.0","67760215","wem/bandit_single","A2VRDE2FHCBMF8","pain","1","","72","H","0","img/none_selected.jpg","0","0","1","","0.2959247237","false","12","","0.2959247237","main_expt","","0.1753487428","","0.4129107721","","0.01510656417","","","","","",""
"33","","bandit","88","460874","0.0-50.0-0.0","67760215","wem/bandit_single","A2VRDE2FHCBMF8","pain","1","","76","L","3","","0","0","1","","0.01475809492","false","13","","0.2711511111","main_expt","","0.1858973774","","0.4188058581","","0.01475809492","","","","","",""
"550","","bandit","89","463188","0.0-51.0-0.0","67760215","wem/bandit_single","A2VRDE2FHCBMF8","pain","1","","74","J","1","","0","0","1","","0.1873997244","false","14","","0.2351285692","main_expt","","0.1873997244","","0.4542155744","","0.00909265887","","","","","",""
"21","","bandit","90","464979","0.0-52.0-0.0","67760215","wem/bandit_single","A2VRDE2FHCBMF8","pain","1","","72","H","0","img/none_selected.jpg","0","1","0","","0.3299180318","false","15","","0.3299180318","main_expt","","0.2079034381","","0.4436127815","","0.004683339805","","","","","",""
"69","","bandit","91","466823","0.0-53.0-0.0","67760215","wem/bandit_single","A2VRDE2FHCBMF8","pain","1","","72","H","0","img/none_selected.jpg","0","1","0","","0.3382291528","false","16","","0.3382291528","main_expt","","0.2116662278","","0.4255220112","","0.007493295572","","","","","",""
"39","","bandit","92","468625","0.0-54.0-0.0","67760215","wem/bandit_single","A2VRDE2FHCBMF8","pain","1","","72","H","0","img/none_selected.jpg","0","0","1","","0.3890963744","false","17","","0.3890963744","main_expt","","0.2460799228","","0.4221090449","","0.009835384986","","","","","",""
"20","","bandit","93","470439","0.0-55.0-0.0","67760215","wem/bandit_single","A2VRDE2FHCBMF8","pain","1","","72","H","0","img/none_selected.jpg","0","0","1","","0.3102907615","false","18","","0.3102907615","main_expt","","0.2725156425","","0.4157246332","","0.01282838009","","","","","",""
"1","","bandit","94","472273","0.0-56.0-0.0","67760215","wem/bandit_single","A2VRDE2FHCBMF8","pain","1","","72","H","0","img/none_selected.jpg","0","0","1","","0.2734902963","false","19","","0.2734902963","main_expt","","0.319312936","","0.4000612909","","0.03935122736","","","","","",""
"291","","bandit","95","474341","0.0-57.0-0.0","67760215","wem/bandit_single","A2VRDE2FHCBMF8","pain","1","","75","K","2","","0","1","0","","0.4116546581","false","20","","0.2157414593","main_expt","","0.3449168397","","0.4116546581","","0.03712672215","","","","","",""
"91","","bandit","96","476207","0.0-58.0-0.0","67760215","wem/bandit_single","A2VRDE2FHCBMF8","pain","1","","75","K","2","","0","0","1","","0.4276829816","false","21","","0.2148325275","main_expt","","0.2668327531","","0.4276829816","","0.02631596187","","","","","",""
"25","","bandit","97","478007","0.0-59.0-0.0","67760215","wem/bandit_single","A2VRDE2FHCBMF8","pain","1","","76","L","3","","0","0","1","","0.0338100911","false","22","","0.1819582271","main_expt","","0.2786929748","","0.3861543943","","0.0338100911","","","","","",""
"488","","bandit","98","480271","0.0-60.0-0.0","67760215","wem/bandit_single","A2VRDE2FHCBMF8","pain","1","","74","J","1","","0","0","1","","0.2012253143","false","23","","0.1776669961","main_expt","","0.2012253143","","0.3815006395","","0.06132921526","","","","","",""
"506","","bandit","99","482548","0.0-61.0-0.0","67760215","wem/bandit_single","A2VRDE2FHCBMF8","pain","1","","72","H","0","img/none_selected.jpg","0","0","1","","0.2595803745","false","24","","0.2595803745","main_expt","","0.1363446769","","0.4063144844","","0.06546003458","","","","","",""
"8609","","bandit","100","492932","0.0-62.0-0.0","67760215","wem/bandit_single","A2VRDE2FHCBMF8","pain","1","","75","K","2","","0","0","1","","0.3218764758","false","25","","0.2184946748","main_expt","","0.1395957504","","0.3218764758","","0.08327489459","","","","","",""
"465","","bandit","101","495158","0.0-63.0-0.0","67760215","wem/bandit_single","A2VRDE2FHCBMF8","pain","1","","75","K","2","","0","0","1","","0.3190898414","false","26","","0.2382025465","main_expt","","0.1095431569","","0.3190898414","","0.06117167893","","","","","",""
"221","","bandit","102","497154","0.0-64.0-0.0","67760215","wem/bandit_single","A2VRDE2FHCBMF8","pain","1","","72","H","0","img/none_selected.jpg","0","1","0","","0.2249508913","false","27","","0.2249508913","main_expt","","0.1290148999","","0.361309168","","0.03494965278","","","","","",""
"6","","bandit","103","498931","0.0-65.0-0.0","67760215","wem/bandit_single","A2VRDE2FHCBMF8","pain","1","","72","H","0","img/none_selected.jpg","0","0","1","","0.2388683754","false","28","","0.2388683754","main_expt","","0.09304199486","","0.3247985582","","0.02964638986","","","","","",""
"7","","bandit","104","500752","0.0-66.0-0.0","67760215","wem/bandit_single","A2VRDE2FHCBMF8","pain","1","","74","J","1","","0","1","0","","0.1042487788","false","29","","0.238121012","main_expt","","0.1042487788","","0.3358989687","","0.03498116837","","","","","",""
"30","","bandit","105","502548","0.0-67.0-0.0","67760215","wem/bandit_single","A2VRDE2FHCBMF8","pain","1","","72","H","0","img/none_selected.jpg","0","1","0","","0.2995264376","false","30","","0.2995264376","main_expt","","0.1177759499","","0.3833706669","","0.04244048525","","","","","",""
"57","","bandit","106","504372","0.0-68.0-0.0","67760215","wem/bandit_single","A2VRDE2FHCBMF8","pain","1","","74","J","1","","0","0","1","","0.1177925617","false","31","","0.2738636663","main_expt","","0.1177925617","","0.365606812","","0.06152315655","","","","","",""
"13","","bandit","107","506183","0.0-69.0-0.0","67760215","wem/bandit_single","A2VRDE2FHCBMF8","pain","1","","76","L","3","","0","0","1","","0.04890303061","false","32","","0.3185168498","main_expt","","0.08495919706","","0.3376656117","","0.04890303061","","","","","",""
"524","","bandit","108","508478","0.0-70.0-0.0","67760215","wem/bandit_single","A2VRDE2FHCBMF8","pain","1","","74","J","1","","0","0","1","","0.09918690981","false","33","","0.3160257618","main_expt","","0.09918690981","","0.3632929272","","0.06913310411","","","","","",""
"45","","bandit","109","510304","0.0-71.0-0.0","67760215","wem/bandit_single","A2VRDE2FHCBMF8","pain","1","","72","H","0","img/none_selected.jpg","0","1","0","","0.3411570355","false","34","","0.3411570355","main_expt","","0.1267106232","","0.4008603673","","0.07311713639","","","","","",""
"19","","bandit","110","512107","0.0-72.0-0.0","67760215","wem/bandit_single","A2VRDE2FHCBMF8","pain","1","","72","H","0","img/none_selected.jpg","0","0","1","","0.3190481916","false","35","","0.3190481916","main_expt","","0.1076928618","","0.4024879816","","0.08374615962","","","","","",""
"7","","bandit","111","513880","0.0-73.0-0.0","67760215","wem/bandit_single","A2VRDE2FHCBMF8","pain","1","","76","L","3","","0","0","1","","0.08182693844","false","36","","0.3264142162","main_expt","","0.1298816773","","0.3740303516","","0.08182693844","","","","","",""
"482","","bandit","112","516124","0.0-74.0-0.0","67760215","wem/bandit_single","A2VRDE2FHCBMF8","pain","1","","75","K","2","","0","0","1","","0.3728306432","false","37","","0.3198880486","main_expt","","0.1459487567","","0.3728306432","","0.1343371601","","","","","",""
"473","","bandit","113","518367","0.0-75.0-0.0","67760215","wem/bandit_single","A2VRDE2FHCBMF8","pain","1","","74","J","1","","0","0","1","","0.1339045699","false","38","","0.3683112265","main_expt","","0.1339045699","","0.3805434418","","0.155986589","","","","","",""
"379","","bandit","114","520515","0.0-76.0-0.0","67760215","wem/bandit_single","A2VRDE2FHCBMF8","pain","1","","72","H","0","img/none_selected.jpg","0","1","0","","0.3427238384","false","39","","0.3427238384","main_expt","","0.1345127174","","0.3969568822","","0.1477757124","","","","","",""
"577","","bandit","115","522906","0.0-77.0-0.0","67760215","wem/bandit_single","A2VRDE2FHCBMF8","pain","1","","76","L","3","","0","1","0","","0.1673850924","false","40","","0.3218453083","main_expt","","0.1283460502","","0.3988554294","","0.1673850924","","","","","",""
"62","","bandit","116","524740","0.0-78.0-0.0","67760215","wem/bandit_single","A2VRDE2FHCBMF8","pain","1","","72","H","0","img/none_selected.jpg","0","0","1","","0.3085515908","false","41","","0.3085515908","main_expt","","0.120913883","","0.4510691137","","0.1798739011","","","","","",""
"17","","bandit","117","526528","0.0-79.0-0.0","67760215","wem/bandit_single","A2VRDE2FHCBMF8","pain","1","","74","J","1","","0","0","1","","0.1045942129","false","42","","0.3072415044","main_expt","","0.1045942129","","0.4575220824","","0.1559165864","","","","","",""
"40","","bandit","118","528340","0.0-80.0-0.0","67760215","wem/bandit_single","A2VRDE2FHCBMF8","pain","1","","72","H","0","img/none_selected.jpg","0","0","1","","0.272500382","false","43","","0.272500382","main_expt","","0.09432917568","","0.4425049573","","0.1058033922","","","","","",""
"57","","bandit","119","530163","0.0-81.0-0.0","67760215","wem/bandit_single","A2VRDE2FHCBMF8","pain","1","","75","K","2","","0","0","1","","0.4232077065","false","44","","0.2865836788","main_expt","","0.07221407183","","0.4232077065","","0.08489334424","","","","","",""
"18","","bandit","120","531946","0.0-82.0-0.0","67760215","wem/bandit_single","A2VRDE2FHCBMF8","pain","1","","72","H","0","img/none_selected.jpg","0","0","1","","0.2991622886","false","45","","0.2991622886","main_expt","","0.05666738762","","0.4098430077","","0.05905190464","","","","","",""
"545","","bandit","121","534264","0.0-83.0-0.0","67760215","wem/bandit_single","A2VRDE2FHCBMF8","pain","1","","76","L","3","","0","0","1","","0.06331323714","false","46","","0.2531917612","main_expt","","0.03432969329","","0.4038708701","","0.06331323714","","","","","",""
"382","","bandit","122","536412","0.0-84.0-0.0","67760215","wem/bandit_single","A2VRDE2FHCBMF8","pain","1","","74","J","1","","0","0","1","","0.03955917442","false","47","","0.174020607","main_expt","","0.03955917442","","0.4162646915","","0.05657329797","","","","","",""
"209","","bandit","123","538403","0.0-85.0-0.0","67760215","wem/bandit_single","A2VRDE2FHCBMF8","pain","1","","75","K","2","","0","0","1","","0.4188900116","false","48","","0.1890064997","main_expt","","0.02792503423","","0.4188900116","","0.04718629669","","","","","",""
"95","","bandit","124","540267","0.0-86.0-0.0","67760215","wem/bandit_single","A2VRDE2FHCBMF8","pain","1","","72","H","0","img/none_selected.jpg","0","1","0","","0.218442061","false","49","","0.218442061","main_expt","","0.03726959289","","0.4566014176","","0.03289244517","","","","","",""
"49","","bandit","125","542088","0.0-87.0-0.0","67760215","wem/bandit_single","A2VRDE2FHCBMF8","pain","1","","72","H","0","img/none_selected.jpg","0","1","0","","0.1635183119","false","50","","0.1635183119","main_expt","","0.03358305353","","0.4447058567","","0.03266450512","","","","","",""
"180","","bandit","126","544039","0.0-88.0-0.0","67760215","wem/bandit_single","A2VRDE2FHCBMF8","pain","1","","72","H","0","img/none_selected.jpg","0","0","1","","0.1366577914","false","51","","0.1366577914","main_expt","","0.03344521258","","0.4304926469","","0.03026904774","","","","","",""
"152","","bandit","127","545970","0.0-89.0-0.0","67760215","wem/bandit_single","A2VRDE2FHCBMF8","pain","1","","72","H","0","img/none_selected.jpg","0","1","0","","0.1797398031","false","52","","0.1797398031","main_expt","","0.04269272659","","0.4221781581","","0.03251993274","","","","","",""
"178","","bandit","128","547914","0.0-90.0-0.0","67760215","wem/bandit_single","A2VRDE2FHCBMF8","pain","1","","72","H","0","img/none_selected.jpg","0","0","1","","0.2893410322","false","53","","0.2893410322","main_expt","","0.023815337","","0.3687481665","","0.03960602941","","","","","",""
"89","","bandit","129","549766","0.0-91.0-0.0","67760215","wem/bandit_single","A2VRDE2FHCBMF8","pain","1","","72","H","0","img/none_selected.jpg","0","0","1","","0.2985665456","false","54","","0.2985665456","main_expt","","0.02455785224","","0.3458934235","","0.05707063203","","","","","",""
"59","","bandit","130","551596","0.0-92.0-0.0","67760215","wem/bandit_single","A2VRDE2FHCBMF8","pain","1","","74","J","1","","0","0","1","","0.03998391886","false","55","","0.3336948264","main_expt","","0.03998391886","","0.4042580408","","0.04044117434","","","","","",""
"22","","bandit","131","553393","0.0-93.0-0.0","67760215","wem/bandit_single","A2VRDE2FHCBMF8","pain","1","","72","H","0","img/none_selected.jpg","0","0","1","","0.282194417","false","56","","0.282194417","main_expt","","0.06538112884","","0.4471112694","","0.05627119328","","","","","",""
"50","","bandit","132","555223","0.0-94.0-0.0","67760215","wem/bandit_single","A2VRDE2FHCBMF8","pain","1","","75","K","2","","0","1","0","","0.4640351361","false","57","","0.3239389597","main_expt","","0.08662171517","","0.4640351361","","0.06172895681","","","","","",""
"103","","bandit","133","557122","0.0-95.0-0.0","67760215","wem/bandit_single","A2VRDE2FHCBMF8","pain","1","","75","K","2","","0","1","0","","0.4654795878","false","58","","0.3114288274","main_expt","","0.08191290536","","0.4654795878","","0.0708730922","","","","","",""
"222","","bandit","134","559130","0.0-96.0-0.0","67760215","wem/bandit_single","A2VRDE2FHCBMF8","pain","1","","75","K","2","","0","0","1","","0.477644797","false","59","","0.3090129124","main_expt","","0.06359390603","","0.477644797","","0.06307994893","","","","","",""
"69","","bandit","135","560964","0.0-97.0-0.0","67760215","wem/bandit_single","A2VRDE2FHCBMF8","pain","1","","76","L","3","","0","0","1","","0.06865221942","false","60","","0.3273240357","main_expt","","0.1113565871","","0.4637057102","","0.06865221942","","","","","",""
"3","","bandit","136","562732","0.0-98.0-0.0","67760215","wem/bandit_single","A2VRDE2FHCBMF8","pain","1","","74","J","1","","0","0","1","","0.1224908949","false","61","","0.333760802","main_expt","","0.1224908949","","0.4575353452","","0.04710261487","","","","","",""
"235","","bandit","137","564748","0.0-99.0-0.0","67760215","wem/bandit_single","A2VRDE2FHCBMF8","pain","1","","76","L","3","","0","0","1","","0.04180279512","false","62","","0.3721083552","main_expt","","0.1011510181","","0.4511824808","","0.04180279512","","","","","",""
"126","","bandit","138","566653","0.0-100.0-0.0","67760215","wem/bandit_single","A2VRDE2FHCBMF8","pain","1","","72","H","0","img/none_selected.jpg","0","0","1","","0.3366911892","false","63","","0.3366911892","main_expt","","0.1241823521","","0.4522744543","","0.04669584184","","","","","",""
"175","","bandit","139","568606","0.0-101.0-0.0","67760215","wem/bandit_single","A2VRDE2FHCBMF8","pain","1","","75","K","2","","0","1","0","","0.4534383651","false","64","","0.352845708","main_expt","","0.1277445844","","0.4534383651","","0.04699929359","","","","","",""
"144","","bandit","140","570514","0.0-102.0-0.0","67760215","wem/bandit_single","A2VRDE2FHCBMF8","pain","1","","75","K","2","","0","0","1","","0.4578128414","false","65","","0.3797865956","main_expt","","0.1594820305","","0.4578128414","","0.06422912444","","","","","",""
"29","","bandit","141","572310","0.0-103.0-0.0","67760215","wem/bandit_single","A2VRDE2FHCBMF8","pain","1","","72","H","0","img/none_selected.jpg","0","0","1","","0.3776123686","false","66","","0.3776123686","main_expt","","0.1902728197","","0.4675149648","","0.09107067683","","","","","",""
"377","","bandit","142","574452","0.0-104.0-0.0","67760215","wem/bandit_single","A2VRDE2FHCBMF8","pain","1","","76","L","3","","0","0","1","","0.1295134299","false","67","","0.3520302909","main_expt","","0.1915604568","","0.4801185054","","0.1295134299","","","","","",""
"13","","bandit","143","576235","0.0-105.0-0.0","67760215","wem/bandit_single","A2VRDE2FHCBMF8","pain","1","","74","J","1","","0","0","1","","0.2292904293","false","68","","0.3563070861","main_expt","","0.2292904293","","0.4853911876","","0.1501953896","","","","","",""
"114","","bandit","144","578116","0.0-106.0-0.0","67760215","wem/bandit_single","A2VRDE2FHCBMF8","pain","1","","75","K","2","","0","1","0","","0.45952887","false","69","","0.3773129781","main_expt","","0.2982444272","","0.45952887","","0.2120393587","","","","","",""
"183","","bandit","145","580064","0.0-107.0-0.0","67760215","wem/bandit_single","A2VRDE2FHCBMF8","pain","1","","75","K","2","","0","0","1","","0.4519788387","false","70","","0.3620092878","main_expt","","0.2038928517","","0.4519788387","","0.2046372205","","","","","",""
"8","","bandit","146","581837","0.0-108.0-0.0","67760215","wem/bandit_single","A2VRDE2FHCBMF8","pain","1","","74","J","1","","0","1","0","","0.2470144531","false","71","","0.3689610789","main_expt","","0.2470144531","","0.4644284496","","0.1711657315","","","","","",""
"182","","bandit","147","583799","0.0-109.0-0.0","67760215","wem/bandit_single","A2VRDE2FHCBMF8","pain","1","","74","J","1","","0","1","0","","0.2339224101","false","72","","0.335535794","main_expt","","0.2339224101","","0.4275080271","","0.1804367846","","","","","",""
"120","","bandit","148","585687","0.0-110.0-0.0","67760215","wem/bandit_single","A2VRDE2FHCBMF8","pain","1","","72","H","0","img/none_selected.jpg","0","1","0","","0.3669127126","false","73","","0.3669127126","main_expt","","0.198403553","","0.4333248441","","0.1582310148","","","","","",""
"154","","bandit","149","587611","0.0-111.0-0.0","67760215","wem/bandit_single","A2VRDE2FHCBMF8","pain","1","","75","K","2","","0","0","1","","0.4272577829","false","74","","0.3360165716","main_expt","","0.2162510441","","0.4272577829","","0.1300952354","","","","","",""
"79","","bandit","150","589468","0.0-112.0-0.0","67760215","wem/bandit_single","A2VRDE2FHCBMF8","pain","1","","72","H","0","img/none_selected.jpg","0","0","1","","0.3379177146","false","75","","0.3379177146","main_expt","","0.2467290531","","0.353629049","","0.1414689969","","","","","",""
"60","","bandit","151","591303","0.0-113.0-0.0","67760215","wem/bandit_single","A2VRDE2FHCBMF8","pain","1","","76","L","3","","0","0","1","","0.1315789974","false","76","","0.3489784935","main_expt","","0.2199510863","","0.3526453175","","0.1315789974","","","","","",""
"488","","bandit","152","593559","0.0-114.0-0.0","67760215","wem/bandit_single","A2VRDE2FHCBMF8","pain","1","","74","J","1","","0","0","1","","0.1600424727","false","77","","0.2843927136","main_expt","","0.1600424727","","0.397337216","","0.1054244057","","","","","",""
"255","","bandit","153","595597","0.0-115.0-0.0","67760215","wem/bandit_single","A2VRDE2FHCBMF8","pain","1","","75","K","2","","0","1","0","","0.3747850168","false","78","","0.2585585406","main_expt","","0.1366877547","","0.3747850168","","0.1028875903","","","","","",""
"28","","bandit","154","597394","0.0-116.0-0.0","67760215","wem/bandit_single","A2VRDE2FHCBMF8","pain","1","","72","H","0","img/none_selected.jpg","0","1","0","","0.2211992803","false","79","","0.2211992803","main_expt","","0.1608027171","","0.3500135026","","0.1010795136","","","","","",""
"26","","bandit","155","599199","0.0-117.0-0.0","67760215","wem/bandit_single","A2VRDE2FHCBMF8","pain","1","","75","K","2","","0","0","1","","0.3362224365","false","80","","0.1670678668","main_expt","","0.2004121585","","0.3362224365","","0.09661145037","","","","","",""
"46","","bandit","156","601014","0.0-118.0-0.0","67760215","wem/bandit_single","A2VRDE2FHCBMF8","pain","1","","74","J","1","","0","0","1","","0.2100463009","false","81","","0.1536487801","main_expt","","0.2100463009","","0.3626400229","","0.06079528701","","","","","",""
"87","","bandit","157","602877","0.0-119.0-0.0","67760215","wem/bandit_single","A2VRDE2FHCBMF8","pain","1","","72","H","0","img/none_selected.jpg","0","0","1","","0.164055667","false","82","","0.164055667","main_expt","","0.2313995655","","0.3433004166","","0.0561923849","","","","","",""
"15","","bandit","158","604665","0.0-120.0-0.0","67760215","wem/bandit_single","A2VRDE2FHCBMF8","pain","1","","76","L","3","","0","0","1","","0.05471979201","false","83","","0.1795096781","main_expt","","0.1805974068","","0.3564809269","","0.05471979201","","","","","",""
"398","","bandit","159","606832","0.0-121.0-0.0","67760215","wem/bandit_single","A2VRDE2FHCBMF8","pain","1","","75","K","2","","0","0","1","","0.3403656385","false","84","","0.1568762326","main_expt","","0.1351257884","","0.3403656385","","0.04961315052","","","","","",""
"414","","bandit","160","609010","0.0-122.0-0.0","67760215","wem/bandit_single","A2VRDE2FHCBMF8","pain","1","","74","J","1","","0","0","1","","0.1372280885","false","85","","0.1857208284","main_expt","","0.1372280885","","0.3009252634","","0.05195310968","","","","","",""
"456","","bandit","161","611246","0.0-123.0-0.0","67760215","wem/bandit_single","A2VRDE2FHCBMF8","pain","1","","74","J","1","","0","0","1","","0.1685840628","false","86","","0.2180329602","main_expt","","0.1685840628","","0.3067316121","","0.05385113756","","","","","",""
"225","","bandit","162","613243","0.0-124.0-0.0","67760215","wem/bandit_single","A2VRDE2FHCBMF8","pain","1","","72","H","0","img/none_selected.jpg","0","0","1","","0.1893737279","false","87","","0.1893737279","main_expt","","0.1654340797","","0.3073916088","","0.08202519069","","","","","",""
"20","","bandit","163","615034","0.0-125.0-0.0","67760215","wem/bandit_single","A2VRDE2FHCBMF8","pain","1","","72","H","0","img/none_selected.jpg","0","0","1","","0.2309201776","false","88","","0.2309201776","main_expt","","0.1870328522","","0.301504441","","0.04873944257","","","","","",""
"25","","bandit","164","616830","0.0-126.0-0.0","67760215","wem/bandit_single","A2VRDE2FHCBMF8","pain","1","","75","K","2","","0","1","0","","0.3324072184","false","89","","0.2368651839","main_expt","","0.1786415591","","0.3324072184","","0.05553778571","","","","","",""
"129","","bandit","165","618751","0.0-127.0-0.0","67760215","wem/bandit_single","A2VRDE2FHCBMF8","pain","1","","75","K","2","","0","0","1","","0.3245139686","false","90","","0.2459093935","main_expt","","0.2293974223","","0.3245139686","","0.04980790846","","","","","",""
"2","","bandit","166","620524","0.0-128.0-0.0","67760215","wem/bandit_single","A2VRDE2FHCBMF8","pain","1","","75","K","2","","0","1","0","","0.3310751299","false","91","","0.2371609774","main_expt","","0.2407797963","","0.3310751299","","0.05804880768","","","","","",""
"64","","bandit","167","622361","0.0-129.0-0.0","67760215","wem/bandit_single","A2VRDE2FHCBMF8","pain","1","","75","K","2","","0","0","1","","0.3717444616","false","92","","0.260478489","main_expt","","0.2337544695","","0.3717444616","","0.0614883172","","","","","",""
"105","","bandit","168","624232","0.0-130.0-0.0","67760215","wem/bandit_single","A2VRDE2FHCBMF8","pain","1","","75","K","2","","0","0","1","","0.3846532122","false","93","","0.2595992258","main_expt","","0.2589688886","","0.3846532122","","0.0764333552","","","","","",""
"7","","bandit","169","626005","0.0-131.0-0.0","67760215","wem/bandit_single","A2VRDE2FHCBMF8","pain","1","","76","L","3","","0","0","1","","0.1280824273","false","94","","0.206568391","main_expt","","0.2699529923","","0.4017211595","","0.1280824273","","","","","",""
"38","","bandit","170","627811","0.0-132.0-0.0","67760215","wem/bandit_single","A2VRDE2FHCBMF8","pain","1","","72","H","0","img/none_selected.jpg","0","0","1","","0.1846794781","false","95","","0.1846794781","main_expt","","0.2626559999","","0.3736639641","","0.1191245721","","","","","",""
"41","","bandit","171","629623","0.0-133.0-0.0","67760215","wem/bandit_single","A2VRDE2FHCBMF8","pain","1","","72","H","0","img/none_selected.jpg","0","0","1","","0.2484851932","false","96","","0.2484851932","main_expt","","0.2196428224","","0.3220453652","","0.08526153109","","","","","",""
"11","","bandit","172","631420","0.0-134.0-0.0","67760215","wem/bandit_single","A2VRDE2FHCBMF8","pain","1","","75","K","2","","0","0","1","","0.2964534367","false","97","","0.198145661","main_expt","","0.1922289922","","0.2964534367","","0.0775518538","","","","","",""
"67","","bandit","173","633263","0.0-135.0-0.0","67760215","wem/bandit_single","A2VRDE2FHCBMF8","pain","1","","74","J","1","","0","0","1","","0.2328023708","false","98","","0.1738253929","main_expt","","0.2328023708","","0.3388366936","","0.08824897118","","","","","",""
"18","","bandit","174","635052","0.0-136.0-0.0","67760215","wem/bandit_single","A2VRDE2FHCBMF8","pain","1","","75","K","2","","0","0","1","","0.4233536788","false","99","","0.1261523865","main_expt","","0.2606341713","","0.4233536788","","0.08912321317","","","","","",""
"449","","bandit","175","637268","0.0-137.0-0.0","67760215","wem/bandit_single","A2VRDE2FHCBMF8","pain","1","","72","H","0","img/none_selected.jpg","0","0","1","","0.1368684177","false","100","","0.1368684177","main_expt","","0.310387162","","0.3799029244","","0.1217067293","","","","","",""
"499","","bandit","176","639535","0.0-138.0-0.0","67760215","wem/bandit_single","A2VRDE2FHCBMF8","pain","1","","76","L","3","","0","0","1","","0.08537200695","false","101","","0.1262970555","main_expt","","0.3802628165","","0.3644029447","","0.08537200695","","","","","",""
"17","","bandit","177","641338","0.0-139.0-0.0","67760215","wem/bandit_single","A2VRDE2FHCBMF8","pain","1","","74","J","1","","0","1","0","","0.4133848668","false","102","","0.1022564356","main_expt","","0.4133848668","","0.3414838768","","0.09606980913","","","","","",""
"133","","bandit","178","643243","0.0-140.0-0.0","67760215","wem/bandit_single","A2VRDE2FHCBMF8","pain","1","","75","K","2","","0","0","1","","0.3691073091","false","103","","0.07046703442","main_expt","","0.4352089555","","0.3691073091","","0.09968925047","","","","","",""
"13","","bandit","179","645025","0.0-141.0-0.0","67760215","wem/bandit_single","A2VRDE2FHCBMF8","pain","1","","74","J","1","","0","1","0","","0.4248252031","false","104","","0.08582175226","main_expt","","0.4248252031","","0.3386210986","","0.1070137741","","","","","",""
"33","","bandit","180","646838","0.0-142.0-0.0","67760215","wem/bandit_single","A2VRDE2FHCBMF8","pain","1","","72","H","0","img/none_selected.jpg","0","0","1","","0.08910626196","false","105","","0.08910626196","main_expt","","0.4382512542","","0.3517858304","","0.1086060941","","","","","",""
"160","","bandit","181","648765","0.0-143.0-0.0","67760215","wem/bandit_single","A2VRDE2FHCBMF8","pain","1","","74","J","1","","0","0","1","","0.4551412652","false","106","","0.09380004764","main_expt","","0.4551412652","","0.4016578568","","0.1006724549","","","","","",""
"455","","bandit","182","651003","0.0-144.0-0.0","67760215","wem/bandit_single","A2VRDE2FHCBMF8","pain","1","","76","L","3","","0","0","1","","0.07769839914","false","107","","0.08916311959","main_expt","","0.4481373055","","0.3951748439","","0.07769839914","","","","","",""
"379","","bandit","183","653155","0.0-145.0-0.0","67760215","wem/bandit_single","A2VRDE2FHCBMF8","pain","1","","75","K","2","","0","1","0","","0.3933810371","false","108","","0.1635033392","main_expt","","0.4611843773","","0.3933810371","","0.09470950607","","","","","",""
"108","","bandit","184","655033","0.0-146.0-0.0","67760215","wem/bandit_single","A2VRDE2FHCBMF8","pain","1","","72","H","0","img/none_selected.jpg","0","0","1","","0.1923408453","false","109","","0.1923408453","main_expt","","0.416280782","","0.3961603237","","0.1117426234","","","","","",""
"5","","bandit","185","656807","0.0-147.0-0.0","67760215","wem/bandit_single","A2VRDE2FHCBMF8","pain","1","","75","K","2","","0","1","0","","0.3933476799","false","110","","0.1668397223","main_expt","","0.3959176693","","0.3933476799","","0.1190643529","","","","","",""
"1","","bandit","186","658579","0.0-148.0-0.0","67760215","wem/bandit_single","A2VRDE2FHCBMF8","pain","1","","74","J","1","","0","0","1","","0.3881072513","false","111","","0.1254506171","main_expt","","0.3881072513","","0.3953313537","","0.1605091549","","","","","",""
"55","","bandit","187","660407","0.0-149.0-0.0","67760215","wem/bandit_single","A2VRDE2FHCBMF8","pain","1","","72","H","0","img/none_selected.jpg","0","1","0","","0.1596839241","false","112","","0.1596839241","main_expt","","0.3430735849","","0.3398422341","","0.1531505469","","","","","",""
"30","","bandit","188","662207","0.0-150.0-0.0","67760215","wem/bandit_single","A2VRDE2FHCBMF8","pain","1","","76","L","3","","0","0","1","","0.1796188848","false","113","","0.1986187203","main_expt","","0.3036143476","","0.375538402","","0.1796188848","","","","","",""
"453","","bandit","189","664440","0.0-151.0-0.0","67760215","wem/bandit_single","A2VRDE2FHCBMF8","pain","1","","72","H","0","img/none_selected.jpg","0","0","1","","0.2334514198","false","114","","0.2334514198","main_expt","","0.3581708668","","0.3629483147","","0.1820080726","","","","","",""
"273","","bandit","190","666546","0.0-152.0-0.0","67760215","wem/bandit_single","A2VRDE2FHCBMF8","pain","1","","75","K","2","","0","0","1","","0.2969550108","false","115","","0.1892672839","main_expt","","0.2948471219","","0.2969550108","","0.2050936175","","","","","",""
"70","","bandit","191","668393","0.0-153.0-0.0","67760215","wem/bandit_single","A2VRDE2FHCBMF8","pain","1","","72","H","0","img/none_selected.jpg","0","1","0","","0.1507180646","false","116","","0.1507180646","main_expt","","0.2711132382","","0.260261953","","0.2071503316","","","","","",""
"242","","bandit","192","670405","0.0-154.0-0.0","67760215","wem/bandit_single","A2VRDE2FHCBMF8","pain","1","","72","H","0","img/none_selected.jpg","0","0","1","","0.1830546279","false","117","","0.1830546279","main_expt","","0.3124997295","","0.2626326191","","0.2359882763","","","","","",""
"242","","bandit","193","672417","0.0-155.0-0.0","67760215","wem/bandit_single","A2VRDE2FHCBMF8","pain","1","","72","H","0","img/none_selected.jpg","0","0","1","","0.1415506149","false","118","","0.1415506149","main_expt","","0.3888019654","","0.2933310536","","0.2388261631","","","","","",""
"109","","bandit","194","674354","0.0-156.0-0.0","67760215","wem/bandit_single","A2VRDE2FHCBMF8","pain","1","","74","J","1","","0","0","1","","0.3695751837","false","119","","0.1814909568","main_expt","","0.3695751837","","0.2469992957","","0.2470137322","","","","","",""
"121","","bandit","195","676256","0.0-157.0-0.0","67760215","wem/bandit_single","A2VRDE2FHCBMF8","pain","1","","75","K","2","","0","0","1","","0.2186909282","false","120","","0.1900691043","main_expt","","0.3471196364","","0.2186909282","","0.209676098","","","","","",""
"2","","bandit","196","678038","0.0-158.0-0.0","67760215","wem/bandit_single","A2VRDE2FHCBMF8","pain","1","","72","H","0","img/none_selected.jpg","0","0","1","","0.2002257321","false","121","","0.2002257321","main_expt","","0.3164400491","","0.1915374776","","0.2058519679","","","","","",""
"41","","bandit","197","679893","0.0-159.0-0.0","67760215","wem/bandit_single","A2VRDE2FHCBMF8","pain","1","","76","L","3","","0","0","1","","0.1409467191","false","122","","0.2000360786","main_expt","","0.3565888941","","0.1666700693","","0.1409467191","","","","","",""
"471","","bandit","198","682137","0.0-160.0-0.0","67760215","wem/bandit_single","A2VRDE2FHCBMF8","pain","1","","74","J","1","","0","0","1","","0.3293983066","false","123","","0.1656706666","main_expt","","0.3293983066","","0.1779758636","","0.08785727187","","","","","",""
"1","","bandit","199","683919","0.0-161.0-0.0","67760215","wem/bandit_single","A2VRDE2FHCBMF8","pain","1","","72","H","0","img/none_selected.jpg","0","0","1","","0.2433115295","false","124","","0.2433115295","main_expt","","0.3202360925","","0.2483730269","","0.1153756664","","","","","",""
"16","","bandit","200","685714","0.0-162.0-0.0","67760215","wem/bandit_single","A2VRDE2FHCBMF8","pain","1","","75","K","2","","0","0","1","","0.2274485556","false","125","","0.1810024247","main_expt","","0.3478690395","","0.2274485556","","0.1211147435","","","","","",""
"11","","bandit","201","687496","0.0-163.0-0.0","67760215","wem/bandit_single","A2VRDE2FHCBMF8","pain","1","","76","L","3","","0","1","0","","0.1434737457","false","126","","0.2138299762","main_expt","","0.3312811416","","0.2506805994","","0.1434737457","","","","","",""
"78","","bandit","202","689357","0.0-164.0-0.0","67760215","wem/bandit_single","A2VRDE2FHCBMF8","pain","1","","76","L","3","","0","1","0","","0.1970801631","false","127","","0.1993304114","main_expt","","0.2641060438","","0.2520497492","","0.1970801631","","","","","",""
"96","","bandit","203","691221","0.0-165.0-0.0","67760215","wem/bandit_single","A2VRDE2FHCBMF8","pain","1","","76","L","3","","0","1","0","","0.2891253811","false","128","","0.2602773644","main_expt","","0.2239657692","","0.1948091286","","0.2891253811","","","","","",""
"434","","bandit","204","693428","0.0-166.0-0.0","67760215","wem/bandit_single","A2VRDE2FHCBMF8","pain","1","","76","L","3","","0","0","1","","0.2389970352","false","129","","0.2960784606","main_expt","","0.2243581634","","0.1749799719","","0.2389970352","","","","","",""
"8","","bandit","205","695250","0.0-167.0-0.0","67760215","wem/bandit_single","A2VRDE2FHCBMF8","pain","1","","76","L","3","","0","0","1","","0.2613596901","false","130","","0.2720271615","main_expt","","0.2215765871","","0.1950546205","","0.2613596901","","","","","",""
"27","","bandit","206","697044","0.0-168.0-0.0","67760215","wem/bandit_single","A2VRDE2FHCBMF8","pain","1","","74","J","1","","0","0","1","","0.1796651873","false","131","","0.2403459828","main_expt","","0.1796651873","","0.2501377387","","0.2254289723","","","","","",""
"6","","bandit","207","698822","0.0-169.0-0.0","67760215","wem/bandit_single","A2VRDE2FHCBMF8","pain","1","","75","K","2","","0","0","1","","0.2275015869","false","132","","0.2261584059","main_expt","","0.1946412172","","0.2275015869","","0.2759434303","","","","","",""
"103","","bandit","208","700739","0.0-170.0-0.0","67760215","wem/bandit_single","A2VRDE2FHCBMF8","pain","1","","72","H","0","img/none_selected.jpg","0","1","0","","0.225512635","false","133","","0.225512635","main_expt","","0.2390261597","","0.1961271051","","0.3153186182","","","","","",""
"11","","bandit","209","702527","0.0-171.0-0.0","67760215","wem/bandit_single","A2VRDE2FHCBMF8","pain","1","","75","K","2","","0","0","1","","0.2508816485","false","134","","0.2119287539","main_expt","","0.227958871","","0.2508816485","","0.2950667763","","","","","",""
"29","","bandit","210","704342","0.0-172.0-0.0","67760215","wem/bandit_single","A2VRDE2FHCBMF8","pain","1","","72","H","0","img/none_selected.jpg","0","0","1","","0.1980603764","false","135","","0.1980603764","main_expt","","0.2312014448","","0.3394706536","","0.3307223606","","","","","",""
"471","","bandit","211","706593","0.0-173.0-0.0","67760215","wem/bandit_single","A2VRDE2FHCBMF8","pain","1","","72","H","0","img/none_selected.jpg","0","0","1","","0.2325476757","false","136","","0.2325476757","main_expt","","0.27599984","","0.2837829406","","0.3298223854","","","","","",""
"122","","bandit","212","708493","0.0-174.0-0.0","67760215","wem/bandit_single","A2VRDE2FHCBMF8","pain","1","","72","H","0","img/none_selected.jpg","0","0","1","","0.2334264213","false","137","","0.2334264213","main_expt","","0.2313694212","","0.3024244849","","0.3330531331","","","","","",""
"48","","bandit","213","710315","0.0-175.0-0.0","67760215","wem/bandit_single","A2VRDE2FHCBMF8","pain","1","","74","J","1","","0","0","1","","0.1816115857","false","138","","0.3107735177","main_expt","","0.1816115857","","0.3473265679","","0.292929501","","","","","",""
"43","","bandit","214","712145","0.0-176.0-0.0","67760215","wem/bandit_single","A2VRDE2FHCBMF8","pain","1","","76","L","3","","0","0","1","","0.2849421758","false","139","","0.3374098654","main_expt","","0.1658496667","","0.2828336224","","0.2849421758","","","","","",""
"144","","bandit","215","714074","0.0-177.0-0.0","67760215","wem/bandit_single","A2VRDE2FHCBMF8","pain","1","","75","K","2","","0","0","1","","0.3238397914","false","140","","0.3401298673","main_expt","","0.1644365985","","0.3238397914","","0.3149573531","","","","","",""
"405","","bandit","216","716249","0.0-178.0-0.0","67760215","wem/bandit_single","A2VRDE2FHCBMF8","pain","1","","76","L","3","","0","0","1","","0.2937847178","false","141","","0.363539884","main_expt","","0.16055167","","0.3490905252","","0.2937847178","","","","","",""
"473","","bandit","217","718503","0.0-179.0-0.0","67760215","wem/bandit_single","A2VRDE2FHCBMF8","pain","1","","74","J","1","","0","0","1","","0.1426499966","false","142","","0.3207651517","main_expt","","0.1426499966","","0.337853111","","0.2695919138","","","","","",""
"111","","bandit","218","720385","0.0-180.0-0.0","67760215","wem/bandit_single","A2VRDE2FHCBMF8","pain","1","","72","H","0","img/none_selected.jpg","0","0","1","","0.2976941359","false","143","","0.2976941359","main_expt","","0.1133276474","","0.3475703167","","0.206179854","","","","","",""
"15","","bandit","219","722173","0.0-181.0-0.0","67760215","wem/bandit_single","A2VRDE2FHCBMF8","pain","1","","75","K","2","","0","1","0","","0.3809945211","false","144","","0.2405576463","main_expt","","0.1351054788","","0.3809945211","","0.2123329462","","","","","",""
"97","","bandit","220","724043","0.0-182.0-0.0","67760215","wem/bandit_single","A2VRDE2FHCBMF8","pain","1","","72","H","0","img/none_selected.jpg","0","0","1","","0.2513929943","false","145","","0.2513929943","main_expt","","0.1703546958","","0.3842622547","","0.2144195617","","","","","",""
"90","","bandit","221","725905","0.0-183.0-0.0","67760215","wem/bandit_single","A2VRDE2FHCBMF8","pain","1","","75","K","2","","0","0","1","","0.4068715463","false","146","","0.2665850657","main_expt","","0.1382352341","","0.4068715463","","0.2264269311","","","","","",""
"4","","bandit","222","727687","0.0-184.0-0.0","67760215","wem/bandit_single","A2VRDE2FHCBMF8","pain","1","","75","K","2","","0","0","1","","0.3690267696","false","147","","0.2742171136","main_expt","","0.1111211324","","0.3690267696","","0.2458089499","","","","","",""
"94","","bandit","223","729555","0.0-185.0-0.0","67760215","wem/bandit_single","A2VRDE2FHCBMF8","pain","1","","74","J","1","","0","0","1","","0.1046256567","false","148","","0.2504516377","main_expt","","0.1046256567","","0.3999465919","","0.2581131455","","","","","",""
"124","","bandit","224","731462","0.0-186.0-0.0","67760215","wem/bandit_single","A2VRDE2FHCBMF8","pain","1","","76","L","3","","0","0","1","","0.2055420423","false","149","","0.2749888299","main_expt","","0.09450025474","","0.3823047489","","0.2055420423","","","","","",""
"52","","bandit","225","733285","0.0-187.0-0.0","67760215","wem/bandit_single","A2VRDE2FHCBMF8","pain","1","","74","J","1","","0","0","1","","0.08682851814","false","150","","0.2199302859","main_expt","","0.08682851814","","0.3970301866","","0.2196547661","","","","","",""
"21","","bandit","226","735095","0.0-188.0-0.0","67760215","wem/bandit_single","A2VRDE2FHCBMF8","pain","1","","75","K","2","","0","0","1","","0.4141828336","false","151","","0.228921305","main_expt","","0.0775356828","","0.4141828336","","0.2311854424","","","","","",""
"52","","bandit","227","736916","0.0-189.0-0.0","67760215","wem/bandit_single","A2VRDE2FHCBMF8","pain","1","","72","H","0","img/none_selected.jpg","0","0","1","","0.1858313389","false","152","","0.1858313389","main_expt","","0.08719832593","","0.4233092002","","0.2692750042","","","","","",""
"17","","bandit","228","738707","0.0-190.0-0.0","67760215","wem/bandit_single","A2VRDE2FHCBMF8","pain","1","","75","K","2","","0","0","1","","0.3961827626","false","153","","0.2253380596","main_expt","","0.06950392785","","0.3961827626","","0.3209664266","","","","","",""
"3","","bandit","229","740478","0.0-191.0-0.0","67760215","wem/bandit_single","A2VRDE2FHCBMF8","pain","1","","74","J","1","","0","0","1","","0.09734883616","false","154","","0.1787374968","main_expt","","0.09734883616","","0.4023640633","","0.2633096479","","","","","",""
"389","","bandit","230","742643","0.0-192.0-0.0","67760215","wem/bandit_single","A2VRDE2FHCBMF8","pain","1","","75","K","2","","0","0","1","","0.3927422998","false","155","","0.1026625787","main_expt","","0.1078867986","","0.3927422998","","0.2611493198","","","","","",""
"453","","bandit","231","744873","0.0-193.0-0.0","67760215","wem/bandit_single","A2VRDE2FHCBMF8","pain","1","","72","H","0","img/none_selected.jpg","0","1","0","","0.1201393653","false","156","","0.1201393653","main_expt","","0.09294383108","","0.3696188161","","0.2556392324","","","","","",""
"415","","bandit","232","747060","0.0-194.0-0.0","67760215","wem/bandit_single","A2VRDE2FHCBMF8","pain","1","","72","H","0","img/none_selected.jpg","0","0","1","","0.1601810659","false","157","","0.1601810659","main_expt","","0.1344904143","","0.3562863837","","0.2237912435","","","","","",""
"12","","bandit","233","748848","0.0-195.0-0.0","67760215","wem/bandit_single","A2VRDE2FHCBMF8","pain","1","","75","K","2","","0","0","1","","0.3891013447","false","158","","0.2178666355","main_expt","","0.1682501471","","0.3891013447","","0.2269937079","","","","","",""
"29","","bandit","234","750656","0.0-196.0-0.0","67760215","wem/bandit_single","A2VRDE2FHCBMF8","pain","1","","74","J","1","","0","0","1","","0.1859978291","false","159","","0.2088119712","main_expt","","0.1859978291","","0.3771509201","","0.2244600926","","","","","",""
"78","","bandit","235","752501","0.0-197.0-0.0","67760215","wem/bandit_single","A2VRDE2FHCBMF8","pain","1","","76","L","3","","0","0","1","","0.231654425","false","160","","0.2853399033","main_expt","","0.1169857497","","0.3677966378","","0.231654425","","","","","",""
"311","","bandit","236","754586","0.0-198.0-0.0","67760215","wem/bandit_single","A2VRDE2FHCBMF8","pain","1","","75","K","2","","0","0","1","","0.3691576932","false","161","","0.2755093387","main_expt","","0.1131976547","","0.3691576932","","0.2415747561","","","","","",""
"252","","bandit","237","756635","0.0-199.0-0.0","67760215","wem/bandit_single","A2VRDE2FHCBMF8","pain","1","","72","H","0","img/none_selected.jpg","0","0","1","","0.2706635439","false","162","","0.2706635439","main_expt","","0.1560378341","","0.3102253273","","0.1807921844","","","","","",""
"78","","bandit","238","758488","0.0-200.0-0.0","67760215","wem/bandit_single","A2VRDE2FHCBMF8","pain","1","","72","H","0","img/none_selected.jpg","0","1","0","","0.2856851073","false","163","","0.2856851073","main_expt","","0.1200759877","","0.3361037566","","0.1986212186","","","","","",""
"54","","bandit","239","760316","0.0-201.0-0.0","67760215","wem/bandit_single","A2VRDE2FHCBMF8","pain","1","","72","H","0","img/none_selected.jpg","0","0","1","","0.3188827228","false","164","","0.3188827228","main_expt","","0.1198838954","","0.3097300036","","0.1799022971","","","","","",""
"271","","bandit","240","762369","0.0-202.0-0.0","67760215","wem/bandit_single","A2VRDE2FHCBMF8","pain","1","","72","H","0","img/none_selected.jpg","0","1","0","","0.3258940933","false","165","","0.3258940933","main_expt","","0.1397308529","","0.3234169084","","0.2610149466","","","","","",""
"86","","bandit","241","764227","0.0-203.0-0.0","67760215","wem/bandit_single","A2VRDE2FHCBMF8","pain","1","","74","J","1","","0","0","1","","0.1506282743","false","166","","0.3525092479","main_expt","","0.1506282743","","0.3201458278","","0.2673729835","","","","","",""
"67","","bandit","242","766102","0.0-204.0-0.0","67760215","wem/bandit_single","A2VRDE2FHCBMF8","pain","1","","72","H","0","img/none_selected.jpg","0","0","1","","0.3919017073","false","167","","0.3919017073","main_expt","","0.1407574557","","0.366643239","","0.169486101","","","","","",""
"134","","bandit","243","768017","0.0-205.0-0.0","67760215","wem/bandit_single","A2VRDE2FHCBMF8","pain","1","","75","K","2","","0","0","1","","0.3877512758","false","168","","0.3855955566","main_expt","","0.1217255528","","0.3877512758","","0.1997030364","","","","","",""
"238","","bandit","244","770029","0.0-206.0-0.0","67760215","wem/bandit_single","A2VRDE2FHCBMF8","pain","1","","72","H","0","img/none_selected.jpg","0","0","1","","0.3882436634","false","169","","0.3882436634","main_expt","","0.118108524","","0.3733196812","","0.2391799942","","","","","",""
"416","","bandit","245","772236","0.0-207.0-0.0","67760215","wem/bandit_single","A2VRDE2FHCBMF8","pain","1","","75","K","2","","0","0","1","","0.3616719183","false","170","","0.4096789578","main_expt","","0.0750780909","","0.3616719183","","0.2239577552","","","","","",""
"378","","bandit","246","774388","0.0-208.0-0.0","67760215","wem/bandit_single","A2VRDE2FHCBMF8","pain","1","","74","J","1","","0","0","1","","0.07048665386","false","171","","0.4326257363","main_expt","","0.07048665386","","0.3222484871","","0.2175962327","","","","","",""
"0","","bandit","247","776176","0.0-209.0-0.0","67760215","wem/bandit_single","A2VRDE2FHCBMF8","pain","1","","76","L","3","","0","0","1","","0.2061205584","false","172","","0.4381189537","main_expt","","0.09439478605","","0.2849842628","","0.2061205584","","","","","",""
"9","","bandit","248","777965","0.0-210.0-0.0","67760215","wem/bandit_single","A2VRDE2FHCBMF8","pain","1","","76","L","3","","0","0","1","","0.1787022686","false","173","","0.3823577146","main_expt","","0.05932603211","","0.2896949147","","0.1787022686","","","","","",""
"109","","bandit","249","779853","0.0-211.0-0.0","67760215","wem/bandit_single","A2VRDE2FHCBMF8","pain","1","","75","K","2","","0","0","1","","0.260829927","false","174","","0.4155511425","main_expt","","0.1019229976","","0.260829927","","0.1782801474","","","","","",""
"26","","bandit","250","781677","0.0-212.0-0.0","67760215","wem/bandit_single","A2VRDE2FHCBMF8","pain","1","","75","K","2","","0","1","0","","0.1608433896","false","175","","0.4391025654","main_expt","","0.1270031357","","0.1608433896","","0.1723114597","","","","","",""
"42","","bandit","251","783497","0.0-213.0-0.0","67760215","wem/bandit_single","A2VRDE2FHCBMF8","pain","1","","75","K","2","","0","0","1","","0.1924323662","false","176","","0.4654332747","main_expt","","0.1519507126","","0.1924323662","","0.1714247165","","","","","",""
"20","","bandit","252","785292","0.0-214.0-0.0","67760215","wem/bandit_single","A2VRDE2FHCBMF8","pain","1","","74","J","1","","0","0","1","","0.2645819263","false","177","","0.4862166952","main_expt","","0.2645819263","","0.1942299772","","0.2003569552","","","","","",""
"27","","bandit","253","787106","0.0-215.0-0.0","67760215","wem/bandit_single","A2VRDE2FHCBMF8","pain","1","","72","H","0","img/none_selected.jpg","0","1","0","","0.4878504479","false","178","","0.4878504479","main_expt","","0.2497033982","","0.2266891382","","0.1848954505","","","","","",""
"1","","bandit","254","788882","0.0-216.0-0.0","67760215","wem/bandit_single","A2VRDE2FHCBMF8","pain","1","","76","L","3","","0","0","1","","0.120488448","false","179","","0.4925433574","main_expt","","0.2464833147","","0.193755509","","0.120488448","","","","","",""
"376","","bandit","255","791041","0.0-217.0-0.0","67760215","wem/bandit_single","A2VRDE2FHCBMF8","pain","1","","72","H","0","img/none_selected.jpg","0","1","0","","0.4863546804","false","180","","0.4863546804","main_expt","","0.191435525","","0.2143300014","","0.09518531587","","","","","",""
"17","","bandit","256","792849","0.0-218.0-0.0","67760215","wem/bandit_single","A2VRDE2FHCBMF8","pain","1","","74","J","1","","0","0","1","","0.2095150634","false","181","","0.4898831258","main_expt","","0.2095150634","","0.1996101457","","0.1110105533","","","","","",""
"174","","bandit","257","794807","0.0-219.0-0.0","67760215","wem/bandit_single","A2VRDE2FHCBMF8","pain","1","","72","H","0","img/none_selected.jpg","0","1","0","","0.4702328405","false","182","","0.4702328405","main_expt","","0.2238619417","","0.220362663","","0.1321710188","","","","","",""
"101","","bandit","258","796685","0.0-220.0-0.0","67760215","wem/bandit_single","A2VRDE2FHCBMF8","pain","1","","76","L","3","","0","0","1","","0.07205074818","false","183","","0.4443650637","main_expt","","0.172430875","","0.2087999581","","0.07205074818","","","","","",""
"313","","bandit","259","798766","0.0-221.0-0.0","67760215","wem/bandit_single","A2VRDE2FHCBMF8","pain","1","","75","K","2","","0","0","1","","0.2693368533","false","184","","0.4395551327","main_expt","","0.1537152065","","0.2693368533","","0.08140980564","","","","","",""
"110","","bandit","260","800651","0.0-222.0-0.0","67760215","wem/bandit_single","A2VRDE2FHCBMF8","pain","1","","72","H","0","img/none_selected.jpg","0","0","1","","0.427498872","false","185","","0.427498872","main_expt","","0.1089078126","","0.3177788722","","0.07005875891","","","","","",""
"78","","bandit","261","802500","0.0-223.0-0.0","67760215","wem/bandit_single","A2VRDE2FHCBMF8","pain","1","","75","K","2","","0","0","1","","0.3093747324","false","186","","0.4126395781","main_expt","","0.1150542287","","0.3093747324","","0.04712836877","","","","","",""
"28","","bandit","262","804313","0.0-224.0-0.0","67760215","wem/bandit_single","A2VRDE2FHCBMF8","pain","1","","74","J","1","","0","0","1","","0.07877539194","false","187","","0.4059631444","main_expt","","0.07877539194","","0.3361469263","","0.07097221374","","","","","",""
"408","","bandit","263","806501","0.0-225.0-0.0","67760215","wem/bandit_single","A2VRDE2FHCBMF8","pain","1","","76","L","3","","0","0","1","","0.04255461481","false","188","","0.4007853126","main_expt","","0.06234325246","","0.3096611705","","0.04255461481","","","","","",""
"23","","bandit","264","808307","0.0-226.0-0.0","67760215","wem/bandit_single","A2VRDE2FHCBMF8","pain","1","","72","H","0","img/none_selected.jpg","0","0","1","","0.4208201059","false","189","","0.4208201059","main_expt","","0.07748383332","","0.298651231","","0.03834091028","","","","","",""
"41","","bandit","265","810123","0.0-227.0-0.0","67760215","wem/bandit_single","A2VRDE2FHCBMF8","pain","1","","75","K","2","","0","0","1","","0.3361123746","false","190","","0.4249824956","main_expt","","0.08864116925","","0.3361123746","","0.03101500858","","","","","",""
"146","","bandit","266","812052","0.0-228.0-0.0","67760215","wem/bandit_single","A2VRDE2FHCBMF8","pain","1","","74","J","1","","0","0","1","","0.1114019665","false","191","","0.4519194686","main_expt","","0.1114019665","","0.3529126189","","0.05137759752","","","","","",""
"551","","bandit","267","814400","0.0-229.0-0.0","67760215","wem/bandit_single","A2VRDE2FHCBMF8","pain","1","","72","H","0","img/none_selected.jpg","0","1","0","","0.449072141","false","192","","0.449072141","main_expt","","0.0944181321","","0.3806900048","","0.05101019331","","","","","",""
"32","","bandit","268","816209","0.0-230.0-0.0","67760215","wem/bandit_single","A2VRDE2FHCBMF8","pain","1","","72","H","0","img/none_selected.jpg","0","0","1","","0.4069092802","false","193","","0.4069092802","main_expt","","0.09015445577","","0.3191299148","","0.0408087357","","","","","",""
"37","","bandit","269","818018","0.0-231.0-0.0","67760215","wem/bandit_single","A2VRDE2FHCBMF8","pain","1","","72","H","0","img/none_selected.jpg","0","1","0","","0.399300076","false","194","","0.399300076","main_expt","","0.09569888082","","0.3350705725","","0.04787233925","","","","","",""
"282","","bandit","270","820077","0.0-232.0-0.0","67760215","wem/bandit_single","A2VRDE2FHCBMF8","pain","1","","72","H","0","img/none_selected.jpg","0","1","0","","0.4028519225","false","195","","0.4028519225","main_expt","","0.1521563302","","0.3579412151","","0.07297342555","","","","","",""
"250","","bandit","271","822117","0.0-233.0-0.0","67760215","wem/bandit_single","A2VRDE2FHCBMF8","pain","1","","72","H","0","img/none_selected.jpg","0","0","1","","0.3708283831","false","196","","0.3708283831","main_expt","","0.1612876033","","0.4135102269","","0.1090796252","","","","","",""
"113","","bandit","272","824002","0.0-234.0-0.0","67760215","wem/bandit_single","A2VRDE2FHCBMF8","pain","1","","72","H","0","img/none_selected.jpg","0","0","1","","0.3992028251","false","197","","0.3992028251","main_expt","","0.1818980103","","0.4368922102","","0.1141593934","","","","","",""
"288","","bandit","273","826065","0.0-235.0-0.0","67760215","wem/bandit_single","A2VRDE2FHCBMF8","pain","1","","75","K","2","","0","0","1","","0.4329908538","false","198","","0.3662313723","main_expt","","0.1426991491","","0.4329908538","","0.1247063377","","","","","",""
"544","","bandit","274","828389","0.0-236.0-0.0","67760215","wem/bandit_single","A2VRDE2FHCBMF8","pain","1","","76","L","3","","0","0","1","","0.1324590526","false","199","","0.3667285709","main_expt","","0.1339470975","","0.4458308372","","0.1324590526","","","","","",""
"219","","bandit","275","830388","0.0-237.0-0.0","67760215","wem/bandit_single","A2VRDE2FHCBMF8","pain","1","","74","J","1","","0","0","1","","0.1615481579","false","200","","0.365396467","main_expt","","0.1615481579","","0.4535445428","","0.1062358191","","","","","",""
"101","","bandit","276","832275","0.0-238.0-0.0","67760215","wem/bandit_single","A2VRDE2FHCBMF8","pain","1","","72","H","0","img/none_selected.jpg","0","0","1","","0.3413602931","false","201","","0.3413602931","main_expt","","0.1889616495","","0.4258040833","","0.1027729413","","","","","",""
"283","","bandit","277","834330","0.0-239.0-0.0","67760215","wem/bandit_single","A2VRDE2FHCBMF8","pain","1","","76","L","3","","0","0","1","","0.09207086273","false","202","","0.3655369163","main_expt","","0.2043886565","","0.413157784","","0.09207086273","","","","","",""
"415","","bandit","278","836520","0.0-240.0-0.0","67760215","wem/bandit_single","A2VRDE2FHCBMF8","pain","1","","75","K","2","","0","0","1","","0.358983575","false","203","","0.3301706169","main_expt","","0.2274570119","","0.358983575","","0.1409949376","","","","","",""
"129","","bandit","279","838433","0.0-241.0-0.0","67760215","wem/bandit_single","A2VRDE2FHCBMF8","pain","1","","74","J","1","","0","1","0","","0.1795680912","false","204","","0.3305557625","main_expt","","0.1795680912","","0.3354839288","","0.2067441942","","","","","",""
"283","","bandit","280","840494","0.0-242.0-0.0","67760215","wem/bandit_single","A2VRDE2FHCBMF8","pain","1","","72","H","0","img/none_selected.jpg","0","0","1","","0.3332543728","false","205","","0.3332543728","main_expt","","0.1823506393","","0.3814446138","","0.2171549514","","","","","",""
"251","","bandit","281","842538","0.0-243.0-0.0","67760215","wem/bandit_single","A2VRDE2FHCBMF8","pain","1","","76","L","3","","0","0","1","","0.1399251859","false","206","","0.270761893","main_expt","","0.1401809595","","0.4069937863","","0.1399251859","","","","","",""
"381","","bandit","282","844705","0.0-244.0-0.0","67760215","wem/bandit_single","A2VRDE2FHCBMF8","pain","1","","74","J","1","","0","1","0","","0.1651993972","false","207","","0.2595670132","main_expt","","0.1651993972","","0.4261201247","","0.1700254018","","","","","",""
"90","","bandit","283","846580","0.0-245.0-0.0","67760215","wem/bandit_single","A2VRDE2FHCBMF8","pain","1","","75","K","2","","0","0","1","","0.4105702951","false","208","","0.2772442529","main_expt","","0.1803987852","","0.4105702951","","0.1831619311","","","","","",""
"16","","bandit","284","848394","0.0-246.0-0.0","67760215","wem/bandit_single","A2VRDE2FHCBMF8","pain","1","","74","J","1","","0","0","1","","0.1470434113","false","209","","0.2654441326","main_expt","","0.1470434113","","0.402481318","","0.151215806","","","","","",""
"102","","bandit","285","850278","0.0-247.0-0.0","67760215","wem/bandit_single","A2VRDE2FHCBMF8","pain","1","","74","J","1","","0","0","1","","0.1375860563","false","210","","0.2475709295","main_expt","","0.1375860563","","0.4378094136","","0.1841878728","","","","","",""
"15","","bandit","286","852073","0.0-248.0-0.0","67760215","wem/bandit_single","A2VRDE2FHCBMF8","pain","1","","72","H","0","img/none_selected.jpg","0","0","1","","0.1836637302","false","211","","0.1836637302","main_expt","","0.1181257803","","0.4174257438","","0.190591144","","","","","",""
"33","","bandit","287","853885","0.0-249.0-0.0","67760215","wem/bandit_single","A2VRDE2FHCBMF8","pain","1","","76","L","3","","0","1","0","","0.2024219406","false","212","","0.2018671691","main_expt","","0.1284194295","","0.4235695044","","0.2024219406","","","","","",""
"405","","bandit","288","856069","0.0-250.0-0.0","67760215","wem/bandit_single","A2VRDE2FHCBMF8","pain","1","","76","L","3","","0","0","1","","0.1985525674","false","213","","0.1807811906","main_expt","","0.1088774305","","0.4112054282","","0.1985525674","","","","","",""
"381","","bandit","289","858240","0.0-251.0-0.0","67760215","wem/bandit_single","A2VRDE2FHCBMF8","pain","1","","74","J","1","","0","0","1","","0.07230623063","false","214","","0.2432807767","main_expt","","0.07230623063","","0.3986702209","","0.1940352924","","","","","",""
"223","","bandit","290","860246","0.0-252.0-0.0","67760215","wem/bandit_single","A2VRDE2FHCBMF8","pain","1","","75","K","2","","0","1","0","","0.4379561577","false","215","","0.2167976264","main_expt","","0.07963887701","","0.4379561577","","0.1155678072","","","","","",""
"395","","bandit","291","862427","0.0-253.0-0.0","67760215","wem/bandit_single","A2VRDE2FHCBMF8","pain","1","","76","L","3","","0","0","1","","0.08288275022","false","216","","0.2963745884","main_expt","","0.0792987172","","0.425003275","","0.08288275022","","","","","",""
"615","","bandit","292","864818","0.0-254.0-0.0","67760215","wem/bandit_single","A2VRDE2FHCBMF8","pain","1","","72","H","0","img/none_selected.jpg","0","0","1","","0.2704200786","false","217","","0.2704200786","main_expt","","0.07576557353","","0.4398514333","","0.1108164962","","","","","",""
"206","","bandit","293","866807","0.0-255.0-0.0","67760215","wem/bandit_single","A2VRDE2FHCBMF8","pain","1","","75","K","2","","0","0","1","","0.4307107256","false","218","","0.2057322541","main_expt","","0.05946619603","","0.4307107256","","0.1166222362","","","","","",""
"460","","bandit","294","869048","0.0-256.0-0.0","67760215","wem/bandit_single","A2VRDE2FHCBMF8","pain","1","","74","J","1","","0","0","1","","0.07419684477","false","219","","0.2143414454","main_expt","","0.07419684477","","0.4236121262","","0.1441412427","","","","","",""
"116","","bandit","295","870966","0.0-257.0-0.0","67760215","wem/bandit_single","A2VRDE2FHCBMF8","pain","1","","75","K","2","","0","0","1","","0.4020148519","false","220","","0.1630835619","main_expt","","0.09297922461","","0.4020148519","","0.1460318591","","","","","",""
"293","","bandit","296","873042","0.0-258.0-0.0","67760215","wem/bandit_single","A2VRDE2FHCBMF8","pain","1","","76","L","3","","0","0","1","","0.1068666799","false","221","","0.1536312793","main_expt","","0.1429286242","","0.4073181559","","0.1068666799","","","","","",""
"179","","bandit","297","875028","0.0-259.0-0.0","67760215","wem/bandit_single","A2VRDE2FHCBMF8","pain","1","","72","H","0","img/none_selected.jpg","0","1","0","","0.2214617817","false","222","","0.2214617817","main_expt","","0.1708286753","","0.3651123295","","0.1101844092","","","","","",""
"151","","bandit","298","876963","0.0-260.0-0.0","67760215","wem/bandit_single","A2VRDE2FHCBMF8","pain","1","","72","H","0","img/none_selected.jpg","0","0","1","","0.2273662723","false","223","","0.2273662723","main_expt","","0.1461267001","","0.3836441325","","0.0707480467","","","","","",""
"121","","bandit","299","878872","0.0-261.0-0.0","67760215","wem/bandit_single","A2VRDE2FHCBMF8","pain","1","","74","J","1","","0","0","1","","0.144808321","false","224","","0.1894352557","main_expt","","0.144808321","","0.3982756155","","0.06117493494","","","","","",""
"402","","bandit","300","881066","0.0-262.0-0.0","67760215","wem/bandit_single","A2VRDE2FHCBMF8","pain","1","","72","H","0","img/none_selected.jpg","0","0","1","","0.1292085382","false","225","","0.1292085382","main_expt","","0.1890777341","","0.3942448394","","0.0615688762","","","","","",""
"21","","bandit","301","882877","0.0-263.0-0.0","67760215","wem/bandit_single","A2VRDE2FHCBMF8","pain","1","","75","K","2","","0","0","1","","0.4169515918","false","226","","0.1530858041","main_expt","","0.1442837472","","0.4169515918","","0.05052633559","","","","","",""
"339","","bandit","302","885027","0.0-264.0-0.0","67760215","wem/bandit_single","A2VRDE2FHCBMF8","pain","1","","72","H","0","img/none_selected.jpg","0","0","1","","0.1593334253","false","227","","0.1593334253","main_expt","","0.1425852804","","0.4204191544","","0.05726050712","","","","","",""
"245","","bandit","303","887055","0.0-265.0-0.0","67760215","wem/bandit_single","A2VRDE2FHCBMF8","pain","1","","76","L","3","","0","0","1","","0.0758768547","false","228","","0.1247523642","main_expt","","0.1116716659","","0.4091886","","0.0758768547","","","","","",""
"287","","bandit","304","889117","0.0-266.0-0.0","67760215","wem/bandit_single","A2VRDE2FHCBMF8","pain","1","","74","J","1","","0","0","1","","0.1206121499","false","229","","0.1463700977","main_expt","","0.1206121499","","0.407276644","","0.07022353505","","","","","",""
"183","","bandit","305","891080","0.0-267.0-0.0","67760215","wem/bandit_single","A2VRDE2FHCBMF8","pain","1","","74","J","1","","0","0","1","","0.1168532629","false","230","","0.1402324221","main_expt","","0.1168532629","","0.4254558538","","0.06577032649","","","","","",""
"67","","bandit","306","892933","0.0-268.0-0.0","67760215","wem/bandit_single","A2VRDE2FHCBMF8","pain","1","","75","K","2","","0","1","0","","0.4259586803","false","231","","0.1914784592","main_expt","","0.0916199044","","0.4259586803","","0.06313303242","","","","","",""
"179","","bandit","307","894893","0.0-269.0-0.0","67760215","wem/bandit_single","A2VRDE2FHCBMF8","pain","1","","75","K","2","","0","0","1","","0.4429649496","false","232","","0.1507361932","main_expt","","0.09573807812","","0.4429649496","","0.05490827263","","","","","",""
"142","","bandit","308","896816","0.0-270.0-0.0","67760215","wem/bandit_single","A2VRDE2FHCBMF8","pain","1","","75","K","2","","0","1","0","","0.4456598826","false","233","","0.1902650793","main_expt","","0.1246926578","","0.4456598826","","0.04200611561","","","","","",""
"271","","bandit","309","898872","0.0-271.0-0.0","67760215","wem/bandit_single","A2VRDE2FHCBMF8","pain","1","","75","K","2","","0","1","0","","0.4504169918","false","234","","0.2663902881","main_expt","","0.122457211","","0.4504169918","","0.0550058871","","","","","",""
"151","","bandit","310","900797","0.0-272.0-0.0","67760215","wem/bandit_single","A2VRDE2FHCBMF8","pain","1","","72","H","0","img/none_selected.jpg","0","0","1","","0.257874652","false","235","","0.257874652","main_expt","","0.1561374187","","0.4255816076","","0.06273227262","","","","","",""
"4","","bandit","311","902594","0.0-273.0-0.0","67760215","wem/bandit_single","A2VRDE2FHCBMF8","pain","1","","75","K","2","","0","0","1","","0.4262424011","false","236","","0.2134416149","main_expt","","0.1726763947","","0.4262424011","","0.09869136657","","","","","",""
"79","","bandit","312","904459","0.0-274.0-0.0","67760215","wem/bandit_single","A2VRDE2FHCBMF8","pain","1","","76","L","3","","0","0","1","","0.06464195797","false","237","","0.1655180868","main_expt","","0.163453789","","0.4314914545","","0.06464195797","","","","","",""
"781","","bandit","313","907026","0.0-275.0-0.0","67760215","wem/bandit_single","A2VRDE2FHCBMF8","pain","1","","74","J","1","","0","0","1","","0.1511244057","false","238","","0.1528926348","main_expt","","0.1511244057","","0.4580147213","","0.1092425733","","","","","",""
"819","","bandit","314","909642","0.0-276.0-0.0","67760215","wem/bandit_single","A2VRDE2FHCBMF8","pain","1","","75","K","2","","0","1","0","","0.4437162142","false","239","","0.1594670864","main_expt","","0.1170855371","","0.4437162142","","0.08920017271","","","","","",""
"117","","bandit","315","911539","0.0-277.0-0.0","67760215","wem/bandit_single","A2VRDE2FHCBMF8","pain","1","","75","K","2","","0","0","1","","0.4423909474","false","240","","0.104293197","main_expt","","0.1281478965","","0.4423909474","","0.138477068","","","","","",""
"47","","bandit","316","913399","0.0-278.0-0.0","67760215","wem/bandit_single","A2VRDE2FHCBMF8","pain","1","","72","H","0","img/none_selected.jpg","0","0","1","","0.07968297136","false","241","","0.07968297136","main_expt","","0.1579661802","","0.4542424264","","0.1249513709","","","","","",""
"6","","bandit","317","915195","0.0-279.0-0.0","67760215","wem/bandit_single","A2VRDE2FHCBMF8","pain","1","","76","L","3","","0","0","1","","0.09754639251","false","242","","0.07079416442","main_expt","","0.1345462726","","0.4659063812","","0.09754639251","","","","","",""
"55","","bandit","318","917033","0.0-280.0-0.0","67760215","wem/bandit_single","A2VRDE2FHCBMF8","pain","1","","75","K","2","","0","0","1","","0.4702771719","false","243","","0.08709770617","main_expt","","0.1793426478","","0.4702771719","","0.1223474156","","","","","",""
"33","","bandit","319","918853","0.0-281.0-0.0","67760215","wem/bandit_single","A2VRDE2FHCBMF8","pain","1","","75","K","2","","0","1","0","","0.4678480784","false","244","","0.08252109256","main_expt","","0.1623289848","","0.4678480784","","0.1004902073","","","","","",""
"16","","bandit","320","920645","0.0-282.0-0.0","67760215","wem/bandit_single","A2VRDE2FHCBMF8","pain","1","","75","K","2","","0","1","0","","0.4608336118","false","245","","0.07130924754","main_expt","","0.1638267454","","0.4608336118","","0.09372717231","","","","","",""
"38","","bandit","321","922457","0.0-283.0-0.0","67760215","wem/bandit_single","A2VRDE2FHCBMF8","pain","1","","75","K","2","","0","0","1","","0.4455928316","false","246","","0.06886742221","main_expt","","0.1794660524","","0.4455928316","","0.1004977064","","","","","",""
"443","","bandit","322","924679","0.0-284.0-0.0","67760215","wem/bandit_single","A2VRDE2FHCBMF8","pain","1","","75","K","2","","0","0","1","","0.4322927154","false","247","","0.064138504","main_expt","","0.1751092572","","0.4322927154","","0.09336015453","","","","","",""
"31","","bandit","323","926490","0.0-285.0-0.0","67760215","wem/bandit_single","A2VRDE2FHCBMF8","pain","1","","75","K","2","","0","1","0","","0.4293825987","false","248","","0.05051083443","main_expt","","0.188480637","","0.4293825987","","0.09552903486","","","","","",""
"32","","bandit","324","928299","0.0-286.0-0.0","67760215","wem/bandit_single","A2VRDE2FHCBMF8","pain","1","","75","K","2","","0","0","1","","0.4338924945","false","249","","0.05514480776","main_expt","","0.1718025207","","0.4338924945","","0.1087111068","","","","","",""
"55","","bandit","325","930132","0.0-287.0-0.0","67760215","wem/bandit_single","A2VRDE2FHCBMF8","pain","1","","75","K","2","","0","0","1","","0.4356531551","false","250","","0.02780796002","main_expt","","0.1377417152","","0.4356531551","","0.08296073337","","","","","",""
"448","","bandit","326","932368","0.0-288.0-0.0","67760215","wem/bandit_single","A2VRDE2FHCBMF8","pain","1","","75","K","2","","0","1","0","","0.4561881598","false","251","","0.02786711831","main_expt","","0.1623098307","","0.4561881598","","0.08988728922","","","","","",""
"49","","bandit","327","934233","0.0-289.0-0.0","67760215","wem/bandit_single","A2VRDE2FHCBMF8","pain","1","","75","K","2","","0","0","1","","0.4517263236","false","252","","0.03881205422","main_expt","","0.1702242208","","0.4517263236","","0.07043490844","","","","","",""
"6","","bandit","328","936016","0.0-290.0-0.0","67760215","wem/bandit_single","A2VRDE2FHCBMF8","pain","1","","75","K","2","","0","0","1","","0.4280730872","false","253","","0.03211176865","main_expt","","0.1571297736","","0.4280730872","","0.06648959932","","","","","",""
"348","","bandit","329","938156","0.0-291.0-0.0","67760215","wem/bandit_single","A2VRDE2FHCBMF8","pain","1","","75","K","2","","0","1","0","","0.3976691957","false","254","","0.02501863174","main_expt","","0.1311762281","","0.3976691957","","0.04750248463","","","","","",""
"105","","bandit","330","940036","0.0-292.0-0.0","67760215","wem/bandit_single","A2VRDE2FHCBMF8","pain","1","","72","H","0","img/none_selected.jpg","0","0","1","","0.03845468041","false","255","","0.03845468041","main_expt","","0.1262313745","","0.3920211634","","0.0685067328","","","","","",""
"196","","bandit","331","942014","0.0-293.0-0.0","67760215","wem/bandit_single","A2VRDE2FHCBMF8","pain","1","","72","H","0","img/none_selected.jpg","0","0","1","","0.03093107714","false","256","","0.03093107714","main_expt","","0.08888936201","","0.3802568344","","0.06106940649","","","","","",""
"26","","bandit","332","943822","0.0-294.0-0.0","67760215","wem/bandit_single","A2VRDE2FHCBMF8","pain","1","","75","K","2","","0","0","1","","0.4153547565","false","257","","0.02284381284","main_expt","","0.1016624202","","0.4153547565","","0.03925251802","","","","","",""
"35","","bandit","333","945633","0.0-295.0-0.0","67760215","wem/bandit_single","A2VRDE2FHCBMF8","pain","1","","75","K","2","","0","0","1","","0.412770775","false","258","","0.01195927332","main_expt","","0.1201960749","","0.412770775","","0.07528758783","","","","","",""
"18","","bandit","334","947430","0.0-296.0-0.0","67760215","wem/bandit_single","A2VRDE2FHCBMF8","pain","1","","74","J","1","","0","0","1","","0.09869940493","false","259","","0.009837890866","main_expt","","0.09869940493","","0.4364469878","","0.06168900656","","","","","",""
"403","","bandit","335","949615","0.0-297.0-0.0","67760215","wem/bandit_single","A2VRDE2FHCBMF8","pain","1","","76","L","3","","0","0","1","","0.05358732337","false","260","","0.01652501309","main_expt","","0.140367269","","0.4143686848","","0.05358732337","","","","","",""
"185","","bandit","336","951580","0.0-298.0-0.0","67760215","wem/bandit_single","A2VRDE2FHCBMF8","pain","1","","75","K","2","","0","0","1","","0.3932103286","false","261","","0.0246934762","main_expt","","0.107121031","","0.3932103286","","0.05974294151","","","","","",""
"379","","bandit","337","953743","0.0-299.0-0.0","67760215","wem/bandit_single","A2VRDE2FHCBMF8","pain","1","","75","K","2","","0","0","1","","0.4299042069","false","262","","0.02217338967","main_expt","","0.142880744","","0.4299042069","","0.0656558392","","","","","",""
"32","","bandit","338","955553","0.0-300.0-0.0","67760215","wem/bandit_single","A2VRDE2FHCBMF8","pain","1","","75","K","2","","0","1","0","","0.3864913748","false","263","","0.02538488248","main_expt","","0.1398656543","","0.3864913748","","0.08006927963","","","","","",""
"142","","bandit","339","957472","0.0-301.0-0.0","67760215","wem/bandit_single","A2VRDE2FHCBMF8","pain","1","","75","K","2","","0","1","0","","0.3721946297","false","264","","0.03542132602","main_expt","","0.185630342","","0.3721946297","","0.07803510261","","","","","",""
"201","","bandit","340","959454","0.0-302.0-0.0","67760215","wem/bandit_single","A2VRDE2FHCBMF8","pain","1","","74","J","1","","0","0","1","","0.1483619715","false","265","","0.03052618628","main_expt","","0.1483619715","","0.3326379545","","0.08917846028","","","","","",""
"46","","bandit","341","961329","0.0-303.0-0.0","67760215","wem/bandit_single","A2VRDE2FHCBMF8","pain","1","","76","L","3","","0","0","1","","0.1562168236","false","266","","0.02388326919","main_expt","","0.1677753502","","0.3337002386","","0.1562168236","","","","","",""
"114","","bandit","342","963243","0.0-304.0-0.0","67760215","wem/bandit_single","A2VRDE2FHCBMF8","pain","1","","75","K","2","","0","1","0","","0.3044940876","false","267","","0.01496915784","main_expt","","0.1748953786","","0.3044940876","","0.1873085091","","","","","",""
"302","","bandit","343","965331","0.0-305.0-0.0","67760215","wem/bandit_single","A2VRDE2FHCBMF8","pain","1","","76","L","3","","0","0","1","","0.1850807086","false","268","","0.01735494223","main_expt","","0.152215306","","0.2966269971","","0.1850807086","","","","","",""
"384","","bandit","344","967502","0.0-306.0-0.0","67760215","wem/bandit_single","A2VRDE2FHCBMF8","pain","1","","75","K","2","","0","0","1","","0.2617435325","false","269","","0.01365938384","main_expt","","0.1420691147","","0.2617435325","","0.1461958128","","","","","",""
"135","","bandit","345","969410","0.0-307.0-0.0","67760215","wem/bandit_single","A2VRDE2FHCBMF8","pain","1","","72","H","0","img/none_selected.jpg","0","0","1","","0.01871615964","false","270","","0.01871615964","main_expt","","0.1338049101","","0.2599280147","","0.1348565207","","","","","",""
"191","","bandit","346","971380","0.0-308.0-0.0","67760215","wem/bandit_single","A2VRDE2FHCBMF8","pain","1","","75","K","2","","0","0","1","","0.2499936179","false","271","","0.01663887187","main_expt","","0.1178923734","","0.2499936179","","0.1588166083","","","","","",""
"75","","bandit","347","973239","0.0-309.0-0.0","67760215","wem/bandit_single","A2VRDE2FHCBMF8","pain","1","","74","J","1","","0","0","1","","0.1436833609","false","272","","0.01973971225","main_expt","","0.1436833609","","0.2703142459","","0.1288650497","","","","","",""
"399","","bandit","348","975428","0.0-310.0-0.0","67760215","wem/bandit_single","A2VRDE2FHCBMF8","pain","1","","74","J","1","","0","0","1","","0.1917782062","false","273","","0.01954424634","main_expt","","0.1917782062","","0.2835249431","","0.1414039315","","","","","",""
"389","","bandit","349","977605","0.0-311.0-0.0","67760215","wem/bandit_single","A2VRDE2FHCBMF8","pain","1","","74","J","1","","0","0","1","","0.1657285368","false","274","","0.008862655739","main_expt","","0.1657285368","","0.2906451875","","0.1132613661","","","","","",""
"235","","bandit","350","979636","0.0-312.0-0.0","67760215","wem/bandit_single","A2VRDE2FHCBMF8","pain","1","","76","L","3","","0","0","1","","0.1396690899","false","275","","0.0094605031","main_expt","","0.1420329436","","0.2670480505","","0.1396690899","","","","","",""
"263","","bandit","351","981710","0.0-313.0-0.0","67760215","wem/bandit_single","A2VRDE2FHCBMF8","pain","1","","76","L","3","","0","1","0","","0.1109816737","false","276","","0.01191149084","main_expt","","0.1369756733","","0.2358592403","","0.1109816737","","","","","",""
"242","","bandit","352","983731","0.0-314.0-0.0","67760215","wem/bandit_single","A2VRDE2FHCBMF8","pain","1","","76","L","3","","0","0","1","","0.08046464388","false","277","","0.00904810236","main_expt","","0.1781068979","","0.1877967456","","0.08046464388","","","","","",""
"225","","bandit","353","985759","0.0-315.0-0.0","67760215","wem/bandit_single","A2VRDE2FHCBMF8","pain","1","","76","L","3","","0","0","1","","0.07407019324","false","278","","0.007795284796","main_expt","","0.248352092","","0.1537245983","","0.07407019324","","","","","",""
"808","","bandit","354","988356","0.0-316.0-0.0","67760215","wem/bandit_single","A2VRDE2FHCBMF8","pain","1","","74","J","1","","0","1","0","","0.263219496","false","279","","0.01747653863","main_expt","","0.263219496","","0.1662011111","","0.06478755197","","","","","",""
"78","","bandit","355","990208","0.0-317.0-0.0","67760215","wem/bandit_single","A2VRDE2FHCBMF8","pain","1","","76","L","3","","0","0","1","","0.04895059186","false","280","","0.02326096521","main_expt","","0.210776847","","0.1622625537","","0.04895059186","","","","","",""
"228","","bandit","356","992222","0.0-318.0-0.0","67760215","wem/bandit_single","A2VRDE2FHCBMF8","pain","1","","76","L","3","","0","0","1","","0.04598133094","false","281","","0.03290281633","main_expt","","0.1901401854","","0.2160365104","","0.04598133094","","","","","",""
"133","","bandit","357","994133","0.0-319.0-0.0","67760215","wem/bandit_single","A2VRDE2FHCBMF8","pain","1","","72","H","0","img/none_selected.jpg","0","0","1","","0.03647511751","false","282","","0.03647511751","main_expt","","0.1692674388","","0.2031844556","","0.0454431083","","","","","",""
"23","","bandit","358","995966","0.0-320.0-0.0","67760215","wem/bandit_single","A2VRDE2FHCBMF8","pain","1","","72","H","0","img/none_selected.jpg","0","0","1","","0.0381479171","false","283","","0.0381479171","main_expt","","0.1697823826","","0.236778666","","0.0377119091","","","","","",""
"42","","bandit","359","997785","0.0-321.0-0.0","67760215","wem/bandit_single","A2VRDE2FHCBMF8","pain","1","","75","K","2","","0","0","1","","0.2082896542","false","284","","0.04237273713","main_expt","","0.1647860582","","0.2082896542","","0.0346676025","","","","","",""
"249","","bandit","360","999816","0.0-322.0-0.0","67760215","wem/bandit_single","A2VRDE2FHCBMF8","pain","1","","75","K","2","","0","1","0","","0.1682052712","false","285","","0.08736605616","main_expt","","0.2346467376","","0.1682052712","","0.03394591187","","","","","",""
"60","","bandit","361","1001659","0.0-323.0-0.0","67760215","wem/bandit_single","A2VRDE2FHCBMF8","pain","1","","75","K","2","","0","0","1","","0.1287852917","false","286","","0.149418319","main_expt","","0.1651037306","","0.1287852917","","0.03437308726","","","","","",""
"73","","bandit","362","1003522","0.0-324.0-0.0","67760215","wem/bandit_single","A2VRDE2FHCBMF8","pain","1","","74","J","1","","0","0","1","","0.113933185","false","287","","0.2149685411","main_expt","","0.113933185","","0.0739145169","","0.043905831","","","","","",""
"49","","bandit","363","1005352","0.0-325.0-0.0","67760215","wem/bandit_single","A2VRDE2FHCBMF8","pain","1","","75","K","2","","0","0","1","","0.08295252225","false","288","","0.181398065","main_expt","","0.08260993421","","0.08295252225","","0.02064047927","","","","","",""
"200","","bandit","364","1007348","0.0-326.0-0.0","67760215","wem/bandit_single","A2VRDE2FHCBMF8","pain","1","","75","K","2","","0","1","0","","0.0479508895","false","289","","0.1523032639","main_expt","","0.07260323305","","0.0479508895","","0.0250169619","","","","","",""
"112","","bandit","365","1009253","0.0-327.0-0.0","67760215","wem/bandit_single","A2VRDE2FHCBMF8","pain","1","","75","K","2","","0","0","1","","0.05498143303","false","290","","0.1404761367","main_expt","","0.06306400378","","0.05498143303","","0.04785043425","","","","","",""
"609","","bandit","366","1011687","0.0-328.0-0.0","67760215","wem/bandit_single","A2VRDE2FHCBMF8","pain","1","","75","K","2","","0","0","1","","0.06238518006","false","291","","0.1639955189","main_expt","","0.06173149747","","0.06238518006","","0.05997729544","","","","","",""
"173","","bandit","367","1013652","0.0-329.0-0.0","67760215","wem/bandit_single","A2VRDE2FHCBMF8","pain","1","","76","L","3","","0","0","1","","0.08013724224","false","292","","0.1365824739","main_expt","","0.049421281","","0.06246846358","","0.08013724224","","","","","",""
"16","","bandit","368","1015451","0.0-330.0-0.0","67760215","wem/bandit_single","A2VRDE2FHCBMF8","pain","1","","74","J","1","","0","0","1","","0.04661139695","false","293","","0.2190436779","main_expt","","0.04661139695","","0.0635142122","","0.08257915178","","","","","",""
"768","","bandit","369","1018005","0.0-331.0-0.0","67760215","wem/bandit_single","A2VRDE2FHCBMF8","pain","1","","74","J","1","","0","0","1","","0.05266196286","false","294","","0.2961987497","main_expt","","0.05266196286","","0.1078883856","","0.07979116831","","","","","",""
"444","","bandit","370","1020253","0.0-332.0-0.0","67760215","wem/bandit_single","A2VRDE2FHCBMF8","pain","1","","75","K","2","","0","0","1","","0.1065048767","false","295","","0.3422413176","main_expt","","0.0541153793","","0.1065048767","","0.1168190604","","","","","",""
"876","","bandit","371","1022917","0.0-333.0-0.0","67760215","wem/bandit_single","A2VRDE2FHCBMF8","pain","1","","72","H","0","img/none_selected.jpg","0","0","1","","0.3023757447","false","296","","0.3023757447","main_expt","","0.03514166697","","0.1528862056","","0.1280513587","","","","","",""
