"rt","responses","trial_type","trial_index","time_elapsed","internal_node_id","subjID","study","MID","cond","drift","key_press","respCharCode","respKey","respChoiceNum","respChoice","gems","bombs","no_reward","GemPrChosen","BombPrChosen","practice","trial_counter","WinPr_0","LosePr_0","trial_label","WinPr_1","LosePr_1","WinPr_2","LosePr_2","WinPr_3","LosePr_3","Q0","Q1","Q2","gender","age","ethnicity"
"4596","{""Q0"":""A1VIP6S8H2XXH7""}","survey-text","0","4607","0.0-0.0","68401504","wem/bandit_single","A1VIP6S8H2XXH7","pain","5","","","","","","","","","","","","","","","","","","","","","","","","","","",""
"1195","","text","1","6808","0.0-1.0","68401504","wem/bandit_single","A1VIP6S8H2XXH7","pain","5","32","","","","","","","","","","","","","","","","","","","","","","","","","",""
"3465","","text","2","10275","0.0-2.0","68401504","wem/bandit_single","A1VIP6S8H2XXH7","pain","5","32","","","","","","","","","","","","","","","","","","","","","","","","","",""
"7715","","text","3","17992","0.0-3.0","68401504","wem/bandit_single","A1VIP6S8H2XXH7","pain","5","32","","","","","","","","","","","","","","","","","","","","","","","","","",""
"42501","","text","4","60497","0.0-4.0","68401504","wem/bandit_single","A1VIP6S8H2XXH7","pain","5","32","","","","","","","","","","","","","","","","","","","","","","","","","",""
"4246","","text","5","64746","0.0-5.0","68401504","wem/bandit_single","A1VIP6S8H2XXH7","pain","5","32","","","","","","","","","","","","","","","","","","","","","","","","","",""
"3544","","text","6","68292","0.0-6.0","68401504","wem/bandit_single","A1VIP6S8H2XXH7","pain","5","32","","","","","","","","","","","","","","","","","","","","","","","","","",""
"1950","","text","7","70244","0.0-7.0","68401504","wem/bandit_single","A1VIP6S8H2XXH7","pain","5","32","","","","","","","","","","","","","","","","","","","","","","","","","",""
"2045","","text","8","72291","0.0-8.0","68401504","wem/bandit_single","A1VIP6S8H2XXH7","pain","5","32","","","","","","","","","","","","","","","","","","","","","","","","","",""
"1052","","text","9","73344","0.0-9.0","68401504","wem/bandit_single","A1VIP6S8H2XXH7","pain","5","32","","","","","","","","","","","","","","","","","","","","","","","","","",""
"3151","","text","10","76497","0.0-10.0","68401504","wem/bandit_single","A1VIP6S8H2XXH7","pain","5","32","","","","","","","","","","","","","","","","","","","","","","","","","",""
"897","","text","11","77396","0.0-11.0","68401504","wem/bandit_single","A1VIP6S8H2XXH7","pain","5","32","","","","","","","","","","","","","","","","","","","","","","","","","",""
"1172","","bandit","12","80081","0.0-12.0-0.0","68401504","wem/bandit_single","A1VIP6S8H2XXH7","pain","5","","74","J","0","img/none_selected_demo.jpg","0","0","1","0","0","true","0","0","0","","","","","","","","","","","","",""
"1155","","bandit","13","83000","0.0-13.0-0.0","68401504","wem/bandit_single","A1VIP6S8H2XXH7","pain","5","","75","K","0","img/none_selected_demo.jpg","0","0","1","0","0","true","0","0","0","","","","","","","","","","","","",""
"3169","","text","14","86425","0.0-14.0","68401504","wem/bandit_single","A1VIP6S8H2XXH7","pain","5","32","","","","","","","","","","","","","","","","","","","","","","","","","",""
"923","","text","15","87349","0.0-15.0","68401504","wem/bandit_single","A1VIP6S8H2XXH7","pain","5","32","","","","","","","","","","","","","","","","","","","","","","","","","",""
"1510","","text","16","88862","0.0-16.0","68401504","wem/bandit_single","A1VIP6S8H2XXH7","pain","5","32","","","","","","","","","","","","","","","","","","","","","","","","","",""
"2748","","text","17","91612","0.0-17.0","68401504","wem/bandit_single","A1VIP6S8H2XXH7","pain","5","32","","","","","","","","","","","","","","","","","","","","","","","","","",""
"981","","bandit","18","94105","0.0-18.0-0.0","68401504","wem/bandit_single","A1VIP6S8H2XXH7","pain","5","","74","J","0","img/none_selected_demo.jpg","0","1","0","0","0.8","true","0","0","0.8","80_20_practice","0","0.2","","","","","","","","","",""
"206","","bandit","19","96079","0.0-18.0-1.0","68401504","wem/bandit_single","A1VIP6S8H2XXH7","pain","5","","74","J","0","img/none_selected_demo.jpg","0","1","0","0","0.8","true","0","0","0.8","80_20_practice","0","0.2","","","","","","","","","",""
"57","","bandit","20","97903","0.0-18.0-2.0","68401504","wem/bandit_single","A1VIP6S8H2XXH7","pain","5","","74","J","0","img/none_selected_demo.jpg","0","1","0","0","0.8","true","0","0","0.8","80_20_practice","0","0.2","","","","","","","","","",""
"38","","bandit","21","99708","0.0-18.0-3.0","68401504","wem/bandit_single","A1VIP6S8H2XXH7","pain","5","","74","J","0","img/none_selected_demo.jpg","0","1","0","0","0.8","true","0","0","0.8","80_20_practice","0","0.2","","","","","","","","","",""
"2","","bandit","22","101478","0.0-18.0-4.0","68401504","wem/bandit_single","A1VIP6S8H2XXH7","pain","5","","74","J","0","img/none_selected_demo.jpg","0","1","0","0","0.8","true","0","0","0.8","80_20_practice","0","0.2","","","","","","","","","",""
"276","","bandit","23","103521","0.0-18.0-5.0","68401504","wem/bandit_single","A1VIP6S8H2XXH7","pain","5","","74","J","0","img/none_selected_demo.jpg","0","1","0","0","0.8","true","0","0","0.8","80_20_practice","0","0.2","","","","","","","","","",""
"70","","bandit","24","105359","0.0-18.0-6.0","68401504","wem/bandit_single","A1VIP6S8H2XXH7","pain","5","","74","J","0","img/none_selected_demo.jpg","0","1","0","0","0.8","true","0","0","0.8","80_20_practice","0","0.2","","","","","","","","","",""
"219","","bandit","25","107343","0.0-18.0-7.0","68401504","wem/bandit_single","A1VIP6S8H2XXH7","pain","5","","74","J","0","img/none_selected_demo.jpg","0","1","0","0","0.8","true","0","0","0.8","80_20_practice","0","0.2","","","","","","","","","",""
"85","","bandit","26","109190","0.0-18.0-8.0","68401504","wem/bandit_single","A1VIP6S8H2XXH7","pain","5","","74","J","0","img/none_selected_demo.jpg","0","0","1","0","0.8","true","0","0","0.8","80_20_practice","0","0.2","","","","","","","","","",""
"94","","bandit","27","111042","0.0-18.0-9.0","68401504","wem/bandit_single","A1VIP6S8H2XXH7","pain","5","","74","J","0","img/none_selected_demo.jpg","0","1","0","0","0.8","true","0","0","0.8","80_20_practice","0","0.2","","","","","","","","","",""
"32","","bandit","28","112837","0.0-18.0-10.0","68401504","wem/bandit_single","A1VIP6S8H2XXH7","pain","5","","74","J","0","img/none_selected_demo.jpg","0","1","0","0","0.8","true","0","0","0.8","80_20_practice","0","0.2","","","","","","","","","",""
"2","","bandit","29","114604","0.0-18.0-11.0","68401504","wem/bandit_single","A1VIP6S8H2XXH7","pain","5","","74","J","0","img/none_selected_demo.jpg","0","0","1","0","0.8","true","0","0","0.8","80_20_practice","0","0.2","","","","","","","","","",""
"79","","bandit","30","116444","0.0-18.0-12.0","68401504","wem/bandit_single","A1VIP6S8H2XXH7","pain","5","","74","J","0","img/none_selected_demo.jpg","0","1","0","0","0.8","true","0","0","0.8","80_20_practice","0","0.2","","","","","","","","","",""
"61","","bandit","31","118273","0.0-18.0-13.0","68401504","wem/bandit_single","A1VIP6S8H2XXH7","pain","5","","74","J","0","img/none_selected_demo.jpg","0","1","0","0","0.8","true","0","0","0.8","80_20_practice","0","0.2","","","","","","","","","",""
"45","","bandit","32","120083","0.0-18.0-14.0","68401504","wem/bandit_single","A1VIP6S8H2XXH7","pain","5","","74","J","0","img/none_selected_demo.jpg","0","1","0","0","0.8","true","0","0","0.8","80_20_practice","0","0.2","","","","","","","","","",""
"16","","bandit","33","121864","0.0-18.0-15.0","68401504","wem/bandit_single","A1VIP6S8H2XXH7","pain","5","","75","K","1","","0","0","1","0","0.2","true","0","0","0.8","80_20_practice","0","0.2","","","","","","","","","",""
"0","","bandit","34","123631","0.0-18.0-16.0","68401504","wem/bandit_single","A1VIP6S8H2XXH7","pain","5","","74","J","0","img/none_selected_demo.jpg","0","1","0","0","0.8","true","0","0","0.8","80_20_practice","0","0.2","","","","","","","","","",""
"40","","bandit","35","125436","0.0-18.0-17.0","68401504","wem/bandit_single","A1VIP6S8H2XXH7","pain","5","","74","J","0","img/none_selected_demo.jpg","0","1","0","0","0.8","true","0","0","0.8","80_20_practice","0","0.2","","","","","","","","","",""
"897","","bandit","36","128095","0.0-18.0-18.0","68401504","wem/bandit_single","A1VIP6S8H2XXH7","pain","5","","74","J","0","img/none_selected_demo.jpg","0","1","0","0","0.8","true","0","0","0.8","80_20_practice","0","0.2","","","","","","","","","",""
"413","","bandit","37","130273","0.0-18.0-19.0","68401504","wem/bandit_single","A1VIP6S8H2XXH7","pain","5","","74","J","0","img/none_selected_demo.jpg","0","0","1","0","0.8","true","0","0","0.8","80_20_practice","0","0.2","","","","","","","","","",""
"3630","","text","38","134160","0.0-19.0","68401504","wem/bandit_single","A1VIP6S8H2XXH7","pain","5","32","","","","","","","","","","","","","","","","","","","","","","","","","",""
"1441","","bandit","39","137111","0.0-20.0-0.0","68401504","wem/bandit_single","A1VIP6S8H2XXH7","pain","5","","74","J","0","img/none_selected_demo.jpg","0","0","1","0","0","true","0","0","0","","0","0","","","","","","","","","",""
"2523","","text","40","139890","0.0-21.0","68401504","wem/bandit_single","A1VIP6S8H2XXH7","pain","5","32","","","","","","","","","","","","","","","","","","","","","","","","","",""
"1849","","text","41","141743","0.0-22.0","68401504","wem/bandit_single","A1VIP6S8H2XXH7","pain","5","32","","","","","","","","","","","","","","","","","","","","","","","","","",""
"2327","","text","42","144073","0.0-23.0","68401504","wem/bandit_single","A1VIP6S8H2XXH7","pain","5","32","","","","","","","","","","","","","","","","","","","","","","","","","",""
"2196","","text","43","146274","0.0-24.0","68401504","wem/bandit_single","A1VIP6S8H2XXH7","pain","5","32","","","","","","","","","","","","","","","","","","","","","","","","","",""
"4827","","text","44","151105","0.0-25.0","68401504","wem/bandit_single","A1VIP6S8H2XXH7","pain","5","32","","","","","","","","","","","","","","","","","","","","","","","","","",""
"1629","","text","45","152737","0.0-26.0","68401504","wem/bandit_single","A1VIP6S8H2XXH7","pain","5","32","","","","","","","","","","","","","","","","","","","","","","","","","",""
"2611","","text","46","155351","0.0-27.0","68401504","wem/bandit_single","A1VIP6S8H2XXH7","pain","5","32","","","","","","","","","","","","","","","","","","","","","","","","","",""
"1627","","text","47","156981","0.0-28.0","68401504","wem/bandit_single","A1VIP6S8H2XXH7","pain","5","32","","","","","","","","","","","","","","","","","","","","","","","","","",""
"2576","","text","48","159561","0.0-29.0","68401504","wem/bandit_single","A1VIP6S8H2XXH7","pain","5","32","","","","","","","","","","","","","","","","","","","","","","","","","",""
"1181","","text","49","160745","0.0-30.0","68401504","wem/bandit_single","A1VIP6S8H2XXH7","pain","5","32","","","","","","","","","","","","","","","","","","","","","","","","","",""
"4713","","text","50","165460","0.0-31.0","68401504","wem/bandit_single","A1VIP6S8H2XXH7","pain","5","32","","","","","","","","","","","","","","","","","","","","","","","","","",""
"623","","bandit","51","167598","0.0-32.0-0.0","68401504","wem/bandit_single","A1VIP6S8H2XXH7","pain","5","","74","J","1","","0","0","1","0","0.2","true","0","0","0.8","full_practice","0","0.2","0","0.6","0","0.2","","","","","",""
"281","","bandit","52","169641","0.0-32.0-1.0","68401504","wem/bandit_single","A1VIP6S8H2XXH7","pain","5","","72","H","0","img/none_selected.jpg","0","0","1","0","0.8","true","0","0","0.8","full_practice","0","0.2","0","0.6","0","0.2","","","","","",""
"126","","bandit","53","171536","0.0-32.0-2.0","68401504","wem/bandit_single","A1VIP6S8H2XXH7","pain","5","","75","K","2","","0","0","1","0","0.6","true","0","0","0.8","full_practice","0","0.2","0","0.6","0","0.2","","","","","",""
"605","","bandit","54","173911","0.0-32.0-3.0","68401504","wem/bandit_single","A1VIP6S8H2XXH7","pain","5","","76","L","3","","0","0","1","0","0.2","true","0","0","0.8","full_practice","0","0.2","0","0.6","0","0.2","","","","","",""
"99","","bandit","55","175774","0.0-32.0-4.0","68401504","wem/bandit_single","A1VIP6S8H2XXH7","pain","5","","75","K","2","","0","1","0","0","0.6","true","0","0","0.8","full_practice","0","0.2","0","0.6","0","0.2","","","","","",""
"52","","bandit","56","177588","0.0-32.0-5.0","68401504","wem/bandit_single","A1VIP6S8H2XXH7","pain","5","","75","K","2","","0","0","1","0","0.6","true","0","0","0.8","full_practice","0","0.2","0","0.6","0","0.2","","","","","",""
"307","","bandit","57","179658","0.0-32.0-6.0","68401504","wem/bandit_single","A1VIP6S8H2XXH7","pain","5","","75","K","2","","0","0","1","0","0.6","true","0","0","0.8","full_practice","0","0.2","0","0.6","0","0.2","","","","","",""
"26","","bandit","58","181446","0.0-32.0-7.0","68401504","wem/bandit_single","A1VIP6S8H2XXH7","pain","5","","74","J","1","","0","1","0","0","0.2","true","0","0","0.8","full_practice","0","0.2","0","0.6","0","0.2","","","","","",""
"41","","bandit","59","183250","0.0-32.0-8.0","68401504","wem/bandit_single","A1VIP6S8H2XXH7","pain","5","","74","J","1","","0","0","1","0","0.2","true","0","0","0.8","full_practice","0","0.2","0","0.6","0","0.2","","","","","",""
"87","","bandit","60","185103","0.0-32.0-9.0","68401504","wem/bandit_single","A1VIP6S8H2XXH7","pain","5","","74","J","1","","0","0","1","0","0.2","true","0","0","0.8","full_practice","0","0.2","0","0.6","0","0.2","","","","","",""
"280","","bandit","61","187154","0.0-32.0-10.0","68401504","wem/bandit_single","A1VIP6S8H2XXH7","pain","5","","72","H","0","img/none_selected.jpg","0","1","0","0","0.8","true","0","0","0.8","full_practice","0","0.2","0","0.6","0","0.2","","","","","",""
"261","","bandit","62","189184","0.0-32.0-11.0","68401504","wem/bandit_single","A1VIP6S8H2XXH7","pain","5","","72","H","0","img/none_selected.jpg","0","1","0","0","0.8","true","0","0","0.8","full_practice","0","0.2","0","0.6","0","0.2","","","","","",""
"74","","bandit","63","191025","0.0-32.0-12.0","68401504","wem/bandit_single","A1VIP6S8H2XXH7","pain","5","","72","H","0","img/none_selected.jpg","0","1","0","0","0.8","true","0","0","0.8","full_practice","0","0.2","0","0.6","0","0.2","","","","","",""
"146","","bandit","64","192939","0.0-32.0-13.0","68401504","wem/bandit_single","A1VIP6S8H2XXH7","pain","5","","72","H","0","img/none_selected.jpg","0","1","0","0","0.8","true","0","0","0.8","full_practice","0","0.2","0","0.6","0","0.2","","","","","",""
"60","","bandit","65","194768","0.0-32.0-14.0","68401504","wem/bandit_single","A1VIP6S8H2XXH7","pain","5","","72","H","0","img/none_selected.jpg","0","0","1","0","0.8","true","0","0","0.8","full_practice","0","0.2","0","0.6","0","0.2","","","","","",""
"167","","bandit","66","196702","0.0-32.0-15.0","68401504","wem/bandit_single","A1VIP6S8H2XXH7","pain","5","","72","H","0","img/none_selected.jpg","0","1","0","0","0.8","true","0","0","0.8","full_practice","0","0.2","0","0.6","0","0.2","","","","","",""
"83","","bandit","67","198545","0.0-32.0-16.0","68401504","wem/bandit_single","A1VIP6S8H2XXH7","pain","5","","72","H","0","img/none_selected.jpg","0","1","0","0","0.8","true","0","0","0.8","full_practice","0","0.2","0","0.6","0","0.2","","","","","",""
"189","","bandit","68","200504","0.0-32.0-17.0","68401504","wem/bandit_single","A1VIP6S8H2XXH7","pain","5","","72","H","0","img/none_selected.jpg","0","0","1","0","0.8","true","0","0","0.8","full_practice","0","0.2","0","0.6","0","0.2","","","","","",""
"34","","bandit","69","202304","0.0-32.0-18.0","68401504","wem/bandit_single","A1VIP6S8H2XXH7","pain","5","","72","H","0","img/none_selected.jpg","0","1","0","0","0.8","true","0","0","0.8","full_practice","0","0.2","0","0.6","0","0.2","","","","","",""
"14","","bandit","70","204083","0.0-32.0-19.0","68401504","wem/bandit_single","A1VIP6S8H2XXH7","pain","5","","72","H","0","img/none_selected.jpg","0","1","0","0","0.8","true","0","0","0.8","full_practice","0","0.2","0","0.6","0","0.2","","","","","",""
"1894","","text","71","206238","0.0-33.0","68401504","wem/bandit_single","A1VIP6S8H2XXH7","pain","5","32","","","","","","","","","","","","","","","","","","","","","","","","","",""
"5604","","text","72","212846","0.0-34.0","68401504","wem/bandit_single","A1VIP6S8H2XXH7","pain","5","32","","","","","","","","","","","","","","","","","","","","","","","","","",""
"2456","","text","73","215306","0.0-35.0","68401504","wem/bandit_single","A1VIP6S8H2XXH7","pain","5","32","","","","","","","","","","","","","","","","","","","","","","","","","",""
"2834","","text","74","218144","0.0-36.0","68401504","wem/bandit_single","A1VIP6S8H2XXH7","pain","5","32","","","","","","","","","","","","","","","","","","","","","","","","","",""
"2730","","text","75","220878","0.0-37.0","68401504","wem/bandit_single","A1VIP6S8H2XXH7","pain","5","32","","","","","","","","","","","","","","","","","","","","","","","","","",""
"1169","","bandit","76","223557","0.0-38.0-0.0","68401504","wem/bandit_single","A1VIP6S8H2XXH7","pain","5","","72","H","0","img/none_selected.jpg","0","0","1","","0.04962883862","false","1","","0.04962883862","main_expt","","0.4657241486","","0.3811303016","","0.1478184891","","","","","",""
"13631","","bandit","77","238952","0.0-39.0-0.0","68401504","wem/bandit_single","A1VIP6S8H2XXH7","pain","5","","72","H","0","img/none_selected.jpg","0","0","1","","0.03569255153","false","2","","0.03569255153","main_expt","","0.4660849779","","0.350111504","","0.2081060842","","","","","",""
"32","","bandit","78","240749","0.0-40.0-0.0","68401504","wem/bandit_single","A1VIP6S8H2XXH7","pain","5","","74","J","1","","0","1","0","","0.4687539887","false","3","","0.02901958263","main_expt","","0.4687539887","","0.3436486883","","0.1722167697","","","","","",""
"172","","bandit","79","242686","0.0-41.0-0.0","68401504","wem/bandit_single","A1VIP6S8H2XXH7","pain","5","","74","J","1","","0","1","0","","0.48401473","false","4","","0.04894390993","main_expt","","0.48401473","","0.3419997506","","0.1424145416","","","","","",""
"883","","bandit","80","245339","0.0-42.0-0.0","68401504","wem/bandit_single","A1VIP6S8H2XXH7","pain","5","","74","J","1","","0","1","0","","0.4755123677","false","5","","0.04206610475","main_expt","","0.4755123677","","0.3692180445","","0.1446667298","","","","","",""
"2259","","bandit","81","249360","0.0-43.0-0.0","68401504","wem/bandit_single","A1VIP6S8H2XXH7","pain","5","","74","J","1","","0","1","0","","0.4802482158","false","6","","0.04292771587","main_expt","","0.4802482158","","0.3602257359","","0.1447199692","","","","","",""
"314","","bandit","82","251440","0.0-44.0-0.0","68401504","wem/bandit_single","A1VIP6S8H2XXH7","pain","5","","74","J","1","","0","0","1","","0.4780438684","false","7","","0.06035830385","main_expt","","0.4780438684","","0.3568498895","","0.1001258446","","","","","",""
"108","","bandit","83","253315","0.0-45.0-0.0","68401504","wem/bandit_single","A1VIP6S8H2XXH7","pain","5","","74","J","1","","0","0","1","","0.4575173044","false","8","","0.09727842944","main_expt","","0.4575173044","","0.294604339","","0.1244671667","","","","","",""
"48","","bandit","84","255128","0.0-46.0-0.0","68401504","wem/bandit_single","A1VIP6S8H2XXH7","pain","5","","75","K","2","","0","0","1","","0.3802768622","false","9","","0.07952196982","main_expt","","0.4525933246","","0.3802768622","","0.1293804987","","","","","",""
"163","","bandit","85","257056","0.0-47.0-0.0","68401504","wem/bandit_single","A1VIP6S8H2XXH7","pain","5","","76","L","3","","0","0","1","","0.1606810952","false","10","","0.1049852556","main_expt","","0.4476408152","","0.3530595227","","0.1606810952","","","","","",""
"322","","bandit","86","259145","0.0-48.0-0.0","68401504","wem/bandit_single","A1VIP6S8H2XXH7","pain","5","","72","H","0","img/none_selected.jpg","0","0","1","","0.1118692116","false","11","","0.1118692116","main_expt","","0.4484644352","","0.358648576","","0.1585385462","","","","","",""
"77","","bandit","87","260990","0.0-49.0-0.0","68401504","wem/bandit_single","A1VIP6S8H2XXH7","pain","5","","75","K","2","","0","0","1","","0.3382469396","false","12","","0.1270372311","main_expt","","0.4466341879","","0.3382469396","","0.1492634201","","","","","",""
"16","","bandit","88","262772","0.0-50.0-0.0","68401504","wem/bandit_single","A1VIP6S8H2XXH7","pain","5","","74","J","1","","0","1","0","","0.4642511008","false","13","","0.1278892577","main_expt","","0.4642511008","","0.3092021245","","0.1106465011","","","","","",""
"228","","bandit","89","264763","0.0-51.0-0.0","68401504","wem/bandit_single","A1VIP6S8H2XXH7","pain","5","","74","J","1","","0","0","1","","0.4615970843","false","14","","0.1024725346","main_expt","","0.4615970843","","0.3532484784","","0.1232346967","","","","","",""
"302","","bandit","90","266832","0.0-52.0-0.0","68401504","wem/bandit_single","A1VIP6S8H2XXH7","pain","5","","74","J","1","","0","1","0","","0.4692442536","false","15","","0.1234109619","main_expt","","0.4692442536","","0.3371384495","","0.1323340596","","","","","",""
"261","","bandit","91","268862","0.0-53.0-0.0","68401504","wem/bandit_single","A1VIP6S8H2XXH7","pain","5","","74","J","1","","0","0","1","","0.4755425263","false","16","","0.1360550169","main_expt","","0.4755425263","","0.3282622062","","0.1410223318","","","","","",""
"149","","bandit","92","270774","0.0-54.0-0.0","68401504","wem/bandit_single","A1VIP6S8H2XXH7","pain","5","","74","J","1","","0","1","0","","0.4828633911","false","17","","0.1070219664","main_expt","","0.4828633911","","0.3032164303","","0.1498636582","","","","","",""
"276","","bandit","93","272821","0.0-55.0-0.0","68401504","wem/bandit_single","A1VIP6S8H2XXH7","pain","5","","74","J","1","","0","0","1","","0.4784959143","false","18","","0.09318331203","main_expt","","0.4784959143","","0.2834034058","","0.1132842199","","","","","",""
"207","","bandit","94","274792","0.0-56.0-0.0","68401504","wem/bandit_single","A1VIP6S8H2XXH7","pain","5","","75","K","2","","0","0","1","","0.376157017","false","19","","0.08644374764","main_expt","","0.4645747316","","0.376157017","","0.08554013857","","","","","",""
"81","","bandit","95","276641","0.0-57.0-0.0","68401504","wem/bandit_single","A1VIP6S8H2XXH7","pain","5","","76","L","3","","0","0","1","","0.1176407844","false","20","","0.1066513301","main_expt","","0.4441513352","","0.3718288413","","0.1176407844","","","","","",""
"602","","bandit","96","279010","0.0-58.0-0.0","68401504","wem/bandit_single","A1VIP6S8H2XXH7","pain","5","","74","J","1","","0","0","1","","0.4281495132","false","21","","0.1143532382","main_expt","","0.4281495132","","0.3755251961","","0.09701455477","","","","","",""
"340","","bandit","97","281116","0.0-59.0-0.0","68401504","wem/bandit_single","A1VIP6S8H2XXH7","pain","5","","72","H","0","img/none_selected.jpg","0","0","1","","0.111858438","false","22","","0.111858438","main_expt","","0.4374563715","","0.3536603278","","0.08683592795","","","","","",""
"94","","bandit","98","282976","0.0-60.0-0.0","68401504","wem/bandit_single","A1VIP6S8H2XXH7","pain","5","","74","J","1","","0","0","1","","0.4408316507","false","23","","0.09088087914","main_expt","","0.4408316507","","0.3908816919","","0.1062952262","","","","","",""
"66","","bandit","99","284815","0.0-61.0-0.0","68401504","wem/bandit_single","A1VIP6S8H2XXH7","pain","5","","72","H","0","img/none_selected.jpg","0","0","1","","0.1045917755","false","24","","0.1045917755","main_expt","","0.4249736282","","0.3639752867","","0.1320295984","","","","","",""
"37","","bandit","100","286620","0.0-62.0-0.0","68401504","wem/bandit_single","A1VIP6S8H2XXH7","pain","5","","75","K","2","","0","0","1","","0.3569796848","false","25","","0.107118439","main_expt","","0.4542404639","","0.3569796848","","0.18562956","","","","","",""
"395","","bandit","101","288786","0.0-63.0-0.0","68401504","wem/bandit_single","A1VIP6S8H2XXH7","pain","5","","76","L","3","","0","0","1","","0.1589772959","false","26","","0.08847958778","main_expt","","0.4707756245","","0.3466804264","","0.1589772959","","","","","",""
"6","","bandit","102","290552","0.0-64.0-0.0","68401504","wem/bandit_single","A1VIP6S8H2XXH7","pain","5","","75","K","2","","0","0","1","","0.3487144915","false","27","","0.105958259","main_expt","","0.4492807888","","0.3487144915","","0.1361305173","","","","","",""
"138","","bandit","103","292449","0.0-65.0-0.0","68401504","wem/bandit_single","A1VIP6S8H2XXH7","pain","5","","76","L","3","","0","0","1","","0.1517112547","false","28","","0.09976229861","main_expt","","0.4630254912","","0.31872733","","0.1517112547","","","","","",""
"226","","bandit","104","294445","0.0-66.0-0.0","68401504","wem/bandit_single","A1VIP6S8H2XXH7","pain","5","","72","H","0","img/none_selected.jpg","0","0","1","","0.1117783291","false","29","","0.1117783291","main_expt","","0.4582460064","","0.3351256986","","0.1207272987","","","","","",""
"271","","bandit","105","296483","0.0-67.0-0.0","68401504","wem/bandit_single","A1VIP6S8H2XXH7","pain","5","","74","J","1","","0","1","0","","0.44398484","false","30","","0.104708879","main_expt","","0.44398484","","0.3165147827","","0.06619286558","","","","","",""
"199","","bandit","106","298447","0.0-68.0-0.0","68401504","wem/bandit_single","A1VIP6S8H2XXH7","pain","5","","74","J","1","","0","1","0","","0.4662875842","false","31","","0.1168740313","main_expt","","0.4662875842","","0.3587164307","","0.08172424971","","","","","",""
"334","","bandit","107","300547","0.0-69.0-0.0","68401504","wem/bandit_single","A1VIP6S8H2XXH7","pain","5","","74","J","1","","0","1","0","","0.4823207571","false","32","","0.1193100679","main_expt","","0.4823207571","","0.384091524","","0.1118972321","","","","","",""
"169","","bandit","108","302480","0.0-70.0-0.0","68401504","wem/bandit_single","A1VIP6S8H2XXH7","pain","5","","74","J","1","","0","0","1","","0.4887640326","false","33","","0.1160378653","main_expt","","0.4887640326","","0.3410562849","","0.07764728595","","","","","",""
"150","","bandit","109","304395","0.0-71.0-0.0","68401504","wem/bandit_single","A1VIP6S8H2XXH7","pain","5","","74","J","1","","0","0","1","","0.4871413525","false","34","","0.1240203414","main_expt","","0.4871413525","","0.3772037995","","0.1021677232","","","","","",""
"236","","bandit","110","306399","0.0-72.0-0.0","68401504","wem/bandit_single","A1VIP6S8H2XXH7","pain","5","","74","J","1","","0","0","1","","0.472467875","false","35","","0.1568527985","main_expt","","0.472467875","","0.3601610849","","0.09263198197","","","","","",""
"255","","bandit","111","308420","0.0-73.0-0.0","68401504","wem/bandit_single","A1VIP6S8H2XXH7","pain","5","","74","J","1","","0","1","0","","0.4801988656","false","36","","0.1887398002","main_expt","","0.4801988656","","0.3199141994","","0.1395706987","","","","","",""
"107","","bandit","112","310294","0.0-74.0-0.0","68401504","wem/bandit_single","A1VIP6S8H2XXH7","pain","5","","74","J","1","","0","1","0","","0.4658101737","false","37","","0.1567271146","main_expt","","0.4658101737","","0.3022128767","","0.1166343238","","","","","",""
"51","","bandit","113","312111","0.0-75.0-0.0","68401504","wem/bandit_single","A1VIP6S8H2XXH7","pain","5","","74","J","1","","0","1","0","","0.4725237643","false","38","","0.1213003185","main_expt","","0.4725237643","","0.220841548","","0.1344783462","","","","","",""
"150","","bandit","114","314026","0.0-76.0-0.0","68401504","wem/bandit_single","A1VIP6S8H2XXH7","pain","5","","74","J","1","","0","1","0","","0.4863678522","false","39","","0.1129188575","main_expt","","0.4863678522","","0.2273815274","","0.1132701409","","","","","",""
"209","","bandit","115","316001","0.0-77.0-0.0","68401504","wem/bandit_single","A1VIP6S8H2XXH7","pain","5","","74","J","1","","0","1","0","","0.4756100127","false","40","","0.1490040727","main_expt","","0.4756100127","","0.2216047912","","0.1269330716","","","","","",""
"207","","bandit","116","317975","0.0-78.0-0.0","68401504","wem/bandit_single","A1VIP6S8H2XXH7","pain","5","","74","J","1","","0","1","0","","0.4644843691","false","41","","0.20555416","main_expt","","0.4644843691","","0.1790357129","","0.1043764639","","","","","",""
"377","","bandit","117","320116","0.0-79.0-0.0","68401504","wem/bandit_single","A1VIP6S8H2XXH7","pain","5","","74","J","1","","0","1","0","","0.4595487669","false","42","","0.2458082757","main_expt","","0.4595487669","","0.1124402831","","0.123259557","","","","","",""
"234","","bandit","118","322119","0.0-80.0-0.0","68401504","wem/bandit_single","A1VIP6S8H2XXH7","pain","5","","74","J","1","","0","0","1","","0.4598563523","false","43","","0.1980967925","main_expt","","0.4598563523","","0.1309909921","","0.1523094635","","","","","",""
"307","","bandit","119","324193","0.0-81.0-0.0","68401504","wem/bandit_single","A1VIP6S8H2XXH7","pain","5","","74","J","1","","0","1","0","","0.4444935065","false","44","","0.2011817551","main_expt","","0.4444935065","","0.1620245532","","0.1438901127","","","","","",""
"315","","bandit","120","326276","0.0-82.0-0.0","68401504","wem/bandit_single","A1VIP6S8H2XXH7","pain","5","","74","J","1","","0","0","1","","0.4201454787","false","45","","0.1908172103","main_expt","","0.4201454787","","0.1962154431","","0.1381896233","","","","","",""
"205","","bandit","121","328248","0.0-83.0-0.0","68401504","wem/bandit_single","A1VIP6S8H2XXH7","pain","5","","74","J","1","","0","1","0","","0.4420567968","false","46","","0.1682898959","main_expt","","0.4420567968","","0.1548021256","","0.08118013389","","","","","",""
"303","","bandit","122","330317","0.0-84.0-0.0","68401504","wem/bandit_single","A1VIP6S8H2XXH7","pain","5","","74","J","1","","0","1","0","","0.4454115659","false","47","","0.114950809","main_expt","","0.4454115659","","0.155425446","","0.08279503272","","","","","",""
"59","","bandit","123","332141","0.0-85.0-0.0","68401504","wem/bandit_single","A1VIP6S8H2XXH7","pain","5","","74","J","1","","0","0","1","","0.4409121906","false","48","","0.1231508501","main_expt","","0.4409121906","","0.2368850053","","0.09757227309","","","","","",""
"268","","bandit","124","334179","0.0-86.0-0.0","68401504","wem/bandit_single","A1VIP6S8H2XXH7","pain","5","","74","J","1","","0","1","0","","0.4640555105","false","49","","0.1264715503","main_expt","","0.4640555105","","0.1712995484","","0.1407466139","","","","","",""
"62","","bandit","125","336011","0.0-87.0-0.0","68401504","wem/bandit_single","A1VIP6S8H2XXH7","pain","5","","74","J","1","","0","0","1","","0.4619625264","false","50","","0.1119267987","main_expt","","0.4619625264","","0.2371897999","","0.1128896644","","","","","",""
"76","","bandit","126","337849","0.0-88.0-0.0","68401504","wem/bandit_single","A1VIP6S8H2XXH7","pain","5","","74","J","1","","0","1","0","","0.4686499241","false","51","","0.1192285775","main_expt","","0.4686499241","","0.2520952739","","0.1292206793","","","","","",""
"192","","bandit","127","339808","0.0-89.0-0.0","68401504","wem/bandit_single","A1VIP6S8H2XXH7","pain","5","","74","J","1","","0","0","1","","0.4721244997","false","52","","0.1536714506","main_expt","","0.4721244997","","0.2201249325","","0.117204758","","","","","",""
"97","","bandit","128","341672","0.0-90.0-0.0","68401504","wem/bandit_single","A1VIP6S8H2XXH7","pain","5","","74","J","1","","0","1","0","","0.4776765754","false","53","","0.1817289366","main_expt","","0.4776765754","","0.2019083534","","0.1180232867","","","","","",""
"385","","bandit","129","343820","0.0-91.0-0.0","68401504","wem/bandit_single","A1VIP6S8H2XXH7","pain","5","","74","J","1","","0","0","1","","0.4788042678","false","54","","0.1664376657","main_expt","","0.4788042678","","0.2133100918","","0.09503139185","","","","","",""
"260","","bandit","130","345846","0.0-92.0-0.0","68401504","wem/bandit_single","A1VIP6S8H2XXH7","pain","5","","74","J","1","","0","1","0","","0.4852168201","false","55","","0.1219288973","main_expt","","0.4852168201","","0.2210295122","","0.1238025275","","","","","",""
"566","","bandit","131","348177","0.0-93.0-0.0","68401504","wem/bandit_single","A1VIP6S8H2XXH7","pain","5","","74","J","1","","0","1","0","","0.4860946669","false","56","","0.1392062569","main_expt","","0.4860946669","","0.1728424853","","0.1544257673","","","","","",""
"201","","bandit","132","350147","0.0-94.0-0.0","68401504","wem/bandit_single","A1VIP6S8H2XXH7","pain","5","","74","J","1","","0","0","1","","0.4859962979","false","57","","0.2060247316","main_expt","","0.4859962979","","0.2301797189","","0.1492478473","","","","","",""
"170","","bandit","133","352083","0.0-95.0-0.0","68401504","wem/bandit_single","A1VIP6S8H2XXH7","pain","5","","74","J","1","","0","0","1","","0.4751013025","false","58","","0.1723567799","main_expt","","0.4751013025","","0.2820892606","","0.1392181034","","","","","",""
"134","","bandit","134","353985","0.0-96.0-0.0","68401504","wem/bandit_single","A1VIP6S8H2XXH7","pain","5","","75","K","2","","0","0","1","","0.308641684","false","59","","0.16345501","main_expt","","0.4816883425","","0.308641684","","0.1854998728","","","","","",""
"451","","bandit","135","356201","0.0-97.0-0.0","68401504","wem/bandit_single","A1VIP6S8H2XXH7","pain","5","","74","J","1","","0","1","0","","0.4846541976","false","60","","0.1552759559","main_expt","","0.4846541976","","0.3012287428","","0.1306651225","","","","","",""
"286","","bandit","136","358251","0.0-98.0-0.0","68401504","wem/bandit_single","A1VIP6S8H2XXH7","pain","5","","74","J","1","","0","1","0","","0.4848840061","false","61","","0.1652193455","main_expt","","0.4848840061","","0.263166603","","0.1567024934","","","","","",""
"108","","bandit","137","360124","0.0-99.0-0.0","68401504","wem/bandit_single","A1VIP6S8H2XXH7","pain","5","","74","J","1","","0","1","0","","0.4856292504","false","62","","0.1813222976","main_expt","","0.4856292504","","0.2428038775","","0.1622246099","","","","","",""
"250","","bandit","138","362141","0.0-100.0-0.0","68401504","wem/bandit_single","A1VIP6S8H2XXH7","pain","5","","74","J","1","","0","0","1","","0.4865153319","false","63","","0.1727004114","main_expt","","0.4865153319","","0.2843805899","","0.2196770705","","","","","",""
"2","","bandit","139","363911","0.0-101.0-0.0","68401504","wem/bandit_single","A1VIP6S8H2XXH7","pain","5","","76","L","3","","0","0","1","","0.218319606","false","64","","0.2105999223","main_expt","","0.4874146034","","0.2895992306","","0.218319606","","","","","",""
"363","","bandit","140","366042","0.0-102.0-0.0","68401504","wem/bandit_single","A1VIP6S8H2XXH7","pain","5","","74","J","1","","0","1","0","","0.4781609215","false","65","","0.240225816","main_expt","","0.4781609215","","0.3847688","","0.2278721313","","","","","",""
"362","","bandit","141","368174","0.0-103.0-0.0","68401504","wem/bandit_single","A1VIP6S8H2XXH7","pain","5","","74","J","1","","0","1","0","","0.4848714892","false","66","","0.2924754864","main_expt","","0.4848714892","","0.4083751038","","0.1599393353","","","","","",""
"400","","bandit","142","370344","0.0-104.0-0.0","68401504","wem/bandit_single","A1VIP6S8H2XXH7","pain","5","","74","J","1","","0","1","0","","0.4872204599","false","67","","0.2363072125","main_expt","","0.4872204599","","0.4036944211","","0.1647045883","","","","","",""
"311","","bandit","143","372422","0.0-105.0-0.0","68401504","wem/bandit_single","A1VIP6S8H2XXH7","pain","5","","74","J","1","","0","0","1","","0.4749956953","false","68","","0.264359064","main_expt","","0.4749956953","","0.3910329043","","0.1442333851","","","","","",""
"343","","bandit","144","374536","0.0-106.0-0.0","68401504","wem/bandit_single","A1VIP6S8H2XXH7","pain","5","","74","J","1","","0","1","0","","0.4776093432","false","69","","0.2755227552","main_expt","","0.4776093432","","0.3438989047","","0.1757685765","","","","","",""
"504","","bandit","145","376810","0.0-107.0-0.0","68401504","wem/bandit_single","A1VIP6S8H2XXH7","pain","5","","74","J","1","","0","0","1","","0.4550183311","false","70","","0.2978365432","main_expt","","0.4550183311","","0.3282106587","","0.1995177274","","","","","",""
"244","","bandit","146","378819","0.0-108.0-0.0","68401504","wem/bandit_single","A1VIP6S8H2XXH7","pain","5","","74","J","1","","0","0","1","","0.4466984445","false","71","","0.2788476436","main_expt","","0.4466984445","","0.3085852942","","0.2429348876","","","","","",""
"91","","bandit","147","380674","0.0-109.0-0.0","68401504","wem/bandit_single","A1VIP6S8H2XXH7","pain","5","","74","J","1","","0","0","1","","0.453817204","false","72","","0.2983184618","main_expt","","0.453817204","","0.317066931","","0.2134703404","","","","","",""
"67","","bandit","148","382512","0.0-110.0-0.0","68401504","wem/bandit_single","A1VIP6S8H2XXH7","pain","5","","72","H","0","img/none_selected.jpg","0","0","1","","0.3235064893","false","73","","0.3235064893","main_expt","","0.4421557619","","0.3118309255","","0.2779115064","","","","","",""
"106","","bandit","149","384387","0.0-111.0-0.0","68401504","wem/bandit_single","A1VIP6S8H2XXH7","pain","5","","72","H","0","img/none_selected.jpg","0","1","0","","0.2605282151","false","74","","0.2605282151","main_expt","","0.4340536998","","0.3442292265","","0.2696493969","","","","","",""
"73","","bandit","150","386233","0.0-112.0-0.0","68401504","wem/bandit_single","A1VIP6S8H2XXH7","pain","5","","72","H","0","img/none_selected.jpg","0","0","1","","0.3081503464","false","75","","0.3081503464","main_expt","","0.4148912722","","0.3392290825","","0.2929582525","","","","","",""
"74","","bandit","151","388073","0.0-113.0-0.0","68401504","wem/bandit_single","A1VIP6S8H2XXH7","pain","5","","72","H","0","img/none_selected.jpg","0","0","1","","0.3793773342","false","76","","0.3793773342","main_expt","","0.4049452856","","0.3019050266","","0.2925997362","","","","","",""
"54","","bandit","152","389893","0.0-114.0-0.0","68401504","wem/bandit_single","A1VIP6S8H2XXH7","pain","5","","74","J","1","","0","1","0","","0.3804311168","false","77","","0.4108459626","main_expt","","0.3804311168","","0.3346778491","","0.2402419665","","","","","",""
"631","","bandit","153","392295","0.0-115.0-0.0","68401504","wem/bandit_single","A1VIP6S8H2XXH7","pain","5","","74","J","1","","0","1","0","","0.4076768351","false","78","","0.432197644","main_expt","","0.4076768351","","0.2858281516","","0.2662288132","","","","","",""
"612","","bandit","154","394680","0.0-116.0-0.0","68401504","wem/bandit_single","A1VIP6S8H2XXH7","pain","5","","74","J","1","","0","1","0","","0.4322729224","false","79","","0.4681634707","main_expt","","0.4322729224","","0.2601805687","","0.2946750364","","","","","",""
"106","","bandit","155","396555","0.0-117.0-0.0","68401504","wem/bandit_single","A1VIP6S8H2XXH7","pain","5","","74","J","1","","0","1","0","","0.4344903628","false","80","","0.4487514359","main_expt","","0.4344903628","","0.2494540003","","0.3142603933","","","","","",""
"56","","bandit","156","398378","0.0-118.0-0.0","68401504","wem/bandit_single","A1VIP6S8H2XXH7","pain","5","","74","J","1","","0","0","1","","0.4128510282","false","81","","0.4278748425","main_expt","","0.4128510282","","0.2029748002","","0.3045476359","","","","","",""
"69","","bandit","157","400217","0.0-119.0-0.0","68401504","wem/bandit_single","A1VIP6S8H2XXH7","pain","5","","74","J","1","","0","1","0","","0.3473788204","false","82","","0.3873338363","main_expt","","0.3473788204","","0.1459008349","","0.2481672469","","","","","",""
"21","","bandit","158","402006","0.0-120.0-0.0","68401504","wem/bandit_single","A1VIP6S8H2XXH7","pain","5","","74","J","1","","0","0","1","","0.3964685929","false","83","","0.3676955993","main_expt","","0.3964685929","","0.1792892234","","0.2366474468","","","","","",""
"113","","bandit","159","403887","0.0-121.0-0.0","68401504","wem/bandit_single","A1VIP6S8H2XXH7","pain","5","","74","J","1","","0","0","1","","0.4058457219","false","84","","0.3494013457","main_expt","","0.4058457219","","0.1384159538","","0.2327145127","","","","","",""
"273","","bandit","160","405925","0.0-122.0-0.0","68401504","wem/bandit_single","A1VIP6S8H2XXH7","pain","5","","74","J","1","","0","0","1","","0.419702676","false","85","","0.3484693071","main_expt","","0.419702676","","0.1569521301","","0.2276425053","","","","","",""
"260","","bandit","161","407955","0.0-123.0-0.0","68401504","wem/bandit_single","A1VIP6S8H2XXH7","pain","5","","74","J","1","","0","0","1","","0.3584641731","false","86","","0.3738623358","main_expt","","0.3584641731","","0.2111509195","","0.1932648708","","","","","",""
"209","","bandit","162","409932","0.0-124.0-0.0","68401504","wem/bandit_single","A1VIP6S8H2XXH7","pain","5","","75","K","2","","0","0","1","","0.1855749087","false","87","","0.3635865115","main_expt","","0.3362954576","","0.1855749087","","0.1554886006","","","","","",""
"42","","bandit","163","411741","0.0-125.0-0.0","68401504","wem/bandit_single","A1VIP6S8H2XXH7","pain","5","","75","K","2","","0","0","1","","0.1260067519","false","88","","0.28993028","main_expt","","0.3495778317","","0.1260067519","","0.1288388744","","","","","",""
"32","","bandit","164","413542","0.0-126.0-0.0","68401504","wem/bandit_single","A1VIP6S8H2XXH7","pain","5","","76","L","3","","0","0","1","","0.1672252434","false","89","","0.2529053562","main_expt","","0.3337998134","","0.1930097593","","0.1672252434","","","","","",""
"152","","bandit","165","415460","0.0-127.0-0.0","68401504","wem/bandit_single","A1VIP6S8H2XXH7","pain","5","","76","L","3","","0","0","1","","0.1379373657","false","90","","0.2239223254","main_expt","","0.3254710898","","0.2016869017","","0.1379373657","","","","","",""
"0","","bandit","166","417227","0.0-128.0-0.0","68401504","wem/bandit_single","A1VIP6S8H2XXH7","pain","5","","72","H","0","img/none_selected.jpg","0","0","1","","0.1874521573","false","91","","0.1874521573","main_expt","","0.3248617863","","0.2283296651","","0.1296834551","","","","","",""
"49","","bandit","167","419047","0.0-129.0-0.0","68401504","wem/bandit_single","A1VIP6S8H2XXH7","pain","5","","72","H","0","img/none_selected.jpg","0","0","1","","0.1464907128","false","92","","0.1464907128","main_expt","","0.3290731597","","0.2253008126","","0.1601432093","","","","","",""
"144","","bandit","168","420960","0.0-130.0-0.0","68401504","wem/bandit_single","A1VIP6S8H2XXH7","pain","5","","72","H","0","img/none_selected.jpg","0","0","1","","0.1817498408","false","93","","0.1817498408","main_expt","","0.2947126164","","0.1826671142","","0.1976873148","","","","","",""
"431","","bandit","169","423161","0.0-131.0-0.0","68401504","wem/bandit_single","A1VIP6S8H2XXH7","pain","5","","74","J","1","","0","0","1","","0.2762739163","false","94","","0.1967130988","main_expt","","0.2762739163","","0.1650727581","","0.2296862911","","","","","",""
"254","","bandit","170","425186","0.0-132.0-0.0","68401504","wem/bandit_single","A1VIP6S8H2XXH7","pain","5","","74","J","1","","0","0","1","","0.3184689772","false","95","","0.2294656294","main_expt","","0.3184689772","","0.1971582392","","0.1990842867","","","","","",""
"113","","bandit","171","427066","0.0-133.0-0.0","68401504","wem/bandit_single","A1VIP6S8H2XXH7","pain","5","","75","K","2","","0","0","1","","0.1791402521","false","96","","0.2966343553","main_expt","","0.281027734","","0.1791402521","","0.258496532","","","","","",""
"197","","bandit","172","429035","0.0-134.0-0.0","68401504","wem/bandit_single","A1VIP6S8H2XXH7","pain","5","","75","K","2","","0","1","0","","0.1516442175","false","97","","0.3346257274","main_expt","","0.2474299406","","0.1516442175","","0.2766566169","","","","","",""
"90","","bandit","173","430897","0.0-135.0-0.0","68401504","wem/bandit_single","A1VIP6S8H2XXH7","pain","5","","75","K","2","","0","0","1","","0.2200018313","false","98","","0.3139493976","main_expt","","0.2217126022","","0.2200018313","","0.2377114848","","","","","",""
"203","","bandit","174","432865","0.0-136.0-0.0","68401504","wem/bandit_single","A1VIP6S8H2XXH7","pain","5","","75","K","2","","0","0","1","","0.2752547205","false","99","","0.2478490566","main_expt","","0.2677278576","","0.2752547205","","0.3124158187","","","","","",""
"94","","bandit","175","434730","0.0-137.0-0.0","68401504","wem/bandit_single","A1VIP6S8H2XXH7","pain","5","","75","K","2","","0","1","0","","0.252850905","false","100","","0.2602221343","main_expt","","0.3271916833","","0.252850905","","0.2059987679","","","","","",""
"66","","bandit","176","436570","0.0-138.0-0.0","68401504","wem/bandit_single","A1VIP6S8H2XXH7","pain","5","","75","K","2","","0","0","1","","0.1867047362","false","101","","0.2584762291","main_expt","","0.3066156257","","0.1867047362","","0.1758265216","","","","","",""
"10","","bandit","177","438353","0.0-139.0-0.0","68401504","wem/bandit_single","A1VIP6S8H2XXH7","pain","5","","75","K","2","","0","0","1","","0.1175578895","false","102","","0.282093771","main_expt","","0.3260250896","","0.1175578895","","0.2262322791","","","","","",""
"46","","bandit","178","440163","0.0-140.0-0.0","68401504","wem/bandit_single","A1VIP6S8H2XXH7","pain","5","","75","K","2","","0","0","1","","0.09132094505","false","103","","0.2725256196","main_expt","","0.3731136732","","0.09132094505","","0.2018281434","","","","","",""
"12","","bandit","179","441943","0.0-141.0-0.0","68401504","wem/bandit_single","A1VIP6S8H2XXH7","pain","5","","76","L","3","","0","0","1","","0.1447482012","false","104","","0.2243623384","main_expt","","0.3941656488","","0.1422553795","","0.1447482012","","","","","",""
"100","","bandit","180","443815","0.0-142.0-0.0","68401504","wem/bandit_single","A1VIP6S8H2XXH7","pain","5","","76","L","3","","0","0","1","","0.2104813725","false","105","","0.2403200944","main_expt","","0.4030151573","","0.1390697773","","0.2104813725","","","","","",""
"92","","bandit","181","445669","0.0-143.0-0.0","68401504","wem/bandit_single","A1VIP6S8H2XXH7","pain","5","","76","L","3","","0","0","1","","0.2492378957","false","106","","0.2332798071","main_expt","","0.3715193073","","0.1155807694","","0.2492378957","","","","","",""
"4","","bandit","182","447440","0.0-144.0-0.0","68401504","wem/bandit_single","A1VIP6S8H2XXH7","pain","5","","76","L","3","","0","0","1","","0.217404121","false","107","","0.181620067","main_expt","","0.3837270358","","0.105728532","","0.217404121","","","","","",""
"6","","bandit","183","449209","0.0-145.0-0.0","68401504","wem/bandit_single","A1VIP6S8H2XXH7","pain","5","","72","H","0","img/none_selected.jpg","0","1","0","","0.2173069915","false","108","","0.2173069915","main_expt","","0.3908875135","","0.08831090648","","0.2142202377","","","","","",""
"96","","bandit","184","451074","0.0-146.0-0.0","68401504","wem/bandit_single","A1VIP6S8H2XXH7","pain","5","","72","H","0","img/none_selected.jpg","0","0","1","","0.226697077","false","109","","0.226697077","main_expt","","0.3774052568","","0.1043724426","","0.2683226389","","","","","",""
"28","","bandit","185","452870","0.0-147.0-0.0","68401504","wem/bandit_single","A1VIP6S8H2XXH7","pain","5","","72","H","0","img/none_selected.jpg","0","1","0","","0.2695419639","false","110","","0.2695419639","main_expt","","0.3601275089","","0.07530108238","","0.2619142817","","","","","",""
"12","","bandit","186","454648","0.0-148.0-0.0","68401504","wem/bandit_single","A1VIP6S8H2XXH7","pain","5","","72","H","0","img/none_selected.jpg","0","0","1","","0.2635727161","false","111","","0.2635727161","main_expt","","0.3880855357","","0.05159845725","","0.2754039507","","","","","",""
"0","","bandit","187","456419","0.0-149.0-0.0","68401504","wem/bandit_single","A1VIP6S8H2XXH7","pain","5","","72","H","0","img/none_selected.jpg","0","0","1","","0.3202716687","false","112","","0.3202716687","main_expt","","0.3864248384","","0.08116028731","","0.2721436228","","","","","",""
"45","","bandit","188","458230","0.0-150.0-0.0","68401504","wem/bandit_single","A1VIP6S8H2XXH7","pain","5","","72","H","0","img/none_selected.jpg","0","0","1","","0.3546461764","false","113","","0.3546461764","main_expt","","0.339569604","","0.08538759299","","0.2598768298","","","","","",""
"440","","bandit","189","460441","0.0-151.0-0.0","68401504","wem/bandit_single","A1VIP6S8H2XXH7","pain","5","","72","H","0","img/none_selected.jpg","0","1","0","","0.3339806629","false","114","","0.3339806629","main_expt","","0.3612744832","","0.106551095","","0.2271708717","","","","","",""
"153","","bandit","190","462357","0.0-152.0-0.0","68401504","wem/bandit_single","A1VIP6S8H2XXH7","pain","5","","72","H","0","img/none_selected.jpg","0","0","1","","0.3175163572","false","115","","0.3175163572","main_expt","","0.3616298021","","0.1120532439","","0.2382373761","","","","","",""
"149","","bandit","191","464272","0.0-153.0-0.0","68401504","wem/bandit_single","A1VIP6S8H2XXH7","pain","5","","72","H","0","img/none_selected.jpg","0","1","0","","0.3626291523","false","116","","0.3626291523","main_expt","","0.3886586702","","0.07206247825","","0.2092397162","","","","","",""
"345","","bandit","192","466387","0.0-154.0-0.0","68401504","wem/bandit_single","A1VIP6S8H2XXH7","pain","5","","72","H","0","img/none_selected.jpg","0","1","0","","0.4005972513","false","117","","0.4005972513","main_expt","","0.3837198657","","0.05990892348","","0.1790603663","","","","","",""
"396","","bandit","193","468558","0.0-155.0-0.0","68401504","wem/bandit_single","A1VIP6S8H2XXH7","pain","5","","72","H","0","img/none_selected.jpg","0","0","1","","0.3994725347","false","118","","0.3994725347","main_expt","","0.3831944796","","0.07349038746","","0.2515048449","","","","","",""
"516","","bandit","194","470845","0.0-156.0-0.0","68401504","wem/bandit_single","A1VIP6S8H2XXH7","pain","5","","72","H","0","img/none_selected.jpg","0","0","1","","0.3690387214","false","119","","0.3690387214","main_expt","","0.3200080389","","0.0880416307","","0.2591845625","","","","","",""
"100","","bandit","195","472714","0.0-157.0-0.0","68401504","wem/bandit_single","A1VIP6S8H2XXH7","pain","5","","72","H","0","img/none_selected.jpg","0","0","1","","0.3553033444","false","120","","0.3553033444","main_expt","","0.3498825307","","0.08832912692","","0.2719994365","","","","","",""
"153","","bandit","196","474641","0.0-158.0-0.0","68401504","wem/bandit_single","A1VIP6S8H2XXH7","pain","5","","72","H","0","img/none_selected.jpg","0","1","0","","0.3558993888","false","121","","0.3558993888","main_expt","","0.3150568547","","0.08322673311","","0.2511552987","","","","","",""
"476","","bandit","197","476890","0.0-159.0-0.0","68401504","wem/bandit_single","A1VIP6S8H2XXH7","pain","5","","72","H","0","img/none_selected.jpg","0","1","0","","0.3539125929","false","122","","0.3539125929","main_expt","","0.332296042","","0.1027924146","","0.246059836","","","","","",""
"263","","bandit","198","478921","0.0-160.0-0.0","68401504","wem/bandit_single","A1VIP6S8H2XXH7","pain","5","","72","H","0","img/none_selected.jpg","0","1","0","","0.2756210624","false","123","","0.2756210624","main_expt","","0.3023892254","","0.1112730508","","0.201637063","","","","","",""
"117","","bandit","199","480807","0.0-161.0-0.0","68401504","wem/bandit_single","A1VIP6S8H2XXH7","pain","5","","72","H","0","img/none_selected.jpg","0","0","1","","0.2924451827","false","124","","0.2924451827","main_expt","","0.2971441903","","0.1401536705","","0.2424225803","","","","","",""
"210","","bandit","200","482784","0.0-162.0-0.0","68401504","wem/bandit_single","A1VIP6S8H2XXH7","pain","5","","72","H","0","img/none_selected.jpg","0","0","1","","0.3283550958","false","125","","0.3283550958","main_expt","","0.2989687221","","0.170676821","","0.2663511033","","","","","",""
"54","","bandit","201","484603","0.0-163.0-0.0","68401504","wem/bandit_single","A1VIP6S8H2XXH7","pain","5","","72","H","0","img/none_selected.jpg","0","0","1","","0.3561713316","false","126","","0.3561713316","main_expt","","0.3470717071","","0.2239131839","","0.2214557307","","","","","",""
"271","","bandit","202","486641","0.0-164.0-0.0","68401504","wem/bandit_single","A1VIP6S8H2XXH7","pain","5","","72","H","0","img/none_selected.jpg","0","0","1","","0.3093512765","false","127","","0.3093512765","main_expt","","0.3399927284","","0.1828765327","","0.2274120533","","","","","",""
"89","","bandit","203","488499","0.0-165.0-0.0","68401504","wem/bandit_single","A1VIP6S8H2XXH7","pain","5","","72","H","0","img/none_selected.jpg","0","1","0","","0.3682433617","false","128","","0.3682433617","main_expt","","0.3039142281","","0.2182936746","","0.2035603578","","","","","",""
"0","","bandit","204","490266","0.0-166.0-0.0","68401504","wem/bandit_single","A1VIP6S8H2XXH7","pain","5","","72","H","0","img/none_selected.jpg","0","0","1","","0.3485983391","false","129","","0.3485983391","main_expt","","0.331948561","","0.2206976306","","0.1571118888","","","","","",""
"181","","bandit","205","492213","0.0-167.0-0.0","68401504","wem/bandit_single","A1VIP6S8H2XXH7","pain","5","","72","H","0","img/none_selected.jpg","0","1","0","","0.3907345736","false","130","","0.3907345736","main_expt","","0.3512730473","","0.1657145536","","0.08617346002","","","","","",""
"302","","bandit","206","494282","0.0-168.0-0.0","68401504","wem/bandit_single","A1VIP6S8H2XXH7","pain","5","","72","H","0","img/none_selected.jpg","0","1","0","","0.3697977754","false","131","","0.3697977754","main_expt","","0.3617370935","","0.2555784817","","0.1196539686","","","","","",""
"276","","bandit","207","496332","0.0-169.0-0.0","68401504","wem/bandit_single","A1VIP6S8H2XXH7","pain","5","","72","H","0","img/none_selected.jpg","0","0","1","","0.3916621277","false","132","","0.3916621277","main_expt","","0.3520165756","","0.287060772","","0.1111227042","","","","","",""
"296","","bandit","208","498398","0.0-170.0-0.0","68401504","wem/bandit_single","A1VIP6S8H2XXH7","pain","5","","72","H","0","img/none_selected.jpg","0","0","1","","0.3437671512","false","133","","0.3437671512","main_expt","","0.3863989014","","0.238965149","","0.1223368092","","","","","",""
"267","","bandit","209","500434","0.0-171.0-0.0","68401504","wem/bandit_single","A1VIP6S8H2XXH7","pain","5","","72","H","0","img/none_selected.jpg","0","1","0","","0.3636108046","false","134","","0.3636108046","main_expt","","0.3391859262","","0.2457001749","","0.1001486166","","","","","",""
"653","","bandit","210","502855","0.0-172.0-0.0","68401504","wem/bandit_single","A1VIP6S8H2XXH7","pain","5","","72","H","0","img/none_selected.jpg","0","0","1","","0.3251377881","false","135","","0.3251377881","main_expt","","0.3700101905","","0.2499382958","","0.1179747861","","","","","",""
"913","","bandit","211","505537","0.0-173.0-0.0","68401504","wem/bandit_single","A1VIP6S8H2XXH7","pain","5","","72","H","0","img/none_selected.jpg","0","0","1","","0.3838305716","false","136","","0.3838305716","main_expt","","0.3002558999","","0.2553087313","","0.1167775935","","","","","",""
"161","","bandit","212","507468","0.0-174.0-0.0","68401504","wem/bandit_single","A1VIP6S8H2XXH7","pain","5","","72","H","0","img/none_selected.jpg","0","0","1","","0.374624825","false","137","","0.374624825","main_expt","","0.3242357935","","0.2517181947","","0.1459170178","","","","","",""
"183","","bandit","213","509421","0.0-175.0-0.0","68401504","wem/bandit_single","A1VIP6S8H2XXH7","pain","5","","72","H","0","img/none_selected.jpg","0","0","1","","0.36903936","false","138","","0.36903936","main_expt","","0.3413485239","","0.2531469116","","0.1403776257","","","","","",""
"189","","bandit","214","511383","0.0-176.0-0.0","68401504","wem/bandit_single","A1VIP6S8H2XXH7","pain","5","","72","H","0","img/none_selected.jpg","0","0","1","","0.3757762965","false","139","","0.3757762965","main_expt","","0.3172825342","","0.2810662396","","0.1647502834","","","","","",""
"355","","bandit","215","513509","0.0-177.0-0.0","68401504","wem/bandit_single","A1VIP6S8H2XXH7","pain","5","","74","J","1","","0","0","1","","0.3683668128","false","140","","0.3240643918","main_expt","","0.3683668128","","0.2226737135","","0.2135508935","","","","","",""
"102","","bandit","216","515377","0.0-178.0-0.0","68401504","wem/bandit_single","A1VIP6S8H2XXH7","pain","5","","74","J","1","","0","0","1","","0.2976824498","false","141","","0.342151626","main_expt","","0.2976824498","","0.2330331678","","0.2286669107","","","","","",""
"227","","bandit","217","517376","0.0-179.0-0.0","68401504","wem/bandit_single","A1VIP6S8H2XXH7","pain","5","","74","J","1","","0","0","1","","0.3424177608","false","142","","0.3576151309","main_expt","","0.3424177608","","0.1833347363","","0.1870561284","","","","","",""
"174","","bandit","218","519319","0.0-180.0-0.0","68401504","wem/bandit_single","A1VIP6S8H2XXH7","pain","5","","74","J","1","","0","1","0","","0.3367953268","false","143","","0.3075624404","main_expt","","0.3367953268","","0.2063127673","","0.220851353","","","","","",""
"160","","bandit","219","521252","0.0-181.0-0.0","68401504","wem/bandit_single","A1VIP6S8H2XXH7","pain","5","","74","J","1","","0","0","1","","0.3446852995","false","144","","0.3666812205","main_expt","","0.3446852995","","0.24054226","","0.1581776843","","","","","",""
"48","","bandit","220","523069","0.0-182.0-0.0","68401504","wem/bandit_single","A1VIP6S8H2XXH7","pain","5","","74","J","1","","0","0","1","","0.3569090532","false","145","","0.373264243","main_expt","","0.3569090532","","0.3397881996","","0.1562309797","","","","","",""
"75","","bandit","221","524915","0.0-183.0-0.0","68401504","wem/bandit_single","A1VIP6S8H2XXH7","pain","5","","75","K","2","","0","0","1","","0.334771558","false","146","","0.3588440804","main_expt","","0.3546691234","","0.334771558","","0.201277092","","","","","",""
"289","","bandit","222","526975","0.0-184.0-0.0","68401504","wem/bandit_single","A1VIP6S8H2XXH7","pain","5","","75","K","2","","0","1","0","","0.3135854179","false","147","","0.3848898601","main_expt","","0.3346193534","","0.3135854179","","0.2014254916","","","","","",""
"362","","bandit","223","529109","0.0-185.0-0.0","68401504","wem/bandit_single","A1VIP6S8H2XXH7","pain","5","","75","K","2","","0","0","1","","0.2601716543","false","148","","0.4049875018","main_expt","","0.3481099765","","0.2601716543","","0.1783642851","","","","","",""
"67","","bandit","224","530947","0.0-186.0-0.0","68401504","wem/bandit_single","A1VIP6S8H2XXH7","pain","5","","75","K","2","","0","0","1","","0.2449203511","false","149","","0.3644303146","main_expt","","0.3473239498","","0.2449203511","","0.2394621943","","","","","",""
"283","","bandit","225","533002","0.0-187.0-0.0","68401504","wem/bandit_single","A1VIP6S8H2XXH7","pain","5","","75","K","2","","0","0","1","","0.2679682766","false","150","","0.3820895465","main_expt","","0.3457177179","","0.2679682766","","0.2009439561","","","","","",""
"114","","bandit","226","534883","0.0-188.0-0.0","68401504","wem/bandit_single","A1VIP6S8H2XXH7","pain","5","","76","L","3","","0","0","1","","0.1783838281","false","151","","0.3715335383","main_expt","","0.3131990842","","0.2811524043","","0.1783838281","","","","","",""
"167","","bandit","227","536822","0.0-189.0-0.0","68401504","wem/bandit_single","A1VIP6S8H2XXH7","pain","5","","76","L","3","","0","0","1","","0.2357029213","false","152","","0.3270427106","main_expt","","0.2632978047","","0.2320671432","","0.2357029213","","","","","",""
"293","","bandit","228","538889","0.0-190.0-0.0","68401504","wem/bandit_single","A1VIP6S8H2XXH7","pain","5","","76","L","3","","0","0","1","","0.1701289497","false","153","","0.3117301263","main_expt","","0.2782579121","","0.2655606304","","0.1701289497","","","","","",""
"156","","bandit","229","540816","0.0-191.0-0.0","68401504","wem/bandit_single","A1VIP6S8H2XXH7","pain","5","","76","L","3","","0","0","1","","0.1613436629","false","154","","0.2860829053","main_expt","","0.2212449789","","0.3485425359","","0.1613436629","","","","","",""
"164","","bandit","230","542749","0.0-192.0-0.0","68401504","wem/bandit_single","A1VIP6S8H2XXH7","pain","5","","72","H","0","img/none_selected.jpg","0","0","1","","0.2412247214","false","155","","0.2412247214","main_expt","","0.1944586175","","0.3302543019","","0.1419994917","","","","","",""
"201","","bandit","231","544723","0.0-193.0-0.0","68401504","wem/bandit_single","A1VIP6S8H2XXH7","pain","5","","72","H","0","img/none_selected.jpg","0","0","1","","0.2505935016","false","156","","0.2505935016","main_expt","","0.2035424954","","0.2696600886","","0.2076402971","","","","","",""
"36","","bandit","232","546528","0.0-194.0-0.0","68401504","wem/bandit_single","A1VIP6S8H2XXH7","pain","5","","72","H","0","img/none_selected.jpg","0","0","1","","0.2677381881","false","157","","0.2677381881","main_expt","","0.2039725598","","0.3095791192","","0.2253974945","","","","","",""
"39","","bandit","233","548340","0.0-195.0-0.0","68401504","wem/bandit_single","A1VIP6S8H2XXH7","pain","5","","72","H","0","img/none_selected.jpg","0","0","1","","0.228073272","false","158","","0.228073272","main_expt","","0.1610126092","","0.3427908005","","0.3173726248","","","","","",""
"173","","bandit","234","550284","0.0-196.0-0.0","68401504","wem/bandit_single","A1VIP6S8H2XXH7","pain","5","","74","J","1","","0","0","1","","0.2244023171","false","159","","0.2181731157","main_expt","","0.2244023171","","0.3459652535","","0.2929560982","","","","","",""
"180","","bandit","235","552235","0.0-197.0-0.0","68401504","wem/bandit_single","A1VIP6S8H2XXH7","pain","5","","74","J","1","","0","0","1","","0.2550463449","false","160","","0.2483475363","main_expt","","0.2550463449","","0.3277363444","","0.2599130114","","","","","",""
"113","","bandit","236","554116","0.0-198.0-0.0","68401504","wem/bandit_single","A1VIP6S8H2XXH7","pain","5","","74","J","1","","0","0","1","","0.1988840894","false","161","","0.2287268475","main_expt","","0.1988840894","","0.3043896987","","0.3006759107","","","","","",""
"0","","bandit","237","555886","0.0-199.0-0.0","68401504","wem/bandit_single","A1VIP6S8H2XXH7","pain","5","","74","J","1","","0","0","1","","0.3208820199","false","162","","0.2118340618","main_expt","","0.3208820199","","0.3013302692","","0.3359074288","","","","","",""
"201","","bandit","238","557860","0.0-200.0-0.0","68401504","wem/bandit_single","A1VIP6S8H2XXH7","pain","5","","75","K","2","","0","1","0","","0.3359404133","false","163","","0.2467500447","main_expt","","0.3416291965","","0.3359404133","","0.3248254093","","","","","",""
"187","","bandit","239","559816","0.0-201.0-0.0","68401504","wem/bandit_single","A1VIP6S8H2XXH7","pain","5","","75","K","2","","0","0","1","","0.3449747326","false","164","","0.2745506496","main_expt","","0.3531125991","","0.3449747326","","0.2480447101","","","","","",""
"217","","bandit","240","561805","0.0-202.0-0.0","68401504","wem/bandit_single","A1VIP6S8H2XXH7","pain","5","","75","K","2","","0","0","1","","0.3388680014","false","165","","0.2893970703","main_expt","","0.3329293945","","0.3388680014","","0.2291527929","","","","","",""
"31","","bandit","241","563607","0.0-203.0-0.0","68401504","wem/bandit_single","A1VIP6S8H2XXH7","pain","5","","75","K","2","","0","0","1","","0.3565097084","false","166","","0.326956194","main_expt","","0.368824295","","0.3565097084","","0.2408823094","","","","","",""
"41","","bandit","242","565420","0.0-204.0-0.0","68401504","wem/bandit_single","A1VIP6S8H2XXH7","pain","5","","75","K","2","","0","0","1","","0.3807311224","false","167","","0.2562538154","main_expt","","0.3528049135","","0.3807311224","","0.1852653973","","","","","",""
"147","","bandit","243","567333","0.0-205.0-0.0","68401504","wem/bandit_single","A1VIP6S8H2XXH7","pain","5","","75","K","2","","0","0","1","","0.4157533759","false","168","","0.259707785","main_expt","","0.3530437727","","0.4157533759","","0.1123614246","","","","","",""
"136","","bandit","244","569244","0.0-206.0-0.0","68401504","wem/bandit_single","A1VIP6S8H2XXH7","pain","5","","75","K","2","","0","1","0","","0.3990846218","false","169","","0.305903145","main_expt","","0.3619584092","","0.3990846218","","0.1289140747","","","","","",""
"122","","bandit","245","571137","0.0-207.0-0.0","68401504","wem/bandit_single","A1VIP6S8H2XXH7","pain","5","","75","K","2","","0","0","1","","0.3840903594","false","170","","0.2780458482","main_expt","","0.3851568221","","0.3840903594","","0.1082073398","","","","","",""
"273","","bandit","246","573182","0.0-208.0-0.0","68401504","wem/bandit_single","A1VIP6S8H2XXH7","pain","5","","75","K","2","","0","0","1","","0.4279034191","false","171","","0.2754425626","main_expt","","0.369821393","","0.4279034191","","0.09560917383","","","","","",""
"226","","bandit","247","575183","0.0-209.0-0.0","68401504","wem/bandit_single","A1VIP6S8H2XXH7","pain","5","","75","K","2","","0","0","1","","0.4277210969","false","172","","0.2801866594","main_expt","","0.3238500873","","0.4277210969","","0.09002122866","","","","","",""
"495","","bandit","248","577453","0.0-210.0-0.0","68401504","wem/bandit_single","A1VIP6S8H2XXH7","pain","5","","75","K","2","","0","0","1","","0.4177409887","false","173","","0.2903169923","main_expt","","0.371178543","","0.4177409887","","0.06359212806","","","","","",""
"225","","bandit","249","579449","0.0-211.0-0.0","68401504","wem/bandit_single","A1VIP6S8H2XXH7","pain","5","","75","K","2","","0","0","1","","0.4149019111","false","174","","0.3135769273","main_expt","","0.364968973","","0.4149019111","","0.07897407323","","","","","",""
"284","","bandit","250","581499","0.0-212.0-0.0","68401504","wem/bandit_single","A1VIP6S8H2XXH7","pain","5","","75","K","2","","0","0","1","","0.3890834012","false","175","","0.3205535054","main_expt","","0.4172857806","","0.3890834012","","0.05374651045","","","","","",""
"93","","bandit","251","583363","0.0-213.0-0.0","68401504","wem/bandit_single","A1VIP6S8H2XXH7","pain","5","","76","L","3","","0","0","1","","0.05298342689","false","176","","0.3548310205","main_expt","","0.3931137538","","0.3775492635","","0.05298342689","","","","","",""
"67","","bandit","252","585199","0.0-214.0-0.0","68401504","wem/bandit_single","A1VIP6S8H2XXH7","pain","5","","76","L","3","","0","1","0","","0.04117570961","false","177","","0.3374760958","main_expt","","0.4118750583","","0.2763311933","","0.04117570961","","","","","",""
"77","","bandit","253","587043","0.0-215.0-0.0","68401504","wem/bandit_single","A1VIP6S8H2XXH7","pain","5","","76","L","3","","0","0","1","","0.0682688674","false","178","","0.3045899674","main_expt","","0.4019835374","","0.2117274321","","0.0682688674","","","","","",""
"217","","bandit","254","589036","0.0-216.0-0.0","68401504","wem/bandit_single","A1VIP6S8H2XXH7","pain","5","","76","L","3","","0","0","1","","0.0699035784","false","179","","0.2701203387","main_expt","","0.3943962464","","0.2071796451","","0.0699035784","","","","","",""
"75","","bandit","255","590881","0.0-217.0-0.0","68401504","wem/bandit_single","A1VIP6S8H2XXH7","pain","5","","76","L","3","","0","0","1","","0.08066818268","false","180","","0.3010541938","main_expt","","0.3879360396","","0.2237333922","","0.08066818268","","","","","",""
"43","","bandit","256","592693","0.0-218.0-0.0","68401504","wem/bandit_single","A1VIP6S8H2XXH7","pain","5","","72","H","0","img/none_selected.jpg","0","0","1","","0.2685782119","false","181","","0.2685782119","main_expt","","0.3516035239","","0.1462221579","","0.06418194011","","","","","",""
"6","","bandit","257","594465","0.0-219.0-0.0","68401504","wem/bandit_single","A1VIP6S8H2XXH7","pain","5","","72","H","0","img/none_selected.jpg","0","0","1","","0.2333395507","false","182","","0.2333395507","main_expt","","0.3544849886","","0.1745001591","","0.05948248489","","","","","",""
"209","","bandit","258","596442","0.0-220.0-0.0","68401504","wem/bandit_single","A1VIP6S8H2XXH7","pain","5","","72","H","0","img/none_selected.jpg","0","0","1","","0.1817222791","false","183","","0.1817222791","main_expt","","0.3239224462","","0.1840457003","","0.04249263759","","","","","",""
"111","","bandit","259","598323","0.0-221.0-0.0","68401504","wem/bandit_single","A1VIP6S8H2XXH7","pain","5","","72","H","0","img/none_selected.jpg","0","0","1","","0.1946528514","false","184","","0.1946528514","main_expt","","0.3437575642","","0.1684271963","","0.05174265856","","","","","",""
"283","","bandit","260","600378","0.0-222.0-0.0","68401504","wem/bandit_single","A1VIP6S8H2XXH7","pain","5","","74","J","1","","0","0","1","","0.3584643827","false","185","","0.1998780622","main_expt","","0.3584643827","","0.1820742113","","0.04700335152","","","","","",""
"349","","bandit","261","602493","0.0-223.0-0.0","68401504","wem/bandit_single","A1VIP6S8H2XXH7","pain","5","","74","J","1","","0","0","1","","0.3968797112","false","186","","0.2674223733","main_expt","","0.3968797112","","0.2156320388","","0.0651928762","","","","","",""
"24","","bandit","262","604291","0.0-224.0-0.0","68401504","wem/bandit_single","A1VIP6S8H2XXH7","pain","5","","74","J","1","","0","0","1","","0.3851297664","false","187","","0.2625155344","main_expt","","0.3851297664","","0.2805416817","","0.1006801651","","","","","",""
"25","","bandit","263","606091","0.0-225.0-0.0","68401504","wem/bandit_single","A1VIP6S8H2XXH7","pain","5","","74","J","1","","0","1","0","","0.3861445831","false","188","","0.2428845682","main_expt","","0.3861445831","","0.255869765","","0.1650650448","","","","","",""
"266","","bandit","264","608128","0.0-226.0-0.0","68401504","wem/bandit_single","A1VIP6S8H2XXH7","pain","5","","74","J","1","","0","1","0","","0.3904601473","false","189","","0.2017656849","main_expt","","0.3904601473","","0.1757761595","","0.1545550266","","","","","",""
"46","","bandit","265","609945","0.0-227.0-0.0","68401504","wem/bandit_single","A1VIP6S8H2XXH7","pain","5","","74","J","1","","0","1","0","","0.430863334","false","190","","0.2163316772","main_expt","","0.430863334","","0.1346649685","","0.187471884","","","","","",""
"275","","bandit","266","611990","0.0-228.0-0.0","68401504","wem/bandit_single","A1VIP6S8H2XXH7","pain","5","","74","J","1","","0","0","1","","0.4113524325","false","191","","0.2055350187","main_expt","","0.4113524325","","0.1132332922","","0.1611513775","","","","","",""
"102","","bandit","267","613858","0.0-229.0-0.0","68401504","wem/bandit_single","A1VIP6S8H2XXH7","pain","5","","74","J","1","","0","0","1","","0.4039805352","false","192","","0.1895719249","main_expt","","0.4039805352","","0.1208943264","","0.1777959463","","","","","",""
"135","","bandit","268","615768","0.0-230.0-0.0","68401504","wem/bandit_single","A1VIP6S8H2XXH7","pain","5","","74","J","1","","0","0","1","","0.4245567291","false","193","","0.1748526562","main_expt","","0.4245567291","","0.1939792015","","0.1871499601","","","","","",""
"399","","bandit","269","617939","0.0-231.0-0.0","68401504","wem/bandit_single","A1VIP6S8H2XXH7","pain","5","","74","J","1","","0","1","0","","0.3947968319","false","194","","0.1474168317","main_expt","","0.3947968319","","0.16637132","","0.1876497678","","","","","",""
"308","","bandit","270","620017","0.0-232.0-0.0","68401504","wem/bandit_single","A1VIP6S8H2XXH7","pain","5","","74","J","1","","0","0","1","","0.4142863389","false","195","","0.192031623","main_expt","","0.4142863389","","0.1730885183","","0.1091892437","","","","","",""
"170","","bandit","271","621956","0.0-233.0-0.0","68401504","wem/bandit_single","A1VIP6S8H2XXH7","pain","5","","74","J","1","","0","1","0","","0.4233691667","false","196","","0.2058404012","main_expt","","0.4233691667","","0.215114198","","0.1617114059","","","","","",""
"1061","","bandit","272","624788","0.0-234.0-0.0","68401504","wem/bandit_single","A1VIP6S8H2XXH7","pain","5","","74","J","1","","0","0","1","","0.3910113043","false","197","","0.2424759238","main_expt","","0.3910113043","","0.2080771369","","0.1704243662","","","","","",""
"197","","bandit","273","626757","0.0-235.0-0.0","68401504","wem/bandit_single","A1VIP6S8H2XXH7","pain","5","","74","J","1","","0","0","1","","0.4036427912","false","198","","0.2209877853","main_expt","","0.4036427912","","0.2349601263","","0.1547158464","","","","","",""
"713","","bandit","274","629242","0.0-236.0-0.0","68401504","wem/bandit_single","A1VIP6S8H2XXH7","pain","5","","74","J","1","","0","1","0","","0.4211573591","false","199","","0.2167038869","main_expt","","0.4211573591","","0.2603506135","","0.1871633293","","","","","",""
"671","","bandit","275","631686","0.0-237.0-0.0","68401504","wem/bandit_single","A1VIP6S8H2XXH7","pain","5","","74","J","1","","0","1","0","","0.4279321675","false","200","","0.1923465651","main_expt","","0.4279321675","","0.3238520586","","0.2044595191","","","","","",""
"451","","bandit","276","633909","0.0-238.0-0.0","68401504","wem/bandit_single","A1VIP6S8H2XXH7","pain","5","","74","J","1","","0","0","1","","0.4164542871","false","201","","0.2292217674","main_expt","","0.4164542871","","0.3006478669","","0.2260370877","","","","","",""
"1054","","bandit","277","636737","0.0-239.0-0.0","68401504","wem/bandit_single","A1VIP6S8H2XXH7","pain","5","","74","J","1","","0","0","1","","0.4304584766","false","202","","0.2458551357","main_expt","","0.4304584766","","0.2728804465","","0.2543806879","","","","","",""
"111","","bandit","278","638617","0.0-240.0-0.0","68401504","wem/bandit_single","A1VIP6S8H2XXH7","pain","5","","74","J","1","","0","1","0","","0.4301844238","false","203","","0.2388066436","main_expt","","0.4301844238","","0.3070028205","","0.248330882","","","","","",""
"417","","bandit","279","640807","0.0-241.0-0.0","68401504","wem/bandit_single","A1VIP6S8H2XXH7","pain","5","","74","J","1","","0","0","1","","0.3900297032","false","204","","0.2087278664","main_expt","","0.3900297032","","0.2937269753","","0.272777159","","","","","",""
"358","","bandit","280","642936","0.0-242.0-0.0","68401504","wem/bandit_single","A1VIP6S8H2XXH7","pain","5","","74","J","1","","0","0","1","","0.3928583167","false","205","","0.1498191458","main_expt","","0.3928583167","","0.2378968556","","0.3434557908","","","","","",""
"937","","bandit","281","645642","0.0-243.0-0.0","68401504","wem/bandit_single","A1VIP6S8H2XXH7","pain","5","","74","J","1","","0","0","1","","0.4066069638","false","206","","0.1173401749","main_expt","","0.4066069638","","0.2621799838","","0.3670462125","","","","","",""
"275","","bandit","282","647691","0.0-244.0-0.0","68401504","wem/bandit_single","A1VIP6S8H2XXH7","pain","5","","74","J","1","","0","0","1","","0.3973448409","false","207","","0.131911627","main_expt","","0.3973448409","","0.2751860601","","0.3762900352","","","","","",""
"367","","bandit","283","649834","0.0-245.0-0.0","68401504","wem/bandit_single","A1VIP6S8H2XXH7","pain","5","","74","J","1","","0","0","1","","0.4149937731","false","208","","0.121614138","main_expt","","0.4149937731","","0.2449975294","","0.3619644859","","","","","",""
"1717","","bandit","284","653319","0.0-246.0-0.0","68401504","wem/bandit_single","A1VIP6S8H2XXH7","pain","5","","74","J","1","","0","0","1","","0.4174336027","false","209","","0.1301565943","main_expt","","0.4174336027","","0.2260792918","","0.3487947413","","","","","",""
"870","","bandit","285","655964","0.0-247.0-0.0","68401504","wem/bandit_single","A1VIP6S8H2XXH7","pain","5","","74","J","1","","0","0","1","","0.3969791934","false","210","","0.09603783024","main_expt","","0.3969791934","","0.2506868781","","0.3019817091","","","","","",""
"1067","","bandit","286","658802","0.0-248.0-0.0","68401504","wem/bandit_single","A1VIP6S8H2XXH7","pain","5","","74","J","1","","0","0","1","","0.4109689779","false","211","","0.09853312819","main_expt","","0.4109689779","","0.2364470615","","0.3322841588","","","","","",""
"390","","bandit","287","660963","0.0-249.0-0.0","68401504","wem/bandit_single","A1VIP6S8H2XXH7","pain","5","","75","K","2","","0","0","1","","0.2097336517","false","212","","0.08497623984","main_expt","","0.3870841375","","0.2097336517","","0.3257981887","","","","","",""
"546","","bandit","288","663277","0.0-250.0-0.0","68401504","wem/bandit_single","A1VIP6S8H2XXH7","pain","5","","75","K","2","","0","0","1","","0.223293056","false","213","","0.0690536233","main_expt","","0.3702451026","","0.223293056","","0.299150427","","","","","",""
"724","","bandit","289","665775","0.0-251.0-0.0","68401504","wem/bandit_single","A1VIP6S8H2XXH7","pain","5","","75","K","2","","0","1","0","","0.2797804449","false","214","","0.05607702273","main_expt","","0.4052473305","","0.2797804449","","0.2841516905","","","","","",""
"1148","","bandit","290","668696","0.0-252.0-0.0","68401504","wem/bandit_single","A1VIP6S8H2XXH7","pain","5","","75","K","2","","0","0","1","","0.3307304153","false","215","","0.0612243178","main_expt","","0.4003088938","","0.3307304153","","0.2421432752","","","","","",""
"4168","","bandit","291","674637","0.0-253.0-0.0","68401504","wem/bandit_single","A1VIP6S8H2XXH7","pain","5","","75","K","2","","0","1","0","","0.3341057131","false","216","","0.03010565971","main_expt","","0.4087675299","","0.3341057131","","0.1705338946","","","","","",""
"1101","","bandit","292","677513","0.0-254.0-0.0","68401504","wem/bandit_single","A1VIP6S8H2XXH7","pain","5","","75","K","2","","0","1","0","","0.3086359365","false","217","","0.05034411961","main_expt","","0.3947963157","","0.3086359365","","0.219014384","","","","","",""
"992","","bandit","293","680273","0.0-255.0-0.0","68401504","wem/bandit_single","A1VIP6S8H2XXH7","pain","5","","75","K","2","","0","0","1","","0.370061562","false","218","","0.03278593655","main_expt","","0.4200256015","","0.370061562","","0.2135739311","","","","","",""
"1663","","bandit","294","683701","0.0-256.0-0.0","68401504","wem/bandit_single","A1VIP6S8H2XXH7","pain","5","","75","K","2","","0","1","0","","0.3425962001","false","219","","0.02968551415","main_expt","","0.3845181055","","0.3425962001","","0.1719688778","","","","","",""
"1384","","bandit","295","686854","0.0-257.0-0.0","68401504","wem/bandit_single","A1VIP6S8H2XXH7","pain","5","","75","K","2","","0","0","1","","0.3200162658","false","220","","0.03392365282","main_expt","","0.3200105211","","0.3200162658","","0.1017501311","","","","","",""
"843","","bandit","296","689469","0.0-258.0-0.0","68401504","wem/bandit_single","A1VIP6S8H2XXH7","pain","5","","75","K","2","","0","0","1","","0.3209906652","false","221","","0.03139192041","main_expt","","0.297673658","","0.3209906652","","0.1121412156","","","","","",""
"1572","","bandit","297","692816","0.0-259.0-0.0","68401504","wem/bandit_single","A1VIP6S8H2XXH7","pain","5","","75","K","2","","0","0","1","","0.3013890172","false","222","","0.02842311261","main_expt","","0.2963768597","","0.3013890172","","0.1091313961","","","","","",""
"517","","bandit","298","695103","0.0-260.0-0.0","68401504","wem/bandit_single","A1VIP6S8H2XXH7","pain","5","","75","K","2","","0","1","0","","0.2614115174","false","223","","0.0287580325","main_expt","","0.2927297303","","0.2614115174","","0.09983876589","","","","","",""
"491","","bandit","299","697367","0.0-261.0-0.0","68401504","wem/bandit_single","A1VIP6S8H2XXH7","pain","5","","75","K","2","","0","0","1","","0.2490141009","false","224","","0.02300930076","main_expt","","0.2751498343","","0.2490141009","","0.1018501693","","","","","",""
"550","","bandit","300","699682","0.0-262.0-0.0","68401504","wem/bandit_single","A1VIP6S8H2XXH7","pain","5","","75","K","2","","0","1","0","","0.263459589","false","225","","0.02989568437","main_expt","","0.2377617529","","0.263459589","","0.1222407881","","","","","",""
"1364","","bandit","301","702818","0.0-263.0-0.0","68401504","wem/bandit_single","A1VIP6S8H2XXH7","pain","5","","75","K","2","","0","0","1","","0.2828917593","false","226","","0.04233903912","main_expt","","0.2137681397","","0.2828917593","","0.1332846515","","","","","",""
"1082","","bandit","302","705671","0.0-264.0-0.0","68401504","wem/bandit_single","A1VIP6S8H2XXH7","pain","5","","75","K","2","","0","0","1","","0.2635957152","false","227","","0.0317259717","main_expt","","0.1830623781","","0.2635957152","","0.1606351014","","","","","",""
"1144","","bandit","303","708587","0.0-265.0-0.0","68401504","wem/bandit_single","A1VIP6S8H2XXH7","pain","5","","75","K","2","","0","0","1","","0.259674247","false","228","","0.04253553249","main_expt","","0.1665925442","","0.259674247","","0.1292420082","","","","","",""
"245","","bandit","304","710609","0.0-266.0-0.0","68401504","wem/bandit_single","A1VIP6S8H2XXH7","pain","5","","75","K","2","","0","0","1","","0.2737318667","false","229","","0.06761640147","main_expt","","0.2136718414","","0.2737318667","","0.1281284096","","","","","",""
"1275","","bandit","305","713656","0.0-267.0-0.0","68401504","wem/bandit_single","A1VIP6S8H2XXH7","pain","5","","75","K","2","","0","0","1","","0.3195589589","false","230","","0.08572380951","main_expt","","0.2435987791","","0.3195589589","","0.0791291566","","","","","",""
"93","","bandit","306","715520","0.0-268.0-0.0","68401504","wem/bandit_single","A1VIP6S8H2XXH7","pain","5","","75","K","2","","0","0","1","","0.3304270948","false","231","","0.07272236896","main_expt","","0.2566168121","","0.3304270948","","0.10920453","","","","","",""
"1375","","bandit","307","718666","0.0-269.0-0.0","68401504","wem/bandit_single","A1VIP6S8H2XXH7","pain","5","","75","K","2","","0","1","0","","0.2806951239","false","232","","0.0735724775","main_expt","","0.2152843379","","0.2806951239","","0.167261158","","","","","",""
"38","","bandit","308","720475","0.0-270.0-0.0","68401504","wem/bandit_single","A1VIP6S8H2XXH7","pain","5","","75","K","2","","0","0","1","","0.3115261247","false","233","","0.06465645962","main_expt","","0.2361400262","","0.3115261247","","0.1078973024","","","","","",""
"405","","bandit","309","722656","0.0-271.0-0.0","68401504","wem/bandit_single","A1VIP6S8H2XXH7","pain","5","","74","J","1","","0","0","1","","0.2575526348","false","234","","0.04279198238","main_expt","","0.2575526348","","0.3001083946","","0.2366146445","","","","","",""
"273","","bandit","310","724699","0.0-272.0-0.0","68401504","wem/bandit_single","A1VIP6S8H2XXH7","pain","5","","74","J","1","","0","0","1","","0.2828430508","false","235","","0.06672803397","main_expt","","0.2828430508","","0.2768541542","","0.2393051992","","","","","",""
"17","","bandit","311","726485","0.0-273.0-0.0","68401504","wem/bandit_single","A1VIP6S8H2XXH7","pain","5","","75","K","2","","0","0","1","","0.332362789","false","236","","0.07100342573","main_expt","","0.2860482958","","0.332362789","","0.2976693115","","","","","",""
"61","","bandit","312","728321","0.0-274.0-0.0","68401504","wem/bandit_single","A1VIP6S8H2XXH7","pain","5","","75","K","2","","0","1","0","","0.3408832027","false","237","","0.03680589181","main_expt","","0.2783023894","","0.3408832027","","0.2674299269","","","","","",""
"49","","bandit","313","730144","0.0-275.0-0.0","68401504","wem/bandit_single","A1VIP6S8H2XXH7","pain","5","","75","K","2","","0","0","1","","0.362117859","false","238","","0.02733344458","main_expt","","0.2644861187","","0.362117859","","0.2647207175","","","","","",""
"179","","bandit","314","732094","0.0-276.0-0.0","68401504","wem/bandit_single","A1VIP6S8H2XXH7","pain","5","","75","K","2","","0","0","1","","0.3574250999","false","239","","0.01831396817","main_expt","","0.3186717024","","0.3574250999","","0.1936342125","","","","","",""
"300","","bandit","315","734165","0.0-277.0-0.0","68401504","wem/bandit_single","A1VIP6S8H2XXH7","pain","5","","72","H","0","img/none_selected.jpg","0","0","1","","0.01383764992","false","240","","0.01383764992","main_expt","","0.3360375491","","0.290436356","","0.2382432393","","","","","",""
"15","","bandit","316","735955","0.0-278.0-0.0","68401504","wem/bandit_single","A1VIP6S8H2XXH7","pain","5","","74","J","1","","0","0","1","","0.3386213473","false","241","","0.0277662638","main_expt","","0.3386213473","","0.3414967811","","0.2984572788","","","","","",""
"64","","bandit","317","737795","0.0-279.0-0.0","68401504","wem/bandit_single","A1VIP6S8H2XXH7","pain","5","","74","J","1","","0","0","1","","0.3523037021","false","242","","0.04064120638","main_expt","","0.3523037021","","0.3778608287","","0.2927867707","","","","","",""
"174","","bandit","318","739740","0.0-280.0-0.0","68401504","wem/bandit_single","A1VIP6S8H2XXH7","pain","5","","75","K","2","","0","1","0","","0.3552630766","false","243","","0.04640587852","main_expt","","0.360543067","","0.3552630766","","0.2870713985","","","","","",""
"46","","bandit","319","741555","0.0-281.0-0.0","68401504","wem/bandit_single","A1VIP6S8H2XXH7","pain","5","","75","K","2","","0","0","1","","0.3538674815","false","244","","0.06567084485","main_expt","","0.3728786331","","0.3538674815","","0.2882437102","","","","","",""
"163","","bandit","320","743488","0.0-282.0-0.0","68401504","wem/bandit_single","A1VIP6S8H2XXH7","pain","5","","75","K","2","","0","1","0","","0.3592745223","false","245","","0.1069305933","main_expt","","0.3736501537","","0.3592745223","","0.3125457984","","","","","",""
"152","","bandit","321","745411","0.0-283.0-0.0","68401504","wem/bandit_single","A1VIP6S8H2XXH7","pain","5","","75","K","2","","0","1","0","","0.3784559109","false","246","","0.07318543846","main_expt","","0.3880614915","","0.3784559109","","0.2949331023","","","","","",""
"372","","bandit","322","747553","0.0-284.0-0.0","68401504","wem/bandit_single","A1VIP6S8H2XXH7","pain","5","","75","K","2","","0","1","0","","0.3871101473","false","247","","0.06866628372","main_expt","","0.3906355486","","0.3871101473","","0.3557375168","","","","","",""
"334","","bandit","323","749662","0.0-285.0-0.0","68401504","wem/bandit_single","A1VIP6S8H2XXH7","pain","5","","75","K","2","","0","0","1","","0.366594806","false","248","","0.06101724449","main_expt","","0.3713177951","","0.366594806","","0.3190142928","","","","","",""
"47","","bandit","324","751481","0.0-286.0-0.0","68401504","wem/bandit_single","A1VIP6S8H2XXH7","pain","5","","74","J","1","","0","1","0","","0.2887643678","false","249","","0.07132197128","main_expt","","0.2887643678","","0.35265903","","0.2946857214","","","","","",""
"244","","bandit","325","753498","0.0-287.0-0.0","68401504","wem/bandit_single","A1VIP6S8H2XXH7","pain","5","","74","J","1","","0","1","0","","0.3503459773","false","250","","0.04991986053","main_expt","","0.3503459773","","0.3725690128","","0.285145352","","","","","",""
"211","","bandit","326","755483","0.0-288.0-0.0","68401504","wem/bandit_single","A1VIP6S8H2XXH7","pain","5","","74","J","1","","0","1","0","","0.3900307368","false","251","","0.087584861","main_expt","","0.3900307368","","0.3516217444","","0.2572530626","","","","","",""
"212","","bandit","327","757469","0.0-289.0-0.0","68401504","wem/bandit_single","A1VIP6S8H2XXH7","pain","5","","74","J","1","","0","1","0","","0.3998204568","false","252","","0.1089760904","main_expt","","0.3998204568","","0.3478664427","","0.206609756","","","","","",""
"1328","","bandit","328","760563","0.0-290.0-0.0","68401504","wem/bandit_single","A1VIP6S8H2XXH7","pain","5","","74","J","1","","0","0","1","","0.4062214202","false","253","","0.1389783028","main_expt","","0.4062214202","","0.2845216812","","0.2526850855","","","","","",""
"371","","bandit","329","762703","0.0-291.0-0.0","68401504","wem/bandit_single","A1VIP6S8H2XXH7","pain","5","","74","J","1","","0","0","1","","0.434330363","false","254","","0.1438582992","main_expt","","0.434330363","","0.3395138109","","0.2143143283","","","","","",""
"198","","bandit","330","764673","0.0-292.0-0.0","68401504","wem/bandit_single","A1VIP6S8H2XXH7","pain","5","","75","K","2","","0","0","1","","0.284072963","false","255","","0.1341592381","main_expt","","0.463361135","","0.284072963","","0.2330346229","","","","","",""
"106","","bandit","331","766545","0.0-293.0-0.0","68401504","wem/bandit_single","A1VIP6S8H2XXH7","pain","5","","75","K","2","","0","0","1","","0.2791977035","false","256","","0.1539827047","main_expt","","0.4513325925","","0.2791977035","","0.1707848091","","","","","",""
"149","","bandit","332","768467","0.0-294.0-0.0","68401504","wem/bandit_single","A1VIP6S8H2XXH7","pain","5","","75","K","2","","0","0","1","","0.2827618753","false","257","","0.1067893116","main_expt","","0.4493477618","","0.2827618753","","0.204762461","","","","","",""
"497","","bandit","333","770740","0.0-295.0-0.0","68401504","wem/bandit_single","A1VIP6S8H2XXH7","pain","5","","74","J","1","","0","0","1","","0.4586876348","false","258","","0.05021154971","main_expt","","0.4586876348","","0.2367173663","","0.1678630312","","","","","",""
"1226","","bandit","334","773740","0.0-296.0-0.0","68401504","wem/bandit_single","A1VIP6S8H2XXH7","pain","5","","75","K","2","","0","0","1","","0.2715647874","false","259","","0.04357518244","main_expt","","0.45931789","","0.2715647874","","0.1739170557","","","","","",""
"14808","","bandit","335","790316","0.0-297.0-0.0","68401504","wem/bandit_single","A1VIP6S8H2XXH7","pain","5","","74","J","1","","0","1","0","","0.4583289396","false","260","","0.05606835832","main_expt","","0.4583289396","","0.2310951927","","0.1848885371","","","","","",""
"197","","bandit","336","792282","0.0-298.0-0.0","68401504","wem/bandit_single","A1VIP6S8H2XXH7","pain","5","","74","J","1","","0","1","0","","0.4470277171","false","261","","0.05035703518","main_expt","","0.4470277171","","0.2297288133","","0.2258440324","","","","","",""
"184","","bandit","337","794236","0.0-299.0-0.0","68401504","wem/bandit_single","A1VIP6S8H2XXH7","pain","5","","74","J","1","","0","1","0","","0.457772586","false","262","","0.04352905051","main_expt","","0.457772586","","0.2072969611","","0.2167220908","","","","","",""
"165","","bandit","338","796172","0.0-300.0-0.0","68401504","wem/bandit_single","A1VIP6S8H2XXH7","pain","5","","74","J","1","","0","1","0","","0.417694616","false","263","","0.0373968872","main_expt","","0.417694616","","0.2427077321","","0.2118780444","","","","","",""
"467","","bandit","339","798415","0.0-301.0-0.0","68401504","wem/bandit_single","A1VIP6S8H2XXH7","pain","5","","74","J","1","","0","0","1","","0.4214939516","false","264","","0.04440415955","main_expt","","0.4214939516","","0.3052561595","","0.1870566281","","","","","",""
"273","","bandit","340","800457","0.0-302.0-0.0","68401504","wem/bandit_single","A1VIP6S8H2XXH7","pain","5","","74","J","1","","0","1","0","","0.413465883","false","265","","0.0139225964","main_expt","","0.413465883","","0.3000319327","","0.1706127143","","","","","",""
"187","","bandit","341","802413","0.0-303.0-0.0","68401504","wem/bandit_single","A1VIP6S8H2XXH7","pain","5","","74","J","1","","0","0","1","","0.4116424673","false","266","","0.01259799349","main_expt","","0.4116424673","","0.3134404232","","0.1693140566","","","","","",""
"25","","bandit","342","804211","0.0-304.0-0.0","68401504","wem/bandit_single","A1VIP6S8H2XXH7","pain","5","","74","J","1","","0","0","1","","0.3863145418","false","267","","0.00740451457","main_expt","","0.3863145418","","0.3066387991","","0.1753800763","","","","","",""
"56","","bandit","343","806037","0.0-305.0-0.0","68401504","wem/bandit_single","A1VIP6S8H2XXH7","pain","5","","74","J","1","","0","1","0","","0.4265221664","false","268","","0.004693585052","main_expt","","0.4265221664","","0.3058482798","","0.1918786918","","","","","",""
"222","","bandit","344","808033","0.0-306.0-0.0","68401504","wem/bandit_single","A1VIP6S8H2XXH7","pain","5","","74","J","1","","0","0","1","","0.4515898034","false","269","","0.004824061053","main_expt","","0.4515898034","","0.2523051309","","0.1999989265","","","","","",""
"22","","bandit","345","809827","0.0-307.0-0.0","68401504","wem/bandit_single","A1VIP6S8H2XXH7","pain","5","","75","K","2","","0","1","0","","0.2663701485","false","270","","0.006174480496","main_expt","","0.4467147125","","0.2663701485","","0.2211747839","","","","","",""
"138","","bandit","346","811735","0.0-308.0-0.0","68401504","wem/bandit_single","A1VIP6S8H2XXH7","pain","5","","75","K","2","","0","0","1","","0.2485798686","false","271","","0.00832103917","main_expt","","0.4582909467","","0.2485798686","","0.2404792593","","","","","",""
"19","","bandit","347","813525","0.0-309.0-0.0","68401504","wem/bandit_single","A1VIP6S8H2XXH7","pain","5","","75","K","2","","0","0","1","","0.2345495347","false","272","","0.00728594366","main_expt","","0.4709209778","","0.2345495347","","0.2558589782","","","","","",""
"211","","bandit","348","815510","0.0-310.0-0.0","68401504","wem/bandit_single","A1VIP6S8H2XXH7","pain","5","","74","J","1","","0","0","1","","0.4660917397","false","273","","0.01114453755","main_expt","","0.4660917397","","0.2137032991","","0.1700432942","","","","","",""
"127","","bandit","349","817409","0.0-311.0-0.0","68401504","wem/bandit_single","A1VIP6S8H2XXH7","pain","5","","74","J","1","","0","0","1","","0.4639522763","false","274","","0.01390500062","main_expt","","0.4639522763","","0.2108512091","","0.2452429789","","","","","",""
"203","","bandit","350","819388","0.0-312.0-0.0","68401504","wem/bandit_single","A1VIP6S8H2XXH7","pain","5","","74","J","1","","0","1","0","","0.4559735555","false","275","","0.01307999715","main_expt","","0.4559735555","","0.1817434844","","0.2540496776","","","","","",""
"85","","bandit","351","821242","0.0-313.0-0.0","68401504","wem/bandit_single","A1VIP6S8H2XXH7","pain","5","","74","J","1","","0","1","0","","0.4246507461","false","276","","0.01650166306","main_expt","","0.4246507461","","0.2037179719","","0.2816965905","","","","","",""
"181","","bandit","352","823196","0.0-314.0-0.0","68401504","wem/bandit_single","A1VIP6S8H2XXH7","pain","5","","74","J","1","","0","0","1","","0.4061878557","false","277","","0.02228120093","main_expt","","0.4061878557","","0.211691867","","0.2757967379","","","","","",""
"317","","bandit","353","825283","0.0-315.0-0.0","68401504","wem/bandit_single","A1VIP6S8H2XXH7","pain","5","","74","J","1","","0","0","1","","0.4185559707","false","278","","0.01609054627","main_expt","","0.4185559707","","0.1725584367","","0.3233086266","","","","","",""
"135","","bandit","354","827190","0.0-316.0-0.0","68401504","wem/bandit_single","A1VIP6S8H2XXH7","pain","5","","75","K","2","","0","0","1","","0.1976152383","false","279","","0.03276024715","main_expt","","0.4048416859","","0.1976152383","","0.3447853064","","","","","",""
"115","","bandit","355","829074","0.0-317.0-0.0","68401504","wem/bandit_single","A1VIP6S8H2XXH7","pain","5","","75","K","2","","0","1","0","","0.2245419331","false","280","","0.045813934","main_expt","","0.3930733378","","0.2245419331","","0.2944080033","","","","","",""
"4","","bandit","356","830849","0.0-318.0-0.0","68401504","wem/bandit_single","A1VIP6S8H2XXH7","pain","5","","75","K","2","","0","0","1","","0.2649095144","false","281","","0.07680660156","main_expt","","0.3722539572","","0.2649095144","","0.3455536282","","","","","",""
"64","","bandit","357","832679","0.0-319.0-0.0","68401504","wem/bandit_single","A1VIP6S8H2XXH7","pain","5","","75","K","2","","0","0","1","","0.2440542309","false","282","","0.08989395926","main_expt","","0.392640689","","0.2440542309","","0.3002636441","","","","","",""
"126","","bandit","358","834580","0.0-320.0-0.0","68401504","wem/bandit_single","A1VIP6S8H2XXH7","pain","5","","75","K","2","","0","1","0","","0.3074658718","false","283","","0.1096048843","main_expt","","0.3657249804","","0.3074658718","","0.2433385189","","","","","",""
"193","","bandit","359","836543","0.0-321.0-0.0","68401504","wem/bandit_single","A1VIP6S8H2XXH7","pain","5","","75","K","2","","0","0","1","","0.3224089974","false","284","","0.1082817284","main_expt","","0.3625644972","","0.3224089974","","0.2108667552","","","","","",""
"113","","bandit","360","838429","0.0-322.0-0.0","68401504","wem/bandit_single","A1VIP6S8H2XXH7","pain","5","","75","K","2","","0","0","1","","0.3022873968","false","285","","0.1629804938","main_expt","","0.3054288932","","0.3022873968","","0.2340218901","","","","","",""
"19","","bandit","361","840223","0.0-323.0-0.0","68401504","wem/bandit_single","A1VIP6S8H2XXH7","pain","5","","75","K","2","","0","0","1","","0.2889410052","false","286","","0.1852598429","main_expt","","0.3391155559","","0.2889410052","","0.2499238339","","","","","",""
"82","","bandit","362","842075","0.0-324.0-0.0","68401504","wem/bandit_single","A1VIP6S8H2XXH7","pain","5","","74","J","1","","0","0","1","","0.3328791194","false","287","","0.2065414002","main_expt","","0.3328791194","","0.3151816804","","0.2334780882","","","","","",""
"30","","bandit","363","843873","0.0-325.0-0.0","68401504","wem/bandit_single","A1VIP6S8H2XXH7","pain","5","","74","J","1","","0","0","1","","0.3011075564","false","288","","0.1811366591","main_expt","","0.3011075564","","0.3489654206","","0.2784320663","","","","","",""
"170","","bandit","364","845819","0.0-326.0-0.0","68401504","wem/bandit_single","A1VIP6S8H2XXH7","pain","5","","74","J","1","","0","0","1","","0.3326814497","false","289","","0.1202209304","main_expt","","0.3326814497","","0.3673528387","","0.2751214951","","","","","",""
"35","","bandit","365","847625","0.0-327.0-0.0","68401504","wem/bandit_single","A1VIP6S8H2XXH7","pain","5","","74","J","1","","0","0","1","","0.3289320066","false","290","","0.1453470377","main_expt","","0.3289320066","","0.3156989172","","0.304381699","","","","","",""
"125","","bandit","366","849523","0.0-328.0-0.0","68401504","wem/bandit_single","A1VIP6S8H2XXH7","pain","5","","75","K","2","","0","1","0","","0.3731423443","false","291","","0.1477070836","main_expt","","0.3074380044","","0.3731423443","","0.2447169523","","","","","",""
"129","","bandit","367","851422","0.0-329.0-0.0","68401504","wem/bandit_single","A1VIP6S8H2XXH7","pain","5","","75","K","2","","0","0","1","","0.3819638953","false","292","","0.1442574827","main_expt","","0.247625386","","0.3819638953","","0.2422140582","","","","","",""
"107","","bandit","368","853295","0.0-330.0-0.0","68401504","wem/bandit_single","A1VIP6S8H2XXH7","pain","5","","75","K","2","","0","1","0","","0.3709780048","false","293","","0.1219757373","main_expt","","0.2438381571","","0.3709780048","","0.1480972705","","","","","",""
"291","","bandit","369","855359","0.0-331.0-0.0","68401504","wem/bandit_single","A1VIP6S8H2XXH7","pain","5","","75","K","2","","0","1","0","","0.4013541824","false","294","","0.149249144","main_expt","","0.2772308066","","0.4013541824","","0.1338078997","","","","","",""
"50","","bandit","370","857186","0.0-332.0-0.0","68401504","wem/bandit_single","A1VIP6S8H2XXH7","pain","5","","75","K","2","","0","0","1","","0.4203470877","false","295","","0.1066825056","main_expt","","0.2386370059","","0.4203470877","","0.1452417655","","","","","",""
"475","","bandit","371","859435","0.0-333.0-0.0","68401504","wem/bandit_single","A1VIP6S8H2XXH7","pain","5","","75","K","2","","0","1","0","","0.4006598815","false","296","","0.06692503618","main_expt","","0.2322267342","","0.4006598815","","0.12995508","","","","","",""
"459","","bandit","372","861668","0.0-334.0-0.0","68401504","wem/bandit_single","A1VIP6S8H2XXH7","pain","5","","75","K","2","","0","1","0","","0.4189250697","false","297","","0.08806334149","main_expt","","0.2930795043","","0.4189250697","","0.1079814357","","","","","",""
"772","","bandit","373","864210","0.0-335.0-0.0","68401504","wem/bandit_single","A1VIP6S8H2XXH7","pain","5","","75","K","2","","0","0","1","","0.4204303011","false","298","","0.0708541643","main_expt","","0.3168190842","","0.4204303011","","0.08396844466","","","","","",""
"171","","bandit","374","866155","0.0-336.0-0.0","68401504","wem/bandit_single","A1VIP6S8H2XXH7","pain","5","","75","K","2","","0","0","1","","0.3955170021","false","299","","0.07807128628","main_expt","","0.3251331367","","0.3955170021","","0.08942466987","","","","","",""
