"rt","responses","trial_type","trial_index","time_elapsed","internal_node_id","subjID","study","MID","cond","drift","key_press","respCharCode","respKey","respChoiceNum","respChoice","gems","bombs","no_reward","GemPrChosen","BombPrChosen","practice","trial_counter","WinPr_0","LosePr_0","trial_label","WinPr_1","LosePr_1","WinPr_2","LosePr_2","WinPr_3","LosePr_3","Q0","Q1","Q2","gender","age","ethnicity"
"38886","{""Q0"":""A2R02DYCDLY75U""}","survey-text","0","38896","0.0-0.0","69459469","wem/bandit_single","A2R02DYCDLY75U","pain","4","","","","","","","","","","","","","","","","","","","","","","","","","","",""
"1819","","text","1","41726","0.0-1.0","69459469","wem/bandit_single","A2R02DYCDLY75U","pain","4","32","","","","","","","","","","","","","","","","","","","","","","","","","",""
"5796","","text","2","47526","0.0-2.0","69459469","wem/bandit_single","A2R02DYCDLY75U","pain","4","32","","","","","","","","","","","","","","","","","","","","","","","","","",""
"16693","","text","3","64222","0.0-3.0","69459469","wem/bandit_single","A2R02DYCDLY75U","pain","4","32","","","","","","","","","","","","","","","","","","","","","","","","","",""
"16663","","text","4","80886","0.0-4.0","69459469","wem/bandit_single","A2R02DYCDLY75U","pain","4","32","","","","","","","","","","","","","","","","","","","","","","","","","",""
"17125","","text","5","98014","0.0-5.0","69459469","wem/bandit_single","A2R02DYCDLY75U","pain","4","32","","","","","","","","","","","","","","","","","","","","","","","","","",""
"6517","","text","6","104533","0.0-6.0","69459469","wem/bandit_single","A2R02DYCDLY75U","pain","4","32","","","","","","","","","","","","","","","","","","","","","","","","","",""
"6543","","text","7","111078","0.0-7.0","69459469","wem/bandit_single","A2R02DYCDLY75U","pain","4","32","","","","","","","","","","","","","","","","","","","","","","","","","",""
"4775","","text","8","115854","0.0-8.0","69459469","wem/bandit_single","A2R02DYCDLY75U","pain","4","32","","","","","","","","","","","","","","","","","","","","","","","","","",""
"5173","","text","9","121029","0.0-9.0","69459469","wem/bandit_single","A2R02DYCDLY75U","pain","4","32","","","","","","","","","","","","","","","","","","","","","","","","","",""
"26911","","text","10","147942","0.0-10.0","69459469","wem/bandit_single","A2R02DYCDLY75U","pain","4","32","","","","","","","","","","","","","","","","","","","","","","","","","",""
"31030","","text","11","178975","0.0-11.0","69459469","wem/bandit_single","A2R02DYCDLY75U","pain","4","32","","","","","","","","","","","","","","","","","","","","","","","","","",""
"1800","","bandit","12","182298","0.0-12.0-0.0","69459469","wem/bandit_single","A2R02DYCDLY75U","pain","4","","74","J","0","img/none_selected_demo.jpg","0","0","1","0","0","true","0","0","0","","","","","","","","","","","","",""
"1459","","bandit","13","185543","0.0-13.0-0.0","69459469","wem/bandit_single","A2R02DYCDLY75U","pain","4","","75","K","0","img/none_selected_demo.jpg","0","0","1","0","0","true","0","0","0","","","","","","","","","","","","",""
"4418","","text","14","190214","0.0-14.0","69459469","wem/bandit_single","A2R02DYCDLY75U","pain","4","32","","","","","","","","","","","","","","","","","","","","","","","","","",""
"1183","","text","15","191398","0.0-15.0","69459469","wem/bandit_single","A2R02DYCDLY75U","pain","4","32","","","","","","","","","","","","","","","","","","","","","","","","","",""
"6231","","text","16","197632","0.0-16.0","69459469","wem/bandit_single","A2R02DYCDLY75U","pain","4","32","","","","","","","","","","","","","","","","","","","","","","","","","",""
"12820","","text","17","210454","0.0-17.0","69459469","wem/bandit_single","A2R02DYCDLY75U","pain","4","32","","","","","","","","","","","","","","","","","","","","","","","","","",""
"1797","","bandit","18","213770","0.0-18.0-0.0","69459469","wem/bandit_single","A2R02DYCDLY75U","pain","4","","74","J","0","img/none_selected_demo.jpg","0","1","0","0","0.8","true","0","0","0.8","80_20_practice","0","0.2","","","","","","","","","",""
"5096","","bandit","19","220640","0.0-18.0-1.0","69459469","wem/bandit_single","A2R02DYCDLY75U","pain","4","","74","J","0","img/none_selected_demo.jpg","0","1","0","0","0.8","true","0","0","0.8","80_20_practice","0","0.2","","","","","","","","","",""
"1099","","bandit","20","223525","0.0-18.0-2.0","69459469","wem/bandit_single","A2R02DYCDLY75U","pain","4","","74","J","0","img/none_selected_demo.jpg","0","1","0","0","0.8","true","0","0","0.8","80_20_practice","0","0.2","","","","","","","","","",""
"575","","bandit","21","225872","0.0-18.0-3.0","69459469","wem/bandit_single","A2R02DYCDLY75U","pain","4","","74","J","0","img/none_selected_demo.jpg","0","1","0","0","0.8","true","0","0","0.8","80_20_practice","0","0.2","","","","","","","","","",""
"311","","bandit","22","227960","0.0-18.0-4.0","69459469","wem/bandit_single","A2R02DYCDLY75U","pain","4","","74","J","0","img/none_selected_demo.jpg","0","1","0","0","0.8","true","0","0","0.8","80_20_practice","0","0.2","","","","","","","","","",""
"445","","bandit","23","230179","0.0-18.0-5.0","69459469","wem/bandit_single","A2R02DYCDLY75U","pain","4","","74","J","0","img/none_selected_demo.jpg","0","1","0","0","0.8","true","0","0","0.8","80_20_practice","0","0.2","","","","","","","","","",""
"792","","bandit","24","232757","0.0-18.0-6.0","69459469","wem/bandit_single","A2R02DYCDLY75U","pain","4","","75","K","1","","0","0","1","0","0.2","true","0","0","0.8","80_20_practice","0","0.2","","","","","","","","","",""
"70","","bandit","25","234602","0.0-18.0-7.0","69459469","wem/bandit_single","A2R02DYCDLY75U","pain","4","","74","J","0","img/none_selected_demo.jpg","0","1","0","0","0.8","true","0","0","0.8","80_20_practice","0","0.2","","","","","","","","","",""
"283","","bandit","26","236660","0.0-18.0-8.0","69459469","wem/bandit_single","A2R02DYCDLY75U","pain","4","","74","J","0","img/none_selected_demo.jpg","0","1","0","0","0.8","true","0","0","0.8","80_20_practice","0","0.2","","","","","","","","","",""
"126","","bandit","27","238563","0.0-18.0-9.0","69459469","wem/bandit_single","A2R02DYCDLY75U","pain","4","","74","J","0","img/none_selected_demo.jpg","0","0","1","0","0.8","true","0","0","0.8","80_20_practice","0","0.2","","","","","","","","","",""
"306","","bandit","28","240655","0.0-18.0-10.0","69459469","wem/bandit_single","A2R02DYCDLY75U","pain","4","","75","K","1","","0","0","1","0","0.2","true","0","0","0.8","80_20_practice","0","0.2","","","","","","","","","",""
"71","","bandit","29","242510","0.0-18.0-11.0","69459469","wem/bandit_single","A2R02DYCDLY75U","pain","4","","74","J","0","img/none_selected_demo.jpg","0","1","0","0","0.8","true","0","0","0.8","80_20_practice","0","0.2","","","","","","","","","",""
"314","","bandit","30","244603","0.0-18.0-12.0","69459469","wem/bandit_single","A2R02DYCDLY75U","pain","4","","74","J","0","img/none_selected_demo.jpg","0","0","1","0","0.8","true","0","0","0.8","80_20_practice","0","0.2","","","","","","","","","",""
"292","","bandit","31","246659","0.0-18.0-13.0","69459469","wem/bandit_single","A2R02DYCDLY75U","pain","4","","74","J","0","img/none_selected_demo.jpg","0","0","1","0","0.8","true","0","0","0.8","80_20_practice","0","0.2","","","","","","","","","",""
"57","","bandit","32","248495","0.0-18.0-14.0","69459469","wem/bandit_single","A2R02DYCDLY75U","pain","4","","75","K","1","","0","1","0","0","0.2","true","0","0","0.8","80_20_practice","0","0.2","","","","","","","","","",""
"131","","bandit","33","250400","0.0-18.0-15.0","69459469","wem/bandit_single","A2R02DYCDLY75U","pain","4","","75","K","1","","0","0","1","0","0.2","true","0","0","0.8","80_20_practice","0","0.2","","","","","","","","","",""
"268","","bandit","34","252433","0.0-18.0-16.0","69459469","wem/bandit_single","A2R02DYCDLY75U","pain","4","","74","J","0","img/none_selected_demo.jpg","0","1","0","0","0.8","true","0","0","0.8","80_20_practice","0","0.2","","","","","","","","","",""
"116","","bandit","35","254338","0.0-18.0-17.0","69459469","wem/bandit_single","A2R02DYCDLY75U","pain","4","","74","J","0","img/none_selected_demo.jpg","0","1","0","0","0.8","true","0","0","0.8","80_20_practice","0","0.2","","","","","","","","","",""
"178","","bandit","36","256293","0.0-18.0-18.0","69459469","wem/bandit_single","A2R02DYCDLY75U","pain","4","","74","J","0","img/none_selected_demo.jpg","0","1","0","0","0.8","true","0","0","0.8","80_20_practice","0","0.2","","","","","","","","","",""
"357","","bandit","37","258441","0.0-18.0-19.0","69459469","wem/bandit_single","A2R02DYCDLY75U","pain","4","","74","J","0","img/none_selected_demo.jpg","0","1","0","0","0.8","true","0","0","0.8","80_20_practice","0","0.2","","","","","","","","","",""
"2667","","text","38","261366","0.0-19.0","69459469","wem/bandit_single","A2R02DYCDLY75U","pain","4","32","","","","","","","","","","","","","","","","","","","","","","","","","",""
"1756","","bandit","39","264638","0.0-20.0-0.0","69459469","wem/bandit_single","A2R02DYCDLY75U","pain","4","","74","J","0","img/none_selected_demo.jpg","0","0","1","0","0","true","0","0","0","","0","0","","","","","","","","","",""
"3471","","text","40","268374","0.0-21.0","69459469","wem/bandit_single","A2R02DYCDLY75U","pain","4","32","","","","","","","","","","","","","","","","","","","","","","","","","",""
"2358","","text","41","270733","0.0-22.0","69459469","wem/bandit_single","A2R02DYCDLY75U","pain","4","32","","","","","","","","","","","","","","","","","","","","","","","","","",""
"1725","","text","42","272461","0.0-23.0","69459469","wem/bandit_single","A2R02DYCDLY75U","pain","4","32","","","","","","","","","","","","","","","","","","","","","","","","","",""
"4030","","text","43","276493","0.0-24.0","69459469","wem/bandit_single","A2R02DYCDLY75U","pain","4","32","","","","","","","","","","","","","","","","","","","","","","","","","",""
"17814","","text","44","294309","0.0-25.0","69459469","wem/bandit_single","A2R02DYCDLY75U","pain","4","32","","","","","","","","","","","","","","","","","","","","","","","","","",""
"1662","","text","45","295974","0.0-26.0","69459469","wem/bandit_single","A2R02DYCDLY75U","pain","4","32","","","","","","","","","","","","","","","","","","","","","","","","","",""
"3677","","text","46","299652","0.0-27.0","69459469","wem/bandit_single","A2R02DYCDLY75U","pain","4","32","","","","","","","","","","","","","","","","","","","","","","","","","",""
"2294","","text","47","301949","0.0-28.0","69459469","wem/bandit_single","A2R02DYCDLY75U","pain","4","32","","","","","","","","","","","","","","","","","","","","","","","","","",""
"3301","","text","48","305253","0.0-29.0","69459469","wem/bandit_single","A2R02DYCDLY75U","pain","4","32","","","","","","","","","","","","","","","","","","","","","","","","","",""
"1358","","text","49","306612","0.0-30.0","69459469","wem/bandit_single","A2R02DYCDLY75U","pain","4","32","","","","","","","","","","","","","","","","","","","","","","","","","",""
"1710","","text","50","308325","0.0-31.0","69459469","wem/bandit_single","A2R02DYCDLY75U","pain","4","32","","","","","","","","","","","","","","","","","","","","","","","","","",""
"2997","","bandit","51","312840","0.0-32.0-0.0","69459469","wem/bandit_single","A2R02DYCDLY75U","pain","4","","76","L","3","","0","0","1","0","0.2","true","0","0","0.8","full_practice","0","0.2","0","0.6","0","0.2","","","","","",""
"1725","","bandit","52","316342","0.0-32.0-1.0","69459469","wem/bandit_single","A2R02DYCDLY75U","pain","4","","72","H","0","img/none_selected.jpg","0","1","0","0","0.8","true","0","0","0.8","full_practice","0","0.2","0","0.6","0","0.2","","","","","",""
"188","","bandit","53","318317","0.0-32.0-2.0","69459469","wem/bandit_single","A2R02DYCDLY75U","pain","4","","72","H","0","img/none_selected.jpg","0","1","0","0","0.8","true","0","0","0.8","full_practice","0","0.2","0","0.6","0","0.2","","","","","",""
"146","","bandit","54","320233","0.0-32.0-3.0","69459469","wem/bandit_single","A2R02DYCDLY75U","pain","4","","72","H","0","img/none_selected.jpg","0","0","1","0","0.8","true","0","0","0.8","full_practice","0","0.2","0","0.6","0","0.2","","","","","",""
"699","","bandit","55","322711","0.0-32.0-4.0","69459469","wem/bandit_single","A2R02DYCDLY75U","pain","4","","75","K","2","","0","1","0","0","0.6","true","0","0","0.8","full_practice","0","0.2","0","0.6","0","0.2","","","","","",""
"131","","bandit","56","324609","0.0-32.0-5.0","69459469","wem/bandit_single","A2R02DYCDLY75U","pain","4","","75","K","2","","0","1","0","0","0.6","true","0","0","0.8","full_practice","0","0.2","0","0.6","0","0.2","","","","","",""
"145","","bandit","57","326541","0.0-32.0-6.0","69459469","wem/bandit_single","A2R02DYCDLY75U","pain","4","","75","K","2","","0","0","1","0","0.6","true","0","0","0.8","full_practice","0","0.2","0","0.6","0","0.2","","","","","",""
"342","","bandit","58","328657","0.0-32.0-7.0","69459469","wem/bandit_single","A2R02DYCDLY75U","pain","4","","74","J","1","","0","0","1","0","0.2","true","0","0","0.8","full_practice","0","0.2","0","0.6","0","0.2","","","","","",""
"815","","bandit","59","331257","0.0-32.0-8.0","69459469","wem/bandit_single","A2R02DYCDLY75U","pain","4","","76","L","3","","0","0","1","0","0.2","true","0","0","0.8","full_practice","0","0.2","0","0.6","0","0.2","","","","","",""
"206","","bandit","60","333246","0.0-32.0-9.0","69459469","wem/bandit_single","A2R02DYCDLY75U","pain","4","","72","H","0","img/none_selected.jpg","0","1","0","0","0.8","true","0","0","0.8","full_practice","0","0.2","0","0.6","0","0.2","","","","","",""
"101","","bandit","61","335130","0.0-32.0-10.0","69459469","wem/bandit_single","A2R02DYCDLY75U","pain","4","","72","H","0","img/none_selected.jpg","0","1","0","0","0.8","true","0","0","0.8","full_practice","0","0.2","0","0.6","0","0.2","","","","","",""
"274","","bandit","62","337184","0.0-32.0-11.0","69459469","wem/bandit_single","A2R02DYCDLY75U","pain","4","","72","H","0","img/none_selected.jpg","0","0","1","0","0.8","true","0","0","0.8","full_practice","0","0.2","0","0.6","0","0.2","","","","","",""
"320","","bandit","63","339280","0.0-32.0-12.0","69459469","wem/bandit_single","A2R02DYCDLY75U","pain","4","","75","K","2","","0","1","0","0","0.6","true","0","0","0.8","full_practice","0","0.2","0","0.6","0","0.2","","","","","",""
"329","","bandit","64","341387","0.0-32.0-13.0","69459469","wem/bandit_single","A2R02DYCDLY75U","pain","4","","75","K","2","","0","1","0","0","0.6","true","0","0","0.8","full_practice","0","0.2","0","0.6","0","0.2","","","","","",""
"1408","","bandit","65","344567","0.0-32.0-14.0","69459469","wem/bandit_single","A2R02DYCDLY75U","pain","4","","75","K","2","","0","1","0","0","0.6","true","0","0","0.8","full_practice","0","0.2","0","0.6","0","0.2","","","","","",""
"389","","bandit","66","346732","0.0-32.0-15.0","69459469","wem/bandit_single","A2R02DYCDLY75U","pain","4","","75","K","2","","0","1","0","0","0.6","true","0","0","0.8","full_practice","0","0.2","0","0.6","0","0.2","","","","","",""
"110","","bandit","67","348630","0.0-32.0-16.0","69459469","wem/bandit_single","A2R02DYCDLY75U","pain","4","","75","K","2","","0","0","1","0","0.6","true","0","0","0.8","full_practice","0","0.2","0","0.6","0","0.2","","","","","",""
"101","","bandit","68","350513","0.0-32.0-17.0","69459469","wem/bandit_single","A2R02DYCDLY75U","pain","4","","72","H","0","img/none_selected.jpg","0","1","0","0","0.8","true","0","0","0.8","full_practice","0","0.2","0","0.6","0","0.2","","","","","",""
"115","","bandit","69","352393","0.0-32.0-18.0","69459469","wem/bandit_single","A2R02DYCDLY75U","pain","4","","72","H","0","img/none_selected.jpg","0","1","0","0","0.8","true","0","0","0.8","full_practice","0","0.2","0","0.6","0","0.2","","","","","",""
"343","","bandit","70","354514","0.0-32.0-19.0","69459469","wem/bandit_single","A2R02DYCDLY75U","pain","4","","72","H","0","img/none_selected.jpg","0","1","0","0","0.8","true","0","0","0.8","full_practice","0","0.2","0","0.6","0","0.2","","","","","",""
"1960","","text","71","356732","0.0-33.0","69459469","wem/bandit_single","A2R02DYCDLY75U","pain","4","32","","","","","","","","","","","","","","","","","","","","","","","","","",""
"7579","","text","72","365318","0.0-34.0","69459469","wem/bandit_single","A2R02DYCDLY75U","pain","4","32","","","","","","","","","","","","","","","","","","","","","","","","","",""
"6468","","text","73","371789","0.0-35.0","69459469","wem/bandit_single","A2R02DYCDLY75U","pain","4","32","","","","","","","","","","","","","","","","","","","","","","","","","",""
"2854","","text","74","374645","0.0-36.0","69459469","wem/bandit_single","A2R02DYCDLY75U","pain","4","32","","","","","","","","","","","","","","","","","","","","","","","","","",""
"2453","","text","75","377102","0.0-37.0","69459469","wem/bandit_single","A2R02DYCDLY75U","pain","4","32","","","","","","","","","","","","","","","","","","","","","","","","","",""
"3482","","bandit","76","382110","0.0-38.0-0.0","69459469","wem/bandit_single","A2R02DYCDLY75U","pain","4","","75","K","2","","0","0","1","","0.1534711312","false","1","","0.2633340886","main_expt","","0.04789219489","","0.1534711312","","0.1530555908","","","","","",""
"114","","bandit","77","384012","0.0-39.0-0.0","69459469","wem/bandit_single","A2R02DYCDLY75U","pain","4","","74","J","1","","0","0","1","","0.06526788736","false","2","","0.288049036","main_expt","","0.06526788736","","0.1140054314","","0.103598712","","","","","",""
"96","","bandit","78","385883","0.0-40.0-0.0","69459469","wem/bandit_single","A2R02DYCDLY75U","pain","4","","72","H","0","img/none_selected.jpg","0","1","0","","0.2979487298","false","3","","0.2979487298","main_expt","","0.04764418461","","0.1012650834","","0.08136741005","","","","","",""
"108","","bandit","79","387763","0.0-41.0-0.0","69459469","wem/bandit_single","A2R02DYCDLY75U","pain","4","","72","H","0","img/none_selected.jpg","0","0","1","","0.3306303211","false","4","","0.3306303211","main_expt","","0.05056035824","","0.09541256236","","0.08723083084","","","","","",""
"64","","bandit","80","389608","0.0-42.0-0.0","69459469","wem/bandit_single","A2R02DYCDLY75U","pain","4","","76","L","3","","0","0","1","","0.1255982651","false","5","","0.2438199519","main_expt","","0.05944929255","","0.07842998328","","0.1255982651","","","","","",""
"164","","bandit","81","391552","0.0-43.0-0.0","69459469","wem/bandit_single","A2R02DYCDLY75U","pain","4","","72","H","0","img/none_selected.jpg","0","0","1","","0.2362074668","false","6","","0.2362074668","main_expt","","0.09562353852","","0.09158282766","","0.09044777998","","","","","",""
"103","","bandit","82","393436","0.0-44.0-0.0","69459469","wem/bandit_single","A2R02DYCDLY75U","pain","4","","75","K","2","","0","0","1","","0.09712353232","false","7","","0.2591683673","main_expt","","0.08069121891","","0.09712353232","","0.1067491613","","","","","",""
"102","","bandit","83","395309","0.0-45.0-0.0","69459469","wem/bandit_single","A2R02DYCDLY75U","pain","4","","74","J","1","","0","0","1","","0.07203927837","false","8","","0.2299415188","main_expt","","0.07203927837","","0.08440361392","","0.15597148","","","","","",""
"68","","bandit","84","397153","0.0-46.0-0.0","69459469","wem/bandit_single","A2R02DYCDLY75U","pain","4","","76","L","3","","0","0","1","","0.2250404859","false","9","","0.2057198223","main_expt","","0.08219025907","","0.102519384","","0.2250404859","","","","","",""
"274","","bandit","85","399192","0.0-47.0-0.0","69459469","wem/bandit_single","A2R02DYCDLY75U","pain","4","","72","H","0","img/none_selected.jpg","0","0","1","","0.2002554128","false","10","","0.2002554128","main_expt","","0.06517742799","","0.06157476224","","0.2205918947","","","","","",""
"167","","bandit","86","401151","0.0-48.0-0.0","69459469","wem/bandit_single","A2R02DYCDLY75U","pain","4","","76","L","3","","0","0","1","","0.1999173076","false","11","","0.2390702858","main_expt","","0.0549201251","","0.05516119966","","0.1999173076","","","","","",""
"137","","bandit","87","403065","0.0-49.0-0.0","69459469","wem/bandit_single","A2R02DYCDLY75U","pain","4","","75","K","2","","0","0","1","","0.04311537102","false","12","","0.2309669968","main_expt","","0.0630283727","","0.04311537102","","0.2006159367","","","","","",""
"89","","bandit","88","404935","0.0-50.0-0.0","69459469","wem/bandit_single","A2R02DYCDLY75U","pain","4","","74","J","1","","0","0","1","","0.07136250487","false","13","","0.2667386483","main_expt","","0.07136250487","","0.03895599675","","0.202674457","","","","","",""
"105","","bandit","89","406819","0.0-51.0-0.0","69459469","wem/bandit_single","A2R02DYCDLY75U","pain","4","","72","H","0","img/none_selected.jpg","0","0","1","","0.2057326914","false","14","","0.2057326914","main_expt","","0.07333211558","","0.03256744162","","0.152812741","","","","","",""
"70","","bandit","90","408662","0.0-52.0-0.0","69459469","wem/bandit_single","A2R02DYCDLY75U","pain","4","","72","H","0","img/none_selected.jpg","0","0","1","","0.2081585857","false","15","","0.2081585857","main_expt","","0.1154740655","","0.01982065674","","0.1648564856","","","","","",""
"121","","bandit","91","410572","0.0-53.0-0.0","69459469","wem/bandit_single","A2R02DYCDLY75U","pain","4","","74","J","1","","0","0","1","","0.1011313391","false","16","","0.1909184248","main_expt","","0.1011313391","","0.04082574049","","0.1619055423","","","","","",""
"149","","bandit","92","412506","0.0-54.0-0.0","69459469","wem/bandit_single","A2R02DYCDLY75U","pain","4","","74","J","1","","0","0","1","","0.1447019112","false","17","","0.2198432556","main_expt","","0.1447019112","","0.0363298649","","0.1651197045","","","","","",""
"431","","bandit","93","414712","0.0-55.0-0.0","69459469","wem/bandit_single","A2R02DYCDLY75U","pain","4","","75","K","2","","0","0","1","","0.07917382237","false","18","","0.2347766335","main_expt","","0.1039364862","","0.07917382237","","0.1079041081","","","","","",""
"117","","bandit","94","416595","0.0-56.0-0.0","69459469","wem/bandit_single","A2R02DYCDLY75U","pain","4","","75","K","2","","0","0","1","","0.08476555987","false","19","","0.24668571","main_expt","","0.08759831402","","0.08476555987","","0.1059999363","","","","","",""
"193","","bandit","95","418553","0.0-57.0-0.0","69459469","wem/bandit_single","A2R02DYCDLY75U","pain","4","","72","H","0","img/none_selected.jpg","0","0","1","","0.2355281317","false","20","","0.2355281317","main_expt","","0.08010338479","","0.04047152317","","0.1197169881","","","","","",""
"82","","bandit","96","420411","0.0-58.0-0.0","69459469","wem/bandit_single","A2R02DYCDLY75U","pain","4","","76","L","3","","0","0","1","","0.1338215077","false","21","","0.2290721377","main_expt","","0.07820488182","","0.07021106672","","0.1338215077","","","","","",""
"162","","bandit","97","422362","0.0-59.0-0.0","69459469","wem/bandit_single","A2R02DYCDLY75U","pain","4","","76","L","3","","0","0","1","","0.1691749215","false","22","","0.1982968879","main_expt","","0.06301774499","","0.08794503477","","0.1691749215","","","","","",""
"194","","bandit","98","424333","0.0-60.0-0.0","69459469","wem/bandit_single","A2R02DYCDLY75U","pain","4","","74","J","1","","0","1","0","","0.04380944514","false","23","","0.1991555028","main_expt","","0.04380944514","","0.07274518233","","0.2100599157","","","","","",""
"61","","bandit","99","426182","0.0-61.0-0.0","69459469","wem/bandit_single","A2R02DYCDLY75U","pain","4","","74","J","1","","0","0","1","","0.04485861341","false","24","","0.1700743611","main_expt","","0.04485861341","","0.09602528561","","0.1763606332","","","","","",""
"426","","bandit","100","428387","0.0-62.0-0.0","69459469","wem/bandit_single","A2R02DYCDLY75U","pain","4","","75","K","2","","0","0","1","","0.07148754983","false","25","","0.2303117276","main_expt","","0.08350983839","","0.07148754983","","0.1155065599","","","","","",""
"590","","bandit","101","430759","0.0-63.0-0.0","69459469","wem/bandit_single","A2R02DYCDLY75U","pain","4","","72","H","0","img/none_selected.jpg","0","0","1","","0.2615068669","false","26","","0.2615068669","main_expt","","0.04946014148","","0.05591681381","","0.08411514459","","","","","",""
"86","","bandit","102","432618","0.0-64.0-0.0","69459469","wem/bandit_single","A2R02DYCDLY75U","pain","4","","76","L","3","","0","0","1","","0.1192049255","false","27","","0.2108316327","main_expt","","0.07008172503","","0.06488914964","","0.1192049255","","","","","",""
"128","","bandit","103","434524","0.0-65.0-0.0","69459469","wem/bandit_single","A2R02DYCDLY75U","pain","4","","74","J","1","","0","0","1","","0.09766989806","false","28","","0.2616222854","main_expt","","0.09766989806","","0.07067710387","","0.1530516972","","","","","",""
"200","","bandit","104","436492","0.0-66.0-0.0","69459469","wem/bandit_single","A2R02DYCDLY75U","pain","4","","74","J","1","","0","0","1","","0.1020433103","false","29","","0.2754145478","main_expt","","0.1020433103","","0.06184318105","","0.1243035263","","","","","",""
"182","","bandit","105","438442","0.0-67.0-0.0","69459469","wem/bandit_single","A2R02DYCDLY75U","pain","4","","75","K","2","","0","0","1","","0.06562203124","false","30","","0.3091083038","main_expt","","0.1128186897","","0.06562203124","","0.2106934108","","","","","",""
"201","","bandit","106","440428","0.0-68.0-0.0","69459469","wem/bandit_single","A2R02DYCDLY75U","pain","4","","72","H","0","img/none_selected.jpg","0","0","1","","0.3032558385","false","31","","0.3032558385","main_expt","","0.1021038766","","0.06340423818","","0.269819176","","","","","",""
"307","","bandit","107","442514","0.0-69.0-0.0","69459469","wem/bandit_single","A2R02DYCDLY75U","pain","4","","76","L","3","","0","0","1","","0.2415851803","false","32","","0.3160124579","main_expt","","0.1010238501","","0.08582013972","","0.2415851803","","","","","",""
"17","","bandit","108","444298","0.0-70.0-0.0","69459469","wem/bandit_single","A2R02DYCDLY75U","pain","4","","76","L","3","","0","0","1","","0.2754451294","false","33","","0.355825184","main_expt","","0.0674926465","","0.1020351259","","0.2754451294","","","","","",""
"119","","bandit","109","446189","0.0-71.0-0.0","69459469","wem/bandit_single","A2R02DYCDLY75U","pain","4","","72","H","0","img/none_selected.jpg","0","0","1","","0.3380280112","false","34","","0.3380280112","main_expt","","0.1007783216","","0.07925884201","","0.3566428969","","","","","",""
"51","","bandit","110","448029","0.0-72.0-0.0","69459469","wem/bandit_single","A2R02DYCDLY75U","pain","4","","72","H","0","img/none_selected.jpg","0","0","1","","0.3772093912","false","35","","0.3772093912","main_expt","","0.09542819821","","0.06071167626","","0.2652811253","","","","","",""
"135","","bandit","111","449946","0.0-73.0-0.0","69459469","wem/bandit_single","A2R02DYCDLY75U","pain","4","","74","J","1","","0","0","1","","0.07425724813","false","36","","0.3916459715","main_expt","","0.07425724813","","0.05331310492","","0.2472166127","","","","","",""
"81","","bandit","112","451817","0.0-74.0-0.0","69459469","wem/bandit_single","A2R02DYCDLY75U","pain","4","","74","J","1","","0","0","1","","0.07325651263","false","37","","0.3724196513","main_expt","","0.07325651263","","0.08395737389","","0.2941536534","","","","","",""
"82","","bandit","113","453672","0.0-75.0-0.0","69459469","wem/bandit_single","A2R02DYCDLY75U","pain","4","","74","J","1","","0","0","1","","0.06058557764","false","38","","0.3885064771","main_expt","","0.06058557764","","0.07562804978","","0.2850199379","","","","","",""
"168","","bandit","114","455634","0.0-76.0-0.0","69459469","wem/bandit_single","A2R02DYCDLY75U","pain","4","","75","K","2","","0","0","1","","0.06339693541","false","39","","0.4332305888","main_expt","","0.05480529152","","0.06339693541","","0.2308750992","","","","","",""
"686","","bandit","115","458087","0.0-77.0-0.0","69459469","wem/bandit_single","A2R02DYCDLY75U","pain","4","","75","K","2","","0","0","1","","0.07741261751","false","40","","0.4320021358","main_expt","","0.08480448704","","0.07741261751","","0.2166928419","","","","","",""
"15","","bandit","116","459888","0.0-78.0-0.0","69459469","wem/bandit_single","A2R02DYCDLY75U","pain","4","","75","K","2","","0","0","1","","0.08199889575","false","41","","0.4378374231","main_expt","","0.07863220129","","0.08199889575","","0.222341992","","","","","",""
"33","","bandit","117","461692","0.0-79.0-0.0","69459469","wem/bandit_single","A2R02DYCDLY75U","pain","4","","76","L","3","","0","0","1","","0.2420609394","false","42","","0.4138470733","main_expt","","0.07947159818","","0.1252939417","","0.2420609394","","","","","",""
"175","","bandit","118","463641","0.0-80.0-0.0","69459469","wem/bandit_single","A2R02DYCDLY75U","pain","4","","76","L","3","","0","0","1","","0.2683234569","false","43","","0.3618848001","main_expt","","0.0747194724","","0.1464491551","","0.2683234569","","","","","",""
"95","","bandit","119","465513","0.0-81.0-0.0","69459469","wem/bandit_single","A2R02DYCDLY75U","pain","4","","72","H","0","img/none_selected.jpg","0","1","0","","0.3902132048","false","44","","0.3902132048","main_expt","","0.06873866496","","0.1846315016","","0.2592073096","","","","","",""
"53","","bandit","120","467363","0.0-82.0-0.0","69459469","wem/bandit_single","A2R02DYCDLY75U","pain","4","","72","H","0","img/none_selected.jpg","0","1","0","","0.370584769","false","45","","0.370584769","main_expt","","0.05624711086","","0.1454302639","","0.258850709","","","","","",""
"108","","bandit","121","469262","0.0-83.0-0.0","69459469","wem/bandit_single","A2R02DYCDLY75U","pain","4","","72","H","0","img/none_selected.jpg","0","1","0","","0.3416192418","false","46","","0.3416192418","main_expt","","0.06710767933","","0.1420401956","","0.2162528617","","","","","",""
"90","","bandit","122","471132","0.0-84.0-0.0","69459469","wem/bandit_single","A2R02DYCDLY75U","pain","4","","72","H","0","img/none_selected.jpg","0","1","0","","0.3254497978","false","47","","0.3254497978","main_expt","","0.05828218186","","0.2049545467","","0.1380472806","","","","","",""
"196","","bandit","123","473112","0.0-85.0-0.0","69459469","wem/bandit_single","A2R02DYCDLY75U","pain","4","","72","H","0","img/none_selected.jpg","0","1","0","","0.3438960799","false","48","","0.3438960799","main_expt","","0.1161016377","","0.1608881285","","0.1673270425","","","","","",""
"67","","bandit","124","474972","0.0-86.0-0.0","69459469","wem/bandit_single","A2R02DYCDLY75U","pain","4","","72","H","0","img/none_selected.jpg","0","0","1","","0.3405395495","false","49","","0.3405395495","main_expt","","0.1135844416","","0.2001806823","","0.1637821127","","","","","",""
"375","","bandit","125","477110","0.0-87.0-0.0","69459469","wem/bandit_single","A2R02DYCDLY75U","pain","4","","74","J","1","","0","0","1","","0.1646239324","false","50","","0.3305224856","main_expt","","0.1646239324","","0.2061381611","","0.1826101584","","","","","",""
"77","","bandit","126","478972","0.0-88.0-0.0","69459469","wem/bandit_single","A2R02DYCDLY75U","pain","4","","76","L","3","","0","1","0","","0.2270371056","false","51","","0.2304924019","main_expt","","0.1699716213","","0.2369791141","","0.2270371056","","","","","",""
"199","","bandit","127","480939","0.0-89.0-0.0","69459469","wem/bandit_single","A2R02DYCDLY75U","pain","4","","76","L","3","","0","0","1","","0.2203225001","false","52","","0.2832256505","main_expt","","0.1762937123","","0.2378663067","","0.2203225001","","","","","",""
"444","","bandit","128","483171","0.0-90.0-0.0","69459469","wem/bandit_single","A2R02DYCDLY75U","pain","4","","74","J","1","","0","0","1","","0.2287193473","false","53","","0.2391441838","main_expt","","0.2287193473","","0.2063519028","","0.2776849753","","","","","",""
"171","","bandit","129","485125","0.0-91.0-0.0","69459469","wem/bandit_single","A2R02DYCDLY75U","pain","4","","75","K","2","","0","0","1","","0.2439582882","false","54","","0.2697071588","main_expt","","0.2356834932","","0.2439582882","","0.2454572706","","","","","",""
"93","","bandit","130","486989","0.0-92.0-0.0","69459469","wem/bandit_single","A2R02DYCDLY75U","pain","4","","76","L","3","","0","0","1","","0.2382153161","false","55","","0.2875326611","main_expt","","0.306547883","","0.2381950618","","0.2382153161","","","","","",""
"118","","bandit","131","488869","0.0-93.0-0.0","69459469","wem/bandit_single","A2R02DYCDLY75U","pain","4","","72","H","0","img/none_selected.jpg","0","0","1","","0.2854258916","false","56","","0.2854258916","main_expt","","0.2853582168","","0.1800346575","","0.1960908288","","","","","",""
"766","","bandit","132","491432","0.0-94.0-0.0","69459469","wem/bandit_single","A2R02DYCDLY75U","pain","4","","74","J","1","","0","0","1","","0.2834250679","false","57","","0.3445045135","main_expt","","0.2834250679","","0.2336203315","","0.2042340564","","","","","",""
"1116","","bandit","133","494336","0.0-95.0-0.0","69459469","wem/bandit_single","A2R02DYCDLY75U","pain","4","","76","L","3","","0","0","1","","0.1490893454","false","58","","0.3390226593","main_expt","","0.2690284398","","0.189887459","","0.1490893454","","","","","",""
"228","","bandit","134","496339","0.0-96.0-0.0","69459469","wem/bandit_single","A2R02DYCDLY75U","pain","4","","75","K","2","","0","0","1","","0.1548607402","false","59","","0.2666291788","main_expt","","0.2616697142","","0.1548607402","","0.1581154669","","","","","",""
"110","","bandit","135","498224","0.0-97.0-0.0","69459469","wem/bandit_single","A2R02DYCDLY75U","pain","4","","72","H","0","img/none_selected.jpg","0","0","1","","0.246985882","false","60","","0.246985882","main_expt","","0.2704186185","","0.1233285174","","0.1715954381","","","","","",""
"67","","bandit","136","500068","0.0-98.0-0.0","69459469","wem/bandit_single","A2R02DYCDLY75U","pain","4","","74","J","1","","0","1","0","","0.3376037184","false","61","","0.2171589204","main_expt","","0.3376037184","","0.186549837","","0.1999420892","","","","","",""
"87","","bandit","137","501941","0.0-99.0-0.0","69459469","wem/bandit_single","A2R02DYCDLY75U","pain","4","","74","J","1","","0","0","1","","0.3098521258","false","62","","0.2677831299","main_expt","","0.3098521258","","0.1420872584","","0.1539309088","","","","","",""
"186","","bandit","138","503910","0.0-100.0-0.0","69459469","wem/bandit_single","A2R02DYCDLY75U","pain","4","","74","J","1","","0","0","1","","0.3137631198","false","63","","0.2303454974","main_expt","","0.3137631198","","0.151707711","","0.1085632924","","","","","",""
"92","","bandit","139","505769","0.0-101.0-0.0","69459469","wem/bandit_single","A2R02DYCDLY75U","pain","4","","75","K","2","","0","0","1","","0.1474827626","false","64","","0.196947777","main_expt","","0.3179430645","","0.1474827626","","0.1370187426","","","","","",""
"336","","bandit","140","507892","0.0-102.0-0.0","69459469","wem/bandit_single","A2R02DYCDLY75U","pain","4","","72","H","0","img/none_selected.jpg","0","0","1","","0.1645630622","false","65","","0.1645630622","main_expt","","0.2980330155","","0.1746529425","","0.1322062037","","","","","",""
"217","","bandit","141","509892","0.0-103.0-0.0","69459469","wem/bandit_single","A2R02DYCDLY75U","pain","4","","76","L","3","","0","0","1","","0.1496501041","false","66","","0.1533283495","main_expt","","0.2537140377","","0.1310865155","","0.1496501041","","","","","",""
"886","","bandit","142","512550","0.0-104.0-0.0","69459469","wem/bandit_single","A2R02DYCDLY75U","pain","4","","74","J","1","","0","0","1","","0.2153704701","false","67","","0.1708403009","main_expt","","0.2153704701","","0.1370872981","","0.1626820295","","","","","",""
"74","","bandit","143","514405","0.0-105.0-0.0","69459469","wem/bandit_single","A2R02DYCDLY75U","pain","4","","72","H","0","img/none_selected.jpg","0","0","1","","0.1887917493","false","68","","0.1887917493","main_expt","","0.2417705853","","0.09914494933","","0.1989514297","","","","","",""
"65","","bandit","144","516255","0.0-106.0-0.0","69459469","wem/bandit_single","A2R02DYCDLY75U","pain","4","","75","K","2","","0","0","1","","0.1092411584","false","69","","0.2160515082","main_expt","","0.3235463827","","0.1092411584","","0.1888867792","","","","","",""
"90","","bandit","145","518116","0.0-107.0-0.0","69459469","wem/bandit_single","A2R02DYCDLY75U","pain","4","","76","L","3","","0","0","1","","0.1767550628","false","70","","0.2778565133","main_expt","","0.3647615206","","0.1213917008","","0.1767550628","","","","","",""
"221","","bandit","146","520116","0.0-108.0-0.0","69459469","wem/bandit_single","A2R02DYCDLY75U","pain","4","","76","L","3","","0","0","1","","0.1253641033","false","71","","0.2623699359","main_expt","","0.3472934012","","0.1479005197","","0.1253641033","","","","","",""
"242","","bandit","147","522133","0.0-109.0-0.0","69459469","wem/bandit_single","A2R02DYCDLY75U","pain","4","","74","J","1","","0","1","0","","0.2965124106","false","72","","0.2574081817","main_expt","","0.2965124106","","0.1931369739","","0.1319365506","","","","","",""
"155","","bandit","148","524076","0.0-110.0-0.0","69459469","wem/bandit_single","A2R02DYCDLY75U","pain","4","","74","J","1","","0","0","1","","0.2823595977","false","73","","0.2503470883","main_expt","","0.2823595977","","0.1900103681","","0.1061905376","","","","","",""
"105","","bandit","149","525957","0.0-111.0-0.0","69459469","wem/bandit_single","A2R02DYCDLY75U","pain","4","","72","H","0","img/none_selected.jpg","0","0","1","","0.2710758316","false","74","","0.2710758316","main_expt","","0.2835749375","","0.1344428369","","0.1303083533","","","","","",""
"99","","bandit","150","527853","0.0-112.0-0.0","69459469","wem/bandit_single","A2R02DYCDLY75U","pain","4","","76","L","3","","0","0","1","","0.1359111238","false","75","","0.260759121","main_expt","","0.3526847528","","0.1528357022","","0.1359111238","","","","","",""
"61","","bandit","151","529689","0.0-113.0-0.0","69459469","wem/bandit_single","A2R02DYCDLY75U","pain","4","","74","J","1","","0","0","1","","0.3434196486","false","76","","0.2610050464","main_expt","","0.3434196486","","0.1898592508","","0.1128391495","","","","","",""
"109","","bandit","152","531577","0.0-114.0-0.0","69459469","wem/bandit_single","A2R02DYCDLY75U","pain","4","","75","K","2","","0","0","1","","0.191464519","false","77","","0.1920601856","main_expt","","0.3073782559","","0.191464519","","0.1118044987","","","","","",""
"133","","bandit","153","533490","0.0-115.0-0.0","69459469","wem/bandit_single","A2R02DYCDLY75U","pain","4","","72","H","0","img/none_selected.jpg","0","1","0","","0.1726035312","false","78","","0.1726035312","main_expt","","0.3200097729","","0.2665821314","","0.1315400358","","","","","",""
"56","","bandit","154","535325","0.0-116.0-0.0","69459469","wem/bandit_single","A2R02DYCDLY75U","pain","4","","72","H","0","img/none_selected.jpg","0","0","1","","0.1974193715","false","79","","0.1974193715","main_expt","","0.3406321397","","0.2510402579","","0.1421279646","","","","","",""
"63","","bandit","155","537161","0.0-117.0-0.0","69459469","wem/bandit_single","A2R02DYCDLY75U","pain","4","","74","J","1","","0","0","1","","0.2934749235","false","80","","0.1771423485","main_expt","","0.2934749235","","0.2803090616","","0.1666910293","","","","","",""
"80","","bandit","156","539022","0.0-118.0-0.0","69459469","wem/bandit_single","A2R02DYCDLY75U","pain","4","","76","L","3","","0","0","1","","0.1514130178","false","81","","0.1689426189","main_expt","","0.3080678564","","0.3053401272","","0.1514130178","","","","","",""
"508","","bandit","157","541318","0.0-119.0-0.0","69459469","wem/bandit_single","A2R02DYCDLY75U","pain","4","","74","J","1","","0","0","1","","0.3118316764","false","82","","0.2008945118","main_expt","","0.3118316764","","0.3079009489","","0.1667518413","","","","","",""
"154","","bandit","158","543256","0.0-120.0-0.0","69459469","wem/bandit_single","A2R02DYCDLY75U","pain","4","","72","H","0","img/none_selected.jpg","0","0","1","","0.2679993971","false","83","","0.2679993971","main_expt","","0.2539803618","","0.3294465445","","0.1620161121","","","","","",""
"603","","bandit","159","545637","0.0-121.0-0.0","69459469","wem/bandit_single","A2R02DYCDLY75U","pain","4","","75","K","2","","0","0","1","","0.3567704092","false","84","","0.2187304288","main_expt","","0.2665148507","","0.3567704092","","0.1920696542","","","","","",""
"90","","bandit","160","547510","0.0-122.0-0.0","69459469","wem/bandit_single","A2R02DYCDLY75U","pain","4","","76","L","3","","0","0","1","","0.1790321084","false","85","","0.2668074714","main_expt","","0.2638978108","","0.3637986046","","0.1790321084","","","","","",""
"166","","bandit","161","549469","0.0-123.0-0.0","69459469","wem/bandit_single","A2R02DYCDLY75U","pain","4","","72","H","0","img/none_selected.jpg","0","0","1","","0.3011617684","false","86","","0.3011617684","main_expt","","0.2430370424","","0.3661817966","","0.1644507099","","","","","",""
"149","","bandit","162","551408","0.0-124.0-0.0","69459469","wem/bandit_single","A2R02DYCDLY75U","pain","4","","74","J","1","","0","0","1","","0.2369050713","false","87","","0.2866912597","main_expt","","0.2369050713","","0.349996741","","0.1731377232","","","","","",""
"190","","bandit","163","553377","0.0-125.0-0.0","69459469","wem/bandit_single","A2R02DYCDLY75U","pain","4","","74","J","1","","0","0","1","","0.2322244834","false","88","","0.2921806028","main_expt","","0.2322244834","","0.3021468993","","0.1562940882","","","","","",""
"57","","bandit","164","555208","0.0-126.0-0.0","69459469","wem/bandit_single","A2R02DYCDLY75U","pain","4","","72","H","0","img/none_selected.jpg","0","0","1","","0.2877077994","false","89","","0.2877077994","main_expt","","0.214722025","","0.2752269066","","0.1344734597","","","","","",""
"58","","bandit","165","557042","0.0-127.0-0.0","69459469","wem/bandit_single","A2R02DYCDLY75U","pain","4","","74","J","1","","0","0","1","","0.1767670318","false","90","","0.2390413286","main_expt","","0.1767670318","","0.3172240337","","0.1192135027","","","","","",""
"90","","bandit","166","558935","0.0-128.0-0.0","69459469","wem/bandit_single","A2R02DYCDLY75U","pain","4","","75","K","2","","0","0","1","","0.3049723864","false","91","","0.2582098676","main_expt","","0.1391375388","","0.3049723864","","0.1639104845","","","","","",""
"22","","bandit","167","560739","0.0-129.0-0.0","69459469","wem/bandit_single","A2R02DYCDLY75U","pain","4","","76","L","3","","0","1","0","","0.1960431165","false","92","","0.3066747335","main_expt","","0.1283323985","","0.3261529518","","0.1960431165","","","","","",""
"170","","bandit","168","562706","0.0-130.0-0.0","69459469","wem/bandit_single","A2R02DYCDLY75U","pain","4","","76","L","3","","0","0","1","","0.2137056669","false","93","","0.3051362106","main_expt","","0.07538544447","","0.3550538726","","0.2137056669","","","","","",""
"260","","bandit","169","564742","0.0-131.0-0.0","69459469","wem/bandit_single","A2R02DYCDLY75U","pain","4","","76","L","3","","0","0","1","","0.2188004936","false","94","","0.3433649514","main_expt","","0.07407963518","","0.3335231974","","0.2188004936","","","","","",""
"378","","bandit","170","566891","0.0-132.0-0.0","69459469","wem/bandit_single","A2R02DYCDLY75U","pain","4","","72","H","0","img/none_selected.jpg","0","1","0","","0.3638642947","false","95","","0.3638642947","main_expt","","0.06265185683","","0.3060397856","","0.2442185641","","","","","",""
"44","","bandit","171","568720","0.0-133.0-0.0","69459469","wem/bandit_single","A2R02DYCDLY75U","pain","4","","72","H","0","img/none_selected.jpg","0","0","1","","0.3433071503","false","96","","0.3433071503","main_expt","","0.0626930361","","0.3420618169","","0.2062156096","","","","","",""
"63","","bandit","172","570559","0.0-134.0-0.0","69459469","wem/bandit_single","A2R02DYCDLY75U","pain","4","","74","J","1","","0","0","1","","0.03702031205","false","97","","0.3287523936","main_expt","","0.03702031205","","0.3451805041","","0.1824441478","","","","","",""
"130","","bandit","173","572461","0.0-135.0-0.0","69459469","wem/bandit_single","A2R02DYCDLY75U","pain","4","","76","L","3","","0","0","1","","0.1741419228","false","98","","0.3384657171","main_expt","","0.02896114516","","0.3067376926","","0.1741419228","","","","","",""
"113","","bandit","174","574361","0.0-136.0-0.0","69459469","wem/bandit_single","A2R02DYCDLY75U","pain","4","","72","H","0","img/none_selected.jpg","0","0","1","","0.3929596429","false","99","","0.3929596429","main_expt","","0.04301278827","","0.2980645096","","0.1402348549","","","","","",""
"167","","bandit","175","576319","0.0-137.0-0.0","69459469","wem/bandit_single","A2R02DYCDLY75U","pain","4","","76","L","3","","0","0","1","","0.1856728267","false","100","","0.3972918561","main_expt","","0.03198738169","","0.2862788702","","0.1856728267","","","","","",""
"1344","","bandit","176","579447","0.0-138.0-0.0","69459469","wem/bandit_single","A2R02DYCDLY75U","pain","4","","74","J","1","","0","0","1","","0.03387094668","false","101","","0.4064604032","main_expt","","0.03387094668","","0.2622165861","","0.1731032509","","","","","",""
"832","","bandit","177","582049","0.0-139.0-0.0","69459469","wem/bandit_single","A2R02DYCDLY75U","pain","4","","75","K","2","","0","0","1","","0.3261799811","false","102","","0.4273413635","main_expt","","0.0235124197","","0.3261799811","","0.1387116465","","","","","",""
"837","","bandit","178","584672","0.0-140.0-0.0","69459469","wem/bandit_single","A2R02DYCDLY75U","pain","4","","72","H","0","img/none_selected.jpg","0","0","1","","0.4566487837","false","103","","0.4566487837","main_expt","","0.02482610326","","0.334814711","","0.1880660303","","","","","",""
"74","","bandit","179","586522","0.0-141.0-0.0","69459469","wem/bandit_single","A2R02DYCDLY75U","pain","4","","76","L","3","","0","0","1","","0.142060421","false","104","","0.459539636","main_expt","","0.03330094042","","0.3486298313","","0.142060421","","","","","",""
"74","","bandit","180","588393","0.0-142.0-0.0","69459469","wem/bandit_single","A2R02DYCDLY75U","pain","4","","74","J","1","","0","0","1","","0.06543537915","false","105","","0.4462881264","main_expt","","0.06543537915","","0.3538911629","","0.1839839798","","","","","",""
"16","","bandit","181","590179","0.0-143.0-0.0","69459469","wem/bandit_single","A2R02DYCDLY75U","pain","4","","76","L","3","","0","0","1","","0.1691947451","false","106","","0.4417011126","main_expt","","0.07051160025","","0.3886974852","","0.1691947451","","","","","",""
"2","","bandit","182","591973","0.0-144.0-0.0","69459469","wem/bandit_single","A2R02DYCDLY75U","pain","4","","72","H","0","img/none_selected.jpg","0","0","1","","0.4419194373","false","107","","0.4419194373","main_expt","","0.08830456602","","0.3489433712","","0.180010917","","","","","",""
"326","","bandit","183","594088","0.0-145.0-0.0","69459469","wem/bandit_single","A2R02DYCDLY75U","pain","4","","75","K","2","","0","0","1","","0.3901728218","false","108","","0.4061848383","main_expt","","0.05921849724","","0.3901728218","","0.1338722415","","","","","",""
"442","","bandit","184","596314","0.0-146.0-0.0","69459469","wem/bandit_single","A2R02DYCDLY75U","pain","4","","76","L","3","","0","0","1","","0.1350853679","false","109","","0.3906669636","main_expt","","0.04581125366","","0.4006799949","","0.1350853679","","","","","",""
"410","","bandit","185","598506","0.0-147.0-0.0","69459469","wem/bandit_single","A2R02DYCDLY75U","pain","4","","72","H","0","img/none_selected.jpg","0","0","1","","0.3969614195","false","110","","0.3969614195","main_expt","","0.08345510588","","0.3867714499","","0.184551263","","","","","",""
"133","","bandit","186","600428","0.0-148.0-0.0","69459469","wem/bandit_single","A2R02DYCDLY75U","pain","4","","74","J","1","","0","0","1","","0.07355878572","false","111","","0.370186674","main_expt","","0.07355878572","","0.4252141842","","0.2635344293","","","","","",""
"840","","bandit","187","603051","0.0-149.0-0.0","69459469","wem/bandit_single","A2R02DYCDLY75U","pain","4","","72","H","0","img/none_selected.jpg","0","1","0","","0.3488043283","false","112","","0.3488043283","main_expt","","0.09226575929","","0.4197282726","","0.2972025743","","","","","",""
"194","","bandit","188","605033","0.0-150.0-0.0","69459469","wem/bandit_single","A2R02DYCDLY75U","pain","4","","72","H","0","img/none_selected.jpg","0","0","1","","0.2886117592","false","113","","0.2886117592","main_expt","","0.07711661396","","0.4371411526","","0.2853398636","","","","","",""
"70","","bandit","189","606884","0.0-151.0-0.0","69459469","wem/bandit_single","A2R02DYCDLY75U","pain","4","","76","L","3","","0","0","1","","0.2354235092","false","114","","0.3507025671","main_expt","","0.09366406151","","0.4523407119","","0.2354235092","","","","","",""
"628","","bandit","190","609294","0.0-152.0-0.0","69459469","wem/bandit_single","A2R02DYCDLY75U","pain","4","","74","J","1","","0","0","1","","0.09297781317","false","115","","0.3308051733","main_expt","","0.09297781317","","0.4544977282","","0.2228923984","","","","","",""
"113","","bandit","191","611194","0.0-153.0-0.0","69459469","wem/bandit_single","A2R02DYCDLY75U","pain","4","","75","K","2","","0","1","0","","0.4458191396","false","116","","0.2696902145","main_expt","","0.09292735615","","0.4458191396","","0.182615248","","","","","",""
"113","","bandit","192","613094","0.0-154.0-0.0","69459469","wem/bandit_single","A2R02DYCDLY75U","pain","4","","75","K","2","","0","0","1","","0.4384124693","false","117","","0.3048340551","main_expt","","0.1277349031","","0.4384124693","","0.1702457594","","","","","",""
"183","","bandit","193","615063","0.0-155.0-0.0","69459469","wem/bandit_single","A2R02DYCDLY75U","pain","4","","75","K","2","","0","0","1","","0.4590850855","false","118","","0.2682044258","main_expt","","0.1057820856","","0.4590850855","","0.2075823826","","","","","",""
"216","","bandit","194","617052","0.0-156.0-0.0","69459469","wem/bandit_single","A2R02DYCDLY75U","pain","4","","72","H","0","img/none_selected.jpg","0","0","1","","0.2314514612","false","119","","0.2314514612","main_expt","","0.08453932314","","0.4718937063","","0.2281388084","","","","","",""
"125","","bandit","195","618962","0.0-157.0-0.0","69459469","wem/bandit_single","A2R02DYCDLY75U","pain","4","","76","L","3","","0","0","1","","0.2620651535","false","120","","0.197474053","main_expt","","0.1106897037","","0.4645470247","","0.2620651535","","","","","",""
"875","","bandit","196","621624","0.0-158.0-0.0","69459469","wem/bandit_single","A2R02DYCDLY75U","pain","4","","74","J","1","","0","0","1","","0.1200625234","false","121","","0.1819521248","main_expt","","0.1200625234","","0.4422277234","","0.2953433235","","","","","",""
"529","","bandit","197","623931","0.0-159.0-0.0","69459469","wem/bandit_single","A2R02DYCDLY75U","pain","4","","75","K","2","","0","0","1","","0.4150525319","false","122","","0.171732915","main_expt","","0.1570760405","","0.4150525319","","0.2702367277","","","","","",""
"131","","bandit","198","625848","0.0-160.0-0.0","69459469","wem/bandit_single","A2R02DYCDLY75U","pain","4","","76","L","3","","0","1","0","","0.3190818872","false","123","","0.1577660673","main_expt","","0.1616024906","","0.4356762379","","0.3190818872","","","","","",""
"238","","bandit","199","627865","0.0-161.0-0.0","69459469","wem/bandit_single","A2R02DYCDLY75U","pain","4","","76","L","3","","0","1","0","","0.3415455108","false","124","","0.1384195938","main_expt","","0.1371750093","","0.4475351861","","0.3415455108","","","","","",""
"406","","bandit","200","630051","0.0-162.0-0.0","69459469","wem/bandit_single","A2R02DYCDLY75U","pain","4","","76","L","3","","0","0","1","","0.3955313072","false","125","","0.1367208018","main_expt","","0.1293707667","","0.4310995666","","0.3955313072","","","","","",""
"142","","bandit","201","631966","0.0-163.0-0.0","69459469","wem/bandit_single","A2R02DYCDLY75U","pain","4","","72","H","0","img/none_selected.jpg","0","0","1","","0.14570125","false","126","","0.14570125","main_expt","","0.1231453761","","0.4246911586","","0.4150522509","","","","","",""
"723","","bandit","202","634454","0.0-164.0-0.0","69459469","wem/bandit_single","A2R02DYCDLY75U","pain","4","","74","J","1","","0","0","1","","0.1044431599","false","127","","0.116128816","main_expt","","0.1044431599","","0.3855858577","","0.3803228979","","","","","",""
"56","","bandit","203","636275","0.0-165.0-0.0","69459469","wem/bandit_single","A2R02DYCDLY75U","pain","4","","76","L","3","","0","0","1","","0.4028097642","false","128","","0.1118736017","main_expt","","0.07509994275","","0.3886900275","","0.4028097642","","","","","",""
"140","","bandit","204","638182","0.0-166.0-0.0","69459469","wem/bandit_single","A2R02DYCDLY75U","pain","4","","75","K","2","","0","1","0","","0.3712880315","false","129","","0.1153634536","main_expt","","0.07499531951","","0.3712880315","","0.3759087187","","","","","",""
"134","","bandit","205","640109","0.0-167.0-0.0","69459469","wem/bandit_single","A2R02DYCDLY75U","pain","4","","75","K","2","","0","0","1","","0.3163545042","false","130","","0.09323577747","main_expt","","0.06898381409","","0.3163545042","","0.3578404683","","","","","",""
"114","","bandit","206","642009","0.0-168.0-0.0","69459469","wem/bandit_single","A2R02DYCDLY75U","pain","4","","72","H","0","img/none_selected.jpg","0","0","1","","0.1064947735","false","131","","0.1064947735","main_expt","","0.08255272978","","0.3203759455","","0.3874222675","","","","","",""
"573","","bandit","207","644369","0.0-169.0-0.0","69459469","wem/bandit_single","A2R02DYCDLY75U","pain","4","","76","L","3","","0","1","0","","0.3773694481","false","132","","0.1574274544","main_expt","","0.06266196304","","0.3128419263","","0.3773694481","","","","","",""
"106","","bandit","208","646251","0.0-170.0-0.0","69459469","wem/bandit_single","A2R02DYCDLY75U","pain","4","","76","L","3","","0","0","1","","0.3961249281","false","133","","0.1613106331","main_expt","","0.06584579886","","0.3057041938","","0.3961249281","","","","","",""
"104","","bandit","209","648158","0.0-171.0-0.0","69459469","wem/bandit_single","A2R02DYCDLY75U","pain","4","","74","J","1","","0","0","1","","0.05935363428","false","134","","0.1660744508","main_expt","","0.05935363428","","0.2816585421","","0.4152923946","","","","","",""
"188","","bandit","210","650142","0.0-172.0-0.0","69459469","wem/bandit_single","A2R02DYCDLY75U","pain","4","","75","K","2","","0","0","1","","0.2955422992","false","135","","0.1973964499","main_expt","","0.05732645975","","0.2955422992","","0.4424865849","","","","","",""
"348","","bandit","211","652276","0.0-173.0-0.0","69459469","wem/bandit_single","A2R02DYCDLY75U","pain","4","","72","H","0","img/none_selected.jpg","0","0","1","","0.1813196928","false","136","","0.1813196928","main_expt","","0.07342087183","","0.3509846551","","0.4465543098","","","","","",""
"75","","bandit","212","654140","0.0-174.0-0.0","69459469","wem/bandit_single","A2R02DYCDLY75U","pain","4","","76","L","3","","0","1","0","","0.4520996047","false","137","","0.1859539446","main_expt","","0.07676045657","","0.3344410146","","0.4520996047","","","","","",""
"75","","bandit","213","656002","0.0-175.0-0.0","69459469","wem/bandit_single","A2R02DYCDLY75U","pain","4","","76","L","3","","0","0","1","","0.428300575","false","138","","0.1014888705","main_expt","","0.09127868582","","0.2657268636","","0.428300575","","","","","",""
"171","","bandit","214","657973","0.0-176.0-0.0","69459469","wem/bandit_single","A2R02DYCDLY75U","pain","4","","72","H","0","img/none_selected.jpg","0","0","1","","0.09034098631","false","139","","0.09034098631","main_expt","","0.1057771966","","0.2267955479","","0.419833238","","","","","",""
"985","","bandit","215","660749","0.0-177.0-0.0","69459469","wem/bandit_single","A2R02DYCDLY75U","pain","4","","75","K","2","","0","0","1","","0.2278141127","false","140","","0.09102227313","main_expt","","0.1134354218","","0.2278141127","","0.423721229","","","","","",""
"33","","bandit","216","662562","0.0-178.0-0.0","69459469","wem/bandit_single","A2R02DYCDLY75U","pain","4","","74","J","1","","0","0","1","","0.1205694848","false","141","","0.1095349378","main_expt","","0.1205694848","","0.23653477","","0.4382479885","","","","","",""
"246","","bandit","217","664603","0.0-179.0-0.0","69459469","wem/bandit_single","A2R02DYCDLY75U","pain","4","","76","L","3","","0","0","1","","0.4247465964","false","142","","0.1184068784","main_expt","","0.1423721259","","0.2155890047","","0.4247465964","","","","","",""
"101","","bandit","218","666482","0.0-180.0-0.0","69459469","wem/bandit_single","A2R02DYCDLY75U","pain","4","","72","H","0","img/none_selected.jpg","0","0","1","","0.1056920569","false","143","","0.1056920569","main_expt","","0.1199770031","","0.2203428631","","0.3978340057","","","","","",""
"1500","","bandit","219","669763","0.0-181.0-0.0","69459469","wem/bandit_single","A2R02DYCDLY75U","pain","4","","74","J","1","","0","0","1","","0.1431068991","false","144","","0.1563123998","main_expt","","0.1431068991","","0.1834171178","","0.4094639435","","","","","",""
"1016","","bandit","220","672571","0.0-182.0-0.0","69459469","wem/bandit_single","A2R02DYCDLY75U","pain","4","","76","L","3","","0","0","1","","0.4198905501","false","145","","0.09088636348","main_expt","","0.1630017245","","0.2064693802","","0.4198905501","","","","","",""
"96","","bandit","221","674452","0.0-183.0-0.0","69459469","wem/bandit_single","A2R02DYCDLY75U","pain","4","","72","H","0","img/none_selected.jpg","0","0","1","","0.0827806059","false","146","","0.0827806059","main_expt","","0.145034553","","0.1342941172","","0.4050886303","","","","","",""
"88","","bandit","222","676321","0.0-184.0-0.0","69459469","wem/bandit_single","A2R02DYCDLY75U","pain","4","","75","K","2","","0","0","1","","0.1515740161","false","147","","0.1149215639","main_expt","","0.1488017726","","0.1515740161","","0.3785891444","","","","","",""
"189","","bandit","223","678285","0.0-185.0-0.0","69459469","wem/bandit_single","A2R02DYCDLY75U","pain","4","","72","H","0","img/none_selected.jpg","0","1","0","","0.1099148444","false","148","","0.1099148444","main_expt","","0.1582677895","","0.1212747878","","0.3854511928","","","","","",""
"140","","bandit","224","680200","0.0-186.0-0.0","69459469","wem/bandit_single","A2R02DYCDLY75U","pain","4","","72","H","0","img/none_selected.jpg","0","0","1","","0.1127327795","false","149","","0.1127327795","main_expt","","0.1647072654","","0.08453377975","","0.3928641012","","","","","",""
"143","","bandit","225","682125","0.0-187.0-0.0","69459469","wem/bandit_single","A2R02DYCDLY75U","pain","4","","76","L","3","","0","1","0","","0.3981420368","false","150","","0.1477728786","main_expt","","0.1333243968","","0.1060211344","","0.3981420368","","","","","",""
"254","","bandit","226","684176","0.0-188.0-0.0","69459469","wem/bandit_single","A2R02DYCDLY75U","pain","4","","76","L","3","","0","1","0","","0.3954234158","false","151","","0.1634569086","main_expt","","0.1232516149","","0.06473992137","","0.3954234158","","","","","",""
"295","","bandit","227","686254","0.0-189.0-0.0","69459469","wem/bandit_single","A2R02DYCDLY75U","pain","4","","76","L","3","","0","0","1","","0.3684376671","false","152","","0.2119786212","main_expt","","0.1218764731","","0.07847139908","","0.3684376671","","","","","",""
"492","","bandit","228","688529","0.0-190.0-0.0","69459469","wem/bandit_single","A2R02DYCDLY75U","pain","4","","74","J","1","","0","0","1","","0.1181944444","false","153","","0.190815194","main_expt","","0.1181944444","","0.06170083269","","0.3586265296","","","","","",""
"135","","bandit","229","690432","0.0-191.0-0.0","69459469","wem/bandit_single","A2R02DYCDLY75U","pain","4","","75","K","2","","0","1","0","","0.07752027139","false","154","","0.2539230859","main_expt","","0.1524072167","","0.07752027139","","0.3711835277","","","","","",""
"85","","bandit","230","692302","0.0-192.0-0.0","69459469","wem/bandit_single","A2R02DYCDLY75U","pain","4","","75","K","2","","0","0","1","","0.07430376846","false","155","","0.2214647723","main_expt","","0.2181316645","","0.07430376846","","0.3296220366","","","","","",""
"1641","","bandit","231","695727","0.0-193.0-0.0","69459469","wem/bandit_single","A2R02DYCDLY75U","pain","4","","72","H","0","img/none_selected.jpg","0","1","0","","0.1812397975","false","156","","0.1812397975","main_expt","","0.213475765","","0.05925504694","","0.287903252","","","","","",""
"334","","bandit","232","697852","0.0-194.0-0.0","69459469","wem/bandit_single","A2R02DYCDLY75U","pain","4","","72","H","0","img/none_selected.jpg","0","0","1","","0.1447548225","false","157","","0.1447548225","main_expt","","0.2264995707","","0.0737155059","","0.296290929","","","","","",""
"93","","bandit","233","699739","0.0-195.0-0.0","69459469","wem/bandit_single","A2R02DYCDLY75U","pain","4","","76","L","3","","0","1","0","","0.2721348168","false","158","","0.1458137519","main_expt","","0.2991482761","","0.05755321342","","0.2721348168","","","","","",""
"223","","bandit","234","701754","0.0-196.0-0.0","69459469","wem/bandit_single","A2R02DYCDLY75U","pain","4","","76","L","3","","0","0","1","","0.2765185667","false","159","","0.1035755389","main_expt","","0.3365391658","","0.1007830752","","0.2765185667","","","","","",""
"96","","bandit","235","703646","0.0-197.0-0.0","69459469","wem/bandit_single","A2R02DYCDLY75U","pain","4","","75","K","2","","0","0","1","","0.06149362121","false","160","","0.1142027444","main_expt","","0.313402929","","0.06149362121","","0.3162688162","","","","","",""
"391","","bandit","236","705826","0.0-198.0-0.0","69459469","wem/bandit_single","A2R02DYCDLY75U","pain","4","","74","J","1","","0","0","1","","0.3529908654","false","161","","0.1510988582","main_expt","","0.3529908654","","0.09516109007","","0.3302336848","","","","","",""
"98","","bandit","237","707693","0.0-199.0-0.0","69459469","wem/bandit_single","A2R02DYCDLY75U","pain","4","","72","H","0","img/none_selected.jpg","0","0","1","","0.1720124831","false","162","","0.1720124831","main_expt","","0.3608295961","","0.08429007215","","0.3622896815","","","","","",""
"224","","bandit","238","709690","0.0-200.0-0.0","69459469","wem/bandit_single","A2R02DYCDLY75U","pain","4","","76","L","3","","0","0","1","","0.3696580379","false","163","","0.2119433459","main_expt","","0.4197284319","","0.1199893575","","0.3696580379","","","","","",""
"327","","bandit","239","711794","0.0-201.0-0.0","69459469","wem/bandit_single","A2R02DYCDLY75U","pain","4","","74","J","1","","0","0","1","","0.4162507976","false","164","","0.2413639604","main_expt","","0.4162507976","","0.1353867718","","0.3217553384","","","","","",""
"106","","bandit","240","713680","0.0-202.0-0.0","69459469","wem/bandit_single","A2R02DYCDLY75U","pain","4","","75","K","2","","0","0","1","","0.08700720397","false","165","","0.3231443763","main_expt","","0.424344073","","0.08700720397","","0.2370356752","","","","","",""
"308","","bandit","241","715756","0.0-203.0-0.0","69459469","wem/bandit_single","A2R02DYCDLY75U","pain","4","","72","H","0","img/none_selected.jpg","0","0","1","","0.2907209657","false","166","","0.2907209657","main_expt","","0.4385436022","","0.09613155095","","0.1952619304","","","","","",""
"121","","bandit","242","717661","0.0-204.0-0.0","69459469","wem/bandit_single","A2R02DYCDLY75U","pain","4","","76","L","3","","0","1","0","","0.2008635704","false","167","","0.2386263765","main_expt","","0.4428370211","","0.08740230362","","0.2008635704","","","","","",""
"123","","bandit","243","719570","0.0-205.0-0.0","69459469","wem/bandit_single","A2R02DYCDLY75U","pain","4","","76","L","3","","0","0","1","","0.2872582577","false","168","","0.2802872421","main_expt","","0.4475632301","","0.1033010443","","0.2872582577","","","","","",""
"521","","bandit","244","721865","0.0-206.0-0.0","69459469","wem/bandit_single","A2R02DYCDLY75U","pain","4","","75","K","2","","0","1","0","","0.1288835215","false","169","","0.2858578204","main_expt","","0.4358894507","","0.1288835215","","0.2478638945","","","","","",""
"1104","","bandit","245","724755","0.0-207.0-0.0","69459469","wem/bandit_single","A2R02DYCDLY75U","pain","4","","75","K","2","","0","1","0","","0.0821831217","false","170","","0.3542119366","main_expt","","0.4401344765","","0.0821831217","","0.2335785199","","","","","",""
"419","","bandit","246","726964","0.0-208.0-0.0","69459469","wem/bandit_single","A2R02DYCDLY75U","pain","4","","75","K","2","","0","0","1","","0.08448133796","false","171","","0.363516632","main_expt","","0.4182824287","","0.08448133796","","0.263029084","","","","","",""
"313","","bandit","247","729062","0.0-209.0-0.0","69459469","wem/bandit_single","A2R02DYCDLY75U","pain","4","","72","H","0","img/none_selected.jpg","0","1","0","","0.3285232471","false","172","","0.3285232471","main_expt","","0.4206293302","","0.1142172702","","0.282237019","","","","","",""
"179","","bandit","248","731031","0.0-210.0-0.0","69459469","wem/bandit_single","A2R02DYCDLY75U","pain","4","","72","H","0","img/none_selected.jpg","0","0","1","","0.3379934215","false","173","","0.3379934215","main_expt","","0.4424673434","","0.1585219493","","0.2798091978","","","","","",""
"176","","bandit","249","732973","0.0-211.0-0.0","69459469","wem/bandit_single","A2R02DYCDLY75U","pain","4","","76","L","3","","0","1","0","","0.2782342077","false","174","","0.2937018888","main_expt","","0.4470793942","","0.2167008269","","0.2782342077","","","","","",""
"688","","bandit","250","735449","0.0-212.0-0.0","69459469","wem/bandit_single","A2R02DYCDLY75U","pain","4","","76","L","3","","0","0","1","","0.3095951925","false","175","","0.2691073907","main_expt","","0.4466152725","","0.2564405216","","0.3095951925","","","","","",""
"176","","bandit","251","737396","0.0-213.0-0.0","69459469","wem/bandit_single","A2R02DYCDLY75U","pain","4","","75","K","2","","0","0","1","","0.2740916264","false","176","","0.2797966768","main_expt","","0.4622816701","","0.2740916264","","0.3149167583","","","","","",""
"153","","bandit","252","739332","0.0-214.0-0.0","69459469","wem/bandit_single","A2R02DYCDLY75U","pain","4","","72","H","0","img/none_selected.jpg","0","0","1","","0.2956207272","false","177","","0.2956207272","main_expt","","0.4791174255","","0.2701885048","","0.3057016371","","","","","",""
"355","","bandit","253","741481","0.0-215.0-0.0","69459469","wem/bandit_single","A2R02DYCDLY75U","pain","4","","74","J","1","","0","1","0","","0.4878404122","false","178","","0.2903749226","main_expt","","0.4878404122","","0.2525299603","","0.2973749651","","","","","",""
"150","","bandit","254","743417","0.0-216.0-0.0","69459469","wem/bandit_single","A2R02DYCDLY75U","pain","4","","74","J","1","","0","0","1","","0.4871204803","false","179","","0.2324022499","main_expt","","0.4871204803","","0.2923151224","","0.3205080684","","","","","",""
"578","","bandit","255","745781","0.0-217.0-0.0","69459469","wem/bandit_single","A2R02DYCDLY75U","pain","4","","76","L","3","","0","0","1","","0.3668921479","false","180","","0.157369965","main_expt","","0.4783768728","","0.2712435876","","0.3668921479","","","","","",""
"327","","bandit","256","747888","0.0-218.0-0.0","69459469","wem/bandit_single","A2R02DYCDLY75U","pain","4","","75","K","2","","0","0","1","","0.2911825171","false","181","","0.1928111427","main_expt","","0.4791844977","","0.2911825171","","0.36743573","","","","","",""
"420","","bandit","257","750084","0.0-219.0-0.0","69459469","wem/bandit_single","A2R02DYCDLY75U","pain","4","","72","H","0","img/none_selected.jpg","0","0","1","","0.1831473083","false","182","","0.1831473083","main_expt","","0.4796326775","","0.2812290194","","0.3444330154","","","","","",""
"113","","bandit","258","751980","0.0-220.0-0.0","69459469","wem/bandit_single","A2R02DYCDLY75U","pain","4","","74","J","1","","0","1","0","","0.4610412729","false","183","","0.1367876881","main_expt","","0.4610412729","","0.2998653002","","0.376594699","","","","","",""
"224","","bandit","259","754003","0.0-221.0-0.0","69459469","wem/bandit_single","A2R02DYCDLY75U","pain","4","","74","J","1","","0","0","1","","0.4654872089","false","184","","0.1225312115","main_expt","","0.4654872089","","0.3019566185","","0.3576767422","","","","","",""
"97","","bandit","260","755877","0.0-222.0-0.0","69459469","wem/bandit_single","A2R02DYCDLY75U","pain","4","","76","L","3","","0","0","1","","0.3420219295","false","185","","0.1342014861","main_expt","","0.4579605539","","0.3297019868","","0.3420219295","","","","","",""
"107","","bandit","261","757768","0.0-223.0-0.0","69459469","wem/bandit_single","A2R02DYCDLY75U","pain","4","","75","K","2","","0","0","1","","0.3522504082","false","186","","0.1302900424","main_expt","","0.4285966985","","0.3522504082","","0.3398722127","","","","","",""
"333","","bandit","262","759882","0.0-224.0-0.0","69459469","wem/bandit_single","A2R02DYCDLY75U","pain","4","","72","H","0","img/none_selected.jpg","0","0","1","","0.1721475048","false","187","","0.1721475048","main_expt","","0.4348535533","","0.3716798598","","0.3329123812","","","","","",""
"920","","bandit","263","762594","0.0-225.0-0.0","69459469","wem/bandit_single","A2R02DYCDLY75U","pain","4","","74","J","1","","0","0","1","","0.4485299143","false","188","","0.194848396","main_expt","","0.4485299143","","0.3516931858","","0.3185375489","","","","","",""
"366","","bandit","264","764746","0.0-226.0-0.0","69459469","wem/bandit_single","A2R02DYCDLY75U","pain","4","","72","H","0","img/none_selected.jpg","0","0","1","","0.2010474049","false","189","","0.2010474049","main_expt","","0.4108460603","","0.311825216","","0.2819885058","","","","","",""
"285","","bandit","265","766826","0.0-227.0-0.0","69459469","wem/bandit_single","A2R02DYCDLY75U","pain","4","","76","L","3","","0","1","0","","0.2938453289","false","190","","0.2388592571","main_expt","","0.4276881046","","0.3228194114","","0.2938453289","","","","","",""
"35","","bandit","266","768644","0.0-228.0-0.0","69459469","wem/bandit_single","A2R02DYCDLY75U","pain","4","","76","L","3","","0","1","0","","0.3252392313","false","191","","0.2125939305","main_expt","","0.4252680513","","0.3070679034","","0.3252392313","","","","","",""
"175","","bandit","267","770601","0.0-229.0-0.0","69459469","wem/bandit_single","A2R02DYCDLY75U","pain","4","","76","L","3","","0","1","0","","0.2886148476","false","192","","0.2494953747","main_expt","","0.4128843357","","0.3224985291","","0.2886148476","","","","","",""
"296","","bandit","268","772674","0.0-230.0-0.0","69459469","wem/bandit_single","A2R02DYCDLY75U","pain","4","","76","L","3","","0","1","0","","0.2985788169","false","193","","0.2831479201","main_expt","","0.3935422506","","0.3869795439","","0.2985788169","","","","","",""
"196","","bandit","269","774651","0.0-231.0-0.0","69459469","wem/bandit_single","A2R02DYCDLY75U","pain","4","","76","L","3","","0","0","1","","0.2480640489","false","194","","0.3119862296","main_expt","","0.3844836544","","0.4012627402","","0.2480640489","","","","","",""
"116","","bandit","270","776549","0.0-232.0-0.0","69459469","wem/bandit_single","A2R02DYCDLY75U","pain","4","","75","K","2","","0","0","1","","0.3984750166","false","195","","0.3216729489","main_expt","","0.3676726872","","0.3984750166","","0.2512767584","","","","","",""
"54","","bandit","271","778399","0.0-233.0-0.0","69459469","wem/bandit_single","A2R02DYCDLY75U","pain","4","","72","H","0","img/none_selected.jpg","0","0","1","","0.3321806914","false","196","","0.3321806914","main_expt","","0.3789354293","","0.354698241","","0.2465093633","","","","","",""
"72","","bandit","272","780252","0.0-234.0-0.0","69459469","wem/bandit_single","A2R02DYCDLY75U","pain","4","","74","J","1","","0","0","1","","0.3163718389","false","197","","0.3046277309","main_expt","","0.3163718389","","0.388220233","","0.2064088789","","","","","",""
"157","","bandit","273","782176","0.0-235.0-0.0","69459469","wem/bandit_single","A2R02DYCDLY75U","pain","4","","76","L","3","","0","0","1","","0.1991167995","false","198","","0.2780350238","main_expt","","0.3791854339","","0.3702696144","","0.1991167995","","","","","",""
"85","","bandit","274","784040","0.0-236.0-0.0","69459469","wem/bandit_single","A2R02DYCDLY75U","pain","4","","75","K","2","","0","1","0","","0.3901406761","false","199","","0.2933352516","main_expt","","0.3677616307","","0.3901406761","","0.217931059","","","","","",""
"45","","bandit","275","785875","0.0-237.0-0.0","69459469","wem/bandit_single","A2R02DYCDLY75U","pain","4","","75","K","2","","0","0","1","","0.3606677237","false","200","","0.2826656477","main_expt","","0.3696360463","","0.3606677237","","0.1684289921","","","","","",""
"198","","bandit","276","787875","0.0-238.0-0.0","69459469","wem/bandit_single","A2R02DYCDLY75U","pain","4","","72","H","0","img/none_selected.jpg","0","0","1","","0.2337361703","false","201","","0.2337361703","main_expt","","0.3685313937","","0.3608273241","","0.1526494416","","","","","",""
"146","","bandit","277","789802","0.0-239.0-0.0","69459469","wem/bandit_single","A2R02DYCDLY75U","pain","4","","74","J","1","","0","0","1","","0.354480527","false","202","","0.1697000529","main_expt","","0.354480527","","0.3495453025","","0.1474087426","","","","","",""
"180","","bandit","278","791756","0.0-240.0-0.0","69459469","wem/bandit_single","A2R02DYCDLY75U","pain","4","","76","L","3","","0","0","1","","0.1499100939","false","203","","0.1941246875","main_expt","","0.3420940801","","0.3660628182","","0.1499100939","","","","","",""
"269","","bandit","279","793790","0.0-241.0-0.0","69459469","wem/bandit_single","A2R02DYCDLY75U","pain","4","","72","H","0","img/none_selected.jpg","0","0","1","","0.2006574904","false","204","","0.2006574904","main_expt","","0.3365711719","","0.337040125","","0.173155318","","","","","",""
"558","","bandit","280","796128","0.0-242.0-0.0","69459469","wem/bandit_single","A2R02DYCDLY75U","pain","4","","75","K","2","","0","0","1","","0.303371863","false","205","","0.1905393187","main_expt","","0.3517226909","","0.303371863","","0.1813441082","","","","","",""
"73","","bandit","281","797994","0.0-243.0-0.0","69459469","wem/bandit_single","A2R02DYCDLY75U","pain","4","","74","J","1","","0","1","0","","0.3476038752","false","206","","0.1715448013","main_expt","","0.3476038752","","0.256221391","","0.1491413167","","","","","",""
"78","","bandit","282","799872","0.0-244.0-0.0","69459469","wem/bandit_single","A2R02DYCDLY75U","pain","4","","74","J","1","","0","1","0","","0.3349551135","false","207","","0.1857981004","main_expt","","0.3349551135","","0.2368802791","","0.08847738283","","","","","",""
"376","","bandit","283","802046","0.0-245.0-0.0","69459469","wem/bandit_single","A2R02DYCDLY75U","pain","4","","74","J","1","","0","0","1","","0.342580335","false","208","","0.2102455122","main_expt","","0.342580335","","0.1949321076","","0.1283817583","","","","","",""
"110","","bandit","284","803950","0.0-246.0-0.0","69459469","wem/bandit_single","A2R02DYCDLY75U","pain","4","","72","H","0","img/none_selected.jpg","0","0","1","","0.2400108979","false","209","","0.2400108979","main_expt","","0.3043768385","","0.1838736563","","0.116273769","","","","","",""
"204","","bandit","285","805933","0.0-247.0-0.0","69459469","wem/bandit_single","A2R02DYCDLY75U","pain","4","","76","L","3","","0","0","1","","0.1255054793","false","210","","0.2756077388","main_expt","","0.2578785415","","0.2021797606","","0.1255054793","","","","","",""
"152","","bandit","286","807868","0.0-248.0-0.0","69459469","wem/bandit_single","A2R02DYCDLY75U","pain","4","","72","H","0","img/none_selected.jpg","0","0","1","","0.2509099491","false","211","","0.2509099491","main_expt","","0.2684152162","","0.1724183734","","0.1183517879","","","","","",""
"158","","bandit","287","809816","0.0-249.0-0.0","69459469","wem/bandit_single","A2R02DYCDLY75U","pain","4","","76","L","3","","0","0","1","","0.05794836862","false","212","","0.1980821896","main_expt","","0.2734791169","","0.1730984207","","0.05794836862","","","","","",""
"151","","bandit","288","811737","0.0-250.0-0.0","69459469","wem/bandit_single","A2R02DYCDLY75U","pain","4","","75","K","2","","0","0","1","","0.1324166562","false","213","","0.1925164192","main_expt","","0.2278558496","","0.1324166562","","0.05975327623","","","","","",""
"495","","bandit","289","814020","0.0-251.0-0.0","69459469","wem/bandit_single","A2R02DYCDLY75U","pain","4","","74","J","1","","0","0","1","","0.3028606466","false","214","","0.2265747235","main_expt","","0.3028606466","","0.1503769339","","0.08438277685","","","","","",""
"256","","bandit","290","816073","0.0-252.0-0.0","69459469","wem/bandit_single","A2R02DYCDLY75U","pain","4","","76","L","3","","0","0","1","","0.06249742642","false","215","","0.2019374621","main_expt","","0.2931323275","","0.1957560139","","0.06249742642","","","","","",""
"121","","bandit","291","817992","0.0-253.0-0.0","69459469","wem/bandit_single","A2R02DYCDLY75U","pain","4","","72","H","0","img/none_selected.jpg","0","0","1","","0.1789305456","false","216","","0.1789305456","main_expt","","0.3496422565","","0.2405167914","","0.03962767808","","","","","",""
"210","","bandit","292","819993","0.0-254.0-0.0","69459469","wem/bandit_single","A2R02DYCDLY75U","pain","4","","76","L","3","","0","0","1","","0.04234009702","false","217","","0.1749198907","main_expt","","0.3773047798","","0.1730494568","","0.04234009702","","","","","",""
"1241","","bandit","293","823032","0.0-255.0-0.0","69459469","wem/bandit_single","A2R02DYCDLY75U","pain","4","","75","K","2","","0","0","1","","0.194438436","false","218","","0.1735363699","main_expt","","0.3416605923","","0.194438436","","0.03503126556","","","","","",""
"88","","bandit","294","824906","0.0-256.0-0.0","69459469","wem/bandit_single","A2R02DYCDLY75U","pain","4","","74","J","1","","0","0","1","","0.3559276739","false","219","","0.2007391453","main_expt","","0.3559276739","","0.1883779435","","0.04555228435","","","","","",""
"108","","bandit","295","826805","0.0-257.0-0.0","69459469","wem/bandit_single","A2R02DYCDLY75U","pain","4","","72","H","0","img/none_selected.jpg","0","0","1","","0.2082644318","false","220","","0.2082644318","main_expt","","0.3535435837","","0.146052069","","0.03183460319","","","","","",""
"108","","bandit","296","828685","0.0-258.0-0.0","69459469","wem/bandit_single","A2R02DYCDLY75U","pain","4","","76","L","3","","0","0","1","","0.05071015327","false","221","","0.1821586712","main_expt","","0.3418709783","","0.1494285134","","0.05071015327","","","","","",""
"177","","bandit","297","830641","0.0-259.0-0.0","69459469","wem/bandit_single","A2R02DYCDLY75U","pain","4","","72","H","0","img/none_selected.jpg","0","1","0","","0.2158533928","false","222","","0.2158533928","main_expt","","0.3004905908","","0.182387278","","0.04027023507","","","","","",""
"332","","bandit","298","832761","0.0-260.0-0.0","69459469","wem/bandit_single","A2R02DYCDLY75U","pain","4","","72","H","0","img/none_selected.jpg","0","0","1","","0.1832968935","false","223","","0.1832968935","main_expt","","0.3691689592","","0.198140534","","0.05247893246","","","","","",""
"134","","bandit","299","834676","0.0-261.0-0.0","69459469","wem/bandit_single","A2R02DYCDLY75U","pain","4","","76","L","3","","0","1","0","","0.06352932029","false","224","","0.1701073256","main_expt","","0.2915556832","","0.1957066115","","0.06352932029","","","","","",""
"56","","bandit","300","836526","0.0-262.0-0.0","69459469","wem/bandit_single","A2R02DYCDLY75U","pain","4","","76","L","3","","0","0","1","","0.04388745626","false","225","","0.1599508429","main_expt","","0.3175642321","","0.2132826896","","0.04388745626","","","","","",""
"337","","bandit","301","838647","0.0-263.0-0.0","69459469","wem/bandit_single","A2R02DYCDLY75U","pain","4","","75","K","2","","0","1","0","","0.2679811769","false","226","","0.1801289829","main_expt","","0.2803716623","","0.2679811769","","0.0536624769","","","","","",""
"711","","bandit","302","841134","0.0-264.0-0.0","69459469","wem/bandit_single","A2R02DYCDLY75U","pain","4","","75","K","2","","0","0","1","","0.2101601544","false","227","","0.1920788888","main_expt","","0.2506224893","","0.2101601544","","0.07211167966","","","","","",""
"97","","bandit","303","843009","0.0-265.0-0.0","69459469","wem/bandit_single","A2R02DYCDLY75U","pain","4","","74","J","1","","0","1","0","","0.2890404278","false","228","","0.1540575712","main_expt","","0.2890404278","","0.1808571688","","0.04486621846","","","","","",""
"97","","bandit","304","844889","0.0-266.0-0.0","69459469","wem/bandit_single","A2R02DYCDLY75U","pain","4","","74","J","1","","0","1","0","","0.2746035793","false","229","","0.161449161","main_expt","","0.2746035793","","0.1132309001","","0.05387953984","","","","","",""
"375","","bandit","305","847050","0.0-267.0-0.0","69459469","wem/bandit_single","A2R02DYCDLY75U","pain","4","","74","J","1","","0","1","0","","0.282726532","false","230","","0.1413021421","main_expt","","0.282726532","","0.1450818377","","0.03848872117","","","","","",""
"324","","bandit","306","849152","0.0-268.0-0.0","69459469","wem/bandit_single","A2R02DYCDLY75U","pain","4","","74","J","1","","0","1","0","","0.3472256411","false","231","","0.1745796094","main_expt","","0.3472256411","","0.1077137685","","0.04669383004","","","","","",""
"368","","bandit","307","851309","0.0-269.0-0.0","69459469","wem/bandit_single","A2R02DYCDLY75U","pain","4","","74","J","1","","0","0","1","","0.3994934702","false","232","","0.1680880834","main_expt","","0.3994934702","","0.06427161289","","0.03395804074","","","","","",""
"77","","bandit","308","853188","0.0-270.0-0.0","69459469","wem/bandit_single","A2R02DYCDLY75U","pain","4","","76","L","3","","0","0","1","","0.05150109453","false","233","","0.213250795","main_expt","","0.4029083043","","0.1060089469","","0.05150109453","","","","","",""
"55","","bandit","309","855022","0.0-271.0-0.0","69459469","wem/bandit_single","A2R02DYCDLY75U","pain","4","","72","H","0","img/none_selected.jpg","0","0","1","","0.221091899","false","234","","0.221091899","main_expt","","0.4486287737","","0.1117154146","","0.06099663442","","","","","",""
"130","","bandit","310","856934","0.0-272.0-0.0","69459469","wem/bandit_single","A2R02DYCDLY75U","pain","4","","75","K","2","","0","0","1","","0.1276115887","false","235","","0.2688923835","main_expt","","0.4561120354","","0.1276115887","","0.05202127711","","","","","",""
"172","","bandit","311","858898","0.0-273.0-0.0","69459469","wem/bandit_single","A2R02DYCDLY75U","pain","4","","76","L","3","","0","0","1","","0.07001303924","false","236","","0.2323123402","main_expt","","0.4375102443","","0.1786916187","","0.07001303924","","","","","",""
"60","","bandit","312","860759","0.0-274.0-0.0","69459469","wem/bandit_single","A2R02DYCDLY75U","pain","4","","72","H","0","img/none_selected.jpg","0","1","0","","0.174764536","false","237","","0.174764536","main_expt","","0.4582573195","","0.1896980961","","0.07602679398","","","","","",""
"72","","bandit","313","862618","0.0-275.0-0.0","69459469","wem/bandit_single","A2R02DYCDLY75U","pain","4","","72","H","0","img/none_selected.jpg","0","0","1","","0.1654919337","false","238","","0.1654919337","main_expt","","0.4463811869","","0.2205101014","","0.08775462142","","","","","",""
"174","","bandit","314","864584","0.0-276.0-0.0","69459469","wem/bandit_single","A2R02DYCDLY75U","pain","4","","75","K","2","","0","0","1","","0.2661717939","false","239","","0.2402574844","main_expt","","0.4507479662","","0.2661717939","","0.06721086637","","","","","",""
"41","","bandit","315","866416","0.0-277.0-0.0","69459469","wem/bandit_single","A2R02DYCDLY75U","pain","4","","76","L","3","","0","0","1","","0.07433064979","false","240","","0.2445968751","main_expt","","0.4504038859","","0.1972661282","","0.07433064979","","","","","",""
"77","","bandit","316","868289","0.0-278.0-0.0","69459469","wem/bandit_single","A2R02DYCDLY75U","pain","4","","74","J","1","","0","0","1","","0.4346931185","false","241","","0.2708632627","main_expt","","0.4346931185","","0.1868253343","","0.08919714094","","","","","",""
"245","","bandit","317","870324","0.0-279.0-0.0","69459469","wem/bandit_single","A2R02DYCDLY75U","pain","4","","76","L","3","","0","0","1","","0.06159770715","false","242","","0.2047807489","main_expt","","0.3898892773","","0.1649449253","","0.06159770715","","","","","",""
"153","","bandit","318","872265","0.0-280.0-0.0","69459469","wem/bandit_single","A2R02DYCDLY75U","pain","4","","72","H","0","img/none_selected.jpg","0","1","0","","0.222122474","false","243","","0.222122474","main_expt","","0.4033463229","","0.184368772","","0.05299296545","","","","","",""
"89","","bandit","319","874138","0.0-281.0-0.0","69459469","wem/bandit_single","A2R02DYCDLY75U","pain","4","","72","H","0","img/none_selected.jpg","0","0","1","","0.2425992204","false","244","","0.2425992204","main_expt","","0.4096532456","","0.2121467569","","0.06275569833","","","","","",""
"132","","bandit","320","876063","0.0-282.0-0.0","69459469","wem/bandit_single","A2R02DYCDLY75U","pain","4","","76","L","3","","0","0","1","","0.06673215917","false","245","","0.2173978931","main_expt","","0.3779527256","","0.1894702338","","0.06673215917","","","","","",""
"144","","bandit","321","878005","0.0-283.0-0.0","69459469","wem/bandit_single","A2R02DYCDLY75U","pain","4","","75","K","2","","0","0","1","","0.2018459735","false","246","","0.2218069129","main_expt","","0.3953318503","","0.2018459735","","0.06500670021","","","","","",""
"63","","bandit","322","879859","0.0-284.0-0.0","69459469","wem/bandit_single","A2R02DYCDLY75U","pain","4","","74","J","1","","0","1","0","","0.4287890539","false","247","","0.1888628326","main_expt","","0.4287890539","","0.1986179994","","0.07271559664","","","","","",""
"103","","bandit","323","881756","0.0-285.0-0.0","69459469","wem/bandit_single","A2R02DYCDLY75U","pain","4","","74","J","1","","0","0","1","","0.4104310255","false","248","","0.1722509531","main_expt","","0.4104310255","","0.1299779064","","0.09654775784","","","","","",""
"89","","bandit","324","883627","0.0-286.0-0.0","69459469","wem/bandit_single","A2R02DYCDLY75U","pain","4","","75","K","2","","0","0","1","","0.1590650881","false","249","","0.2541205998","main_expt","","0.4116337798","","0.1590650881","","0.1179039307","","","","","",""
"338","","bandit","325","885756","0.0-287.0-0.0","69459469","wem/bandit_single","A2R02DYCDLY75U","pain","4","","74","J","1","","0","0","1","","0.426505214","false","250","","0.2664885101","main_expt","","0.426505214","","0.1213614167","","0.1265890049","","","","","",""
"120","","bandit","326","887667","0.0-288.0-0.0","69459469","wem/bandit_single","A2R02DYCDLY75U","pain","4","","76","L","3","","0","1","0","","0.1039398773","false","251","","0.2519669898","main_expt","","0.3949293487","","0.1099334476","","0.1039398773","","","","","",""
"314","","bandit","327","889750","0.0-289.0-0.0","69459469","wem/bandit_single","A2R02DYCDLY75U","pain","4","","76","L","3","","0","0","1","","0.107940897","false","252","","0.2932098873","main_expt","","0.3913077142","","0.1087011898","","0.107940897","","","","","",""
"258","","bandit","328","891796","0.0-290.0-0.0","69459469","wem/bandit_single","A2R02DYCDLY75U","pain","4","","72","H","0","img/none_selected.jpg","0","0","1","","0.3179249839","false","253","","0.3179249839","main_expt","","0.3648650894","","0.09397011719","","0.1136461566","","","","","",""
"148","","bandit","329","893734","0.0-291.0-0.0","69459469","wem/bandit_single","A2R02DYCDLY75U","pain","4","","76","L","3","","0","0","1","","0.1374631792","false","254","","0.2908620441","main_expt","","0.3452883024","","0.08474648857","","0.1374631792","","","","","",""
"159","","bandit","330","895669","0.0-292.0-0.0","69459469","wem/bandit_single","A2R02DYCDLY75U","pain","4","","75","K","2","","0","0","1","","0.1025854271","false","255","","0.3067265453","main_expt","","0.2943306686","","0.1025854271","","0.1453945637","","","","","",""
"166","","bandit","331","897621","0.0-293.0-0.0","69459469","wem/bandit_single","A2R02DYCDLY75U","pain","4","","74","J","1","","0","0","1","","0.3225000795","false","256","","0.3133222149","main_expt","","0.3225000795","","0.08686152536","","0.1543600678","","","","","",""
"90","","bandit","332","899517","0.0-294.0-0.0","69459469","wem/bandit_single","A2R02DYCDLY75U","pain","4","","75","K","2","","0","0","1","","0.08667022303","false","257","","0.3194106209","main_expt","","0.3199750271","","0.08667022303","","0.107160473","","","","","",""
"161","","bandit","333","901472","0.0-295.0-0.0","69459469","wem/bandit_single","A2R02DYCDLY75U","pain","4","","76","L","3","","0","0","1","","0.0567043194","false","258","","0.35032938","main_expt","","0.355105101","","0.1158580788","","0.0567043194","","","","","",""
"548","","bandit","334","903793","0.0-296.0-0.0","69459469","wem/bandit_single","A2R02DYCDLY75U","pain","4","","72","H","0","img/none_selected.jpg","0","0","1","","0.3856615787","false","259","","0.3856615787","main_expt","","0.3566572827","","0.08241329339","","0.05418204449","","","","","",""
"462","","bandit","335","906035","0.0-297.0-0.0","69459469","wem/bandit_single","A2R02DYCDLY75U","pain","4","","74","J","1","","0","0","1","","0.3492833521","false","260","","0.3977147975","main_expt","","0.3492833521","","0.09346186364","","0.0423658587","","","","","",""
"82","","bandit","336","907890","0.0-298.0-0.0","69459469","wem/bandit_single","A2R02DYCDLY75U","pain","4","","75","K","2","","0","0","1","","0.07434745577","false","261","","0.4011116255","main_expt","","0.3406934897","","0.07434745577","","0.08097208102","","","","","",""
"257","","bandit","337","909930","0.0-299.0-0.0","69459469","wem/bandit_single","A2R02DYCDLY75U","pain","4","","76","L","3","","0","0","1","","0.05731993864","false","262","","0.4149706566","main_expt","","0.3604065233","","0.1177047137","","0.05731993864","","","","","",""
"102","","bandit","338","911824","0.0-300.0-0.0","69459469","wem/bandit_single","A2R02DYCDLY75U","pain","4","","72","H","0","img/none_selected.jpg","0","1","0","","0.4476629791","false","263","","0.4476629791","main_expt","","0.3584147688","","0.09530987449","","0.07314079116","","","","","",""
"93","","bandit","339","913702","0.0-301.0-0.0","69459469","wem/bandit_single","A2R02DYCDLY75U","pain","4","","72","H","0","img/none_selected.jpg","0","0","1","","0.4640453953","false","264","","0.4640453953","main_expt","","0.3723043834","","0.07595610255","","0.08382102311","","","","","",""
"142","","bandit","340","915630","0.0-302.0-0.0","69459469","wem/bandit_single","A2R02DYCDLY75U","pain","4","","76","L","3","","0","0","1","","0.1065624759","false","265","","0.4465377191","main_expt","","0.316280577","","0.08850347459","","0.1065624759","","","","","",""
"106","","bandit","341","917522","0.0-303.0-0.0","69459469","wem/bandit_single","A2R02DYCDLY75U","pain","4","","75","K","2","","0","1","0","","0.1215706641","false","266","","0.4183068553","main_expt","","0.269287162","","0.1215706641","","0.1253885588","","","","","",""
"23","","bandit","342","919333","0.0-304.0-0.0","69459469","wem/bandit_single","A2R02DYCDLY75U","pain","4","","75","K","2","","0","0","1","","0.1841144129","false","267","","0.4268145795","main_expt","","0.2280314931","","0.1841144129","","0.09016252172","","","","","",""
"134","","bandit","343","921266","0.0-305.0-0.0","69459469","wem/bandit_single","A2R02DYCDLY75U","pain","4","","74","J","1","","0","0","1","","0.2243604643","false","268","","0.4319202891","main_expt","","0.2243604643","","0.1409141681","","0.08700052181","","","","","",""
"96","","bandit","344","923152","0.0-306.0-0.0","69459469","wem/bandit_single","A2R02DYCDLY75U","pain","4","","72","H","0","img/none_selected.jpg","0","0","1","","0.4493038861","false","269","","0.4493038861","main_expt","","0.2334807581","","0.1011197226","","0.09500676271","","","","","",""
"166","","bandit","345","925099","0.0-307.0-0.0","69459469","wem/bandit_single","A2R02DYCDLY75U","pain","4","","76","L","3","","0","0","1","","0.07607499825","false","270","","0.443059266","main_expt","","0.2376518603","","0.118556502","","0.07607499825","","","","","",""
"177","","bandit","346","927074","0.0-308.0-0.0","69459469","wem/bandit_single","A2R02DYCDLY75U","pain","4","","74","J","1","","0","0","1","","0.2139372972","false","271","","0.4362671961","main_expt","","0.2139372972","","0.131750931","","0.08946946819","","","","","",""
"93","","bandit","347","928955","0.0-309.0-0.0","69459469","wem/bandit_single","A2R02DYCDLY75U","pain","4","","72","H","0","img/none_selected.jpg","0","1","0","","0.4452199348","false","272","","0.4452199348","main_expt","","0.157688628","","0.174678733","","0.108288805","","","","","",""
"120","","bandit","348","930868","0.0-310.0-0.0","69459469","wem/bandit_single","A2R02DYCDLY75U","pain","4","","72","H","0","img/none_selected.jpg","0","0","1","","0.454652927","false","273","","0.454652927","main_expt","","0.271098703","","0.1730415972","","0.105491008","","","","","",""
"97","","bandit","349","932763","0.0-311.0-0.0","69459469","wem/bandit_single","A2R02DYCDLY75U","pain","4","","76","L","3","","0","0","1","","0.1059149547","false","274","","0.4646374989","main_expt","","0.2778056479","","0.1520576313","","0.1059149547","","","","","",""
"87","","bandit","350","934648","0.0-312.0-0.0","69459469","wem/bandit_single","A2R02DYCDLY75U","pain","4","","75","K","2","","0","0","1","","0.1007060326","false","275","","0.4535579815","main_expt","","0.2698457611","","0.1007060326","","0.09894283875","","","","","",""
"132","","bandit","351","936568","0.0-313.0-0.0","69459469","wem/bandit_single","A2R02DYCDLY75U","pain","4","","74","J","1","","0","1","0","","0.2774836338","false","276","","0.4319407295","main_expt","","0.2774836338","","0.08844777519","","0.07695295732","","","","","",""
"71","","bandit","352","938418","0.0-314.0-0.0","69459469","wem/bandit_single","A2R02DYCDLY75U","pain","4","","74","J","1","","0","0","1","","0.3222794015","false","277","","0.4475260374","main_expt","","0.3222794015","","0.1315613084","","0.0896712608","","","","","",""
"90","","bandit","353","940304","0.0-315.0-0.0","69459469","wem/bandit_single","A2R02DYCDLY75U","pain","4","","76","L","3","","0","0","1","","0.1343695578","false","278","","0.4553849104","main_expt","","0.3122447371","","0.1508492864","","0.1343695578","","","","","",""
"102","","bandit","354","942184","0.0-316.0-0.0","69459469","wem/bandit_single","A2R02DYCDLY75U","pain","4","","75","K","2","","0","0","1","","0.1181182825","false","279","","0.4621871954","main_expt","","0.2934764685","","0.1181182825","","0.1106050404","","","","","",""
"83","","bandit","355","944053","0.0-317.0-0.0","69459469","wem/bandit_single","A2R02DYCDLY75U","pain","4","","72","H","0","img/none_selected.jpg","0","1","0","","0.4482597109","false","280","","0.4482597109","main_expt","","0.290984208","","0.1244803533","","0.114105974","","","","","",""
"607","","bandit","356","946446","0.0-318.0-0.0","69459469","wem/bandit_single","A2R02DYCDLY75U","pain","4","","75","K","2","","0","0","1","","0.105821284","false","281","","0.4347423019","main_expt","","0.2974260948","","0.105821284","","0.1246337516","","","","","",""
"108","","bandit","357","948354","0.0-319.0-0.0","69459469","wem/bandit_single","A2R02DYCDLY75U","pain","4","","76","L","3","","0","0","1","","0.079988156","false","282","","0.4583393623","main_expt","","0.2972171025","","0.1562468179","","0.079988156","","","","","",""
"90","","bandit","358","950216","0.0-320.0-0.0","69459469","wem/bandit_single","A2R02DYCDLY75U","pain","4","","74","J","1","","0","0","1","","0.2821487798","false","283","","0.4497532375","main_expt","","0.2821487798","","0.1478322318","","0.06901380195","","","","","",""
"103","","bandit","359","952114","0.0-321.0-0.0","69459469","wem/bandit_single","A2R02DYCDLY75U","pain","4","","72","H","0","img/none_selected.jpg","0","1","0","","0.4312811421","false","284","","0.4312811421","main_expt","","0.2739939459","","0.1371678423","","0.05901051183","","","","","",""
"302","","bandit","360","954202","0.0-322.0-0.0","69459469","wem/bandit_single","A2R02DYCDLY75U","pain","4","","72","H","0","img/none_selected.jpg","0","0","1","","0.4599346403","false","285","","0.4599346403","main_expt","","0.2251097973","","0.12762277","","0.1126944794","","","","","",""
"117","","bandit","361","956112","0.0-323.0-0.0","69459469","wem/bandit_single","A2R02DYCDLY75U","pain","4","","76","L","3","","0","0","1","","0.09646131279","false","286","","0.4588450488","main_expt","","0.2124690726","","0.1587978561","","0.09646131279","","","","","",""
"1","","bandit","362","957906","0.0-324.0-0.0","69459469","wem/bandit_single","A2R02DYCDLY75U","pain","4","","75","K","2","","0","0","1","","0.1262084743","false","287","","0.4684539465","main_expt","","0.2311163105","","0.1262084743","","0.0795853072","","","","","",""
"78","","bandit","363","959763","0.0-325.0-0.0","69459469","wem/bandit_single","A2R02DYCDLY75U","pain","4","","74","J","1","","0","0","1","","0.2178761709","false","288","","0.4555823871","main_expt","","0.2178761709","","0.08849331384","","0.07210460151","","","","","",""
"109","","bandit","364","961669","0.0-326.0-0.0","69459469","wem/bandit_single","A2R02DYCDLY75U","pain","4","","76","L","3","","0","0","1","","0.08807043944","false","289","","0.4779982095","main_expt","","0.2656120211","","0.1082793638","","0.08807043944","","","","","",""
"139","","bandit","365","963597","0.0-327.0-0.0","69459469","wem/bandit_single","A2R02DYCDLY75U","pain","4","","75","K","2","","0","0","1","","0.1591187351","false","290","","0.4806691972","main_expt","","0.2756957417","","0.1591187351","","0.09097769709","","","","","",""
"248","","bandit","366","965645","0.0-328.0-0.0","69459469","wem/bandit_single","A2R02DYCDLY75U","pain","4","","74","J","1","","0","0","1","","0.3111580235","false","291","","0.4856322508","main_expt","","0.3111580235","","0.1766493085","","0.1486720085","","","","","",""
"80","","bandit","367","967519","0.0-329.0-0.0","69459469","wem/bandit_single","A2R02DYCDLY75U","pain","4","","72","H","0","img/none_selected.jpg","0","0","1","","0.4905538215","false","292","","0.4905538215","main_expt","","0.3019137931","","0.1303677554","","0.166368556","","","","","",""
"101","","bandit","368","969390","0.0-330.0-0.0","69459469","wem/bandit_single","A2R02DYCDLY75U","pain","4","","76","L","3","","0","0","1","","0.1516979355","false","293","","0.4915741327","main_expt","","0.2930542664","","0.1553518032","","0.1516979355","","","","","",""
"48","","bandit","369","971226","0.0-331.0-0.0","69459469","wem/bandit_single","A2R02DYCDLY75U","pain","4","","74","J","1","","0","0","1","","0.294566814","false","294","","0.4854109815","main_expt","","0.294566814","","0.1586445557","","0.142642289","","","","","",""
"58","","bandit","370","973075","0.0-332.0-0.0","69459469","wem/bandit_single","A2R02DYCDLY75U","pain","4","","75","K","2","","0","1","0","","0.1474370852","false","295","","0.4737464351","main_expt","","0.2590601899","","0.1474370852","","0.1038045902","","","","","",""
"85","","bandit","371","974943","0.0-333.0-0.0","69459469","wem/bandit_single","A2R02DYCDLY75U","pain","4","","75","K","2","","0","0","1","","0.1281429101","false","296","","0.4752126994","main_expt","","0.260130188","","0.1281429101","","0.1055366566","","","","","",""
"125","","bandit","372","976855","0.0-334.0-0.0","69459469","wem/bandit_single","A2R02DYCDLY75U","pain","4","","76","L","3","","0","0","1","","0.07292146603","false","297","","0.47087989","main_expt","","0.243487995","","0.1486346553","","0.07292146603","","","","","",""
