"rt","responses","trial_type","trial_index","time_elapsed","internal_node_id","subjID","study","MID","cond","drift","key_press","respCharCode","respKey","respChoiceNum","respChoice","gems","bombs","no_reward","GemPrChosen","BombPrChosen","practice","trial_counter","WinPr_0","LosePr_0","trial_label","WinPr_1","LosePr_1","WinPr_2","LosePr_2","WinPr_3","LosePr_3","Q0","Q1","Q2","gender","age","ethnicity"
"31569","{""Q0"":""A36BQYQGN6OWVU""}","survey-text","0","31587","0.0-0.0","69950158","wem/bandit_single","A36BQYQGN6OWVU","pain","4","","","","","","","","","","","","","","","","","","","","","","","","","","",""
"1429","","text","1","34024","0.0-1.0","69950158","wem/bandit_single","A36BQYQGN6OWVU","pain","4","32","","","","","","","","","","","","","","","","","","","","","","","","","",""
"2437","","text","2","36465","0.0-2.0","69950158","wem/bandit_single","A36BQYQGN6OWVU","pain","4","32","","","","","","","","","","","","","","","","","","","","","","","","","",""
"10036","","text","3","46506","0.0-3.0","69950158","wem/bandit_single","A36BQYQGN6OWVU","pain","4","32","","","","","","","","","","","","","","","","","","","","","","","","","",""
"8632","","text","4","55143","0.0-4.0","69950158","wem/bandit_single","A36BQYQGN6OWVU","pain","4","32","","","","","","","","","","","","","","","","","","","","","","","","","",""
"4121","","text","5","59266","0.0-5.0","69950158","wem/bandit_single","A36BQYQGN6OWVU","pain","4","32","","","","","","","","","","","","","","","","","","","","","","","","","",""
"4071","","text","6","63340","0.0-6.0","69950158","wem/bandit_single","A36BQYQGN6OWVU","pain","4","32","","","","","","","","","","","","","","","","","","","","","","","","","",""
"1955","","text","7","65298","0.0-7.0","69950158","wem/bandit_single","A36BQYQGN6OWVU","pain","4","32","","","","","","","","","","","","","","","","","","","","","","","","","",""
"2777","","text","8","68077","0.0-8.0","69950158","wem/bandit_single","A36BQYQGN6OWVU","pain","4","32","","","","","","","","","","","","","","","","","","","","","","","","","",""
"1858","","text","9","69936","0.0-9.0","69950158","wem/bandit_single","A36BQYQGN6OWVU","pain","4","32","","","","","","","","","","","","","","","","","","","","","","","","","",""
"4512","","text","10","74451","0.0-10.0","69950158","wem/bandit_single","A36BQYQGN6OWVU","pain","4","32","","","","","","","","","","","","","","","","","","","","","","","","","",""
"7938","","text","11","82397","0.0-11.0","69950158","wem/bandit_single","A36BQYQGN6OWVU","pain","4","32","","","","","","","","","","","","","","","","","","","","","","","","","",""
"1543","","bandit","12","85464","0.0-12.0-0.0","69950158","wem/bandit_single","A36BQYQGN6OWVU","pain","4","","74","J","0","img/none_selected_demo.jpg","0","0","1","0","0","true","0","0","0","","","","","","","","","","","","",""
"94","","bandit","13","87330","0.0-13.0-0.0","69950158","wem/bandit_single","A36BQYQGN6OWVU","pain","4","","75","K","0","img/none_selected_demo.jpg","0","0","1","0","0","true","0","0","0","","","","","","","","","","","","",""
"3061","","text","14","90647","0.0-14.0","69950158","wem/bandit_single","A36BQYQGN6OWVU","pain","4","32","","","","","","","","","","","","","","","","","","","","","","","","","",""
"964","","text","15","91615","0.0-15.0","69950158","wem/bandit_single","A36BQYQGN6OWVU","pain","4","32","","","","","","","","","","","","","","","","","","","","","","","","","",""
"1568","","text","16","93186","0.0-16.0","69950158","wem/bandit_single","A36BQYQGN6OWVU","pain","4","32","","","","","","","","","","","","","","","","","","","","","","","","","",""
"1659","","text","17","94849","0.0-17.0","69950158","wem/bandit_single","A36BQYQGN6OWVU","pain","4","32","","","","","","","","","","","","","","","","","","","","","","","","","",""
"1864","","bandit","18","98251","0.0-18.0-0.0","69950158","wem/bandit_single","A36BQYQGN6OWVU","pain","4","","74","J","0","img/none_selected_demo.jpg","0","1","0","0","0.8","true","0","0","0.8","80_20_practice","0","0.2","","","","","","","","","",""
"232","","bandit","19","100307","0.0-18.0-1.0","69950158","wem/bandit_single","A36BQYQGN6OWVU","pain","4","","75","K","1","","0","0","1","0","0.2","true","0","0","0.8","80_20_practice","0","0.2","","","","","","","","","",""
"673","","bandit","20","102766","0.0-18.0-2.0","69950158","wem/bandit_single","A36BQYQGN6OWVU","pain","4","","74","J","0","img/none_selected_demo.jpg","0","0","1","0","0.8","true","0","0","0.8","80_20_practice","0","0.2","","","","","","","","","",""
"631","","bandit","21","105160","0.0-18.0-3.0","69950158","wem/bandit_single","A36BQYQGN6OWVU","pain","4","","75","K","1","","0","0","1","0","0.2","true","0","0","0.8","80_20_practice","0","0.2","","","","","","","","","",""
"566","","bandit","22","107492","0.0-18.0-4.0","69950158","wem/bandit_single","A36BQYQGN6OWVU","pain","4","","75","K","1","","0","0","1","0","0.2","true","0","0","0.8","80_20_practice","0","0.2","","","","","","","","","",""
"448","","bandit","23","109705","0.0-18.0-5.0","69950158","wem/bandit_single","A36BQYQGN6OWVU","pain","4","","74","J","0","img/none_selected_demo.jpg","0","1","0","0","0.8","true","0","0","0.8","80_20_practice","0","0.2","","","","","","","","","",""
"849","","bandit","24","112315","0.0-18.0-6.0","69950158","wem/bandit_single","A36BQYQGN6OWVU","pain","4","","74","J","0","img/none_selected_demo.jpg","0","1","0","0","0.8","true","0","0","0.8","80_20_practice","0","0.2","","","","","","","","","",""
"1859","","bandit","25","116046","0.0-18.0-7.0","69950158","wem/bandit_single","A36BQYQGN6OWVU","pain","4","","74","J","0","img/none_selected_demo.jpg","0","1","0","0","0.8","true","0","0","0.8","80_20_practice","0","0.2","","","","","","","","","",""
"398","","bandit","26","118216","0.0-18.0-8.0","69950158","wem/bandit_single","A36BQYQGN6OWVU","pain","4","","74","J","0","img/none_selected_demo.jpg","0","1","0","0","0.8","true","0","0","0.8","80_20_practice","0","0.2","","","","","","","","","",""
"304","","bandit","27","120293","0.0-18.0-9.0","69950158","wem/bandit_single","A36BQYQGN6OWVU","pain","4","","74","J","0","img/none_selected_demo.jpg","0","1","0","0","0.8","true","0","0","0.8","80_20_practice","0","0.2","","","","","","","","","",""
"1294","","bandit","28","123427","0.0-18.0-10.0","69950158","wem/bandit_single","A36BQYQGN6OWVU","pain","4","","74","J","0","img/none_selected_demo.jpg","0","1","0","0","0.8","true","0","0","0.8","80_20_practice","0","0.2","","","","","","","","","",""
"400","","bandit","29","125595","0.0-18.0-11.0","69950158","wem/bandit_single","A36BQYQGN6OWVU","pain","4","","74","J","0","img/none_selected_demo.jpg","0","1","0","0","0.8","true","0","0","0.8","80_20_practice","0","0.2","","","","","","","","","",""
"353","","bandit","30","127712","0.0-18.0-12.0","69950158","wem/bandit_single","A36BQYQGN6OWVU","pain","4","","74","J","0","img/none_selected_demo.jpg","0","1","0","0","0.8","true","0","0","0.8","80_20_practice","0","0.2","","","","","","","","","",""
"240","","bandit","31","129717","0.0-18.0-13.0","69950158","wem/bandit_single","A36BQYQGN6OWVU","pain","4","","74","J","0","img/none_selected_demo.jpg","0","1","0","0","0.8","true","0","0","0.8","80_20_practice","0","0.2","","","","","","","","","",""
"196","","bandit","32","131698","0.0-18.0-14.0","69950158","wem/bandit_single","A36BQYQGN6OWVU","pain","4","","74","J","0","img/none_selected_demo.jpg","0","0","1","0","0.8","true","0","0","0.8","80_20_practice","0","0.2","","","","","","","","","",""
"264","","bandit","33","133728","0.0-18.0-15.0","69950158","wem/bandit_single","A36BQYQGN6OWVU","pain","4","","74","J","0","img/none_selected_demo.jpg","0","0","1","0","0.8","true","0","0","0.8","80_20_practice","0","0.2","","","","","","","","","",""
"150","","bandit","34","135693","0.0-18.0-16.0","69950158","wem/bandit_single","A36BQYQGN6OWVU","pain","4","","75","K","1","","0","0","1","0","0.2","true","0","0","0.8","80_20_practice","0","0.2","","","","","","","","","",""
"174","","bandit","35","137638","0.0-18.0-17.0","69950158","wem/bandit_single","A36BQYQGN6OWVU","pain","4","","75","K","1","","0","0","1","0","0.2","true","0","0","0.8","80_20_practice","0","0.2","","","","","","","","","",""
"348","","bandit","36","139754","0.0-18.0-18.0","69950158","wem/bandit_single","A36BQYQGN6OWVU","pain","4","","74","J","0","img/none_selected_demo.jpg","0","1","0","0","0.8","true","0","0","0.8","80_20_practice","0","0.2","","","","","","","","","",""
"151","","bandit","37","141670","0.0-18.0-19.0","69950158","wem/bandit_single","A36BQYQGN6OWVU","pain","4","","74","J","0","img/none_selected_demo.jpg","0","1","0","0","0.8","true","0","0","0.8","80_20_practice","0","0.2","","","","","","","","","",""
"2943","","text","38","144870","0.0-19.0","69950158","wem/bandit_single","A36BQYQGN6OWVU","pain","4","32","","","","","","","","","","","","","","","","","","","","","","","","","",""
"1341","","bandit","39","147961","0.0-20.0-0.0","69950158","wem/bandit_single","A36BQYQGN6OWVU","pain","4","","74","J","0","img/none_selected_demo.jpg","0","0","1","0","0","true","0","0","0","","0","0","","","","","","","","","",""
"2807","","text","40","151087","0.0-21.0","69950158","wem/bandit_single","A36BQYQGN6OWVU","pain","4","32","","","","","","","","","","","","","","","","","","","","","","","","","",""
"2442","","text","41","153539","0.0-22.0","69950158","wem/bandit_single","A36BQYQGN6OWVU","pain","4","32","","","","","","","","","","","","","","","","","","","","","","","","","",""
"971","","text","42","154518","0.0-23.0","69950158","wem/bandit_single","A36BQYQGN6OWVU","pain","4","32","","","","","","","","","","","","","","","","","","","","","","","","","",""
"1609","","text","43","156135","0.0-24.0","69950158","wem/bandit_single","A36BQYQGN6OWVU","pain","4","32","","","","","","","","","","","","","","","","","","","","","","","","","",""
"2398","","text","44","158541","0.0-25.0","69950158","wem/bandit_single","A36BQYQGN6OWVU","pain","4","32","","","","","","","","","","","","","","","","","","","","","","","","","",""
"1014","","text","45","159560","0.0-26.0","69950158","wem/bandit_single","A36BQYQGN6OWVU","pain","4","32","","","","","","","","","","","","","","","","","","","","","","","","","",""
"1353","","text","46","160921","0.0-27.0","69950158","wem/bandit_single","A36BQYQGN6OWVU","pain","4","32","","","","","","","","","","","","","","","","","","","","","","","","","",""
"1465","","text","47","162391","0.0-28.0","69950158","wem/bandit_single","A36BQYQGN6OWVU","pain","4","32","","","","","","","","","","","","","","","","","","","","","","","","","",""
"2212","","text","48","164608","0.0-29.0","69950158","wem/bandit_single","A36BQYQGN6OWVU","pain","4","32","","","","","","","","","","","","","","","","","","","","","","","","","",""
"1073","","text","49","165686","0.0-30.0","69950158","wem/bandit_single","A36BQYQGN6OWVU","pain","4","32","","","","","","","","","","","","","","","","","","","","","","","","","",""
"6841","","text","50","172533","0.0-31.0","69950158","wem/bandit_single","A36BQYQGN6OWVU","pain","4","32","","","","","","","","","","","","","","","","","","","","","","","","","",""
"674","","bandit","51","174723","0.0-32.0-0.0","69950158","wem/bandit_single","A36BQYQGN6OWVU","pain","4","","72","H","0","img/none_selected.jpg","0","1","0","0","0.8","true","0","0","0.8","full_practice","0","0.2","0","0.6","0","0.2","","","","","",""
"255","","bandit","52","176743","0.0-32.0-1.0","69950158","wem/bandit_single","A36BQYQGN6OWVU","pain","4","","72","H","0","img/none_selected.jpg","0","1","0","0","0.8","true","0","0","0.8","full_practice","0","0.2","0","0.6","0","0.2","","","","","",""
"178","","bandit","53","178688","0.0-32.0-2.0","69950158","wem/bandit_single","A36BQYQGN6OWVU","pain","4","","72","H","0","img/none_selected.jpg","0","1","0","0","0.8","true","0","0","0.8","full_practice","0","0.2","0","0.6","0","0.2","","","","","",""
"251","","bandit","54","180702","0.0-32.0-3.0","69950158","wem/bandit_single","A36BQYQGN6OWVU","pain","4","","72","H","0","img/none_selected.jpg","0","1","0","0","0.8","true","0","0","0.8","full_practice","0","0.2","0","0.6","0","0.2","","","","","",""
"133","","bandit","55","182605","0.0-32.0-4.0","69950158","wem/bandit_single","A36BQYQGN6OWVU","pain","4","","72","H","0","img/none_selected.jpg","0","1","0","0","0.8","true","0","0","0.8","full_practice","0","0.2","0","0.6","0","0.2","","","","","",""
"168","","bandit","56","184538","0.0-32.0-5.0","69950158","wem/bandit_single","A36BQYQGN6OWVU","pain","4","","72","H","0","img/none_selected.jpg","0","0","1","0","0.8","true","0","0","0.8","full_practice","0","0.2","0","0.6","0","0.2","","","","","",""
"134","","bandit","57","186464","0.0-32.0-6.0","69950158","wem/bandit_single","A36BQYQGN6OWVU","pain","4","","74","J","1","","0","1","0","0","0.2","true","0","0","0.8","full_practice","0","0.2","0","0.6","0","0.2","","","","","",""
"72","","bandit","58","188303","0.0-32.0-7.0","69950158","wem/bandit_single","A36BQYQGN6OWVU","pain","4","","74","J","1","","0","1","0","0","0.2","true","0","0","0.8","full_practice","0","0.2","0","0.6","0","0.2","","","","","",""
"131","","bandit","59","190206","0.0-32.0-8.0","69950158","wem/bandit_single","A36BQYQGN6OWVU","pain","4","","74","J","1","","0","0","1","0","0.2","true","0","0","0.8","full_practice","0","0.2","0","0.6","0","0.2","","","","","",""
"981","","bandit","60","192956","0.0-32.0-9.0","69950158","wem/bandit_single","A36BQYQGN6OWVU","pain","4","","75","K","2","","0","1","0","0","0.6","true","0","0","0.8","full_practice","0","0.2","0","0.6","0","0.2","","","","","",""
"180","","bandit","61","194905","0.0-32.0-10.0","69950158","wem/bandit_single","A36BQYQGN6OWVU","pain","4","","75","K","2","","0","1","0","0","0.6","true","0","0","0.8","full_practice","0","0.2","0","0.6","0","0.2","","","","","",""
"171","","bandit","62","196909","0.0-32.0-11.0","69950158","wem/bandit_single","A36BQYQGN6OWVU","pain","4","","75","K","2","","0","1","0","0","0.6","true","0","0","0.8","full_practice","0","0.2","0","0.6","0","0.2","","","","","",""
"104","","bandit","63","198961","0.0-32.0-12.0","69950158","wem/bandit_single","A36BQYQGN6OWVU","pain","4","","75","K","2","","0","1","0","0","0.6","true","0","0","0.8","full_practice","0","0.2","0","0.6","0","0.2","","","","","",""
"61","","bandit","64","200798","0.0-32.0-13.0","69950158","wem/bandit_single","A36BQYQGN6OWVU","pain","4","","75","K","2","","0","1","0","0","0.6","true","0","0","0.8","full_practice","0","0.2","0","0.6","0","0.2","","","","","",""
"214","","bandit","65","202989","0.0-32.0-14.0","69950158","wem/bandit_single","A36BQYQGN6OWVU","pain","4","","75","K","2","","0","1","0","0","0.6","true","0","0","0.8","full_practice","0","0.2","0","0.6","0","0.2","","","","","",""
"179","","bandit","66","204935","0.0-32.0-15.0","69950158","wem/bandit_single","A36BQYQGN6OWVU","pain","4","","75","K","2","","0","1","0","0","0.6","true","0","0","0.8","full_practice","0","0.2","0","0.6","0","0.2","","","","","",""
"283","","bandit","67","207070","0.0-32.0-16.0","69950158","wem/bandit_single","A36BQYQGN6OWVU","pain","4","","75","K","2","","0","1","0","0","0.6","true","0","0","0.8","full_practice","0","0.2","0","0.6","0","0.2","","","","","",""
"202","","bandit","68","209046","0.0-32.0-17.0","69950158","wem/bandit_single","A36BQYQGN6OWVU","pain","4","","75","K","2","","0","0","1","0","0.6","true","0","0","0.8","full_practice","0","0.2","0","0.6","0","0.2","","","","","",""
"341","","bandit","69","211157","0.0-32.0-18.0","69950158","wem/bandit_single","A36BQYQGN6OWVU","pain","4","","76","L","3","","0","0","1","0","0.2","true","0","0","0.8","full_practice","0","0.2","0","0.6","0","0.2","","","","","",""
"199","","bandit","70","213173","0.0-32.0-19.0","69950158","wem/bandit_single","A36BQYQGN6OWVU","pain","4","","76","L","3","","0","1","0","0","0.2","true","0","0","0.8","full_practice","0","0.2","0","0.6","0","0.2","","","","","",""
"2406","","text","71","215851","0.0-33.0","69950158","wem/bandit_single","A36BQYQGN6OWVU","pain","4","32","","","","","","","","","","","","","","","","","","","","","","","","","",""
"7148","","text","72","224008","0.0-34.0","69950158","wem/bandit_single","A36BQYQGN6OWVU","pain","4","32","","","","","","","","","","","","","","","","","","","","","","","","","",""
"6032","","text","73","230048","0.0-35.0","69950158","wem/bandit_single","A36BQYQGN6OWVU","pain","4","32","","","","","","","","","","","","","","","","","","","","","","","","","",""
"2356","","text","74","232410","0.0-36.0","69950158","wem/bandit_single","A36BQYQGN6OWVU","pain","4","32","","","","","","","","","","","","","","","","","","","","","","","","","",""
"875","","text","75","233292","0.0-37.0","69950158","wem/bandit_single","A36BQYQGN6OWVU","pain","4","32","","","","","","","","","","","","","","","","","","","","","","","","","",""
"1358","","bandit","76","236605","0.0-38.0-0.0","69950158","wem/bandit_single","A36BQYQGN6OWVU","pain","4","","72","H","0","img/none_selected.jpg","0","0","1","","0.1534711312","false","1","","0.1534711312","main_expt","","0.2633340886","","0.04789219489","","0.1530555908","","","","","",""
"1","","bandit","77","238383","0.0-39.0-0.0","69950158","wem/bandit_single","A36BQYQGN6OWVU","pain","4","","74","J","1","","0","0","1","","0.288049036","false","2","","0.1140054314","main_expt","","0.288049036","","0.06526788736","","0.103598712","","","","","",""
"311","","bandit","78","240474","0.0-40.0-0.0","69950158","wem/bandit_single","A36BQYQGN6OWVU","pain","4","","75","K","2","","0","1","0","","0.04764418461","false","3","","0.1012650834","main_expt","","0.2979487298","","0.04764418461","","0.08136741005","","","","","",""
"166","","bandit","79","242438","0.0-41.0-0.0","69950158","wem/bandit_single","A36BQYQGN6OWVU","pain","4","","75","K","2","","0","1","0","","0.05056035824","false","4","","0.09541256236","main_expt","","0.3306303211","","0.05056035824","","0.08723083084","","","","","",""
"55","","bandit","80","244310","0.0-42.0-0.0","69950158","wem/bandit_single","A36BQYQGN6OWVU","pain","4","","75","K","2","","0","0","1","","0.05944929255","false","5","","0.07842998328","main_expt","","0.2438199519","","0.05944929255","","0.1255982651","","","","","",""
"314","","bandit","81","246397","0.0-43.0-0.0","69950158","wem/bandit_single","A36BQYQGN6OWVU","pain","4","","76","L","3","","0","0","1","","0.09044777998","false","6","","0.09158282766","main_expt","","0.2362074668","","0.09562353852","","0.09044777998","","","","","",""
"218","","bandit","82","248383","0.0-44.0-0.0","69950158","wem/bandit_single","A36BQYQGN6OWVU","pain","4","","76","L","3","","0","0","1","","0.1067491613","false","7","","0.09712353232","main_expt","","0.2591683673","","0.08069121891","","0.1067491613","","","","","",""
"183","","bandit","83","250488","0.0-45.0-0.0","69950158","wem/bandit_single","A36BQYQGN6OWVU","pain","4","","74","J","1","","0","0","1","","0.2299415188","false","8","","0.08440361392","main_expt","","0.2299415188","","0.07203927837","","0.15597148","","","","","",""
"193","","bandit","84","252482","0.0-46.0-0.0","69950158","wem/bandit_single","A36BQYQGN6OWVU","pain","4","","72","H","0","img/none_selected.jpg","0","1","0","","0.102519384","false","9","","0.102519384","main_expt","","0.2057198223","","0.08219025907","","0.2250404859","","","","","",""
"200","","bandit","85","254453","0.0-47.0-0.0","69950158","wem/bandit_single","A36BQYQGN6OWVU","pain","4","","72","H","0","img/none_selected.jpg","0","0","1","","0.06157476224","false","10","","0.06157476224","main_expt","","0.2002554128","","0.06517742799","","0.2205918947","","","","","",""
"77","","bandit","86","256298","0.0-48.0-0.0","69950158","wem/bandit_single","A36BQYQGN6OWVU","pain","4","","72","H","0","img/none_selected.jpg","0","0","1","","0.05516119966","false","11","","0.05516119966","main_expt","","0.2390702858","","0.0549201251","","0.1999173076","","","","","",""
"127","","bandit","87","258204","0.0-49.0-0.0","69950158","wem/bandit_single","A36BQYQGN6OWVU","pain","4","","74","J","1","","0","0","1","","0.2309669968","false","12","","0.04311537102","main_expt","","0.2309669968","","0.0630283727","","0.2006159367","","","","","",""
"205","","bandit","88","260196","0.0-50.0-0.0","69950158","wem/bandit_single","A36BQYQGN6OWVU","pain","4","","74","J","1","","0","0","1","","0.2667386483","false","13","","0.03895599675","main_expt","","0.2667386483","","0.07136250487","","0.202674457","","","","","",""
"148","","bandit","89","262126","0.0-51.0-0.0","69950158","wem/bandit_single","A36BQYQGN6OWVU","pain","4","","75","K","2","","0","0","1","","0.07333211558","false","14","","0.03256744162","main_expt","","0.2057326914","","0.07333211558","","0.152812741","","","","","",""
"8","","bandit","90","263907","0.0-52.0-0.0","69950158","wem/bandit_single","A36BQYQGN6OWVU","pain","4","","75","K","2","","0","0","1","","0.1154740655","false","15","","0.01982065674","main_expt","","0.2081585857","","0.1154740655","","0.1648564856","","","","","",""
"226","","bandit","91","265901","0.0-53.0-0.0","69950158","wem/bandit_single","A36BQYQGN6OWVU","pain","4","","76","L","3","","0","0","1","","0.1619055423","false","16","","0.04082574049","main_expt","","0.1909184248","","0.1011313391","","0.1619055423","","","","","",""
"115","","bandit","92","267783","0.0-54.0-0.0","69950158","wem/bandit_single","A36BQYQGN6OWVU","pain","4","","76","L","3","","0","0","1","","0.1651197045","false","17","","0.0363298649","main_expt","","0.2198432556","","0.1447019112","","0.1651197045","","","","","",""
"503","","bandit","93","270053","0.0-55.0-0.0","69950158","wem/bandit_single","A36BQYQGN6OWVU","pain","4","","72","H","0","img/none_selected.jpg","0","0","1","","0.07917382237","false","18","","0.07917382237","main_expt","","0.2347766335","","0.1039364862","","0.1079041081","","","","","",""
"155","","bandit","94","271991","0.0-56.0-0.0","69950158","wem/bandit_single","A36BQYQGN6OWVU","pain","4","","74","J","1","","0","0","1","","0.24668571","false","19","","0.08476555987","main_expt","","0.24668571","","0.08759831402","","0.1059999363","","","","","",""
"184","","bandit","95","273940","0.0-57.0-0.0","69950158","wem/bandit_single","A36BQYQGN6OWVU","pain","4","","75","K","2","","0","0","1","","0.08010338479","false","20","","0.04047152317","main_expt","","0.2355281317","","0.08010338479","","0.1197169881","","","","","",""
"897","","bandit","96","276646","0.0-58.0-0.0","69950158","wem/bandit_single","A36BQYQGN6OWVU","pain","4","","76","L","3","","0","0","1","","0.1338215077","false","21","","0.07021106672","main_expt","","0.2290721377","","0.07820488182","","0.1338215077","","","","","",""
"188","","bandit","97","278926","0.0-59.0-0.0","69950158","wem/bandit_single","A36BQYQGN6OWVU","pain","4","","75","K","2","","0","0","1","","0.06301774499","false","22","","0.08794503477","main_expt","","0.1982968879","","0.06301774499","","0.1691749215","","","","","",""
"101","","bandit","98","280808","0.0-60.0-0.0","69950158","wem/bandit_single","A36BQYQGN6OWVU","pain","4","","74","J","1","","0","0","1","","0.1991555028","false","23","","0.07274518233","main_expt","","0.1991555028","","0.04380944514","","0.2100599157","","","","","",""
"272","","bandit","99","282852","0.0-61.0-0.0","69950158","wem/bandit_single","A36BQYQGN6OWVU","pain","4","","72","H","0","img/none_selected.jpg","0","0","1","","0.09602528561","false","24","","0.09602528561","main_expt","","0.1700743611","","0.04485861341","","0.1763606332","","","","","",""
"76","","bandit","100","284779","0.0-62.0-0.0","69950158","wem/bandit_single","A36BQYQGN6OWVU","pain","4","","72","H","0","img/none_selected.jpg","0","0","1","","0.07148754983","false","25","","0.07148754983","main_expt","","0.2303117276","","0.08350983839","","0.1155065599","","","","","",""
"490","","bandit","101","287227","0.0-63.0-0.0","69950158","wem/bandit_single","A36BQYQGN6OWVU","pain","4","","74","J","1","","0","0","1","","0.2615068669","false","26","","0.05591681381","main_expt","","0.2615068669","","0.04946014148","","0.08411514459","","","","","",""
"222","","bandit","102","289278","0.0-64.0-0.0","69950158","wem/bandit_single","A36BQYQGN6OWVU","pain","4","","75","K","2","","0","0","1","","0.07008172503","false","27","","0.06488914964","main_expt","","0.2108316327","","0.07008172503","","0.1192049255","","","","","",""
"87","","bandit","103","291137","0.0-65.0-0.0","69950158","wem/bandit_single","A36BQYQGN6OWVU","pain","4","","76","L","3","","0","0","1","","0.1530516972","false","28","","0.07067710387","main_expt","","0.2616222854","","0.09766989806","","0.1530516972","","","","","",""
"121","","bandit","104","293026","0.0-66.0-0.0","69950158","wem/bandit_single","A36BQYQGN6OWVU","pain","4","","76","L","3","","0","0","1","","0.1243035263","false","29","","0.06184318105","main_expt","","0.2754145478","","0.1020433103","","0.1243035263","","","","","",""
"134","","bandit","105","294930","0.0-67.0-0.0","69950158","wem/bandit_single","A36BQYQGN6OWVU","pain","4","","75","K","2","","0","0","1","","0.1128186897","false","30","","0.06562203124","main_expt","","0.3091083038","","0.1128186897","","0.2106934108","","","","","",""
"142","","bandit","106","296886","0.0-68.0-0.0","69950158","wem/bandit_single","A36BQYQGN6OWVU","pain","4","","74","J","1","","0","0","1","","0.3032558385","false","31","","0.06340423818","main_expt","","0.3032558385","","0.1021038766","","0.269819176","","","","","",""
"634","","bandit","107","299304","0.0-69.0-0.0","69950158","wem/bandit_single","A36BQYQGN6OWVU","pain","4","","72","H","0","img/none_selected.jpg","0","0","1","","0.08582013972","false","32","","0.08582013972","main_expt","","0.3160124579","","0.1010238501","","0.2415851803","","","","","",""
"70","","bandit","108","301146","0.0-70.0-0.0","69950158","wem/bandit_single","A36BQYQGN6OWVU","pain","4","","72","H","0","img/none_selected.jpg","0","0","1","","0.1020351259","false","33","","0.1020351259","main_expt","","0.355825184","","0.0674926465","","0.2754451294","","","","","",""
"8","","bandit","109","302938","0.0-71.0-0.0","69950158","wem/bandit_single","A36BQYQGN6OWVU","pain","4","","72","H","0","img/none_selected.jpg","0","0","1","","0.07925884201","false","34","","0.07925884201","main_expt","","0.3380280112","","0.1007783216","","0.3566428969","","","","","",""
"253","","bandit","110","304959","0.0-72.0-0.0","69950158","wem/bandit_single","A36BQYQGN6OWVU","pain","4","","74","J","1","","0","0","1","","0.3772093912","false","35","","0.06071167626","main_expt","","0.3772093912","","0.09542819821","","0.2652811253","","","","","",""
"92","","bandit","111","306905","0.0-73.0-0.0","69950158","wem/bandit_single","A36BQYQGN6OWVU","pain","4","","74","J","1","","0","1","0","","0.3916459715","false","36","","0.05331310492","main_expt","","0.3916459715","","0.07425724813","","0.2472166127","","","","","",""
"300","","bandit","112","309007","0.0-74.0-0.0","69950158","wem/bandit_single","A36BQYQGN6OWVU","pain","4","","74","J","1","","0","0","1","","0.3724196513","false","37","","0.08395737389","main_expt","","0.3724196513","","0.07325651263","","0.2941536534","","","","","",""
"582","","bandit","113","311366","0.0-75.0-0.0","69950158","wem/bandit_single","A36BQYQGN6OWVU","pain","4","","74","J","1","","0","1","0","","0.3885064771","false","38","","0.07562804978","main_expt","","0.3885064771","","0.06058557764","","0.2850199379","","","","","",""
"417","","bandit","114","314317","0.0-76.0-0.0","69950158","wem/bandit_single","A36BQYQGN6OWVU","pain","4","","74","J","1","","0","1","0","","0.4332305888","false","39","","0.06339693541","main_expt","","0.4332305888","","0.05480529152","","0.2308750992","","","","","",""
"340","","bandit","115","316491","0.0-77.0-0.0","69950158","wem/bandit_single","A36BQYQGN6OWVU","pain","4","","74","J","1","","0","0","1","","0.4320021358","false","40","","0.07741261751","main_expt","","0.4320021358","","0.08480448704","","0.2166928419","","","","","",""
"244","","bandit","116","318511","0.0-78.0-0.0","69950158","wem/bandit_single","A36BQYQGN6OWVU","pain","4","","75","K","2","","0","0","1","","0.07863220129","false","41","","0.08199889575","main_expt","","0.4378374231","","0.07863220129","","0.222341992","","","","","",""
"327","","bandit","117","320609","0.0-79.0-0.0","69950158","wem/bandit_single","A36BQYQGN6OWVU","pain","4","","75","K","2","","0","0","1","","0.07947159818","false","42","","0.1252939417","main_expt","","0.4138470733","","0.07947159818","","0.2420609394","","","","","",""
"263","","bandit","118","322663","0.0-80.0-0.0","69950158","wem/bandit_single","A36BQYQGN6OWVU","pain","4","","76","L","3","","0","0","1","","0.2683234569","false","43","","0.1464491551","main_expt","","0.3618848001","","0.0747194724","","0.2683234569","","","","","",""
"586","","bandit","119","325262","0.0-81.0-0.0","69950158","wem/bandit_single","A36BQYQGN6OWVU","pain","4","","76","L","3","","0","1","0","","0.2592073096","false","44","","0.1846315016","main_expt","","0.3902132048","","0.06873866496","","0.2592073096","","","","","",""
"497","","bandit","120","327564","0.0-82.0-0.0","69950158","wem/bandit_single","A36BQYQGN6OWVU","pain","4","","76","L","3","","0","1","0","","0.258850709","false","45","","0.1454302639","main_expt","","0.370584769","","0.05624711086","","0.258850709","","","","","",""
"1397","","bandit","121","330785","0.0-83.0-0.0","69950158","wem/bandit_single","A36BQYQGN6OWVU","pain","4","","76","L","3","","0","1","0","","0.2162528617","false","46","","0.1420401956","main_expt","","0.3416192418","","0.06710767933","","0.2162528617","","","","","",""
"738","","bandit","122","333300","0.0-84.0-0.0","69950158","wem/bandit_single","A36BQYQGN6OWVU","pain","4","","76","L","3","","0","0","1","","0.1380472806","false","47","","0.2049545467","main_expt","","0.3254497978","","0.05828218186","","0.1380472806","","","","","",""
"519","","bandit","123","335722","0.0-85.0-0.0","69950158","wem/bandit_single","A36BQYQGN6OWVU","pain","4","","75","K","2","","0","0","1","","0.1161016377","false","48","","0.1608881285","main_expt","","0.3438960799","","0.1161016377","","0.1673270425","","","","","",""
"487","","bandit","124","338005","0.0-86.0-0.0","69950158","wem/bandit_single","A36BQYQGN6OWVU","pain","4","","75","K","2","","0","0","1","","0.1135844416","false","49","","0.2001806823","main_expt","","0.3405395495","","0.1135844416","","0.1637821127","","","","","",""
"157","","bandit","125","339933","0.0-87.0-0.0","69950158","wem/bandit_single","A36BQYQGN6OWVU","pain","4","","74","J","1","","0","0","1","","0.3305224856","false","50","","0.2061381611","main_expt","","0.3305224856","","0.1646239324","","0.1826101584","","","","","",""
"188","","bandit","126","341985","0.0-88.0-0.0","69950158","wem/bandit_single","A36BQYQGN6OWVU","pain","4","","72","H","0","img/none_selected.jpg","0","0","1","","0.2369791141","false","51","","0.2369791141","main_expt","","0.2304924019","","0.1699716213","","0.2270371056","","","","","",""
"186","","bandit","127","343966","0.0-89.0-0.0","69950158","wem/bandit_single","A36BQYQGN6OWVU","pain","4","","72","H","0","img/none_selected.jpg","0","0","1","","0.2378663067","false","52","","0.2378663067","main_expt","","0.2832256505","","0.1762937123","","0.2203225001","","","","","",""
"114","","bandit","128","345863","0.0-90.0-0.0","69950158","wem/bandit_single","A36BQYQGN6OWVU","pain","4","","72","H","0","img/none_selected.jpg","0","0","1","","0.2063519028","false","53","","0.2063519028","main_expt","","0.2391441838","","0.2287193473","","0.2776849753","","","","","",""
"109","","bandit","129","347742","0.0-91.0-0.0","69950158","wem/bandit_single","A36BQYQGN6OWVU","pain","4","","72","H","0","img/none_selected.jpg","0","0","1","","0.2439582882","false","54","","0.2439582882","main_expt","","0.2697071588","","0.2356834932","","0.2454572706","","","","","",""
"150","","bandit","130","349713","0.0-92.0-0.0","69950158","wem/bandit_single","A36BQYQGN6OWVU","pain","4","","74","J","1","","0","0","1","","0.2875326611","false","55","","0.2381950618","main_expt","","0.2875326611","","0.306547883","","0.2382153161","","","","","",""
"149","","bandit","131","351637","0.0-93.0-0.0","69950158","wem/bandit_single","A36BQYQGN6OWVU","pain","4","","75","K","2","","0","0","1","","0.2853582168","false","56","","0.1800346575","main_expt","","0.2854258916","","0.2853582168","","0.1960908288","","","","","",""
"153","","bandit","132","353593","0.0-94.0-0.0","69950158","wem/bandit_single","A36BQYQGN6OWVU","pain","4","","76","L","3","","0","1","0","","0.2042340564","false","57","","0.2336203315","main_expt","","0.3445045135","","0.2834250679","","0.2042340564","","","","","",""
"159","","bandit","133","355749","0.0-95.0-0.0","69950158","wem/bandit_single","A36BQYQGN6OWVU","pain","4","","76","L","3","","0","0","1","","0.1490893454","false","58","","0.189887459","main_expt","","0.3390226593","","0.2690284398","","0.1490893454","","","","","",""
"23","","bandit","134","357539","0.0-96.0-0.0","69950158","wem/bandit_single","A36BQYQGN6OWVU","pain","4","","76","L","3","","0","0","1","","0.1581154669","false","59","","0.1548607402","main_expt","","0.2666291788","","0.2616697142","","0.1581154669","","","","","",""
"504","","bandit","135","359815","0.0-97.0-0.0","69950158","wem/bandit_single","A36BQYQGN6OWVU","pain","4","","76","L","3","","0","0","1","","0.1715954381","false","60","","0.1233285174","main_expt","","0.246985882","","0.2704186185","","0.1715954381","","","","","",""
"187","","bandit","136","361864","0.0-98.0-0.0","69950158","wem/bandit_single","A36BQYQGN6OWVU","pain","4","","72","H","0","img/none_selected.jpg","0","1","0","","0.186549837","false","61","","0.186549837","main_expt","","0.2171589204","","0.3376037184","","0.1999420892","","","","","",""
"268","","bandit","137","363913","0.0-99.0-0.0","69950158","wem/bandit_single","A36BQYQGN6OWVU","pain","4","","72","H","0","img/none_selected.jpg","0","0","1","","0.1420872584","false","62","","0.1420872584","main_expt","","0.2677831299","","0.3098521258","","0.1539309088","","","","","",""
"337","","bandit","138","366019","0.0-100.0-0.0","69950158","wem/bandit_single","A36BQYQGN6OWVU","pain","4","","72","H","0","img/none_selected.jpg","0","0","1","","0.151707711","false","63","","0.151707711","main_expt","","0.2303454974","","0.3137631198","","0.1085632924","","","","","",""
"168","","bandit","139","367984","0.0-101.0-0.0","69950158","wem/bandit_single","A36BQYQGN6OWVU","pain","4","","72","H","0","img/none_selected.jpg","0","0","1","","0.1474827626","false","64","","0.1474827626","main_expt","","0.196947777","","0.3179430645","","0.1370187426","","","","","",""
"183","","bandit","140","369958","0.0-102.0-0.0","69950158","wem/bandit_single","A36BQYQGN6OWVU","pain","4","","74","J","1","","0","0","1","","0.1645630622","false","65","","0.1746529425","main_expt","","0.1645630622","","0.2980330155","","0.1322062037","","","","","",""
"102","","bandit","141","371933","0.0-103.0-0.0","69950158","wem/bandit_single","A36BQYQGN6OWVU","pain","4","","75","K","2","","0","0","1","","0.2537140377","false","66","","0.1310865155","main_expt","","0.1533283495","","0.2537140377","","0.1496501041","","","","","",""
"66","","bandit","142","373851","0.0-104.0-0.0","69950158","wem/bandit_single","A36BQYQGN6OWVU","pain","4","","76","L","3","","0","0","1","","0.1626820295","false","67","","0.1370872981","main_expt","","0.1708403009","","0.2153704701","","0.1626820295","","","","","",""
"88","","bandit","143","375850","0.0-105.0-0.0","69950158","wem/bandit_single","A36BQYQGN6OWVU","pain","4","","72","H","0","img/none_selected.jpg","0","0","1","","0.09914494933","false","68","","0.09914494933","main_expt","","0.1887917493","","0.2417705853","","0.1989514297","","","","","",""
"148","","bandit","144","377906","0.0-106.0-0.0","69950158","wem/bandit_single","A36BQYQGN6OWVU","pain","4","","74","J","1","","0","0","1","","0.2160515082","false","69","","0.1092411584","main_expt","","0.2160515082","","0.3235463827","","0.1888867792","","","","","",""
"130","","bandit","145","379830","0.0-107.0-0.0","69950158","wem/bandit_single","A36BQYQGN6OWVU","pain","4","","75","K","2","","0","0","1","","0.3647615206","false","70","","0.1213917008","main_expt","","0.2778565133","","0.3647615206","","0.1767550628","","","","","",""
"212","","bandit","146","381851","0.0-108.0-0.0","69950158","wem/bandit_single","A36BQYQGN6OWVU","pain","4","","76","L","3","","0","0","1","","0.1253641033","false","71","","0.1479005197","main_expt","","0.2623699359","","0.3472934012","","0.1253641033","","","","","",""
"256","","bandit","147","383894","0.0-109.0-0.0","69950158","wem/bandit_single","A36BQYQGN6OWVU","pain","4","","75","K","2","","0","0","1","","0.2965124106","false","72","","0.1931369739","main_expt","","0.2574081817","","0.2965124106","","0.1319365506","","","","","",""
"341","","bandit","148","386007","0.0-110.0-0.0","69950158","wem/bandit_single","A36BQYQGN6OWVU","pain","4","","74","J","1","","0","0","1","","0.2503470883","false","73","","0.1900103681","main_expt","","0.2503470883","","0.2823595977","","0.1061905376","","","","","",""
"111","","bandit","149","387891","0.0-111.0-0.0","69950158","wem/bandit_single","A36BQYQGN6OWVU","pain","4","","72","H","0","img/none_selected.jpg","0","0","1","","0.1344428369","false","74","","0.1344428369","main_expt","","0.2710758316","","0.2835749375","","0.1303083533","","","","","",""
"193","","bandit","150","389877","0.0-112.0-0.0","69950158","wem/bandit_single","A36BQYQGN6OWVU","pain","4","","72","H","0","img/none_selected.jpg","0","0","1","","0.1528357022","false","75","","0.1528357022","main_expt","","0.260759121","","0.3526847528","","0.1359111238","","","","","",""
"136","","bandit","151","391785","0.0-113.0-0.0","69950158","wem/bandit_single","A36BQYQGN6OWVU","pain","4","","74","J","1","","0","0","1","","0.2610050464","false","76","","0.1898592508","main_expt","","0.2610050464","","0.3434196486","","0.1128391495","","","","","",""
"51","","bandit","152","393610","0.0-114.0-0.0","69950158","wem/bandit_single","A36BQYQGN6OWVU","pain","4","","75","K","2","","0","1","0","","0.3073782559","false","77","","0.191464519","main_expt","","0.1920601856","","0.3073782559","","0.1118044987","","","","","",""
"106","","bandit","153","395554","0.0-115.0-0.0","69950158","wem/bandit_single","A36BQYQGN6OWVU","pain","4","","75","K","2","","0","1","0","","0.3200097729","false","78","","0.2665821314","main_expt","","0.1726035312","","0.3200097729","","0.1315400358","","","","","",""
"193","","bandit","154","397754","0.0-116.0-0.0","69950158","wem/bandit_single","A36BQYQGN6OWVU","pain","4","","75","K","2","","0","1","0","","0.3406321397","false","79","","0.2510402579","main_expt","","0.1974193715","","0.3406321397","","0.1421279646","","","","","",""
"512","","bandit","155","400038","0.0-117.0-0.0","69950158","wem/bandit_single","A36BQYQGN6OWVU","pain","4","","75","K","2","","0","0","1","","0.2934749235","false","80","","0.2803090616","main_expt","","0.1771423485","","0.2934749235","","0.1666910293","","","","","",""
"1309","","bandit","156","403122","0.0-118.0-0.0","69950158","wem/bandit_single","A36BQYQGN6OWVU","pain","4","","76","L","3","","0","0","1","","0.1514130178","false","81","","0.3053401272","main_expt","","0.1689426189","","0.3080678564","","0.1514130178","","","","","",""
"1022","","bandit","157","405950","0.0-119.0-0.0","69950158","wem/bandit_single","A36BQYQGN6OWVU","pain","4","","72","H","0","img/none_selected.jpg","0","0","1","","0.3079009489","false","82","","0.3079009489","main_expt","","0.2008945118","","0.3118316764","","0.1667518413","","","","","",""
"409","","bandit","158","408614","0.0-120.0-0.0","69950158","wem/bandit_single","A36BQYQGN6OWVU","pain","4","","74","J","1","","0","0","1","","0.2679993971","false","83","","0.3294465445","main_expt","","0.2679993971","","0.2539803618","","0.1620161121","","","","","",""
"185","","bandit","159","410633","0.0-121.0-0.0","69950158","wem/bandit_single","A36BQYQGN6OWVU","pain","4","","75","K","2","","0","0","1","","0.2665148507","false","84","","0.3567704092","main_expt","","0.2187304288","","0.2665148507","","0.1920696542","","","","","",""
"1351","","bandit","160","413762","0.0-122.0-0.0","69950158","wem/bandit_single","A36BQYQGN6OWVU","pain","4","","76","L","3","","0","0","1","","0.1790321084","false","85","","0.3637986046","main_expt","","0.2668074714","","0.2638978108","","0.1790321084","","","","","",""
"644","","bandit","161","416181","0.0-123.0-0.0","69950158","wem/bandit_single","A36BQYQGN6OWVU","pain","4","","72","H","0","img/none_selected.jpg","0","1","0","","0.3661817966","false","86","","0.3661817966","main_expt","","0.3011617684","","0.2430370424","","0.1644507099","","","","","",""
"197","","bandit","162","418299","0.0-124.0-0.0","69950158","wem/bandit_single","A36BQYQGN6OWVU","pain","4","","72","H","0","img/none_selected.jpg","0","0","1","","0.349996741","false","87","","0.349996741","main_expt","","0.2866912597","","0.2369050713","","0.1731377232","","","","","",""
"234","","bandit","163","420321","0.0-125.0-0.0","69950158","wem/bandit_single","A36BQYQGN6OWVU","pain","4","","74","J","1","","0","0","1","","0.2921806028","false","88","","0.3021468993","main_expt","","0.2921806028","","0.2322244834","","0.1562940882","","","","","",""
"952","","bandit","164","423060","0.0-126.0-0.0","69950158","wem/bandit_single","A36BQYQGN6OWVU","pain","4","","75","K","2","","0","0","1","","0.214722025","false","89","","0.2752269066","main_expt","","0.2877077994","","0.214722025","","0.1344734597","","","","","",""
"415","","bandit","165","425274","0.0-127.0-0.0","69950158","wem/bandit_single","A36BQYQGN6OWVU","pain","4","","76","L","3","","0","0","1","","0.1192135027","false","90","","0.3172240337","main_expt","","0.2390413286","","0.1767670318","","0.1192135027","","","","","",""
"271","","bandit","166","427319","0.0-128.0-0.0","69950158","wem/bandit_single","A36BQYQGN6OWVU","pain","4","","75","K","2","","0","0","1","","0.1391375388","false","91","","0.3049723864","main_expt","","0.2582098676","","0.1391375388","","0.1639104845","","","","","",""
"1524","","bandit","167","430782","0.0-129.0-0.0","69950158","wem/bandit_single","A36BQYQGN6OWVU","pain","4","","74","J","1","","0","0","1","","0.3066747335","false","92","","0.3261529518","main_expt","","0.3066747335","","0.1283323985","","0.1960431165","","","","","",""
"321","","bandit","168","432906","0.0-130.0-0.0","69950158","wem/bandit_single","A36BQYQGN6OWVU","pain","4","","72","H","0","img/none_selected.jpg","0","0","1","","0.3550538726","false","93","","0.3550538726","main_expt","","0.3051362106","","0.07538544447","","0.2137056669","","","","","",""
"328","","bandit","169","435049","0.0-131.0-0.0","69950158","wem/bandit_single","A36BQYQGN6OWVU","pain","4","","74","J","1","","0","0","1","","0.3433649514","false","94","","0.3335231974","main_expt","","0.3433649514","","0.07407963518","","0.2188004936","","","","","",""
"242","","bandit","170","437067","0.0-132.0-0.0","69950158","wem/bandit_single","A36BQYQGN6OWVU","pain","4","","75","K","2","","0","0","1","","0.06265185683","false","95","","0.3060397856","main_expt","","0.3638642947","","0.06265185683","","0.2442185641","","","","","",""
"831","","bandit","171","439713","0.0-133.0-0.0","69950158","wem/bandit_single","A36BQYQGN6OWVU","pain","4","","76","L","3","","0","0","1","","0.2062156096","false","96","","0.3420618169","main_expt","","0.3433071503","","0.0626930361","","0.2062156096","","","","","",""
"119","","bandit","172","441636","0.0-134.0-0.0","69950158","wem/bandit_single","A36BQYQGN6OWVU","pain","4","","75","K","2","","0","0","1","","0.03702031205","false","97","","0.3451805041","main_expt","","0.3287523936","","0.03702031205","","0.1824441478","","","","","",""
"1319","","bandit","173","444736","0.0-135.0-0.0","69950158","wem/bandit_single","A36BQYQGN6OWVU","pain","4","","74","J","1","","0","0","1","","0.3384657171","false","98","","0.3067376926","main_expt","","0.3384657171","","0.02896114516","","0.1741419228","","","","","",""
"1220","","bandit","174","447763","0.0-136.0-0.0","69950158","wem/bandit_single","A36BQYQGN6OWVU","pain","4","","72","H","0","img/none_selected.jpg","0","0","1","","0.2980645096","false","99","","0.2980645096","main_expt","","0.3929596429","","0.04301278827","","0.1402348549","","","","","",""
"924","","bandit","175","450525","0.0-137.0-0.0","69950158","wem/bandit_single","A36BQYQGN6OWVU","pain","4","","74","J","1","","0","0","1","","0.3972918561","false","100","","0.2862788702","main_expt","","0.3972918561","","0.03198738169","","0.1856728267","","","","","",""
"270","","bandit","176","452569","0.0-138.0-0.0","69950158","wem/bandit_single","A36BQYQGN6OWVU","pain","4","","75","K","2","","0","0","1","","0.03387094668","false","101","","0.2622165861","main_expt","","0.4064604032","","0.03387094668","","0.1731032509","","","","","",""
"158","","bandit","177","454500","0.0-139.0-0.0","69950158","wem/bandit_single","A36BQYQGN6OWVU","pain","4","","76","L","3","","0","0","1","","0.1387116465","false","102","","0.3261799811","main_expt","","0.4273413635","","0.0235124197","","0.1387116465","","","","","",""
"940","","bandit","178","457217","0.0-140.0-0.0","69950158","wem/bandit_single","A36BQYQGN6OWVU","pain","4","","75","K","2","","0","0","1","","0.02482610326","false","103","","0.334814711","main_expt","","0.4566487837","","0.02482610326","","0.1880660303","","","","","",""
"442","","bandit","179","459447","0.0-141.0-0.0","69950158","wem/bandit_single","A36BQYQGN6OWVU","pain","4","","74","J","1","","0","0","1","","0.459539636","false","104","","0.3486298313","main_expt","","0.459539636","","0.03330094042","","0.142060421","","","","","",""
"109","","bandit","180","461360","0.0-142.0-0.0","69950158","wem/bandit_single","A36BQYQGN6OWVU","pain","4","","72","H","0","img/none_selected.jpg","0","1","0","","0.3538911629","false","105","","0.3538911629","main_expt","","0.4462881264","","0.06543537915","","0.1839839798","","","","","",""
"334","","bandit","181","463483","0.0-143.0-0.0","69950158","wem/bandit_single","A36BQYQGN6OWVU","pain","4","","72","H","0","img/none_selected.jpg","0","0","1","","0.3886974852","false","106","","0.3886974852","main_expt","","0.4417011126","","0.07051160025","","0.1691947451","","","","","",""
"768","","bandit","182","466033","0.0-144.0-0.0","69950158","wem/bandit_single","A36BQYQGN6OWVU","pain","4","","72","H","0","img/none_selected.jpg","0","1","0","","0.3489433712","false","107","","0.3489433712","main_expt","","0.4419194373","","0.08830456602","","0.180010917","","","","","",""
"1147","","bandit","183","468954","0.0-145.0-0.0","69950158","wem/bandit_single","A36BQYQGN6OWVU","pain","4","","72","H","0","img/none_selected.jpg","0","0","1","","0.3901728218","false","108","","0.3901728218","main_expt","","0.4061848383","","0.05921849724","","0.1338722415","","","","","",""
"190","","bandit","184","470956","0.0-146.0-0.0","69950158","wem/bandit_single","A36BQYQGN6OWVU","pain","4","","74","J","1","","0","0","1","","0.3906669636","false","109","","0.4006799949","main_expt","","0.3906669636","","0.04581125366","","0.1350853679","","","","","",""
"837","","bandit","185","473566","0.0-147.0-0.0","69950158","wem/bandit_single","A36BQYQGN6OWVU","pain","4","","75","K","2","","0","0","1","","0.08345510588","false","110","","0.3867714499","main_expt","","0.3969614195","","0.08345510588","","0.184551263","","","","","",""
"232","","bandit","186","475570","0.0-148.0-0.0","69950158","wem/bandit_single","A36BQYQGN6OWVU","pain","4","","76","L","3","","0","0","1","","0.2635344293","false","111","","0.4252141842","main_expt","","0.370186674","","0.07355878572","","0.2635344293","","","","","",""
"557","","bandit","187","478375","0.0-149.0-0.0","69950158","wem/bandit_single","A36BQYQGN6OWVU","pain","4","","75","K","2","","0","0","1","","0.09226575929","false","112","","0.4197282726","main_expt","","0.3488043283","","0.09226575929","","0.2972025743","","","","","",""
"73","","bandit","188","480545","0.0-150.0-0.0","69950158","wem/bandit_single","A36BQYQGN6OWVU","pain","4","","74","J","1","","0","0","1","","0.2886117592","false","113","","0.4371411526","main_expt","","0.2886117592","","0.07711661396","","0.2853398636","","","","","",""
"326","","bandit","189","482833","0.0-151.0-0.0","69950158","wem/bandit_single","A36BQYQGN6OWVU","pain","4","","72","H","0","img/none_selected.jpg","0","1","0","","0.4523407119","false","114","","0.4523407119","main_expt","","0.3507025671","","0.09366406151","","0.2354235092","","","","","",""
"551","","bandit","190","485165","0.0-152.0-0.0","69950158","wem/bandit_single","A36BQYQGN6OWVU","pain","4","","72","H","0","img/none_selected.jpg","0","1","0","","0.4544977282","false","115","","0.4544977282","main_expt","","0.3308051733","","0.09297781317","","0.2228923984","","","","","",""
"617","","bandit","191","487641","0.0-153.0-0.0","69950158","wem/bandit_single","A36BQYQGN6OWVU","pain","4","","72","H","0","img/none_selected.jpg","0","1","0","","0.4458191396","false","116","","0.4458191396","main_expt","","0.2696902145","","0.09292735615","","0.182615248","","","","","",""
"1120","","bandit","192","490544","0.0-154.0-0.0","69950158","wem/bandit_single","A36BQYQGN6OWVU","pain","4","","74","J","1","","0","0","1","","0.3048340551","false","117","","0.4384124693","main_expt","","0.3048340551","","0.1277349031","","0.1702457594","","","","","",""
"2166","","bandit","193","494488","0.0-155.0-0.0","69950158","wem/bandit_single","A36BQYQGN6OWVU","pain","4","","75","K","2","","0","0","1","","0.1057820856","false","118","","0.4590850855","main_expt","","0.2682044258","","0.1057820856","","0.2075823826","","","","","",""
"1549","","bandit","194","497814","0.0-156.0-0.0","69950158","wem/bandit_single","A36BQYQGN6OWVU","pain","4","","76","L","3","","0","0","1","","0.2281388084","false","119","","0.4718937063","main_expt","","0.2314514612","","0.08453932314","","0.2281388084","","","","","",""
"1045","","bandit","195","500640","0.0-157.0-0.0","69950158","wem/bandit_single","A36BQYQGN6OWVU","pain","4","","75","K","2","","0","0","1","","0.1106897037","false","120","","0.4645470247","main_expt","","0.197474053","","0.1106897037","","0.2620651535","","","","","",""
"513","","bandit","196","502930","0.0-158.0-0.0","69950158","wem/bandit_single","A36BQYQGN6OWVU","pain","4","","74","J","1","","0","0","1","","0.1819521248","false","121","","0.4422277234","main_expt","","0.1819521248","","0.1200625234","","0.2953433235","","","","","",""
"774","","bandit","197","505520","0.0-159.0-0.0","69950158","wem/bandit_single","A36BQYQGN6OWVU","pain","4","","72","H","0","img/none_selected.jpg","0","0","1","","0.4150525319","false","122","","0.4150525319","main_expt","","0.171732915","","0.1570760405","","0.2702367277","","","","","",""
"675","","bandit","198","507971","0.0-160.0-0.0","69950158","wem/bandit_single","A36BQYQGN6OWVU","pain","4","","72","H","0","img/none_selected.jpg","0","0","1","","0.4356762379","false","123","","0.4356762379","main_expt","","0.1577660673","","0.1616024906","","0.3190818872","","","","","",""
"2141","","bandit","199","511913","0.0-161.0-0.0","69950158","wem/bandit_single","A36BQYQGN6OWVU","pain","4","","74","J","1","","0","1","0","","0.1384195938","false","124","","0.4475351861","main_expt","","0.1384195938","","0.1371750093","","0.3415455108","","","","","",""
"248","","bandit","200","513938","0.0-162.0-0.0","69950158","wem/bandit_single","A36BQYQGN6OWVU","pain","4","","74","J","1","","0","0","1","","0.1367208018","false","125","","0.4310995666","main_expt","","0.1367208018","","0.1293707667","","0.3955313072","","","","","",""
"1121","","bandit","201","516833","0.0-163.0-0.0","69950158","wem/bandit_single","A36BQYQGN6OWVU","pain","4","","74","J","1","","0","0","1","","0.14570125","false","126","","0.4246911586","main_expt","","0.14570125","","0.1231453761","","0.4150522509","","","","","",""
"1005","","bandit","202","519731","0.0-164.0-0.0","69950158","wem/bandit_single","A36BQYQGN6OWVU","pain","4","","75","K","2","","0","0","1","","0.1044431599","false","127","","0.3855858577","main_expt","","0.116128816","","0.1044431599","","0.3803228979","","","","","",""
"530","","bandit","203","522034","0.0-165.0-0.0","69950158","wem/bandit_single","A36BQYQGN6OWVU","pain","4","","76","L","3","","0","0","1","","0.4028097642","false","128","","0.3886900275","main_expt","","0.1118736017","","0.07509994275","","0.4028097642","","","","","",""
"157","","bandit","204","523995","0.0-166.0-0.0","69950158","wem/bandit_single","A36BQYQGN6OWVU","pain","4","","76","L","3","","0","0","1","","0.3759087187","false","129","","0.3712880315","main_expt","","0.1153634536","","0.07499531951","","0.3759087187","","","","","",""
"2389","","bandit","205","528171","0.0-167.0-0.0","69950158","wem/bandit_single","A36BQYQGN6OWVU","pain","4","","75","K","2","","0","0","1","","0.06898381409","false","130","","0.3163545042","main_expt","","0.09323577747","","0.06898381409","","0.3578404683","","","","","",""
"301","","bandit","206","530382","0.0-168.0-0.0","69950158","wem/bandit_single","A36BQYQGN6OWVU","pain","4","","74","J","1","","0","0","1","","0.1064947735","false","131","","0.3203759455","main_expt","","0.1064947735","","0.08255272978","","0.3874222675","","","","","",""
"648","","bandit","207","532819","0.0-169.0-0.0","69950158","wem/bandit_single","A36BQYQGN6OWVU","pain","4","","72","H","0","img/none_selected.jpg","0","0","1","","0.3128419263","false","132","","0.3128419263","main_expt","","0.1574274544","","0.06266196304","","0.3773694481","","","","","",""
"3324","","bandit","208","538227","0.0-170.0-0.0","69950158","wem/bandit_single","A36BQYQGN6OWVU","pain","4","","72","H","0","img/none_selected.jpg","0","0","1","","0.3057041938","false","133","","0.3057041938","main_expt","","0.1613106331","","0.06584579886","","0.3961249281","","","","","",""
"2640","","bandit","209","542653","0.0-171.0-0.0","69950158","wem/bandit_single","A36BQYQGN6OWVU","pain","4","","74","J","1","","0","0","1","","0.1660744508","false","134","","0.2816585421","main_expt","","0.1660744508","","0.05935363428","","0.4152923946","","","","","",""
"659","","bandit","210","545124","0.0-172.0-0.0","69950158","wem/bandit_single","A36BQYQGN6OWVU","pain","4","","75","K","2","","0","0","1","","0.05732645975","false","135","","0.2955422992","main_expt","","0.1973964499","","0.05732645975","","0.4424865849","","","","","",""
"440","","bandit","211","547343","0.0-173.0-0.0","69950158","wem/bandit_single","A36BQYQGN6OWVU","pain","4","","76","L","3","","0","1","0","","0.4465543098","false","136","","0.3509846551","main_expt","","0.1813196928","","0.07342087183","","0.4465543098","","","","","",""
"1112","","bandit","212","550235","0.0-174.0-0.0","69950158","wem/bandit_single","A36BQYQGN6OWVU","pain","4","","76","L","3","","0","0","1","","0.4520996047","false","137","","0.3344410146","main_expt","","0.1859539446","","0.07676045657","","0.4520996047","","","","","",""
"380","","bandit","213","552417","0.0-175.0-0.0","69950158","wem/bandit_single","A36BQYQGN6OWVU","pain","4","","76","L","3","","0","0","1","","0.428300575","false","138","","0.2657268636","main_expt","","0.1014888705","","0.09127868582","","0.428300575","","","","","",""
"294","","bandit","214","554504","0.0-176.0-0.0","69950158","wem/bandit_single","A36BQYQGN6OWVU","pain","4","","75","K","2","","0","1","0","","0.1057771966","false","139","","0.2267955479","main_expt","","0.09034098631","","0.1057771966","","0.419833238","","","","","",""
"607","","bandit","215","556886","0.0-177.0-0.0","69950158","wem/bandit_single","A36BQYQGN6OWVU","pain","4","","75","K","2","","0","0","1","","0.1134354218","false","140","","0.2278141127","main_expt","","0.09102227313","","0.1134354218","","0.423721229","","","","","",""
"467","","bandit","216","559129","0.0-178.0-0.0","69950158","wem/bandit_single","A36BQYQGN6OWVU","pain","4","","75","K","2","","0","0","1","","0.1205694848","false","141","","0.23653477","main_expt","","0.1095349378","","0.1205694848","","0.4382479885","","","","","",""
"884","","bandit","217","561791","0.0-179.0-0.0","69950158","wem/bandit_single","A36BQYQGN6OWVU","pain","4","","74","J","1","","0","0","1","","0.1184068784","false","142","","0.2155890047","main_expt","","0.1184068784","","0.1423721259","","0.4247465964","","","","","",""
"1024","","bandit","218","564591","0.0-180.0-0.0","69950158","wem/bandit_single","A36BQYQGN6OWVU","pain","4","","74","J","1","","0","0","1","","0.1056920569","false","143","","0.2203428631","main_expt","","0.1056920569","","0.1199770031","","0.3978340057","","","","","",""
"949","","bandit","219","568049","0.0-181.0-0.0","69950158","wem/bandit_single","A36BQYQGN6OWVU","pain","4","","72","H","0","img/none_selected.jpg","0","1","0","","0.1834171178","false","144","","0.1834171178","main_expt","","0.1563123998","","0.1431068991","","0.4094639435","","","","","",""
"7052","","bandit","220","576900","0.0-182.0-0.0","69950158","wem/bandit_single","A36BQYQGN6OWVU","pain","4","","72","H","0","img/none_selected.jpg","0","0","1","","0.2064693802","false","145","","0.2064693802","main_expt","","0.09088636348","","0.1630017245","","0.4198905501","","","","","",""
"1745","","bandit","221","580437","0.0-183.0-0.0","69950158","wem/bandit_single","A36BQYQGN6OWVU","pain","4","","74","J","1","","0","0","1","","0.0827806059","false","146","","0.1342941172","main_expt","","0.0827806059","","0.145034553","","0.4050886303","","","","","",""
"705","","bandit","222","582970","0.0-184.0-0.0","69950158","wem/bandit_single","A36BQYQGN6OWVU","pain","4","","75","K","2","","0","1","0","","0.1488017726","false","147","","0.1515740161","main_expt","","0.1149215639","","0.1488017726","","0.3785891444","","","","","",""
"263","","bandit","223","585026","0.0-185.0-0.0","69950158","wem/bandit_single","A36BQYQGN6OWVU","pain","4","","75","K","2","","0","0","1","","0.1582677895","false","148","","0.1212747878","main_expt","","0.1099148444","","0.1582677895","","0.3854511928","","","","","",""
"1267","","bandit","224","588073","0.0-186.0-0.0","69950158","wem/bandit_single","A36BQYQGN6OWVU","pain","4","","75","K","2","","0","1","0","","0.1647072654","false","149","","0.08453377975","main_expt","","0.1127327795","","0.1647072654","","0.3928641012","","","","","",""
"871","","bandit","225","590724","0.0-187.0-0.0","69950158","wem/bandit_single","A36BQYQGN6OWVU","pain","4","","75","K","2","","0","0","1","","0.1333243968","false","150","","0.1060211344","main_expt","","0.1477728786","","0.1333243968","","0.3981420368","","","","","",""
"406","","bandit","226","592909","0.0-188.0-0.0","69950158","wem/bandit_single","A36BQYQGN6OWVU","pain","4","","75","K","2","","0","0","1","","0.1232516149","false","151","","0.06473992137","main_expt","","0.1634569086","","0.1232516149","","0.3954234158","","","","","",""
"547","","bandit","227","595237","0.0-189.0-0.0","69950158","wem/bandit_single","A36BQYQGN6OWVU","pain","4","","75","K","2","","0","1","0","","0.1218764731","false","152","","0.07847139908","main_expt","","0.2119786212","","0.1218764731","","0.3684376671","","","","","",""
"2582","","bandit","228","599656","0.0-190.0-0.0","69950158","wem/bandit_single","A36BQYQGN6OWVU","pain","4","","75","K","2","","0","0","1","","0.1181944444","false","153","","0.06170083269","main_expt","","0.190815194","","0.1181944444","","0.3586265296","","","","","",""
"2243","","bandit","229","603740","0.0-191.0-0.0","69950158","wem/bandit_single","A36BQYQGN6OWVU","pain","4","","75","K","2","","0","0","1","","0.1524072167","false","154","","0.07752027139","main_expt","","0.2539230859","","0.1524072167","","0.3711835277","","","","","",""
"1007","","bandit","230","606577","0.0-192.0-0.0","69950158","wem/bandit_single","A36BQYQGN6OWVU","pain","4","","76","L","3","","0","0","1","","0.3296220366","false","155","","0.07430376846","main_expt","","0.2214647723","","0.2181316645","","0.3296220366","","","","","",""
"687","","bandit","231","609167","0.0-193.0-0.0","69950158","wem/bandit_single","A36BQYQGN6OWVU","pain","4","","76","L","3","","0","0","1","","0.287903252","false","156","","0.05925504694","main_expt","","0.1812397975","","0.213475765","","0.287903252","","","","","",""
"266","","bandit","232","611220","0.0-194.0-0.0","69950158","wem/bandit_single","A36BQYQGN6OWVU","pain","4","","76","L","3","","0","1","0","","0.296290929","false","157","","0.0737155059","main_expt","","0.1447548225","","0.2264995707","","0.296290929","","","","","",""
"595","","bandit","233","614107","0.0-195.0-0.0","69950158","wem/bandit_single","A36BQYQGN6OWVU","pain","4","","76","L","3","","0","0","1","","0.2721348168","false","158","","0.05755321342","main_expt","","0.1458137519","","0.2991482761","","0.2721348168","","","","","",""
"712","","bandit","234","616627","0.0-196.0-0.0","69950158","wem/bandit_single","A36BQYQGN6OWVU","pain","4","","76","L","3","","0","0","1","","0.2765185667","false","159","","0.1007830752","main_expt","","0.1035755389","","0.3365391658","","0.2765185667","","","","","",""
"1648","","bandit","235","620058","0.0-197.0-0.0","69950158","wem/bandit_single","A36BQYQGN6OWVU","pain","4","","76","L","3","","0","0","1","","0.3162688162","false","160","","0.06149362121","main_expt","","0.1142027444","","0.313402929","","0.3162688162","","","","","",""
"2151","","bandit","236","623999","0.0-198.0-0.0","69950158","wem/bandit_single","A36BQYQGN6OWVU","pain","4","","76","L","3","","0","1","0","","0.3302336848","false","161","","0.09516109007","main_expt","","0.1510988582","","0.3529908654","","0.3302336848","","","","","",""
"3601","","bandit","237","629442","0.0-199.0-0.0","69950158","wem/bandit_single","A36BQYQGN6OWVU","pain","4","","76","L","3","","0","0","1","","0.3622896815","false","162","","0.08429007215","main_expt","","0.1720124831","","0.3608295961","","0.3622896815","","","","","",""
"624","","bandit","238","631847","0.0-200.0-0.0","69950158","wem/bandit_single","A36BQYQGN6OWVU","pain","4","","75","K","2","","0","0","1","","0.4197284319","false","163","","0.1199893575","main_expt","","0.2119433459","","0.4197284319","","0.3696580379","","","","","",""
"774","","bandit","239","634403","0.0-201.0-0.0","69950158","wem/bandit_single","A36BQYQGN6OWVU","pain","4","","75","K","2","","0","0","1","","0.4162507976","false","164","","0.1353867718","main_expt","","0.2413639604","","0.4162507976","","0.3217553384","","","","","",""
"3271","","bandit","240","639452","0.0-202.0-0.0","69950158","wem/bandit_single","A36BQYQGN6OWVU","pain","4","","74","J","1","","0","0","1","","0.3231443763","false","165","","0.08700720397","main_expt","","0.3231443763","","0.424344073","","0.2370356752","","","","","",""
"504","","bandit","241","641747","0.0-203.0-0.0","69950158","wem/bandit_single","A36BQYQGN6OWVU","pain","4","","72","H","0","img/none_selected.jpg","0","0","1","","0.09613155095","false","166","","0.09613155095","main_expt","","0.2907209657","","0.4385436022","","0.1952619304","","","","","",""
"3306","","bandit","242","646870","0.0-204.0-0.0","69950158","wem/bandit_single","A36BQYQGN6OWVU","pain","4","","72","H","0","img/none_selected.jpg","0","0","1","","0.08740230362","false","167","","0.08740230362","main_expt","","0.2386263765","","0.4428370211","","0.2008635704","","","","","",""
"2477","","bandit","243","651135","0.0-205.0-0.0","69950158","wem/bandit_single","A36BQYQGN6OWVU","pain","4","","72","H","0","img/none_selected.jpg","0","0","1","","0.1033010443","false","168","","0.1033010443","main_expt","","0.2802872421","","0.4475632301","","0.2872582577","","","","","",""
"516","","bandit","244","653441","0.0-206.0-0.0","69950158","wem/bandit_single","A36BQYQGN6OWVU","pain","4","","74","J","1","","0","1","0","","0.2858578204","false","169","","0.1288835215","main_expt","","0.2858578204","","0.4358894507","","0.2478638945","","","","","",""
"1024","","bandit","245","656328","0.0-207.0-0.0","69950158","wem/bandit_single","A36BQYQGN6OWVU","pain","4","","75","K","2","","0","0","1","","0.4401344765","false","170","","0.0821831217","main_expt","","0.3542119366","","0.4401344765","","0.2335785199","","","","","",""
"1090","","bandit","246","659204","0.0-208.0-0.0","69950158","wem/bandit_single","A36BQYQGN6OWVU","pain","4","","75","K","2","","0","0","1","","0.4182824287","false","171","","0.08448133796","main_expt","","0.363516632","","0.4182824287","","0.263029084","","","","","",""
"2367","","bandit","247","663468","0.0-209.0-0.0","69950158","wem/bandit_single","A36BQYQGN6OWVU","pain","4","","76","L","3","","0","0","1","","0.282237019","false","172","","0.1142172702","main_expt","","0.3285232471","","0.4206293302","","0.282237019","","","","","",""
"4005","","bandit","248","669274","0.0-210.0-0.0","69950158","wem/bandit_single","A36BQYQGN6OWVU","pain","4","","75","K","2","","0","0","1","","0.4424673434","false","173","","0.1585219493","main_expt","","0.3379934215","","0.4424673434","","0.2798091978","","","","","",""
"3343","","bandit","249","674394","0.0-211.0-0.0","69950158","wem/bandit_single","A36BQYQGN6OWVU","pain","4","","74","J","1","","0","0","1","","0.2937018888","false","174","","0.2167008269","main_expt","","0.2937018888","","0.4470793942","","0.2782342077","","","","","",""
"3573","","bandit","250","679765","0.0-212.0-0.0","69950158","wem/bandit_single","A36BQYQGN6OWVU","pain","4","","74","J","1","","0","0","1","","0.2691073907","false","175","","0.2564405216","main_expt","","0.2691073907","","0.4466152725","","0.3095951925","","","","","",""
"299","","bandit","251","681845","0.0-213.0-0.0","69950158","wem/bandit_single","A36BQYQGN6OWVU","pain","4","","72","H","0","img/none_selected.jpg","0","0","1","","0.2740916264","false","176","","0.2740916264","main_expt","","0.2797966768","","0.4622816701","","0.3149167583","","","","","",""
"5281","","bandit","252","688905","0.0-214.0-0.0","69950158","wem/bandit_single","A36BQYQGN6OWVU","pain","4","","74","J","1","","0","0","1","","0.2956207272","false","177","","0.2701885048","main_expt","","0.2956207272","","0.4791174255","","0.3057016371","","","","","",""
"758","","bandit","253","691552","0.0-215.0-0.0","69950158","wem/bandit_single","A36BQYQGN6OWVU","pain","4","","75","K","2","","0","0","1","","0.4878404122","false","178","","0.2525299603","main_expt","","0.2903749226","","0.4878404122","","0.2973749651","","","","","",""
"1724","","bandit","254","695055","0.0-216.0-0.0","69950158","wem/bandit_single","A36BQYQGN6OWVU","pain","4","","75","K","2","","0","0","1","","0.4871204803","false","179","","0.2923151224","main_expt","","0.2324022499","","0.4871204803","","0.3205080684","","","","","",""
"302","","bandit","255","697161","0.0-217.0-0.0","69950158","wem/bandit_single","A36BQYQGN6OWVU","pain","4","","76","L","3","","0","1","0","","0.3668921479","false","180","","0.2712435876","main_expt","","0.157369965","","0.4783768728","","0.3668921479","","","","","",""
"946","","bandit","256","699903","0.0-218.0-0.0","69950158","wem/bandit_single","A36BQYQGN6OWVU","pain","4","","76","L","3","","0","1","0","","0.36743573","false","181","","0.2911825171","main_expt","","0.1928111427","","0.4791844977","","0.36743573","","","","","",""
"384","","bandit","257","702069","0.0-219.0-0.0","69950158","wem/bandit_single","A36BQYQGN6OWVU","pain","4","","76","L","3","","0","0","1","","0.3444330154","false","182","","0.2812290194","main_expt","","0.1831473083","","0.4796326775","","0.3444330154","","","","","",""
"2048","","bandit","258","705989","0.0-220.0-0.0","69950158","wem/bandit_single","A36BQYQGN6OWVU","pain","4","","76","L","3","","0","0","1","","0.376594699","false","183","","0.2998653002","main_expt","","0.1367876881","","0.4610412729","","0.376594699","","","","","",""
"5494","","bandit","259","713338","0.0-221.0-0.0","69950158","wem/bandit_single","A36BQYQGN6OWVU","pain","4","","74","J","1","","0","0","1","","0.1225312115","false","184","","0.3019566185","main_expt","","0.1225312115","","0.4654872089","","0.3576767422","","","","","",""
"1428","","bandit","260","716565","0.0-222.0-0.0","69950158","wem/bandit_single","A36BQYQGN6OWVU","pain","4","","72","H","0","img/none_selected.jpg","0","0","1","","0.3297019868","false","185","","0.3297019868","main_expt","","0.1342014861","","0.4579605539","","0.3420219295","","","","","",""
"253","","bandit","261","718600","0.0-223.0-0.0","69950158","wem/bandit_single","A36BQYQGN6OWVU","pain","4","","74","J","1","","0","0","1","","0.1302900424","false","186","","0.3522504082","main_expt","","0.1302900424","","0.4285966985","","0.3398722127","","","","","",""
"654","","bandit","262","721034","0.0-224.0-0.0","69950158","wem/bandit_single","A36BQYQGN6OWVU","pain","4","","75","K","2","","0","1","0","","0.4348535533","false","187","","0.3716798598","main_expt","","0.1721475048","","0.4348535533","","0.3329123812","","","","","",""
"582","","bandit","263","723395","0.0-225.0-0.0","69950158","wem/bandit_single","A36BQYQGN6OWVU","pain","4","","75","K","2","","0","0","1","","0.4485299143","false","188","","0.3516931858","main_expt","","0.194848396","","0.4485299143","","0.3185375489","","","","","",""
"1589","","bandit","264","726798","0.0-226.0-0.0","69950158","wem/bandit_single","A36BQYQGN6OWVU","pain","4","","76","L","3","","0","0","1","","0.2819885058","false","189","","0.311825216","main_expt","","0.2010474049","","0.4108460603","","0.2819885058","","","","","",""
"216","","bandit","265","728825","0.0-227.0-0.0","69950158","wem/bandit_single","A36BQYQGN6OWVU","pain","4","","76","L","3","","0","1","0","","0.2938453289","false","190","","0.3228194114","main_expt","","0.2388592571","","0.4276881046","","0.2938453289","","","","","",""
"257","","bandit","266","730912","0.0-228.0-0.0","69950158","wem/bandit_single","A36BQYQGN6OWVU","pain","4","","76","L","3","","0","0","1","","0.3252392313","false","191","","0.3070679034","main_expt","","0.2125939305","","0.4252680513","","0.3252392313","","","","","",""
"306","","bandit","267","733010","0.0-229.0-0.0","69950158","wem/bandit_single","A36BQYQGN6OWVU","pain","4","","76","L","3","","0","0","1","","0.2886148476","false","192","","0.3224985291","main_expt","","0.2494953747","","0.4128843357","","0.2886148476","","","","","",""
"4018","","bandit","268","738859","0.0-230.0-0.0","69950158","wem/bandit_single","A36BQYQGN6OWVU","pain","4","","72","H","0","img/none_selected.jpg","0","0","1","","0.3869795439","false","193","","0.3869795439","main_expt","","0.2831479201","","0.3935422506","","0.2985788169","","","","","",""
"356","","bandit","269","741030","0.0-231.0-0.0","69950158","wem/bandit_single","A36BQYQGN6OWVU","pain","4","","74","J","1","","0","1","0","","0.3119862296","false","194","","0.4012627402","main_expt","","0.3119862296","","0.3844836544","","0.2480640489","","","","","",""
"752","","bandit","270","743618","0.0-232.0-0.0","69950158","wem/bandit_single","A36BQYQGN6OWVU","pain","4","","74","J","1","","0","0","1","","0.3216729489","false","195","","0.3984750166","main_expt","","0.3216729489","","0.3676726872","","0.2512767584","","","","","",""
"983","","bandit","271","746396","0.0-233.0-0.0","69950158","wem/bandit_single","A36BQYQGN6OWVU","pain","4","","75","K","2","","0","0","1","","0.3789354293","false","196","","0.354698241","main_expt","","0.3321806914","","0.3789354293","","0.2465093633","","","","","",""
"1324","","bandit","272","749515","0.0-234.0-0.0","69950158","wem/bandit_single","A36BQYQGN6OWVU","pain","4","","76","L","3","","0","0","1","","0.2064088789","false","197","","0.388220233","main_expt","","0.3046277309","","0.3163718389","","0.2064088789","","","","","",""
"2419","","bandit","273","753715","0.0-235.0-0.0","69950158","wem/bandit_single","A36BQYQGN6OWVU","pain","4","","76","L","3","","0","0","1","","0.1991167995","false","198","","0.3702696144","main_expt","","0.2780350238","","0.3791854339","","0.1991167995","","","","","",""
"1793","","bandit","274","757288","0.0-236.0-0.0","69950158","wem/bandit_single","A36BQYQGN6OWVU","pain","4","","75","K","2","","0","0","1","","0.3677616307","false","199","","0.3901406761","main_expt","","0.2933352516","","0.3677616307","","0.217931059","","","","","",""
"3603","","bandit","275","762709","0.0-237.0-0.0","69950158","wem/bandit_single","A36BQYQGN6OWVU","pain","4","","74","J","1","","0","1","0","","0.2826656477","false","200","","0.3606677237","main_expt","","0.2826656477","","0.3696360463","","0.1684289921","","","","","",""
"1272","","bandit","276","765785","0.0-238.0-0.0","69950158","wem/bandit_single","A36BQYQGN6OWVU","pain","4","","74","J","1","","0","0","1","","0.2337361703","false","201","","0.3608273241","main_expt","","0.2337361703","","0.3685313937","","0.1526494416","","","","","",""
"2516","","bandit","277","770084","0.0-239.0-0.0","69950158","wem/bandit_single","A36BQYQGN6OWVU","pain","4","","74","J","1","","0","0","1","","0.1697000529","false","202","","0.3495453025","main_expt","","0.1697000529","","0.354480527","","0.1474087426","","","","","",""
"2262","","bandit","278","774167","0.0-240.0-0.0","69950158","wem/bandit_single","A36BQYQGN6OWVU","pain","4","","72","H","0","img/none_selected.jpg","0","0","1","","0.3660628182","false","203","","0.3660628182","main_expt","","0.1941246875","","0.3420940801","","0.1499100939","","","","","",""
"3305","","bandit","279","779284","0.0-241.0-0.0","69950158","wem/bandit_single","A36BQYQGN6OWVU","pain","4","","75","K","2","","0","0","1","","0.3365711719","false","204","","0.337040125","main_expt","","0.2006574904","","0.3365711719","","0.173155318","","","","","",""
"3059","","bandit","280","784145","0.0-242.0-0.0","69950158","wem/bandit_single","A36BQYQGN6OWVU","pain","4","","76","L","3","","0","1","0","","0.1813441082","false","205","","0.303371863","main_expt","","0.1905393187","","0.3517226909","","0.1813441082","","","","","",""
"515","","bandit","281","786460","0.0-243.0-0.0","69950158","wem/bandit_single","A36BQYQGN6OWVU","pain","4","","76","L","3","","0","1","0","","0.1491413167","false","206","","0.256221391","main_expt","","0.1715448013","","0.3476038752","","0.1491413167","","","","","",""
"1970","","bandit","282","790216","0.0-244.0-0.0","69950158","wem/bandit_single","A36BQYQGN6OWVU","pain","4","","76","L","3","","0","0","1","","0.08847738283","false","207","","0.2368802791","main_expt","","0.1857981004","","0.3349551135","","0.08847738283","","","","","",""
"394","","bandit","283","792391","0.0-245.0-0.0","69950158","wem/bandit_single","A36BQYQGN6OWVU","pain","4","","75","K","2","","0","1","0","","0.342580335","false","208","","0.1949321076","main_expt","","0.2102455122","","0.342580335","","0.1283817583","","","","","",""
"1420","","bandit","284","795591","0.0-246.0-0.0","69950158","wem/bandit_single","A36BQYQGN6OWVU","pain","4","","75","K","2","","0","1","0","","0.3043768385","false","209","","0.1838736563","main_expt","","0.2400108979","","0.3043768385","","0.116273769","","","","","",""
"1977","","bandit","285","799347","0.0-247.0-0.0","69950158","wem/bandit_single","A36BQYQGN6OWVU","pain","4","","75","K","2","","0","0","1","","0.2578785415","false","210","","0.2021797606","main_expt","","0.2756077388","","0.2578785415","","0.1255054793","","","","","",""
"1520","","bandit","286","802700","0.0-248.0-0.0","69950158","wem/bandit_single","A36BQYQGN6OWVU","pain","4","","76","L","3","","0","0","1","","0.1183517879","false","211","","0.1724183734","main_expt","","0.2509099491","","0.2684152162","","0.1183517879","","","","","",""
"153","","bandit","287","804633","0.0-249.0-0.0","69950158","wem/bandit_single","A36BQYQGN6OWVU","pain","4","","75","K","2","","0","0","1","","0.2734791169","false","212","","0.1730984207","main_expt","","0.1980821896","","0.2734791169","","0.05794836862","","","","","",""
"147","","bandit","288","806643","0.0-250.0-0.0","69950158","wem/bandit_single","A36BQYQGN6OWVU","pain","4","","74","J","1","","0","0","1","","0.1925164192","false","213","","0.1324166562","main_expt","","0.1925164192","","0.2278558496","","0.05975327623","","","","","",""
"238","","bandit","289","808758","0.0-251.0-0.0","69950158","wem/bandit_single","A36BQYQGN6OWVU","pain","4","","72","H","0","img/none_selected.jpg","0","1","0","","0.1503769339","false","214","","0.1503769339","main_expt","","0.2265747235","","0.3028606466","","0.08438277685","","","","","",""
"462","","bandit","290","811073","0.0-252.0-0.0","69950158","wem/bandit_single","A36BQYQGN6OWVU","pain","4","","72","H","0","img/none_selected.jpg","0","1","0","","0.1957560139","false","215","","0.1957560139","main_expt","","0.2019374621","","0.2931323275","","0.06249742642","","","","","",""
"37","","bandit","291","812891","0.0-253.0-0.0","69950158","wem/bandit_single","A36BQYQGN6OWVU","pain","4","","72","H","0","img/none_selected.jpg","0","0","1","","0.2405167914","false","216","","0.2405167914","main_expt","","0.1789305456","","0.3496422565","","0.03962767808","","","","","",""
"1563","","bandit","292","816288","0.0-254.0-0.0","69950158","wem/bandit_single","A36BQYQGN6OWVU","pain","4","","72","H","0","img/none_selected.jpg","0","0","1","","0.1730494568","false","217","","0.1730494568","main_expt","","0.1749198907","","0.3773047798","","0.04234009702","","","","","",""
"357","","bandit","293","818441","0.0-255.0-0.0","69950158","wem/bandit_single","A36BQYQGN6OWVU","pain","4","","74","J","1","","0","1","0","","0.1735363699","false","218","","0.194438436","main_expt","","0.1735363699","","0.3416605923","","0.03503126556","","","","","",""
"296","","bandit","294","820543","0.0-256.0-0.0","69950158","wem/bandit_single","A36BQYQGN6OWVU","pain","4","","74","J","1","","0","0","1","","0.2007391453","false","219","","0.1883779435","main_expt","","0.2007391453","","0.3559276739","","0.04555228435","","","","","",""
"202","","bandit","295","822525","0.0-257.0-0.0","69950158","wem/bandit_single","A36BQYQGN6OWVU","pain","4","","75","K","2","","0","0","1","","0.3535435837","false","220","","0.146052069","main_expt","","0.2082644318","","0.3535435837","","0.03183460319","","","","","",""
"1033","","bandit","296","825439","0.0-258.0-0.0","69950158","wem/bandit_single","A36BQYQGN6OWVU","pain","4","","76","L","3","","0","0","1","","0.05071015327","false","221","","0.1494285134","main_expt","","0.1821586712","","0.3418709783","","0.05071015327","","","","","",""
"190","","bandit","297","827410","0.0-259.0-0.0","69950158","wem/bandit_single","A36BQYQGN6OWVU","pain","4","","76","L","3","","0","0","1","","0.04027023507","false","222","","0.182387278","main_expt","","0.2158533928","","0.3004905908","","0.04027023507","","","","","",""
"204","","bandit","298","829396","0.0-260.0-0.0","69950158","wem/bandit_single","A36BQYQGN6OWVU","pain","4","","76","L","3","","0","0","1","","0.05247893246","false","223","","0.198140534","main_expt","","0.1832968935","","0.3691689592","","0.05247893246","","","","","",""
"292","","bandit","299","831469","0.0-261.0-0.0","69950158","wem/bandit_single","A36BQYQGN6OWVU","pain","4","","75","K","2","","0","0","1","","0.2915556832","false","224","","0.1957066115","main_expt","","0.1701073256","","0.2915556832","","0.06352932029","","","","","",""
"309","","bandit","300","833561","0.0-262.0-0.0","69950158","wem/bandit_single","A36BQYQGN6OWVU","pain","4","","74","J","1","","0","1","0","","0.1599508429","false","225","","0.2132826896","main_expt","","0.1599508429","","0.3175642321","","0.04388745626","","","","","",""
"520","","bandit","301","835927","0.0-263.0-0.0","69950158","wem/bandit_single","A36BQYQGN6OWVU","pain","4","","74","J","1","","0","0","1","","0.1801289829","false","226","","0.2679811769","main_expt","","0.1801289829","","0.2803716623","","0.0536624769","","","","","",""
"36","","bandit","302","837751","0.0-264.0-0.0","69950158","wem/bandit_single","A36BQYQGN6OWVU","pain","4","","74","J","1","","0","0","1","","0.1920788888","false","227","","0.2101601544","main_expt","","0.1920788888","","0.2506224893","","0.07211167966","","","","","",""
"326","","bandit","303","839957","0.0-265.0-0.0","69950158","wem/bandit_single","A36BQYQGN6OWVU","pain","4","","72","H","0","img/none_selected.jpg","0","0","1","","0.1808571688","false","228","","0.1808571688","main_expt","","0.1540575712","","0.2890404278","","0.04486621846","","","","","",""
"888","","bandit","304","842673","0.0-266.0-0.0","69950158","wem/bandit_single","A36BQYQGN6OWVU","pain","4","","72","H","0","img/none_selected.jpg","0","1","0","","0.1132309001","false","229","","0.1132309001","main_expt","","0.161449161","","0.2746035793","","0.05387953984","","","","","",""
"118","","bandit","305","844579","0.0-267.0-0.0","69950158","wem/bandit_single","A36BQYQGN6OWVU","pain","4","","72","H","0","img/none_selected.jpg","0","0","1","","0.1450818377","false","230","","0.1450818377","main_expt","","0.1413021421","","0.282726532","","0.03848872117","","","","","",""
"358","","bandit","306","846904","0.0-268.0-0.0","69950158","wem/bandit_single","A36BQYQGN6OWVU","pain","4","","72","H","0","img/none_selected.jpg","0","0","1","","0.1077137685","false","231","","0.1077137685","main_expt","","0.1745796094","","0.3472256411","","0.04669383004","","","","","",""
"357","","bandit","307","849049","0.0-269.0-0.0","69950158","wem/bandit_single","A36BQYQGN6OWVU","pain","4","","72","H","0","img/none_selected.jpg","0","0","1","","0.06427161289","false","232","","0.06427161289","main_expt","","0.1680880834","","0.3994934702","","0.03395804074","","","","","",""
"5008","","bandit","308","855912","0.0-270.0-0.0","69950158","wem/bandit_single","A36BQYQGN6OWVU","pain","4","","72","H","0","img/none_selected.jpg","0","1","0","","0.1060089469","false","233","","0.1060089469","main_expt","","0.213250795","","0.4029083043","","0.05150109453","","","","","",""
"939","","bandit","309","858685","0.0-271.0-0.0","69950158","wem/bandit_single","A36BQYQGN6OWVU","pain","4","","72","H","0","img/none_selected.jpg","0","0","1","","0.1117154146","false","234","","0.1117154146","main_expt","","0.221091899","","0.4486287737","","0.06099663442","","","","","",""
"554","","bandit","310","861043","0.0-272.0-0.0","69950158","wem/bandit_single","A36BQYQGN6OWVU","pain","4","","74","J","1","","0","0","1","","0.2688923835","false","235","","0.1276115887","main_expt","","0.2688923835","","0.4561120354","","0.05202127711","","","","","",""
"3976","","bandit","311","866802","0.0-273.0-0.0","69950158","wem/bandit_single","A36BQYQGN6OWVU","pain","4","","74","J","1","","0","0","1","","0.2323123402","false","236","","0.1786916187","main_expt","","0.2323123402","","0.4375102443","","0.07001303924","","","","","",""
"819","","bandit","312","869408","0.0-274.0-0.0","69950158","wem/bandit_single","A36BQYQGN6OWVU","pain","4","","74","J","1","","0","0","1","","0.174764536","false","237","","0.1896980961","main_expt","","0.174764536","","0.4582573195","","0.07602679398","","","","","",""
"541","","bandit","313","871764","0.0-275.0-0.0","69950158","wem/bandit_single","A36BQYQGN6OWVU","pain","4","","75","K","2","","0","1","0","","0.4463811869","false","238","","0.2205101014","main_expt","","0.1654919337","","0.4463811869","","0.08775462142","","","","","",""
"576","","bandit","314","874121","0.0-276.0-0.0","69950158","wem/bandit_single","A36BQYQGN6OWVU","pain","4","","75","K","2","","0","0","1","","0.4507479662","false","239","","0.2661717939","main_expt","","0.2402574844","","0.4507479662","","0.06721086637","","","","","",""
"2968","","bandit","315","878873","0.0-277.0-0.0","69950158","wem/bandit_single","A36BQYQGN6OWVU","pain","4","","75","K","2","","0","0","1","","0.4504038859","false","240","","0.1972661282","main_expt","","0.2445968751","","0.4504038859","","0.07433064979","","","","","",""
"268","","bandit","316","880925","0.0-278.0-0.0","69950158","wem/bandit_single","A36BQYQGN6OWVU","pain","4","","76","L","3","","0","0","1","","0.08919714094","false","241","","0.1868253343","main_expt","","0.2708632627","","0.4346931185","","0.08919714094","","","","","",""
"561","","bandit","317","883267","0.0-279.0-0.0","69950158","wem/bandit_single","A36BQYQGN6OWVU","pain","4","","76","L","3","","0","0","1","","0.06159770715","false","242","","0.1649449253","main_expt","","0.2047807489","","0.3898892773","","0.06159770715","","","","","",""
"183","","bandit","318","885232","0.0-280.0-0.0","69950158","wem/bandit_single","A36BQYQGN6OWVU","pain","4","","76","L","3","","0","0","1","","0.05299296545","false","243","","0.184368772","main_expt","","0.222122474","","0.4033463229","","0.05299296545","","","","","",""
"206","","bandit","319","887224","0.0-281.0-0.0","69950158","wem/bandit_single","A36BQYQGN6OWVU","pain","4","","76","L","3","","0","0","1","","0.06275569833","false","244","","0.2121467569","main_expt","","0.2425992204","","0.4096532456","","0.06275569833","","","","","",""
"472","","bandit","320","889489","0.0-282.0-0.0","69950158","wem/bandit_single","A36BQYQGN6OWVU","pain","4","","75","K","2","","0","1","0","","0.3779527256","false","245","","0.1894702338","main_expt","","0.2173978931","","0.3779527256","","0.06673215917","","","","","",""
"143","","bandit","321","891415","0.0-283.0-0.0","69950158","wem/bandit_single","A36BQYQGN6OWVU","pain","4","","75","K","2","","0","0","1","","0.3953318503","false","246","","0.2018459735","main_expt","","0.2218069129","","0.3953318503","","0.06500670021","","","","","",""
"203","","bandit","322","893466","0.0-284.0-0.0","69950158","wem/bandit_single","A36BQYQGN6OWVU","pain","4","","75","K","2","","0","1","0","","0.4287890539","false","247","","0.1986179994","main_expt","","0.1888628326","","0.4287890539","","0.07271559664","","","","","",""
"121","","bandit","323","895371","0.0-285.0-0.0","69950158","wem/bandit_single","A36BQYQGN6OWVU","pain","4","","75","K","2","","0","1","0","","0.4104310255","false","248","","0.1299779064","main_expt","","0.1722509531","","0.4104310255","","0.09654775784","","","","","",""
"447","","bandit","324","897630","0.0-286.0-0.0","69950158","wem/bandit_single","A36BQYQGN6OWVU","pain","4","","75","K","2","","0","0","1","","0.4116337798","false","249","","0.1590650881","main_expt","","0.2541205998","","0.4116337798","","0.1179039307","","","","","",""
"323","","bandit","325","899739","0.0-287.0-0.0","69950158","wem/bandit_single","A36BQYQGN6OWVU","pain","4","","75","K","2","","0","0","1","","0.426505214","false","250","","0.1213614167","main_expt","","0.2664885101","","0.426505214","","0.1265890049","","","","","",""
"197","","bandit","326","901799","0.0-288.0-0.0","69950158","wem/bandit_single","A36BQYQGN6OWVU","pain","4","","74","J","1","","0","0","1","","0.2519669898","false","251","","0.1099334476","main_expt","","0.2519669898","","0.3949293487","","0.1039398773","","","","","",""
"314","","bandit","327","903899","0.0-289.0-0.0","69950158","wem/bandit_single","A36BQYQGN6OWVU","pain","4","","72","H","0","img/none_selected.jpg","0","0","1","","0.1087011898","false","252","","0.1087011898","main_expt","","0.2932098873","","0.3913077142","","0.107940897","","","","","",""
"1065","","bandit","328","906760","0.0-290.0-0.0","69950158","wem/bandit_single","A36BQYQGN6OWVU","pain","4","","72","H","0","img/none_selected.jpg","0","0","1","","0.09397011719","false","253","","0.09397011719","main_expt","","0.3179249839","","0.3648650894","","0.1136461566","","","","","",""
"1569","","bandit","329","910113","0.0-291.0-0.0","69950158","wem/bandit_single","A36BQYQGN6OWVU","pain","4","","74","J","1","","0","1","0","","0.2908620441","false","254","","0.08474648857","main_expt","","0.2908620441","","0.3452883024","","0.1374631792","","","","","",""
"16196","","bandit","330","928092","0.0-292.0-0.0","69950158","wem/bandit_single","A36BQYQGN6OWVU","pain","4","","72","H","0","img/none_selected.jpg","0","0","1","","0.1025854271","false","255","","0.1025854271","main_expt","","0.3067265453","","0.2943306686","","0.1453945637","","","","","",""
"1291","","bandit","331","931165","0.0-293.0-0.0","69950158","wem/bandit_single","A36BQYQGN6OWVU","pain","4","","75","K","2","","0","1","0","","0.3225000795","false","256","","0.08686152536","main_expt","","0.3133222149","","0.3225000795","","0.1543600678","","","","","",""
"457","","bandit","332","933424","0.0-294.0-0.0","69950158","wem/bandit_single","A36BQYQGN6OWVU","pain","4","","75","K","2","","0","0","1","","0.3199750271","false","257","","0.08667022303","main_expt","","0.3194106209","","0.3199750271","","0.107160473","","","","","",""
"377","","bandit","333","935584","0.0-295.0-0.0","69950158","wem/bandit_single","A36BQYQGN6OWVU","pain","4","","76","L","3","","0","0","1","","0.0567043194","false","258","","0.1158580788","main_expt","","0.35032938","","0.355105101","","0.0567043194","","","","","",""
"309","","bandit","334","937675","0.0-296.0-0.0","69950158","wem/bandit_single","A36BQYQGN6OWVU","pain","4","","76","L","3","","0","0","1","","0.05418204449","false","259","","0.08241329339","main_expt","","0.3856615787","","0.3566572827","","0.05418204449","","","","","",""
"300","","bandit","335","939759","0.0-297.0-0.0","69950158","wem/bandit_single","A36BQYQGN6OWVU","pain","4","","76","L","3","","0","0","1","","0.0423658587","false","260","","0.09346186364","main_expt","","0.3977147975","","0.3492833521","","0.0423658587","","","","","",""
"404","","bandit","336","942149","0.0-298.0-0.0","69950158","wem/bandit_single","A36BQYQGN6OWVU","pain","4","","76","L","3","","0","0","1","","0.08097208102","false","261","","0.07434745577","main_expt","","0.4011116255","","0.3406934897","","0.08097208102","","","","","",""
"455","","bandit","337","944385","0.0-299.0-0.0","69950158","wem/bandit_single","A36BQYQGN6OWVU","pain","4","","75","K","2","","0","0","1","","0.3604065233","false","262","","0.1177047137","main_expt","","0.4149706566","","0.3604065233","","0.05731993864","","","","","",""
"476","","bandit","338","946677","0.0-300.0-0.0","69950158","wem/bandit_single","A36BQYQGN6OWVU","pain","4","","74","J","1","","0","0","1","","0.4476629791","false","263","","0.09530987449","main_expt","","0.4476629791","","0.3584147688","","0.07314079116","","","","","",""
"544","","bandit","339","949119","0.0-301.0-0.0","69950158","wem/bandit_single","A36BQYQGN6OWVU","pain","4","","72","H","0","img/none_selected.jpg","0","0","1","","0.07595610255","false","264","","0.07595610255","main_expt","","0.4640453953","","0.3723043834","","0.08382102311","","","","","",""
"431","","bandit","340","951334","0.0-302.0-0.0","69950158","wem/bandit_single","A36BQYQGN6OWVU","pain","4","","72","H","0","img/none_selected.jpg","0","0","1","","0.08850347459","false","265","","0.08850347459","main_expt","","0.4465377191","","0.316280577","","0.1065624759","","","","","",""
"222","","bandit","341","953340","0.0-303.0-0.0","69950158","wem/bandit_single","A36BQYQGN6OWVU","pain","4","","74","J","1","","0","1","0","","0.4183068553","false","266","","0.1215706641","main_expt","","0.4183068553","","0.269287162","","0.1253885588","","","","","",""
"150","","bandit","342","955273","0.0-304.0-0.0","69950158","wem/bandit_single","A36BQYQGN6OWVU","pain","4","","74","J","1","","0","1","0","","0.4268145795","false","267","","0.1841144129","main_expt","","0.4268145795","","0.2280314931","","0.09016252172","","","","","",""
"167","","bandit","343","957223","0.0-305.0-0.0","69950158","wem/bandit_single","A36BQYQGN6OWVU","pain","4","","74","J","1","","0","1","0","","0.4319202891","false","268","","0.1409141681","main_expt","","0.4319202891","","0.2243604643","","0.08700052181","","","","","",""
"244","","bandit","344","959249","0.0-306.0-0.0","69950158","wem/bandit_single","A36BQYQGN6OWVU","pain","4","","74","J","1","","0","0","1","","0.4493038861","false","269","","0.1011197226","main_expt","","0.4493038861","","0.2334807581","","0.09500676271","","","","","",""
"250","","bandit","345","961317","0.0-307.0-0.0","69950158","wem/bandit_single","A36BQYQGN6OWVU","pain","4","","75","K","2","","0","0","1","","0.2376518603","false","270","","0.118556502","main_expt","","0.443059266","","0.2376518603","","0.07607499825","","","","","",""
"370","","bandit","346","963469","0.0-308.0-0.0","69950158","wem/bandit_single","A36BQYQGN6OWVU","pain","4","","76","L","3","","0","0","1","","0.08946946819","false","271","","0.131750931","main_expt","","0.4362671961","","0.2139372972","","0.08946946819","","","","","",""
"202","","bandit","347","965469","0.0-309.0-0.0","69950158","wem/bandit_single","A36BQYQGN6OWVU","pain","4","","76","L","3","","0","0","1","","0.108288805","false","272","","0.174678733","main_expt","","0.4452199348","","0.157688628","","0.108288805","","","","","",""
"487","","bandit","348","967825","0.0-310.0-0.0","69950158","wem/bandit_single","A36BQYQGN6OWVU","pain","4","","75","K","2","","0","0","1","","0.271098703","false","273","","0.1730415972","main_expt","","0.454652927","","0.271098703","","0.105491008","","","","","",""
"167","","bandit","349","969783","0.0-311.0-0.0","69950158","wem/bandit_single","A36BQYQGN6OWVU","pain","4","","74","J","1","","0","1","0","","0.4646374989","false","274","","0.1520576313","main_expt","","0.4646374989","","0.2778056479","","0.1059149547","","","","","",""
"242","","bandit","350","971893","0.0-312.0-0.0","69950158","wem/bandit_single","A36BQYQGN6OWVU","pain","4","","74","J","1","","0","1","0","","0.4535579815","false","275","","0.1007060326","main_expt","","0.4535579815","","0.2698457611","","0.09894283875","","","","","",""
"280","","bandit","351","974072","0.0-313.0-0.0","69950158","wem/bandit_single","A36BQYQGN6OWVU","pain","4","","74","J","1","","0","1","0","","0.4319407295","false","276","","0.08844777519","main_expt","","0.4319407295","","0.2774836338","","0.07695295732","","","","","",""
"269","","bandit","352","976191","0.0-314.0-0.0","69950158","wem/bandit_single","A36BQYQGN6OWVU","pain","4","","74","J","1","","0","1","0","","0.4475260374","false","277","","0.1315613084","main_expt","","0.4475260374","","0.3222794015","","0.0896712608","","","","","",""
"217","","bandit","353","978205","0.0-315.0-0.0","69950158","wem/bandit_single","A36BQYQGN6OWVU","pain","4","","74","J","1","","0","0","1","","0.4553849104","false","278","","0.1508492864","main_expt","","0.4553849104","","0.3122447371","","0.1343695578","","","","","",""
"874","","bandit","354","980873","0.0-316.0-0.0","69950158","wem/bandit_single","A36BQYQGN6OWVU","pain","4","","72","H","0","img/none_selected.jpg","0","0","1","","0.1181182825","false","279","","0.1181182825","main_expt","","0.4621871954","","0.2934764685","","0.1106050404","","","","","",""
"869","","bandit","355","983570","0.0-317.0-0.0","69950158","wem/bandit_single","A36BQYQGN6OWVU","pain","4","","72","H","0","img/none_selected.jpg","0","0","1","","0.1244803533","false","280","","0.1244803533","main_expt","","0.4482597109","","0.290984208","","0.114105974","","","","","",""
"581","","bandit","356","986144","0.0-318.0-0.0","69950158","wem/bandit_single","A36BQYQGN6OWVU","pain","4","","74","J","1","","0","0","1","","0.4347423019","false","281","","0.105821284","main_expt","","0.4347423019","","0.2974260948","","0.1246337516","","","","","",""
"995","","bandit","357","988946","0.0-319.0-0.0","69950158","wem/bandit_single","A36BQYQGN6OWVU","pain","4","","75","K","2","","0","1","0","","0.2972171025","false","282","","0.1562468179","main_expt","","0.4583393623","","0.2972171025","","0.079988156","","","","","",""
"405","","bandit","358","991162","0.0-320.0-0.0","69950158","wem/bandit_single","A36BQYQGN6OWVU","pain","4","","75","K","2","","0","1","0","","0.2821487798","false","283","","0.1478322318","main_expt","","0.4497532375","","0.2821487798","","0.06901380195","","","","","",""
"449","","bandit","359","993403","0.0-321.0-0.0","69950158","wem/bandit_single","A36BQYQGN6OWVU","pain","4","","75","K","2","","0","1","0","","0.2739939459","false","284","","0.1371678423","main_expt","","0.4312811421","","0.2739939459","","0.05901051183","","","","","",""
"403","","bandit","360","995591","0.0-322.0-0.0","69950158","wem/bandit_single","A36BQYQGN6OWVU","pain","4","","75","K","2","","0","0","1","","0.2251097973","false","285","","0.12762277","main_expt","","0.4599346403","","0.2251097973","","0.1126944794","","","","","",""
"74","","bandit","361","997452","0.0-323.0-0.0","69950158","wem/bandit_single","A36BQYQGN6OWVU","pain","4","","76","L","3","","0","0","1","","0.09646131279","false","286","","0.1587978561","main_expt","","0.4588450488","","0.2124690726","","0.09646131279","","","","","",""
"73","","bandit","362","999394","0.0-324.0-0.0","69950158","wem/bandit_single","A36BQYQGN6OWVU","pain","4","","76","L","3","","0","1","0","","0.0795853072","false","287","","0.1262084743","main_expt","","0.4684539465","","0.2311163105","","0.0795853072","","","","","",""
"115","","bandit","363","1001300","0.0-325.0-0.0","69950158","wem/bandit_single","A36BQYQGN6OWVU","pain","4","","76","L","3","","0","0","1","","0.07210460151","false","288","","0.08849331384","main_expt","","0.4555823871","","0.2178761709","","0.07210460151","","","","","",""
"85","","bandit","364","1003213","0.0-326.0-0.0","69950158","wem/bandit_single","A36BQYQGN6OWVU","pain","4","","76","L","3","","0","0","1","","0.08807043944","false","289","","0.1082793638","main_expt","","0.4779982095","","0.2656120211","","0.08807043944","","","","","",""
"74","","bandit","365","1005072","0.0-327.0-0.0","69950158","wem/bandit_single","A36BQYQGN6OWVU","pain","4","","75","K","2","","0","1","0","","0.2756957417","false","290","","0.1591187351","main_expt","","0.4806691972","","0.2756957417","","0.09097769709","","","","","",""
"45","","bandit","366","1006907","0.0-328.0-0.0","69950158","wem/bandit_single","A36BQYQGN6OWVU","pain","4","","75","K","2","","0","0","1","","0.3111580235","false","291","","0.1766493085","main_expt","","0.4856322508","","0.3111580235","","0.1486720085","","","","","",""
"1061","","bandit","367","1009754","0.0-329.0-0.0","69950158","wem/bandit_single","A36BQYQGN6OWVU","pain","4","","76","L","3","","0","0","1","","0.166368556","false","292","","0.1303677554","main_expt","","0.4905538215","","0.3019137931","","0.166368556","","","","","",""
"122","","bandit","368","1011662","0.0-330.0-0.0","69950158","wem/bandit_single","A36BQYQGN6OWVU","pain","4","","76","L","3","","0","0","1","","0.1516979355","false","293","","0.1553518032","main_expt","","0.4915741327","","0.2930542664","","0.1516979355","","","","","",""
"576","","bandit","369","1014043","0.0-331.0-0.0","69950158","wem/bandit_single","A36BQYQGN6OWVU","pain","4","","75","K","2","","0","1","0","","0.294566814","false","294","","0.1586445557","main_expt","","0.4854109815","","0.294566814","","0.142642289","","","","","",""
"124","","bandit","370","1016013","0.0-332.0-0.0","69950158","wem/bandit_single","A36BQYQGN6OWVU","pain","4","","75","K","2","","0","0","1","","0.2590601899","false","295","","0.1474370852","main_expt","","0.4737464351","","0.2590601899","","0.1038045902","","","","","",""
"343","","bandit","371","1018167","0.0-333.0-0.0","69950158","wem/bandit_single","A36BQYQGN6OWVU","pain","4","","75","K","2","","0","0","1","","0.260130188","false","296","","0.1281429101","main_expt","","0.4752126994","","0.260130188","","0.1055366566","","","","","",""
"119","","bandit","372","1020079","0.0-334.0-0.0","69950158","wem/bandit_single","A36BQYQGN6OWVU","pain","4","","75","K","2","","0","0","1","","0.243487995","false","297","","0.1486346553","main_expt","","0.47087989","","0.243487995","","0.07292146603","","","","","",""
"82","","bandit","373","1021948","0.0-335.0-0.0","69950158","wem/bandit_single","A36BQYQGN6OWVU","pain","4","","75","K","2","","0","0","1","","0.2746908113","false","298","","0.154412059","main_expt","","0.454436629","","0.2746908113","","0.07361350609","","","","","",""
