"rt","responses","trial_type","trial_index","time_elapsed","internal_node_id","subjID","study","MID","cond","drift","key_press","respCharCode","respKey","respChoiceNum","respChoice","gems","bombs","no_reward","GemPrChosen","BombPrChosen","practice","trial_counter","WinPr_0","LosePr_0","trial_label","WinPr_1","LosePr_1","WinPr_2","LosePr_2","WinPr_3","LosePr_3","Q0","Q1","Q2","gender","age","ethnicity"
"18630","{""Q0"":""A2ZRF4I5RTKN7G""}","survey-text","0","18664","0.0-0.0","70143722","wem/bandit_single","A2ZRF4I5RTKN7G","pain","7","","","","","","","","","","","","","","","","","","","","","","","","","","",""
"2589","","text","1","22266","0.0-1.0","70143722","wem/bandit_single","A2ZRF4I5RTKN7G","pain","7","32","","","","","","","","","","","","","","","","","","","","","","","","","",""
"3236","","text","2","25512","0.0-2.0","70143722","wem/bandit_single","A2ZRF4I5RTKN7G","pain","7","32","","","","","","","","","","","","","","","","","","","","","","","","","",""
"47333","","text","3","72865","0.0-3.0","70143722","wem/bandit_single","A2ZRF4I5RTKN7G","pain","7","32","","","","","","","","","","","","","","","","","","","","","","","","","",""
"39602","","text","4","112491","0.0-4.0","70143722","wem/bandit_single","A2ZRF4I5RTKN7G","pain","7","32","","","","","","","","","","","","","","","","","","","","","","","","","",""
"26","","text","5","112533","0.0-5.0","70143722","wem/bandit_single","A2ZRF4I5RTKN7G","pain","7","32","","","","","","","","","","","","","","","","","","","","","","","","","",""
"19108","","text","6","131654","0.0-6.0","70143722","wem/bandit_single","A2ZRF4I5RTKN7G","pain","7","32","","","","","","","","","","","","","","","","","","","","","","","","","",""
"2517","","text","7","134178","0.0-7.0","70143722","wem/bandit_single","A2ZRF4I5RTKN7G","pain","7","32","","","","","","","","","","","","","","","","","","","","","","","","","",""
"4155","","text","8","138343","0.0-8.0","70143722","wem/bandit_single","A2ZRF4I5RTKN7G","pain","7","32","","","","","","","","","","","","","","","","","","","","","","","","","",""
"1890","","text","9","140237","0.0-9.0","70143722","wem/bandit_single","A2ZRF4I5RTKN7G","pain","7","32","","","","","","","","","","","","","","","","","","","","","","","","","",""
"49597","","text","10","189850","0.0-10.0","70143722","wem/bandit_single","A2ZRF4I5RTKN7G","pain","7","32","","","","","","","","","","","","","","","","","","","","","","","","","",""
"851","","text","11","190732","0.0-11.0","70143722","wem/bandit_single","A2ZRF4I5RTKN7G","pain","7","32","","","","","","","","","","","","","","","","","","","","","","","","","",""
"840","","bandit","12","193113","0.0-12.0-0.0","70143722","wem/bandit_single","A2ZRF4I5RTKN7G","pain","7","","74","J","0","img/none_selected_demo.jpg","0","0","1","0","0","true","0","0","0","","","","","","","","","","","","",""
"491","","bandit","13","195384","0.0-13.0-0.0","70143722","wem/bandit_single","A2ZRF4I5RTKN7G","pain","7","","75","K","0","img/none_selected_demo.jpg","0","0","1","0","0","true","0","0","0","","","","","","","","","","","","",""
"1260","","text","14","196901","0.0-14.0","70143722","wem/bandit_single","A2ZRF4I5RTKN7G","pain","7","32","","","","","","","","","","","","","","","","","","","","","","","","","",""
"856","","text","15","197765","0.0-15.0","70143722","wem/bandit_single","A2ZRF4I5RTKN7G","pain","7","32","","","","","","","","","","","","","","","","","","","","","","","","","",""
"1372","","text","16","199146","0.0-16.0","70143722","wem/bandit_single","A2ZRF4I5RTKN7G","pain","7","32","","","","","","","","","","","","","","","","","","","","","","","","","",""
"1752","","text","17","200904","0.0-17.0","70143722","wem/bandit_single","A2ZRF4I5RTKN7G","pain","7","32","","","","","","","","","","","","","","","","","","","","","","","","","",""
"960","","bandit","18","203387","0.0-18.0-0.0","70143722","wem/bandit_single","A2ZRF4I5RTKN7G","pain","7","","74","J","0","img/none_selected_demo.jpg","0","1","0","0","0.8","true","0","0","0.8","80_20_practice","0","0.2","","","","","","","","","",""
"560","","bandit","19","205849","0.0-18.0-1.0","70143722","wem/bandit_single","A2ZRF4I5RTKN7G","pain","7","","74","J","0","img/none_selected_demo.jpg","0","1","0","0","0.8","true","0","0","0.8","80_20_practice","0","0.2","","","","","","","","","",""
"574","","bandit","20","208251","0.0-18.0-2.0","70143722","wem/bandit_single","A2ZRF4I5RTKN7G","pain","7","","74","J","0","img/none_selected_demo.jpg","0","1","0","0","0.8","true","0","0","0.8","80_20_practice","0","0.2","","","","","","","","","",""
"253","","bandit","21","210393","0.0-18.0-3.0","70143722","wem/bandit_single","A2ZRF4I5RTKN7G","pain","7","","74","J","0","img/none_selected_demo.jpg","0","1","0","0","0.8","true","0","0","0.8","80_20_practice","0","0.2","","","","","","","","","",""
"32","","bandit","22","212198","0.0-18.0-4.0","70143722","wem/bandit_single","A2ZRF4I5RTKN7G","pain","7","","75","K","1","","0","1","0","0","0.2","true","0","0","0.8","80_20_practice","0","0.2","","","","","","","","","",""
"652","","bandit","23","214682","0.0-18.0-5.0","70143722","wem/bandit_single","A2ZRF4I5RTKN7G","pain","7","","74","J","0","img/none_selected_demo.jpg","0","0","1","0","0.8","true","0","0","0.8","80_20_practice","0","0.2","","","","","","","","","",""
"819","","bandit","24","217302","0.0-18.0-6.0","70143722","wem/bandit_single","A2ZRF4I5RTKN7G","pain","7","","75","K","1","","0","0","1","0","0.2","true","0","0","0.8","80_20_practice","0","0.2","","","","","","","","","",""
"77","","bandit","25","219183","0.0-18.0-7.0","70143722","wem/bandit_single","A2ZRF4I5RTKN7G","pain","7","","74","J","0","img/none_selected_demo.jpg","0","1","0","0","0.8","true","0","0","0.8","80_20_practice","0","0.2","","","","","","","","","",""
"113","","bandit","26","221344","0.0-18.0-8.0","70143722","wem/bandit_single","A2ZRF4I5RTKN7G","pain","7","","74","J","0","img/none_selected_demo.jpg","0","1","0","0","0.8","true","0","0","0.8","80_20_practice","0","0.2","","","","","","","","","",""
"609","","bandit","27","223734","0.0-18.0-9.0","70143722","wem/bandit_single","A2ZRF4I5RTKN7G","pain","7","","74","J","0","img/none_selected_demo.jpg","0","1","0","0","0.8","true","0","0","0.8","80_20_practice","0","0.2","","","","","","","","","",""
"789","","bandit","28","226324","0.0-18.0-10.0","70143722","wem/bandit_single","A2ZRF4I5RTKN7G","pain","7","","74","J","0","img/none_selected_demo.jpg","0","1","0","0","0.8","true","0","0","0.8","80_20_practice","0","0.2","","","","","","","","","",""
"4430","","bandit","29","232546","0.0-18.0-11.0","70143722","wem/bandit_single","A2ZRF4I5RTKN7G","pain","7","","74","J","0","img/none_selected_demo.jpg","0","0","1","0","0.8","true","0","0","0.8","80_20_practice","0","0.2","","","","","","","","","",""
"3891","","bandit","30","238216","0.0-18.0-12.0","70143722","wem/bandit_single","A2ZRF4I5RTKN7G","pain","7","","74","J","0","img/none_selected_demo.jpg","0","1","0","0","0.8","true","0","0","0.8","80_20_practice","0","0.2","","","","","","","","","",""
"203","","bandit","31","240194","0.0-18.0-13.0","70143722","wem/bandit_single","A2ZRF4I5RTKN7G","pain","7","","75","K","1","","0","0","1","0","0.2","true","0","0","0.8","80_20_practice","0","0.2","","","","","","","","","",""
"91","","bandit","32","242062","0.0-18.0-14.0","70143722","wem/bandit_single","A2ZRF4I5RTKN7G","pain","7","","74","J","0","img/none_selected_demo.jpg","0","0","1","0","0.8","true","0","0","0.8","80_20_practice","0","0.2","","","","","","","","","",""
"224","","bandit","33","244152","0.0-18.0-15.0","70143722","wem/bandit_single","A2ZRF4I5RTKN7G","pain","7","","74","J","0","img/none_selected_demo.jpg","0","1","0","0","0.8","true","0","0","0.8","80_20_practice","0","0.2","","","","","","","","","",""
"326","","bandit","34","246310","0.0-18.0-16.0","70143722","wem/bandit_single","A2ZRF4I5RTKN7G","pain","7","","74","J","0","img/none_selected_demo.jpg","0","0","1","0","0.8","true","0","0","0.8","80_20_practice","0","0.2","","","","","","","","","",""
"951","","bandit","35","249039","0.0-18.0-17.0","70143722","wem/bandit_single","A2ZRF4I5RTKN7G","pain","7","","74","J","0","img/none_selected_demo.jpg","0","0","1","0","0.8","true","0","0","0.8","80_20_practice","0","0.2","","","","","","","","","",""
"403","","bandit","36","251218","0.0-18.0-18.0","70143722","wem/bandit_single","A2ZRF4I5RTKN7G","pain","7","","74","J","0","img/none_selected_demo.jpg","0","1","0","0","0.8","true","0","0","0.8","80_20_practice","0","0.2","","","","","","","","","",""
"15339","","bandit","37","268333","0.0-18.0-19.0","70143722","wem/bandit_single","A2ZRF4I5RTKN7G","pain","7","","74","J","0","img/none_selected_demo.jpg","0","1","0","0","0.8","true","0","0","0.8","80_20_practice","0","0.2","","","","","","","","","",""
"2702","","text","38","271300","0.0-19.0","70143722","wem/bandit_single","A2ZRF4I5RTKN7G","pain","7","32","","","","","","","","","","","","","","","","","","","","","","","","","",""
"1501","","bandit","39","274337","0.0-20.0-0.0","70143722","wem/bandit_single","A2ZRF4I5RTKN7G","pain","7","","74","J","0","img/none_selected_demo.jpg","0","0","1","0","0","true","0","0","0","","0","0","","","","","","","","","",""
"2463","","text","40","277062","0.0-21.0","70143722","wem/bandit_single","A2ZRF4I5RTKN7G","pain","7","32","","","","","","","","","","","","","","","","","","","","","","","","","",""
"1393","","text","41","278464","0.0-22.0","70143722","wem/bandit_single","A2ZRF4I5RTKN7G","pain","7","32","","","","","","","","","","","","","","","","","","","","","","","","","",""
"3621","","text","42","282093","0.0-23.0","70143722","wem/bandit_single","A2ZRF4I5RTKN7G","pain","7","32","","","","","","","","","","","","","","","","","","","","","","","","","",""
"1506","","text","43","283612","0.0-24.0","70143722","wem/bandit_single","A2ZRF4I5RTKN7G","pain","7","32","","","","","","","","","","","","","","","","","","","","","","","","","",""
"3569","","text","44","287196","0.0-25.0","70143722","wem/bandit_single","A2ZRF4I5RTKN7G","pain","7","32","","","","","","","","","","","","","","","","","","","","","","","","","",""
"1371","","text","45","288577","0.0-26.0","70143722","wem/bandit_single","A2ZRF4I5RTKN7G","pain","7","32","","","","","","","","","","","","","","","","","","","","","","","","","",""
"4678","","text","46","293277","0.0-27.0","70143722","wem/bandit_single","A2ZRF4I5RTKN7G","pain","7","32","","","","","","","","","","","","","","","","","","","","","","","","","",""
"946","","text","47","294239","0.0-28.0","70143722","wem/bandit_single","A2ZRF4I5RTKN7G","pain","7","32","","","","","","","","","","","","","","","","","","","","","","","","","",""
"2455","","text","48","296717","0.0-29.0","70143722","wem/bandit_single","A2ZRF4I5RTKN7G","pain","7","32","","","","","","","","","","","","","","","","","","","","","","","","","",""
"1338","","text","49","298080","0.0-30.0","70143722","wem/bandit_single","A2ZRF4I5RTKN7G","pain","7","32","","","","","","","","","","","","","","","","","","","","","","","","","",""
"2820","","text","50","300920","0.0-31.0","70143722","wem/bandit_single","A2ZRF4I5RTKN7G","pain","7","32","","","","","","","","","","","","","","","","","","","","","","","","","",""
"654","","bandit","51","303117","0.0-32.0-0.0","70143722","wem/bandit_single","A2ZRF4I5RTKN7G","pain","7","","72","H","0","img/none_selected.jpg","0","1","0","0","0.8","true","0","0","0.8","full_practice","0","0.2","0","0.6","0","0.2","","","","","",""
"49","","bandit","52","304980","0.0-32.0-1.0","70143722","wem/bandit_single","A2ZRF4I5RTKN7G","pain","7","","72","H","0","img/none_selected.jpg","0","1","0","0","0.8","true","0","0","0.8","full_practice","0","0.2","0","0.6","0","0.2","","","","","",""
"317","","bandit","53","307096","0.0-32.0-2.0","70143722","wem/bandit_single","A2ZRF4I5RTKN7G","pain","7","","72","H","0","img/none_selected.jpg","0","1","0","0","0.8","true","0","0","0.8","full_practice","0","0.2","0","0.6","0","0.2","","","","","",""
"212","","bandit","54","309068","0.0-32.0-3.0","70143722","wem/bandit_single","A2ZRF4I5RTKN7G","pain","7","","72","H","0","img/none_selected.jpg","0","0","1","0","0.8","true","0","0","0.8","full_practice","0","0.2","0","0.6","0","0.2","","","","","",""
"47","","bandit","55","310877","0.0-32.0-4.0","70143722","wem/bandit_single","A2ZRF4I5RTKN7G","pain","7","","74","J","1","","0","0","1","0","0.2","true","0","0","0.8","full_practice","0","0.2","0","0.6","0","0.2","","","","","",""
"948","","bandit","56","313585","0.0-32.0-5.0","70143722","wem/bandit_single","A2ZRF4I5RTKN7G","pain","7","","75","K","2","","0","1","0","0","0.6","true","0","0","0.8","full_practice","0","0.2","0","0.6","0","0.2","","","","","",""
"200","","bandit","57","315548","0.0-32.0-6.0","70143722","wem/bandit_single","A2ZRF4I5RTKN7G","pain","7","","75","K","2","","0","1","0","0","0.6","true","0","0","0.8","full_practice","0","0.2","0","0.6","0","0.2","","","","","",""
"195","","bandit","58","317503","0.0-32.0-7.0","70143722","wem/bandit_single","A2ZRF4I5RTKN7G","pain","7","","75","K","2","","0","0","1","0","0.6","true","0","0","0.8","full_practice","0","0.2","0","0.6","0","0.2","","","","","",""
"77","","bandit","59","319341","0.0-32.0-8.0","70143722","wem/bandit_single","A2ZRF4I5RTKN7G","pain","7","","76","L","3","","0","0","1","0","0.2","true","0","0","0.8","full_practice","0","0.2","0","0.6","0","0.2","","","","","",""
"261","","bandit","60","321369","0.0-32.0-9.0","70143722","wem/bandit_single","A2ZRF4I5RTKN7G","pain","7","","75","K","2","","0","1","0","0","0.6","true","0","0","0.8","full_practice","0","0.2","0","0.6","0","0.2","","","","","",""
"214","","bandit","61","323365","0.0-32.0-10.0","70143722","wem/bandit_single","A2ZRF4I5RTKN7G","pain","7","","75","K","2","","0","1","0","0","0.6","true","0","0","0.8","full_practice","0","0.2","0","0.6","0","0.2","","","","","",""
"238","","bandit","62","325394","0.0-32.0-11.0","70143722","wem/bandit_single","A2ZRF4I5RTKN7G","pain","7","","75","K","2","","0","1","0","0","0.6","true","0","0","0.8","full_practice","0","0.2","0","0.6","0","0.2","","","","","",""
"227","","bandit","63","327399","0.0-32.0-12.0","70143722","wem/bandit_single","A2ZRF4I5RTKN7G","pain","7","","75","K","2","","0","1","0","0","0.6","true","0","0","0.8","full_practice","0","0.2","0","0.6","0","0.2","","","","","",""
"557","","bandit","64","329841","0.0-32.0-13.0","70143722","wem/bandit_single","A2ZRF4I5RTKN7G","pain","7","","75","K","2","","0","0","1","0","0.6","true","0","0","0.8","full_practice","0","0.2","0","0.6","0","0.2","","","","","",""
"111","","bandit","65","331733","0.0-32.0-14.0","70143722","wem/bandit_single","A2ZRF4I5RTKN7G","pain","7","","72","H","0","img/none_selected.jpg","0","0","1","0","0.8","true","0","0","0.8","full_practice","0","0.2","0","0.6","0","0.2","","","","","",""
"167","","bandit","66","333732","0.0-32.0-15.0","70143722","wem/bandit_single","A2ZRF4I5RTKN7G","pain","7","","74","J","1","","0","0","1","0","0.2","true","0","0","0.8","full_practice","0","0.2","0","0.6","0","0.2","","","","","",""
"618","","bandit","67","336157","0.0-32.0-16.0","70143722","wem/bandit_single","A2ZRF4I5RTKN7G","pain","7","","76","L","3","","0","0","1","0","0.2","true","0","0","0.8","full_practice","0","0.2","0","0.6","0","0.2","","","","","",""
"111","","bandit","68","338067","0.0-32.0-17.0","70143722","wem/bandit_single","A2ZRF4I5RTKN7G","pain","7","","75","K","2","","0","0","1","0","0.6","true","0","0","0.8","full_practice","0","0.2","0","0.6","0","0.2","","","","","",""
"376","","bandit","69","340219","0.0-32.0-18.0","70143722","wem/bandit_single","A2ZRF4I5RTKN7G","pain","7","","72","H","0","img/none_selected.jpg","0","1","0","0","0.8","true","0","0","0.8","full_practice","0","0.2","0","0.6","0","0.2","","","","","",""
"72","","bandit","70","342068","0.0-32.0-19.0","70143722","wem/bandit_single","A2ZRF4I5RTKN7G","pain","7","","72","H","0","img/none_selected.jpg","0","1","0","0","0.8","true","0","0","0.8","full_practice","0","0.2","0","0.6","0","0.2","","","","","",""
"2053","","text","71","344418","0.0-33.0","70143722","wem/bandit_single","A2ZRF4I5RTKN7G","pain","7","32","","","","","","","","","","","","","","","","","","","","","","","","","",""
"8003","","text","72","353447","0.0-34.0","70143722","wem/bandit_single","A2ZRF4I5RTKN7G","pain","7","32","","","","","","","","","","","","","","","","","","","","","","","","","",""
"6615","","text","73","360099","0.0-35.0","70143722","wem/bandit_single","A2ZRF4I5RTKN7G","pain","7","32","","","","","","","","","","","","","","","","","","","","","","","","","",""
"5021","","text","74","365160","0.0-36.0","70143722","wem/bandit_single","A2ZRF4I5RTKN7G","pain","7","32","","","","","","","","","","","","","","","","","","","","","","","","","",""
"2306","","text","75","367500","0.0-37.0","70143722","wem/bandit_single","A2ZRF4I5RTKN7G","pain","7","32","","","","","","","","","","","","","","","","","","","","","","","","","",""
"1412","","bandit","76","370521","0.0-38.0-0.0","70143722","wem/bandit_single","A2ZRF4I5RTKN7G","pain","7","","72","H","0","img/none_selected.jpg","0","0","1","","0.4656663819","false","1","","0.4656663819","main_expt","","0.2046929885","","0.182860278","","0.05137684772","","","","","",""
"22","","bandit","77","372328","0.0-39.0-0.0","70143722","wem/bandit_single","A2ZRF4I5RTKN7G","pain","7","","74","J","1","","0","0","1","","0.1903203277","false","2","","0.4696156166","main_expt","","0.1903203277","","0.1824128093","","0.07150319997","","","","","",""
"11","","bandit","78","374129","0.0-40.0-0.0","70143722","wem/bandit_single","A2ZRF4I5RTKN7G","pain","7","","75","K","2","","0","1","0","","0.1671989933","false","3","","0.477042595","main_expt","","0.1806567389","","0.1671989933","","0.080703679","","","","","",""
"35","","bandit","79","375950","0.0-41.0-0.0","70143722","wem/bandit_single","A2ZRF4I5RTKN7G","pain","7","","75","K","2","","0","0","1","","0.1769774761","false","4","","0.4833388502","main_expt","","0.1746643784","","0.1769774761","","0.09206073837","","","","","",""
"78","","bandit","80","377789","0.0-42.0-0.0","70143722","wem/bandit_single","A2ZRF4I5RTKN7G","pain","7","","75","K","2","","0","0","1","","0.1847579949","false","5","","0.4679643189","main_expt","","0.1575849224","","0.1847579949","","0.09846378213","","","","","",""
"391","","bandit","81","379947","0.0-43.0-0.0","70143722","wem/bandit_single","A2ZRF4I5RTKN7G","pain","7","","76","L","3","","0","0","1","","0.07982937149","false","6","","0.4728114282","main_expt","","0.1848921601","","0.2263389119","","0.07982937149","","","","","",""
"36","","bandit","82","381753","0.0-44.0-0.0","70143722","wem/bandit_single","A2ZRF4I5RTKN7G","pain","7","","72","H","0","img/none_selected.jpg","0","1","0","","0.4763129956","false","7","","0.4763129956","main_expt","","0.2090417599","","0.233500047","","0.08361087011","","","","","",""
"123","","bandit","83","383661","0.0-45.0-0.0","70143722","wem/bandit_single","A2ZRF4I5RTKN7G","pain","7","","72","H","0","img/none_selected.jpg","0","0","1","","0.4605171502","false","8","","0.4605171502","main_expt","","0.2340345007","","0.2213385325","","0.1210475052","","","","","",""
"41","","bandit","84","385487","0.0-46.0-0.0","70143722","wem/bandit_single","A2ZRF4I5RTKN7G","pain","7","","72","H","0","img/none_selected.jpg","0","0","1","","0.457599345","false","9","","0.457599345","main_expt","","0.2388832632","","0.216727727","","0.1023248189","","","","","",""
"1564","","bandit","85","388835","0.0-47.0-0.0","70143722","wem/bandit_single","A2ZRF4I5RTKN7G","pain","7","","74","J","1","","0","0","1","","0.2336568073","false","10","","0.4514273669","main_expt","","0.2336568073","","0.1757193701","","0.1311876697","","","","","",""
"14","","bandit","86","390664","0.0-48.0-0.0","70143722","wem/bandit_single","A2ZRF4I5RTKN7G","pain","7","","75","K","2","","0","0","1","","0.221687112","false","11","","0.461109344","main_expt","","0.2682397485","","0.221687112","","0.1171839072","","","","","",""
"192","","bandit","87","392643","0.0-49.0-0.0","70143722","wem/bandit_single","A2ZRF4I5RTKN7G","pain","7","","72","H","0","img/none_selected.jpg","0","1","0","","0.4750360261","false","12","","0.4750360261","main_expt","","0.2855743842","","0.1693148256","","0.09103905321","","","","","",""
"104","","bandit","88","394556","0.0-50.0-0.0","70143722","wem/bandit_single","A2ZRF4I5RTKN7G","pain","7","","72","H","0","img/none_selected.jpg","0","0","1","","0.4882900813","false","13","","0.4882900813","main_expt","","0.2877368863","","0.1861997022","","0.08195125901","","","","","",""
"246","","bandit","89","396586","0.0-51.0-0.0","70143722","wem/bandit_single","A2ZRF4I5RTKN7G","pain","7","","76","L","3","","0","0","1","","0.1022478824","false","14","","0.4836145896","main_expt","","0.2904717711","","0.2056371894","","0.1022478824","","","","","",""
"311","","bandit","90","398691","0.0-52.0-0.0","70143722","wem/bandit_single","A2ZRF4I5RTKN7G","pain","7","","72","H","0","img/none_selected.jpg","0","0","1","","0.4841526839","false","15","","0.4841526839","main_expt","","0.3145527135","","0.207651467","","0.1295923723","","","","","",""
"167","","bandit","91","400670","0.0-53.0-0.0","70143722","wem/bandit_single","A2ZRF4I5RTKN7G","pain","7","","72","H","0","img/none_selected.jpg","0","0","1","","0.4733209008","false","16","","0.4733209008","main_expt","","0.2919685568","","0.264879833","","0.1259026636","","","","","",""
"339","","bandit","92","402801","0.0-54.0-0.0","70143722","wem/bandit_single","A2ZRF4I5RTKN7G","pain","7","","74","J","1","","0","1","0","","0.2437915417","false","17","","0.4548629562","main_expt","","0.2437915417","","0.301226273","","0.08714849596","","","","","",""
"86","","bandit","93","404672","0.0-55.0-0.0","70143722","wem/bandit_single","A2ZRF4I5RTKN7G","pain","7","","74","J","1","","0","1","0","","0.2139729843","false","18","","0.4423108412","main_expt","","0.2139729843","","0.3355017989","","0.06082296625","","","","","",""
"189","","bandit","94","406673","0.0-56.0-0.0","70143722","wem/bandit_single","A2ZRF4I5RTKN7G","pain","7","","74","J","1","","0","0","1","","0.2117718275","false","19","","0.4510346454","main_expt","","0.2117718275","","0.4066928382","","0.04376078701","","","","","",""
"76","","bandit","95","408528","0.0-57.0-0.0","70143722","wem/bandit_single","A2ZRF4I5RTKN7G","pain","7","","72","H","0","img/none_selected.jpg","0","0","1","","0.4522943673","false","20","","0.4522943673","main_expt","","0.2128214431","","0.4152799178","","0.0431273538","","","","","",""
"680","","bandit","96","410999","0.0-58.0-0.0","70143722","wem/bandit_single","A2ZRF4I5RTKN7G","pain","7","","75","K","2","","0","0","1","","0.4005545413","false","21","","0.4213917452","main_expt","","0.2557511999","","0.4005545413","","0.05700218709","","","","","",""
"39","","bandit","97","412877","0.0-59.0-0.0","70143722","wem/bandit_single","A2ZRF4I5RTKN7G","pain","7","","76","L","3","","0","0","1","","0.03008320558","false","22","","0.4055738921","main_expt","","0.2240556206","","0.4065945052","","0.03008320558","","","","","",""
"345","","bandit","98","415023","0.0-60.0-0.0","70143722","wem/bandit_single","A2ZRF4I5RTKN7G","pain","7","","72","H","0","img/none_selected.jpg","0","0","1","","0.4102744642","false","23","","0.4102744642","main_expt","","0.1913455436","","0.4396923884","","0.04675245401","","","","","",""
"2219","","bandit","99","419052","0.0-61.0-0.0","70143722","wem/bandit_single","A2ZRF4I5RTKN7G","pain","7","","74","J","1","","0","0","1","","0.1767964116","false","24","","0.4215519413","main_expt","","0.1767964116","","0.4414607804","","0.02664245213","","","","","",""
"1335","","bandit","100","422230","0.0-62.0-0.0","70143722","wem/bandit_single","A2ZRF4I5RTKN7G","pain","7","","75","K","2","","0","0","1","","0.430597795","false","25","","0.4076768117","main_expt","","0.1667721477","","0.430597795","","0.02443183667","","","","","",""
"492","","bandit","101","424521","0.0-63.0-0.0","70143722","wem/bandit_single","A2ZRF4I5RTKN7G","pain","7","","72","H","0","img/none_selected.jpg","0","0","1","","0.3563873355","false","26","","0.3563873355","main_expt","","0.132468293","","0.4049624372","","0.02765515704","","","","","",""
"73","","bandit","102","426453","0.0-64.0-0.0","70143722","wem/bandit_single","A2ZRF4I5RTKN7G","pain","7","","76","L","3","","0","0","1","","0.05751586542","false","27","","0.3305608977","main_expt","","0.1283549716","","0.3959859591","","0.05751586542","","","","","",""
"210","","bandit","103","428453","0.0-65.0-0.0","70143722","wem/bandit_single","A2ZRF4I5RTKN7G","pain","7","","75","K","2","","0","1","0","","0.4316273603","false","28","","0.323916825","main_expt","","0.1218888314","","0.4316273603","","0.1046410472","","","","","",""
"63","","bandit","104","430305","0.0-66.0-0.0","70143722","wem/bandit_single","A2ZRF4I5RTKN7G","pain","7","","75","K","2","","0","1","0","","0.4618757987","false","29","","0.3256975875","main_expt","","0.08739650486","","0.4618757987","","0.1174110135","","","","","",""
"108","","bandit","105","432251","0.0-67.0-0.0","70143722","wem/bandit_single","A2ZRF4I5RTKN7G","pain","7","","75","K","2","","0","1","0","","0.4764599947","false","30","","0.3590663193","main_expt","","0.1113113005","","0.4764599947","","0.09344635718","","","","","",""
"107","","bandit","106","434168","0.0-68.0-0.0","70143722","wem/bandit_single","A2ZRF4I5RTKN7G","pain","7","","75","K","2","","0","1","0","","0.4870567238","false","31","","0.2794303661","main_expt","","0.1234593762","","0.4870567238","","0.07228097062","","","","","",""
"73","","bandit","107","436045","0.0-69.0-0.0","70143722","wem/bandit_single","A2ZRF4I5RTKN7G","pain","7","","75","K","2","","0","1","0","","0.4744541924","false","32","","0.2725021833","main_expt","","0.1204693509","","0.4744541924","","0.06660380695","","","","","",""
"361","","bandit","108","438198","0.0-70.0-0.0","70143722","wem/bandit_single","A2ZRF4I5RTKN7G","pain","7","","75","K","2","","0","1","0","","0.4595636441","false","33","","0.2662358977","main_expt","","0.1525092538","","0.4595636441","","0.06161000393","","","","","",""
"158","","bandit","109","440147","0.0-71.0-0.0","70143722","wem/bandit_single","A2ZRF4I5RTKN7G","pain","7","","75","K","2","","0","0","1","","0.4700794195","false","34","","0.3062719381","main_expt","","0.0933794629","","0.4700794195","","0.08245015188","","","","","",""
"164","","bandit","110","442098","0.0-72.0-0.0","70143722","wem/bandit_single","A2ZRF4I5RTKN7G","pain","7","","75","K","2","","0","1","0","","0.46481425","false","35","","0.3199342551","main_expt","","0.06693018499","","0.46481425","","0.08195488018","","","","","",""
"235","","bandit","111","444125","0.0-73.0-0.0","70143722","wem/bandit_single","A2ZRF4I5RTKN7G","pain","7","","75","K","2","","0","0","1","","0.4518384169","false","36","","0.3039619122","main_expt","","0.09916465935","","0.4518384169","","0.1004102013","","","","","",""
"192","","bandit","112","446095","0.0-74.0-0.0","70143722","wem/bandit_single","A2ZRF4I5RTKN7G","pain","7","","75","K","2","","0","0","1","","0.439581627","false","37","","0.2927636057","main_expt","","0.08872434017","","0.439581627","","0.1390326598","","","","","",""
"467","","bandit","113","448365","0.0-75.0-0.0","70143722","wem/bandit_single","A2ZRF4I5RTKN7G","pain","7","","75","K","2","","0","0","1","","0.3994664239","false","38","","0.3513205482","main_expt","","0.08103487055","","0.3994664239","","0.143322519","","","","","",""
"61","","bandit","114","450213","0.0-76.0-0.0","70143722","wem/bandit_single","A2ZRF4I5RTKN7G","pain","7","","74","J","1","","0","0","1","","0.09262773223","false","39","","0.3199725693","main_expt","","0.09262773223","","0.399239641","","0.1439849427","","","","","",""
"470","","bandit","115","452862","0.0-77.0-0.0","70143722","wem/bandit_single","A2ZRF4I5RTKN7G","pain","7","","74","J","1","","0","0","1","","0.08276392867","false","40","","0.2899826696","main_expt","","0.08276392867","","0.3842971785","","0.1813186375","","","","","",""
"195","","bandit","116","454833","0.0-78.0-0.0","70143722","wem/bandit_single","A2ZRF4I5RTKN7G","pain","7","","72","H","0","img/none_selected.jpg","0","1","0","","0.2470457707","false","41","","0.2470457707","main_expt","","0.07889170896","","0.3584077127","","0.182623784","","","","","",""
"43","","bandit","117","456672","0.0-79.0-0.0","70143722","wem/bandit_single","A2ZRF4I5RTKN7G","pain","7","","72","H","0","img/none_selected.jpg","0","0","1","","0.2860815649","false","42","","0.2860815649","main_expt","","0.1007082374","","0.2940512223","","0.1310997782","","","","","",""
"559","","bandit","118","459016","0.0-80.0-0.0","70143722","wem/bandit_single","A2ZRF4I5RTKN7G","pain","7","","72","H","0","img/none_selected.jpg","0","0","1","","0.3649324249","false","43","","0.3649324249","main_expt","","0.04983151166","","0.3274682868","","0.1211351308","","","","","",""
"332","","bandit","119","461112","0.0-81.0-0.0","70143722","wem/bandit_single","A2ZRF4I5RTKN7G","pain","7","","72","H","0","img/none_selected.jpg","0","1","0","","0.3722884938","false","44","","0.3722884938","main_expt","","0.06772206808","","0.3105097628","","0.1032393721","","","","","",""
"81","","bandit","120","462977","0.0-82.0-0.0","70143722","wem/bandit_single","A2ZRF4I5RTKN7G","pain","7","","72","H","0","img/none_selected.jpg","0","1","0","","0.3589666793","false","45","","0.3589666793","main_expt","","0.07082322934","","0.3253779088","","0.145243047","","","","","",""
"311","","bandit","121","465081","0.0-83.0-0.0","70143722","wem/bandit_single","A2ZRF4I5RTKN7G","pain","7","","72","H","0","img/none_selected.jpg","0","0","1","","0.309469461","false","46","","0.309469461","main_expt","","0.08302100682","","0.2907447256","","0.1871821161","","","","","",""
"324","","bandit","122","467191","0.0-84.0-0.0","70143722","wem/bandit_single","A2ZRF4I5RTKN7G","pain","7","","72","H","0","img/none_selected.jpg","0","0","1","","0.3486132663","false","47","","0.3486132663","main_expt","","0.04947507936","","0.2922490699","","0.1827431821","","","","","",""
"98","","bandit","123","469074","0.0-85.0-0.0","70143722","wem/bandit_single","A2ZRF4I5RTKN7G","pain","7","","76","L","3","","0","0","1","","0.1863443356","false","48","","0.3613151755","main_expt","","0.05970491685","","0.3012354267","","0.1863443356","","","","","",""
"220","","bandit","124","471092","0.0-86.0-0.0","70143722","wem/bandit_single","A2ZRF4I5RTKN7G","pain","7","","76","L","3","","0","0","1","","0.2089920758","false","49","","0.3810076255","main_expt","","0.05846806591","","0.3199255499","","0.2089920758","","","","","",""
"49","","bandit","125","472993","0.0-87.0-0.0","70143722","wem/bandit_single","A2ZRF4I5RTKN7G","pain","7","","74","J","1","","0","0","1","","0.08078022322","false","50","","0.3528158806","main_expt","","0.08078022322","","0.3246792682","","0.2204805957","","","","","",""
"1183","","bandit","126","475999","0.0-88.0-0.0","70143722","wem/bandit_single","A2ZRF4I5RTKN7G","pain","7","","72","H","0","img/none_selected.jpg","0","0","1","","0.4127521961","false","51","","0.4127521961","main_expt","","0.08366705542","","0.3158487008","","0.2796788854","","","","","",""
"602","","bandit","127","478422","0.0-89.0-0.0","70143722","wem/bandit_single","A2ZRF4I5RTKN7G","pain","7","","75","K","2","","0","0","1","","0.2764666405","false","52","","0.4034362436","main_expt","","0.1365111474","","0.2764666405","","0.2870992152","","","","","",""
"300","","bandit","128","480603","0.0-90.0-0.0","70143722","wem/bandit_single","A2ZRF4I5RTKN7G","pain","7","","75","K","2","","0","0","1","","0.2740398937","false","53","","0.4268522392","main_expt","","0.1238361543","","0.2740398937","","0.3176469779","","","","","",""
"770","","bandit","129","483180","0.0-91.0-0.0","70143722","wem/bandit_single","A2ZRF4I5RTKN7G","pain","7","","74","J","1","","0","0","1","","0.1150058699","false","54","","0.4471231168","main_expt","","0.1150058699","","0.2499565254","","0.3407727651","","","","","",""
"46","","bandit","130","485045","0.0-92.0-0.0","70143722","wem/bandit_single","A2ZRF4I5RTKN7G","pain","7","","72","H","0","img/none_selected.jpg","0","0","1","","0.4397300441","false","55","","0.4397300441","main_expt","","0.1498695165","","0.221305586","","0.380871147","","","","","",""
"4","","bandit","131","486898","0.0-93.0-0.0","70143722","wem/bandit_single","A2ZRF4I5RTKN7G","pain","7","","76","L","3","","0","0","1","","0.3614982187","false","56","","0.4266514607","main_expt","","0.1559096332","","0.2513729962","","0.3614982187","","","","","",""
"41","","bandit","132","488745","0.0-94.0-0.0","70143722","wem/bandit_single","A2ZRF4I5RTKN7G","pain","7","","76","L","3","","0","0","1","","0.3219973572","false","57","","0.4351066669","main_expt","","0.139260175","","0.254621842","","0.3219973572","","","","","",""
"96","","bandit","133","490981","0.0-95.0-0.0","70143722","wem/bandit_single","A2ZRF4I5RTKN7G","pain","7","","76","L","3","","0","0","1","","0.3136466855","false","58","","0.4114765848","main_expt","","0.1101041774","","0.2911199408","","0.3136466855","","","","","",""
"488","","bandit","134","493262","0.0-96.0-0.0","70143722","wem/bandit_single","A2ZRF4I5RTKN7G","pain","7","","76","L","3","","0","1","0","","0.3553654786","false","59","","0.4331866813","main_expt","","0.1619704935","","0.3260103257","","0.3553654786","","","","","",""
"61","","bandit","135","495116","0.0-97.0-0.0","70143722","wem/bandit_single","A2ZRF4I5RTKN7G","pain","7","","76","L","3","","0","0","1","","0.302494743","false","60","","0.4452666195","main_expt","","0.1023472493","","0.3801831719","","0.302494743","","","","","",""
"479","","bandit","136","497387","0.0-98.0-0.0","70143722","wem/bandit_single","A2ZRF4I5RTKN7G","pain","7","","76","L","3","","0","1","0","","0.3194951829","false","61","","0.4533212266","main_expt","","0.1659923055","","0.4097171909","","0.3194951829","","","","","",""
"83","","bandit","137","499245","0.0-99.0-0.0","70143722","wem/bandit_single","A2ZRF4I5RTKN7G","pain","7","","76","L","3","","0","0","1","","0.3491175101","false","62","","0.4546633602","main_expt","","0.1773336283","","0.4297251169","","0.3491175101","","","","","",""
"428","","bandit","138","501465","0.0-100.0-0.0","70143722","wem/bandit_single","A2ZRF4I5RTKN7G","pain","7","","76","L","3","","0","0","1","","0.3618657485","false","63","","0.431915851","main_expt","","0.1838898345","","0.4523537282","","0.3618657485","","","","","",""
"65","","bandit","139","503317","0.0-101.0-0.0","70143722","wem/bandit_single","A2ZRF4I5RTKN7G","pain","7","","74","J","1","","0","0","1","","0.1535376321","false","64","","0.4397857724","main_expt","","0.1535376321","","0.4577822331","","0.3331995431","","","","","",""
"710","","bandit","140","505832","0.0-102.0-0.0","70143722","wem/bandit_single","A2ZRF4I5RTKN7G","pain","7","","74","J","1","","0","0","1","","0.1696059705","false","65","","0.3803141428","main_expt","","0.1696059705","","0.4366397349","","0.3222916502","","","","","",""
"233","","bandit","141","507868","0.0-103.0-0.0","70143722","wem/bandit_single","A2ZRF4I5RTKN7G","pain","7","","72","H","0","img/none_selected.jpg","0","0","1","","0.4318665216","false","66","","0.4318665216","main_expt","","0.1747776373","","0.4223045317","","0.2935747005","","","","","",""
"206","","bandit","142","509903","0.0-104.0-0.0","70143722","wem/bandit_single","A2ZRF4I5RTKN7G","pain","7","","72","H","0","img/none_selected.jpg","0","1","0","","0.3783394243","false","67","","0.3783394243","main_expt","","0.1880318686","","0.453094409","","0.272098099","","","","","",""
"622","","bandit","143","512315","0.0-105.0-0.0","70143722","wem/bandit_single","A2ZRF4I5RTKN7G","pain","7","","72","H","0","img/none_selected.jpg","0","0","1","","0.3424409758","false","68","","0.3424409758","main_expt","","0.1703396733","","0.4441165928","","0.2839543474","","","","","",""
"94","","bandit","144","514205","0.0-106.0-0.0","70143722","wem/bandit_single","A2ZRF4I5RTKN7G","pain","7","","72","H","0","img/none_selected.jpg","0","1","0","","0.3825588005","false","69","","0.3825588005","main_expt","","0.2041307244","","0.437102529","","0.3106529802","","","","","",""
"982","","bandit","145","516975","0.0-107.0-0.0","70143722","wem/bandit_single","A2ZRF4I5RTKN7G","pain","7","","72","H","0","img/none_selected.jpg","0","0","1","","0.4019939479","false","70","","0.4019939479","main_expt","","0.2380468473","","0.463010405","","0.2152651325","","","","","",""
"83","","bandit","146","518866","0.0-108.0-0.0","70143722","wem/bandit_single","A2ZRF4I5RTKN7G","pain","7","","72","H","0","img/none_selected.jpg","0","1","0","","0.3995375499","false","71","","0.3995375499","main_expt","","0.2540220497","","0.4511055106","","0.2150247356","","","","","",""
"538","","bandit","147","521196","0.0-109.0-0.0","70143722","wem/bandit_single","A2ZRF4I5RTKN7G","pain","7","","72","H","0","img/none_selected.jpg","0","0","1","","0.3655493795","false","72","","0.3655493795","main_expt","","0.2877519017","","0.456238914","","0.2196699897","","","","","",""
"86","","bandit","148","523073","0.0-110.0-0.0","70143722","wem/bandit_single","A2ZRF4I5RTKN7G","pain","7","","72","H","0","img/none_selected.jpg","0","1","0","","0.3443296275","false","73","","0.3443296275","main_expt","","0.3090267326","","0.4499554287","","0.2086164273","","","","","",""
"169","","bandit","149","525035","0.0-111.0-0.0","70143722","wem/bandit_single","A2ZRF4I5RTKN7G","pain","7","","72","H","0","img/none_selected.jpg","0","0","1","","0.3647916216","false","74","","0.3647916216","main_expt","","0.3400901674","","0.4439780401","","0.2226006448","","","","","",""
"680","","bandit","150","527501","0.0-112.0-0.0","70143722","wem/bandit_single","A2ZRF4I5RTKN7G","pain","7","","72","H","0","img/none_selected.jpg","0","1","0","","0.3531956798","false","75","","0.3531956798","main_expt","","0.3519214117","","0.4332341766","","0.2015377479","","","","","",""
"105","","bandit","151","529395","0.0-113.0-0.0","70143722","wem/bandit_single","A2ZRF4I5RTKN7G","pain","7","","72","H","0","img/none_selected.jpg","0","0","1","","0.3375826797","false","76","","0.3375826797","main_expt","","0.3621584499","","0.4241516559","","0.2614433548","","","","","",""
"2624","","bandit","152","533815","0.0-114.0-0.0","70143722","wem/bandit_single","A2ZRF4I5RTKN7G","pain","7","","72","H","0","img/none_selected.jpg","0","0","1","","0.3389323042","false","77","","0.3389323042","main_expt","","0.3919288513","","0.404580079","","0.3216300101","","","","","",""
"4853","","bandit","153","540453","0.0-115.0-0.0","70143722","wem/bandit_single","A2ZRF4I5RTKN7G","pain","7","","72","H","0","img/none_selected.jpg","0","0","1","","0.3633343286","false","78","","0.3633343286","main_expt","","0.3733142104","","0.4291019186","","0.3253900192","","","","","",""
"91","","bandit","154","542375","0.0-116.0-0.0","70143722","wem/bandit_single","A2ZRF4I5RTKN7G","pain","7","","75","K","2","","0","0","1","","0.4431072694","false","79","","0.35510173","main_expt","","0.3594898906","","0.4431072694","","0.3253799771","","","","","",""
"326","","bandit","155","544659","0.0-117.0-0.0","70143722","wem/bandit_single","A2ZRF4I5RTKN7G","pain","7","","75","K","2","","0","1","0","","0.4443251544","false","80","","0.3313699227","main_expt","","0.3740263767","","0.4443251544","","0.321449248","","","","","",""
"2","","bandit","156","546518","0.0-118.0-0.0","70143722","wem/bandit_single","A2ZRF4I5RTKN7G","pain","7","","75","K","2","","0","0","1","","0.4222806544","false","81","","0.3545786091","main_expt","","0.4031190442","","0.4222806544","","0.3644617874","","","","","",""
"218","","bandit","157","548554","0.0-119.0-0.0","70143722","wem/bandit_single","A2ZRF4I5RTKN7G","pain","7","","74","J","1","","0","0","1","","0.397551472","false","82","","0.36958943","main_expt","","0.397551472","","0.4348184101","","0.3646727683","","","","","",""
"2927","","bandit","158","553301","0.0-120.0-0.0","70143722","wem/bandit_single","A2ZRF4I5RTKN7G","pain","7","","72","H","0","img/none_selected.jpg","0","0","1","","0.3818301908","false","83","","0.3818301908","main_expt","","0.4251589807","","0.4237956171","","0.3823543101","","","","","",""
"12","","bandit","159","555120","0.0-121.0-0.0","70143722","wem/bandit_single","A2ZRF4I5RTKN7G","pain","7","","72","H","0","img/none_selected.jpg","0","0","1","","0.3841316884","false","84","","0.3841316884","main_expt","","0.406460911","","0.4255820551","","0.3927357351","","","","","",""
"917","","bandit","160","557837","0.0-122.0-0.0","70143722","wem/bandit_single","A2ZRF4I5RTKN7G","pain","7","","75","K","2","","0","0","1","","0.4407045426","false","85","","0.3769873451","main_expt","","0.4190094225","","0.4407045426","","0.3242792488","","","","","",""
"168","","bandit","161","559817","0.0-123.0-0.0","70143722","wem/bandit_single","A2ZRF4I5RTKN7G","pain","7","","74","J","1","","0","0","1","","0.4006115864","false","86","","0.3624331431","main_expt","","0.4006115864","","0.4276882268","","0.3257651096","","","","","",""
"372","","bandit","162","561988","0.0-124.0-0.0","70143722","wem/bandit_single","A2ZRF4I5RTKN7G","pain","7","","76","L","3","","0","0","1","","0.3768973447","false","87","","0.356636023","main_expt","","0.3761684651","","0.4430021271","","0.3768973447","","","","","",""
"107","","bandit","163","563903","0.0-125.0-0.0","70143722","wem/bandit_single","A2ZRF4I5RTKN7G","pain","7","","75","K","2","","0","0","1","","0.4259892117","false","88","","0.392705536","main_expt","","0.3935355307","","0.4259892117","","0.3333804566","","","","","",""
"138","","bandit","164","565860","0.0-126.0-0.0","70143722","wem/bandit_single","A2ZRF4I5RTKN7G","pain","7","","75","K","2","","0","1","0","","0.4451393147","false","89","","0.39579544","main_expt","","0.3870426381","","0.4451393147","","0.3326985542","","","","","",""
"65","","bandit","165","567721","0.0-127.0-0.0","70143722","wem/bandit_single","A2ZRF4I5RTKN7G","pain","7","","75","K","2","","0","1","0","","0.4450202473","false","90","","0.3832348421","main_expt","","0.3838573884","","0.4450202473","","0.3392082427","","","","","",""
"286","","bandit","166","569818","0.0-128.0-0.0","70143722","wem/bandit_single","A2ZRF4I5RTKN7G","pain","7","","75","K","2","","0","0","1","","0.428726471","false","91","","0.4009824957","main_expt","","0.376063899","","0.428726471","","0.2686139101","","","","","",""
"283","","bandit","167","571896","0.0-129.0-0.0","70143722","wem/bandit_single","A2ZRF4I5RTKN7G","pain","7","","75","K","2","","0","1","0","","0.4207086611","false","92","","0.360902971","main_expt","","0.3877690924","","0.4207086611","","0.247120026","","","","","",""
"281","","bandit","168","574049","0.0-130.0-0.0","70143722","wem/bandit_single","A2ZRF4I5RTKN7G","pain","7","","75","K","2","","0","1","0","","0.4271109851","false","93","","0.4098322422","main_expt","","0.3832772702","","0.4271109851","","0.1945967668","","","","","",""
"462","","bandit","169","576371","0.0-131.0-0.0","70143722","wem/bandit_single","A2ZRF4I5RTKN7G","pain","7","","75","K","2","","0","1","0","","0.3988025755","false","94","","0.365685068","main_expt","","0.3569295009","","0.3988025755","","0.2059940606","","","","","",""
"277","","bandit","170","578425","0.0-132.0-0.0","70143722","wem/bandit_single","A2ZRF4I5RTKN7G","pain","7","","75","K","2","","0","0","1","","0.3413505888","false","95","","0.3246475432","main_expt","","0.3462427099","","0.3413505888","","0.2276463074","","","","","",""
"639","","bandit","171","580834","0.0-133.0-0.0","70143722","wem/bandit_single","A2ZRF4I5RTKN7G","pain","7","","75","K","2","","0","0","1","","0.2791034264","false","96","","0.3155220288","main_expt","","0.2902370181","","0.2791034264","","0.3088064785","","","","","",""
"94","","bandit","172","582697","0.0-134.0-0.0","70143722","wem/bandit_single","A2ZRF4I5RTKN7G","pain","7","","74","J","1","","0","0","1","","0.2679909325","false","97","","0.2920368253","main_expt","","0.2679909325","","0.2300358144","","0.3167474357","","","","","",""
"2","","bandit","173","584519","0.0-135.0-0.0","70143722","wem/bandit_single","A2ZRF4I5RTKN7G","pain","7","","72","H","0","img/none_selected.jpg","0","0","1","","0.3060047135","false","98","","0.3060047135","main_expt","","0.1827708427","","0.245913642","","0.3311058144","","","","","",""
"83","","bandit","174","586402","0.0-136.0-0.0","70143722","wem/bandit_single","A2ZRF4I5RTKN7G","pain","7","","76","L","3","","0","0","1","","0.2831383079","false","99","","0.2834300817","main_expt","","0.1847148603","","0.1977736678","","0.2831383079","","","","","",""
"1939","","bandit","175","590137","0.0-137.0-0.0","70143722","wem/bandit_single","A2ZRF4I5RTKN7G","pain","7","","75","K","2","","0","1","0","","0.2300987319","false","100","","0.3094748938","main_expt","","0.230590463","","0.2300987319","","0.2697282324","","","","","",""
"46","","bandit","176","591997","0.0-138.0-0.0","70143722","wem/bandit_single","A2ZRF4I5RTKN7G","pain","7","","75","K","2","","0","1","0","","0.2375929523","false","101","","0.2776834174","main_expt","","0.2036778932","","0.2375929523","","0.2908511313","","","","","",""
"1444","","bandit","177","595225","0.0-139.0-0.0","70143722","wem/bandit_single","A2ZRF4I5RTKN7G","pain","7","","75","K","2","","0","0","1","","0.2034833152","false","102","","0.2649828438","main_expt","","0.2146692458","","0.2034833152","","0.3371086545","","","","","",""
"80","","bandit","178","597098","0.0-140.0-0.0","70143722","wem/bandit_single","A2ZRF4I5RTKN7G","pain","7","","74","J","1","","0","0","1","","0.2194044235","false","103","","0.1977849252","main_expt","","0.2194044235","","0.2510503681","","0.2925399581","","","","","",""
"914","","bandit","179","599874","0.0-141.0-0.0","70143722","wem/bandit_single","A2ZRF4I5RTKN7G","pain","7","","72","H","0","img/none_selected.jpg","0","1","0","","0.164180841","false","104","","0.164180841","main_expt","","0.2869514305","","0.2563420723","","0.229866195","","","","","",""
"2","","bandit","180","601710","0.0-142.0-0.0","70143722","wem/bandit_single","A2ZRF4I5RTKN7G","pain","7","","72","H","0","img/none_selected.jpg","0","0","1","","0.1410880488","false","105","","0.1410880488","main_expt","","0.2577924419","","0.2025228913","","0.2786648232","","","","","",""
"195","","bandit","181","603735","0.0-143.0-0.0","70143722","wem/bandit_single","A2ZRF4I5RTKN7G","pain","7","","72","H","0","img/none_selected.jpg","0","0","1","","0.2151151798","false","106","","0.2151151798","main_expt","","0.2984789445","","0.2288818116","","0.2907959635","","","","","",""
"51","","bandit","182","605813","0.0-144.0-0.0","70143722","wem/bandit_single","A2ZRF4I5RTKN7G","pain","7","","72","H","0","img/none_selected.jpg","0","0","1","","0.2068678097","false","107","","0.2068678097","main_expt","","0.2483059356","","0.2725684277","","0.2934471614","","","","","",""
"523","","bandit","183","608147","0.0-145.0-0.0","70143722","wem/bandit_single","A2ZRF4I5RTKN7G","pain","7","","74","J","1","","0","0","1","","0.2177203031","false","108","","0.1775779384","main_expt","","0.2177203031","","0.2725367566","","0.2761460559","","","","","",""
"607","","bandit","184","610578","0.0-146.0-0.0","70143722","wem/bandit_single","A2ZRF4I5RTKN7G","pain","7","","76","L","3","","0","1","0","","0.3154055318","false","109","","0.1633907035","main_expt","","0.2155336726","","0.2645412755","","0.3154055318","","","","","",""
"21","","bandit","185","612701","0.0-147.0-0.0","70143722","wem/bandit_single","A2ZRF4I5RTKN7G","pain","7","","76","L","3","","0","0","1","","0.3375256398","false","110","","0.1918139944","main_expt","","0.2012134729","","0.2537238549","","0.3375256398","","","","","",""
"767","","bandit","186","615264","0.0-148.0-0.0","70143722","wem/bandit_single","A2ZRF4I5RTKN7G","pain","7","","76","L","3","","0","1","0","","0.3575411602","false","111","","0.1512725872","main_expt","","0.1362677005","","0.2404930496","","0.3575411602","","","","","",""
"220","","bandit","187","617288","0.0-149.0-0.0","70143722","wem/bandit_single","A2ZRF4I5RTKN7G","pain","7","","76","L","3","","0","0","1","","0.3357984678","false","112","","0.1579322392","main_expt","","0.1146466799","","0.2031918028","","0.3357984678","","","","","",""
"243","","bandit","188","619338","0.0-150.0-0.0","70143722","wem/bandit_single","A2ZRF4I5RTKN7G","pain","7","","76","L","3","","0","1","0","","0.2950954247","false","113","","0.1638150459","main_expt","","0.1503083978","","0.2649243105","","0.2950954247","","","","","",""
"136","","bandit","189","621279","0.0-151.0-0.0","70143722","wem/bandit_single","A2ZRF4I5RTKN7G","pain","7","","76","L","3","","0","0","1","","0.3242299597","false","114","","0.1913716077","main_expt","","0.1750780752","","0.2669290767","","0.3242299597","","","","","",""
"141","","bandit","190","623220","0.0-152.0-0.0","70143722","wem/bandit_single","A2ZRF4I5RTKN7G","pain","7","","76","L","3","","0","1","0","","0.3224166769","false","115","","0.1762938339","main_expt","","0.1486636943","","0.2538219684","","0.3224166769","","","","","",""
"75","","bandit","191","625142","0.0-153.0-0.0","70143722","wem/bandit_single","A2ZRF4I5RTKN7G","pain","7","","76","L","3","","0","1","0","","0.3512221687","false","116","","0.1696576366","main_expt","","0.149377163","","0.2987800907","","0.3512221687","","","","","",""
"452","","bandit","192","627403","0.0-154.0-0.0","70143722","wem/bandit_single","A2ZRF4I5RTKN7G","pain","7","","76","L","3","","0","0","1","","0.3854596622","false","117","","0.1743908607","main_expt","","0.1255156769","","0.2863147972","","0.3854596622","","","","","",""
"18","","bandit","193","629220","0.0-155.0-0.0","70143722","wem/bandit_single","A2ZRF4I5RTKN7G","pain","7","","76","L","3","","0","0","1","","0.3311459155","false","118","","0.2187419408","main_expt","","0.09405737873","","0.2863485017","","0.3311459155","","","","","",""
"589","","bandit","194","631612","0.0-156.0-0.0","70143722","wem/bandit_single","A2ZRF4I5RTKN7G","pain","7","","76","L","3","","0","0","1","","0.3243143835","false","119","","0.2602037773","main_expt","","0.0580133569","","0.2704451175","","0.3243143835","","","","","",""
"1104","","bandit","195","634575","0.0-157.0-0.0","70143722","wem/bandit_single","A2ZRF4I5RTKN7G","pain","7","","76","L","3","","0","1","0","","0.3830596167","false","120","","0.2665240463","main_expt","","0.04965982272","","0.2545920365","","0.3830596167","","","","","",""
"1000","","bandit","196","637372","0.0-158.0-0.0","70143722","wem/bandit_single","A2ZRF4I5RTKN7G","pain","7","","76","L","3","","0","1","0","","0.4451194006","false","121","","0.2300357123","main_expt","","0.05452098248","","0.323502768","","0.4451194006","","","","","",""
"6","","bandit","197","639170","0.0-159.0-0.0","70143722","wem/bandit_single","A2ZRF4I5RTKN7G","pain","7","","76","L","3","","0","0","1","","0.4636898934","false","122","","0.2071140152","main_expt","","0.0475995955","","0.3380353075","","0.4636898934","","","","","",""
"385","","bandit","198","641447","0.0-160.0-0.0","70143722","wem/bandit_single","A2ZRF4I5RTKN7G","pain","7","","76","L","3","","0","1","0","","0.4384370655","false","123","","0.2590656513","main_expt","","0.04799769062","","0.341491638","","0.4384370655","","","","","",""
"148","","bandit","199","643388","0.0-161.0-0.0","70143722","wem/bandit_single","A2ZRF4I5RTKN7G","pain","7","","76","L","3","","0","0","1","","0.456933673","false","124","","0.2492473134","main_expt","","0.06454195205","","0.3269941981","","0.456933673","","","","","",""
"145","","bandit","200","645386","0.0-162.0-0.0","70143722","wem/bandit_single","A2ZRF4I5RTKN7G","pain","7","","76","L","3","","0","0","1","","0.4834692703","false","125","","0.2569957816","main_expt","","0.0570469748","","0.3263020805","","0.4834692703","","","","","",""
"239","","bandit","201","647436","0.0-163.0-0.0","70143722","wem/bandit_single","A2ZRF4I5RTKN7G","pain","7","","76","L","3","","0","0","1","","0.4895912119","false","126","","0.2715808503","main_expt","","0.06214194377","","0.3377655475","","0.4895912119","","","","","",""
"2425","","bandit","202","651807","0.0-164.0-0.0","70143722","wem/bandit_single","A2ZRF4I5RTKN7G","pain","7","","76","L","3","","0","1","0","","0.4791977258","false","127","","0.3260406689","main_expt","","0.06219251386","","0.3489319456","","0.4791977258","","","","","",""
"49","","bandit","203","653764","0.0-165.0-0.0","70143722","wem/bandit_single","A2ZRF4I5RTKN7G","pain","7","","76","L","3","","0","0","1","","0.4772399827","false","128","","0.3487232841","main_expt","","0.06192095676","","0.3450526125","","0.4772399827","","","","","",""
"63","","bandit","204","655616","0.0-166.0-0.0","70143722","wem/bandit_single","A2ZRF4I5RTKN7G","pain","7","","75","K","2","","0","1","0","","0.3297424559","false","129","","0.3601162145","main_expt","","0.03846933599","","0.3297424559","","0.4688955373","","","","","",""
"810","","bandit","205","658224","0.0-167.0-0.0","70143722","wem/bandit_single","A2ZRF4I5RTKN7G","pain","7","","75","K","2","","0","1","0","","0.3731420779","false","130","","0.4185413006","main_expt","","0.02330960587","","0.3731420779","","0.4651179545","","","","","",""
"531","","bandit","206","660546","0.0-168.0-0.0","70143722","wem/bandit_single","A2ZRF4I5RTKN7G","pain","7","","75","K","2","","0","0","1","","0.325638262","false","131","","0.4537663544","main_expt","","0.03495479357","","0.325638262","","0.4794739162","","","","","",""
"151","","bandit","207","662506","0.0-169.0-0.0","70143722","wem/bandit_single","A2ZRF4I5RTKN7G","pain","7","","75","K","2","","0","0","1","","0.3132782049","false","132","","0.4489861829","main_expt","","0.02752519027","","0.3132782049","","0.4679846252","","","","","",""
"1126","","bandit","208","665596","0.0-170.0-0.0","70143722","wem/bandit_single","A2ZRF4I5RTKN7G","pain","7","","75","K","2","","0","1","0","","0.3552481716","false","133","","0.4465240103","main_expt","","0.03239645132","","0.3552481716","","0.4636487781","","","","","",""
"57","","bandit","209","667481","0.0-171.0-0.0","70143722","wem/bandit_single","A2ZRF4I5RTKN7G","pain","7","","75","K","2","","0","0","1","","0.3478795997","false","134","","0.4286255731","main_expt","","0.02361228775","","0.3478795997","","0.4578614037","","","","","",""
"88","","bandit","210","669393","0.0-172.0-0.0","70143722","wem/bandit_single","A2ZRF4I5RTKN7G","pain","7","","74","J","1","","0","0","1","","0.01378345967","false","135","","0.3969320342","main_expt","","0.01378345967","","0.3394088604","","0.4339873336","","","","","",""
"7","","bandit","211","671294","0.0-173.0-0.0","70143722","wem/bandit_single","A2ZRF4I5RTKN7G","pain","7","","74","J","1","","0","0","1","","0.01349892684","false","136","","0.3975573163","main_expt","","0.01349892684","","0.3739095734","","0.4091277288","","","","","",""
"1027","","bandit","212","674167","0.0-174.0-0.0","70143722","wem/bandit_single","A2ZRF4I5RTKN7G","pain","7","","74","J","1","","0","0","1","","0.01373747566","false","137","","0.4226438881","main_expt","","0.01373747566","","0.3319731639","","0.4024864596","","","","","",""
"389","","bandit","213","676400","0.0-175.0-0.0","70143722","wem/bandit_single","A2ZRF4I5RTKN7G","pain","7","","72","H","0","img/none_selected.jpg","0","0","1","","0.383622376","false","138","","0.383622376","main_expt","","0.009346923256","","0.3427854578","","0.3793932322","","","","","",""
"838","","bandit","214","679061","0.0-176.0-0.0","70143722","wem/bandit_single","A2ZRF4I5RTKN7G","pain","7","","72","H","0","img/none_selected.jpg","0","1","0","","0.3892077266","false","139","","0.3892077266","main_expt","","0.005947695369","","0.2804250852","","0.3940691536","","","","","",""
"122","","bandit","215","680992","0.0-177.0-0.0","70143722","wem/bandit_single","A2ZRF4I5RTKN7G","pain","7","","72","H","0","img/none_selected.jpg","0","1","0","","0.3721285976","false","140","","0.3721285976","main_expt","","0.003062149202","","0.294489168","","0.3878174143","","","","","",""
"62","","bandit","216","682875","0.0-178.0-0.0","70143722","wem/bandit_single","A2ZRF4I5RTKN7G","pain","7","","72","H","0","img/none_selected.jpg","0","1","0","","0.403063379","false","141","","0.403063379","main_expt","","0.003723800288","","0.2849233321","","0.3671315422","","","","","",""
"189","","bandit","217","684873","0.0-179.0-0.0","70143722","wem/bandit_single","A2ZRF4I5RTKN7G","pain","7","","72","H","0","img/none_selected.jpg","0","0","1","","0.3916907223","false","142","","0.3916907223","main_expt","","0.003048460602","","0.2605380125","","0.338830911","","","","","",""
"1441","","bandit","218","688118","0.0-180.0-0.0","70143722","wem/bandit_single","A2ZRF4I5RTKN7G","pain","7","","72","H","0","img/none_selected.jpg","0","0","1","","0.4212357341","false","143","","0.4212357341","main_expt","","0.002664125267","","0.3030740536","","0.2709557481","","","","","",""
"627","","bandit","219","690552","0.0-181.0-0.0","70143722","wem/bandit_single","A2ZRF4I5RTKN7G","pain","7","","72","H","0","img/none_selected.jpg","0","1","0","","0.3944164323","false","144","","0.3944164323","main_expt","","0.0015633636","","0.29766321","","0.249986241","","","","","",""
"217","","bandit","220","692541","0.0-182.0-0.0","70143722","wem/bandit_single","A2ZRF4I5RTKN7G","pain","7","","72","H","0","img/none_selected.jpg","0","0","1","","0.4129391908","false","145","","0.4129391908","main_expt","","0.002084593646","","0.2862291296","","0.2694710106","","","","","",""
"189","","bandit","221","694536","0.0-183.0-0.0","70143722","wem/bandit_single","A2ZRF4I5RTKN7G","pain","7","","72","H","0","img/none_selected.jpg","0","0","1","","0.4027876266","false","146","","0.4027876266","main_expt","","0.0008356934022","","0.3151642481","","0.3099728414","","","","","",""
"81","","bandit","222","696413","0.0-184.0-0.0","70143722","wem/bandit_single","A2ZRF4I5RTKN7G","pain","7","","74","J","1","","0","0","1","","0.00187417998","false","147","","0.3906291495","main_expt","","0.00187417998","","0.3261334855","","0.3010760093","","","","","",""
"334","","bandit","223","698565","0.0-185.0-0.0","70143722","wem/bandit_single","A2ZRF4I5RTKN7G","pain","7","","75","K","2","","0","1","0","","0.3605999671","false","148","","0.3718958907","main_expt","","0.001549413081","","0.3605999671","","0.2861733563","","","","","",""
"41","","bandit","224","700410","0.0-186.0-0.0","70143722","wem/bandit_single","A2ZRF4I5RTKN7G","pain","7","","75","K","2","","0","0","1","","0.3848975894","false","149","","0.3513552953","main_expt","","0.002318569837","","0.3848975894","","0.2613296644","","","","","",""
"98","","bandit","225","702342","0.0-187.0-0.0","70143722","wem/bandit_single","A2ZRF4I5RTKN7G","pain","7","","75","K","2","","0","1","0","","0.3680345664","false","150","","0.3796712552","main_expt","","0.002401941109","","0.3680345664","","0.2955554784","","","","","",""
"61","","bandit","226","704312","0.0-188.0-0.0","70143722","wem/bandit_single","A2ZRF4I5RTKN7G","pain","7","","75","K","2","","0","1","0","","0.3517559312","false","151","","0.4275550045","main_expt","","0.002416650241","","0.3517559312","","0.2928365899","","","","","",""
"35","","bandit","227","706153","0.0-189.0-0.0","70143722","wem/bandit_single","A2ZRF4I5RTKN7G","pain","7","","75","K","2","","0","1","0","","0.3963282571","false","152","","0.4266807854","main_expt","","0.002533271813","","0.3963282571","","0.3000067833","","","","","",""
"97","","bandit","228","708029","0.0-190.0-0.0","70143722","wem/bandit_single","A2ZRF4I5RTKN7G","pain","7","","75","K","2","","0","0","1","","0.432842039","false","153","","0.4633151701","main_expt","","0.00322942279","","0.432842039","","0.2757802357","","","","","",""
"91","","bandit","229","709942","0.0-191.0-0.0","70143722","wem/bandit_single","A2ZRF4I5RTKN7G","pain","7","","75","K","2","","0","0","1","","0.4134551824","false","154","","0.4723469507","main_expt","","0.003404333974","","0.4134551824","","0.3252288772","","","","","",""
"70","","bandit","230","711822","0.0-192.0-0.0","70143722","wem/bandit_single","A2ZRF4I5RTKN7G","pain","7","","75","K","2","","0","0","1","","0.426737857","false","155","","0.4829251431","main_expt","","0.008925030754","","0.426737857","","0.2746928085","","","","","",""
"802","","bandit","231","714526","0.0-193.0-0.0","70143722","wem/bandit_single","A2ZRF4I5RTKN7G","pain","7","","76","L","3","","0","1","0","","0.2881451241","false","156","","0.4753947098","main_expt","","0.005317619152","","0.4289541051","","0.2881451241","","","","","",""
"47","","bandit","232","716367","0.0-194.0-0.0","70143722","wem/bandit_single","A2ZRF4I5RTKN7G","pain","7","","76","L","3","","0","0","1","","0.2861132768","false","157","","0.4686295074","main_expt","","0.002657446392","","0.4593738684","","0.2861132768","","","","","",""
"217","","bandit","233","718389","0.0-195.0-0.0","70143722","wem/bandit_single","A2ZRF4I5RTKN7G","pain","7","","76","L","3","","0","1","0","","0.2382703247","false","158","","0.4746137902","main_expt","","0.005349678466","","0.4716769587","","0.2382703247","","","","","",""
"38","","bandit","234","720234","0.0-196.0-0.0","70143722","wem/bandit_single","A2ZRF4I5RTKN7G","pain","7","","76","L","3","","0","0","1","","0.2650616746","false","159","","0.4626257703","main_expt","","0.00353293949","","0.4566829936","","0.2650616746","","","","","",""
"497","","bandit","235","722564","0.0-197.0-0.0","70143722","wem/bandit_single","A2ZRF4I5RTKN7G","pain","7","","76","L","3","","0","0","1","","0.2841227011","false","160","","0.4690497323","main_expt","","0.004525880368","","0.4684401337","","0.2841227011","","","","","",""
"59","","bandit","236","724462","0.0-198.0-0.0","70143722","wem/bandit_single","A2ZRF4I5RTKN7G","pain","7","","74","J","1","","0","0","1","","0.00364468733","false","161","","0.4605728382","main_expt","","0.00364468733","","0.4327192474","","0.3103310899","","","","","",""
"66","","bandit","237","726544","0.0-199.0-0.0","70143722","wem/bandit_single","A2ZRF4I5RTKN7G","pain","7","","74","J","1","","0","0","1","","0.004567203872","false","162","","0.4663204896","main_expt","","0.004567203872","","0.4158578039","","0.2990864795","","","","","",""
"218","","bandit","238","728607","0.0-200.0-0.0","70143722","wem/bandit_single","A2ZRF4I5RTKN7G","pain","7","","72","H","0","img/none_selected.jpg","0","1","0","","0.4626626357","false","163","","0.4626626357","main_expt","","0.003538815","","0.4206849782","","0.2650304997","","","","","",""
"39","","bandit","239","730484","0.0-201.0-0.0","70143722","wem/bandit_single","A2ZRF4I5RTKN7G","pain","7","","72","H","0","img/none_selected.jpg","0","1","0","","0.4672680551","false","164","","0.4672680551","main_expt","","0.002896615325","","0.4276923589","","0.2877519924","","","","","",""
"64","","bandit","240","732375","0.0-202.0-0.0","70143722","wem/bandit_single","A2ZRF4I5RTKN7G","pain","7","","72","H","0","img/none_selected.jpg","0","0","1","","0.455015491","false","165","","0.455015491","main_expt","","0.004500484281","","0.4204466813","","0.2818109827","","","","","",""
"372","","bandit","241","734564","0.0-203.0-0.0","70143722","wem/bandit_single","A2ZRF4I5RTKN7G","pain","7","","72","H","0","img/none_selected.jpg","0","0","1","","0.4201800218","false","166","","0.4201800218","main_expt","","0.01017739848","","0.4229734844","","0.324785045","","","","","",""
"114","","bandit","242","736526","0.0-204.0-0.0","70143722","wem/bandit_single","A2ZRF4I5RTKN7G","pain","7","","75","K","2","","0","0","1","","0.4474449943","false","167","","0.4430085171","main_expt","","0.0129517719","","0.4474449943","","0.3339304688","","","","","",""
"85","","bandit","243","738440","0.0-205.0-0.0","70143722","wem/bandit_single","A2ZRF4I5RTKN7G","pain","7","","75","K","2","","0","1","0","","0.4458086367","false","168","","0.4526671473","main_expt","","0.009045291763","","0.4458086367","","0.3351003476","","","","","",""
"3","","bandit","244","740241","0.0-206.0-0.0","70143722","wem/bandit_single","A2ZRF4I5RTKN7G","pain","7","","75","K","2","","0","0","1","","0.4619433307","false","169","","0.4477525289","main_expt","","0.01553154223","","0.4619433307","","0.3556935824","","","","","",""
"188","","bandit","245","742239","0.0-207.0-0.0","70143722","wem/bandit_single","A2ZRF4I5RTKN7G","pain","7","","75","K","2","","0","0","1","","0.4703570947","false","170","","0.41154262","main_expt","","0.01787531072","","0.4703570947","","0.3690608098","","","","","",""
"127","","bandit","246","744145","0.0-208.0-0.0","70143722","wem/bandit_single","A2ZRF4I5RTKN7G","pain","7","","74","J","1","","0","0","1","","0.01316551092","false","171","","0.37868858","main_expt","","0.01316551092","","0.474742395","","0.3631266209","","","","","",""
"67","","bandit","247","746026","0.0-209.0-0.0","70143722","wem/bandit_single","A2ZRF4I5RTKN7G","pain","7","","74","J","1","","0","0","1","","0.0172037691","false","172","","0.3971498268","main_expt","","0.0172037691","","0.4773845315","","0.3392191481","","","","","",""
"582","","bandit","248","748543","0.0-210.0-0.0","70143722","wem/bandit_single","A2ZRF4I5RTKN7G","pain","7","","76","L","3","","0","0","1","","0.2931772585","false","173","","0.4319579383","main_expt","","0.01427011775","","0.4680058345","","0.2931772585","","","","","",""
"329","","bandit","249","750691","0.0-211.0-0.0","70143722","wem/bandit_single","A2ZRF4I5RTKN7G","pain","7","","76","L","3","","0","1","0","","0.2750831853","false","174","","0.4174714043","main_expt","","0.01057019218","","0.4561145842","","0.2750831853","","","","","",""
"195","","bandit","250","752700","0.0-212.0-0.0","70143722","wem/bandit_single","A2ZRF4I5RTKN7G","pain","7","","76","L","3","","0","0","1","","0.2997345097","false","175","","0.3846013355","main_expt","","0.007255369755","","0.472279608","","0.2997345097","","","","","",""
"49","","bandit","251","754565","0.0-213.0-0.0","70143722","wem/bandit_single","A2ZRF4I5RTKN7G","pain","7","","76","L","3","","0","1","0","","0.3402413884","false","176","","0.4019342833","main_expt","","0.01305273867","","0.4602447812","","0.3402413884","","","","","",""
"1145","","bandit","252","757528","0.0-214.0-0.0","70143722","wem/bandit_single","A2ZRF4I5RTKN7G","pain","7","","76","L","3","","0","0","1","","0.3099882557","false","177","","0.4211485366","main_expt","","0.0133150908","","0.4343313091","","0.3099882557","","","","","",""
"653","","bandit","253","760002","0.0-215.0-0.0","70143722","wem/bandit_single","A2ZRF4I5RTKN7G","pain","7","","76","L","3","","0","0","1","","0.2761175095","false","178","","0.4133977621","main_expt","","0.01259822705","","0.4048428007","","0.2761175095","","","","","",""
"798","","bandit","254","762673","0.0-216.0-0.0","70143722","wem/bandit_single","A2ZRF4I5RTKN7G","pain","7","","72","H","0","img/none_selected.jpg","0","0","1","","0.4395013083","false","179","","0.4395013083","main_expt","","0.008971211221","","0.3826353834","","0.3053987856","","","","","",""
"357","","bandit","255","764847","0.0-217.0-0.0","70143722","wem/bandit_single","A2ZRF4I5RTKN7G","pain","7","","74","J","1","","0","0","1","","0.01053614943","false","180","","0.4385200931","main_expt","","0.01053614943","","0.3352628501","","0.291880519","","","","","",""
"491","","bandit","256","767152","0.0-218.0-0.0","70143722","wem/bandit_single","A2ZRF4I5RTKN7G","pain","7","","75","K","2","","0","0","1","","0.2990499081","false","181","","0.4225113135","main_expt","","0.01184041186","","0.2990499081","","0.298429346","","","","","",""
"808","","bandit","257","769794","0.0-219.0-0.0","70143722","wem/bandit_single","A2ZRF4I5RTKN7G","pain","7","","74","J","1","","0","0","1","","0.03042574256","false","182","","0.3723799893","main_expt","","0.03042574256","","0.3698835663","","0.3343264324","","","","","",""
"2797","","bandit","258","774397","0.0-220.0-0.0","70143722","wem/bandit_single","A2ZRF4I5RTKN7G","pain","7","","74","J","1","","0","0","1","","0.03286829004","false","183","","0.3790924375","main_expt","","0.03286829004","","0.3849917371","","0.2890729732","","","","","",""
"87","","bandit","259","776261","0.0-221.0-0.0","70143722","wem/bandit_single","A2ZRF4I5RTKN7G","pain","7","","75","K","2","","0","1","0","","0.3560661239","false","184","","0.4122006093","main_expt","","0.05565884368","","0.3560661239","","0.1975841231","","","","","",""
"46","","bandit","260","778125","0.0-222.0-0.0","70143722","wem/bandit_single","A2ZRF4I5RTKN7G","pain","7","","75","K","2","","0","0","1","","0.3637043243","false","185","","0.3681720139","main_expt","","0.05703602855","","0.3637043243","","0.213981158","","","","","",""
"103","","bandit","261","780041","0.0-223.0-0.0","70143722","wem/bandit_single","A2ZRF4I5RTKN7G","pain","7","","75","K","2","","0","0","1","","0.370254809","false","186","","0.3735732413","main_expt","","0.08167625523","","0.370254809","","0.1690135127","","","","","",""
"256","","bandit","262","782111","0.0-224.0-0.0","70143722","wem/bandit_single","A2ZRF4I5RTKN7G","pain","7","","72","H","0","img/none_selected.jpg","0","1","0","","0.3763431734","false","187","","0.3763431734","main_expt","","0.08146612985","","0.3451477914","","0.2606776113","","","","","",""
"135","","bandit","263","784208","0.0-225.0-0.0","70143722","wem/bandit_single","A2ZRF4I5RTKN7G","pain","7","","72","H","0","img/none_selected.jpg","0","0","1","","0.3515668436","false","188","","0.3515668436","main_expt","","0.09365986726","","0.3939300048","","0.2431197375","","","","","",""
"2345","","bandit","264","788378","0.0-226.0-0.0","70143722","wem/bandit_single","A2ZRF4I5RTKN7G","pain","7","","72","H","0","img/none_selected.jpg","0","1","0","","0.3343836861","false","189","","0.3343836861","main_expt","","0.09268069957","","0.4136030152","","0.2308206277","","","","","",""
"185","","bandit","265","790374","0.0-227.0-0.0","70143722","wem/bandit_single","A2ZRF4I5RTKN7G","pain","7","","72","H","0","img/none_selected.jpg","0","0","1","","0.2525345787","false","190","","0.2525345787","main_expt","","0.08594859785","","0.4261376259","","0.2025271702","","","","","",""
"596","","bandit","266","792787","0.0-228.0-0.0","70143722","wem/bandit_single","A2ZRF4I5RTKN7G","pain","7","","72","H","0","img/none_selected.jpg","0","0","1","","0.2685183708","false","191","","0.2685183708","main_expt","","0.08932588753","","0.3908696756","","0.2751540988","","","","","",""
"101","","bandit","267","794701","0.0-229.0-0.0","70143722","wem/bandit_single","A2ZRF4I5RTKN7G","pain","7","","75","K","2","","0","0","1","","0.4106222578","false","192","","0.2572514827","main_expt","","0.1064261942","","0.4106222578","","0.2569606715","","","","","",""
"8","","bandit","268","796525","0.0-230.0-0.0","70143722","wem/bandit_single","A2ZRF4I5RTKN7G","pain","7","","74","J","1","","0","0","1","","0.1536879749","false","193","","0.1969756064","main_expt","","0.1536879749","","0.4282135821","","0.2874900681","","","","","",""
"194","","bandit","269","798571","0.0-231.0-0.0","70143722","wem/bandit_single","A2ZRF4I5RTKN7G","pain","7","","74","J","1","","0","0","1","","0.1389913839","false","194","","0.2134952627","main_expt","","0.1389913839","","0.4423695223","","0.1735349233","","","","","",""
"132","","bandit","270","800591","0.0-232.0-0.0","70143722","wem/bandit_single","A2ZRF4I5RTKN7G","pain","7","","74","J","1","","0","1","0","","0.1439418744","false","195","","0.1620875807","main_expt","","0.1439418744","","0.4594299266","","0.1922880567","","","","","",""
"939","","bandit","271","803572","0.0-233.0-0.0","70143722","wem/bandit_single","A2ZRF4I5RTKN7G","pain","7","","74","J","1","","0","0","1","","0.131143091","false","196","","0.166822232","main_expt","","0.131143091","","0.4446405127","","0.180833075","","","","","",""
"458","","bandit","272","806008","0.0-234.0-0.0","70143722","wem/bandit_single","A2ZRF4I5RTKN7G","pain","7","","74","J","1","","0","0","1","","0.1358316141","false","197","","0.1951417713","main_expt","","0.1358316141","","0.4559667881","","0.2213655201","","","","","",""
"78","","bandit","273","807978","0.0-235.0-0.0","70143722","wem/bandit_single","A2ZRF4I5RTKN7G","pain","7","","75","K","2","","0","1","0","","0.4760465659","false","198","","0.1946571809","main_expt","","0.1271866158","","0.4760465659","","0.1886922679","","","","","",""
"801","","bandit","274","810612","0.0-236.0-0.0","70143722","wem/bandit_single","A2ZRF4I5RTKN7G","pain","7","","75","K","2","","0","1","0","","0.4682530898","false","199","","0.125569753","main_expt","","0.1427164763","","0.4682530898","","0.1960792333","","","","","",""
"1743","","bandit","275","814233","0.0-237.0-0.0","70143722","wem/bandit_single","A2ZRF4I5RTKN7G","pain","7","","75","K","2","","0","1","0","","0.4722721777","false","200","","0.110010897","main_expt","","0.1465126473","","0.4722721777","","0.2093645874","","","","","",""
"4346","","bandit","276","820430","0.0-238.0-0.0","70143722","wem/bandit_single","A2ZRF4I5RTKN7G","pain","7","","75","K","2","","0","0","1","","0.4739800601","false","201","","0.1280762957","main_expt","","0.1271257608","","0.4739800601","","0.1673165995","","","","","",""
"2340","","bandit","277","824600","0.0-239.0-0.0","70143722","wem/bandit_single","A2ZRF4I5RTKN7G","pain","7","","72","H","0","img/none_selected.jpg","0","0","1","","0.1402913484","false","202","","0.1402913484","main_expt","","0.08657179739","","0.479726886","","0.2086438453","","","","","",""
"43","","bandit","278","826496","0.0-240.0-0.0","70143722","wem/bandit_single","A2ZRF4I5RTKN7G","pain","7","","74","J","1","","0","1","0","","0.09313456927","false","203","","0.2217412738","main_expt","","0.09313456927","","0.4642372742","","0.1973992815","","","","","",""
"145","","bandit","279","828466","0.0-241.0-0.0","70143722","wem/bandit_single","A2ZRF4I5RTKN7G","pain","7","","74","J","1","","0","1","0","","0.1497906572","false","204","","0.2231628045","main_expt","","0.1497906572","","0.4560882558","","0.2256674954","","","","","",""
"398","","bandit","280","830639","0.0-242.0-0.0","70143722","wem/bandit_single","A2ZRF4I5RTKN7G","pain","7","","74","J","1","","0","0","1","","0.1829644856","false","205","","0.2170181201","main_expt","","0.1829644856","","0.4525737262","","0.2163874892","","","","","",""
"516","","bandit","281","832941","0.0-243.0-0.0","70143722","wem/bandit_single","A2ZRF4I5RTKN7G","pain","7","","75","K","2","","0","1","0","","0.4550624295","false","206","","0.2796725078","main_expt","","0.1612057882","","0.4550624295","","0.2197086186","","","","","",""
"3845","","bandit","282","838687","0.0-244.0-0.0","70143722","wem/bandit_single","A2ZRF4I5RTKN7G","pain","7","","75","K","2","","0","1","0","","0.4723612306","false","207","","0.2817680811","main_expt","","0.1697938272","","0.4723612306","","0.2065154411","","","","","",""
"112","","bandit","283","840624","0.0-245.0-0.0","70143722","wem/bandit_single","A2ZRF4I5RTKN7G","pain","7","","75","K","2","","0","0","1","","0.4766034411","false","208","","0.2823403198","main_expt","","0.1559958766","","0.4766034411","","0.1685179651","","","","","",""
"3085","","bandit","284","845490","0.0-246.0-0.0","70143722","wem/bandit_single","A2ZRF4I5RTKN7G","pain","7","","75","K","2","","0","1","0","","0.483515399","false","209","","0.3618902866","main_expt","","0.1446830505","","0.483515399","","0.138461816","","","","","",""
"16","","bandit","285","847321","0.0-247.0-0.0","70143722","wem/bandit_single","A2ZRF4I5RTKN7G","pain","7","","75","K","2","","0","1","0","","0.4880418707","false","210","","0.373554641","main_expt","","0.1231196185","","0.4880418707","","0.1494322788","","","","","",""
"37","","bandit","286","849174","0.0-248.0-0.0","70143722","wem/bandit_single","A2ZRF4I5RTKN7G","pain","7","","75","K","2","","0","1","0","","0.4802592994","false","211","","0.4160488284","main_expt","","0.1456244431","","0.4802592994","","0.1799359977","","","","","",""
"557","","bandit","287","851559","0.0-249.0-0.0","70143722","wem/bandit_single","A2ZRF4I5RTKN7G","pain","7","","75","K","2","","0","0","1","","0.4738887763","false","212","","0.381710399","main_expt","","0.1656867557","","0.4738887763","","0.1810857181","","","","","",""
"17","","bandit","288","853355","0.0-250.0-0.0","70143722","wem/bandit_single","A2ZRF4I5RTKN7G","pain","7","","76","L","3","","0","0","1","","0.1615137558","false","213","","0.3769148707","main_expt","","0.224977978","","0.4808850683","","0.1615137558","","","","","",""
"110","","bandit","289","855292","0.0-251.0-0.0","70143722","wem/bandit_single","A2ZRF4I5RTKN7G","pain","7","","72","H","0","img/none_selected.jpg","0","1","0","","0.3476207329","false","214","","0.3476207329","main_expt","","0.307554285","","0.4825694391","","0.1650702933","","","","","",""
"16","","bandit","290","857158","0.0-252.0-0.0","70143722","wem/bandit_single","A2ZRF4I5RTKN7G","pain","7","","72","H","0","img/none_selected.jpg","0","0","1","","0.3089741626","false","215","","0.3089741626","main_expt","","0.3638187162","","0.4847107186","","0.1804791034","","","","","",""
"34","","bandit","291","859025","0.0-253.0-0.0","70143722","wem/bandit_single","A2ZRF4I5RTKN7G","pain","7","","72","H","0","img/none_selected.jpg","0","0","1","","0.3674618518","false","216","","0.3674618518","main_expt","","0.3543809852","","0.4809007894","","0.1573161505","","","","","",""
"315","","bandit","292","861196","0.0-254.0-0.0","70143722","wem/bandit_single","A2ZRF4I5RTKN7G","pain","7","","74","J","1","","0","1","0","","0.3301156576","false","217","","0.3283657719","main_expt","","0.3301156576","","0.4741770765","","0.1434716653","","","","","",""
"2","","bandit","293","863084","0.0-255.0-0.0","70143722","wem/bandit_single","A2ZRF4I5RTKN7G","pain","7","","74","J","1","","0","1","0","","0.3132999057","false","218","","0.3302734852","main_expt","","0.3132999057","","0.4819245576","","0.1911838451","","","","","",""
"216","","bandit","294","865161","0.0-256.0-0.0","70143722","wem/bandit_single","A2ZRF4I5RTKN7G","pain","7","","74","J","1","","0","0","1","","0.2205266592","false","219","","0.3554571327","main_expt","","0.2205266592","","0.4793241995","","0.1441129831","","","","","",""
"301","","bandit","295","867304","0.0-257.0-0.0","70143722","wem/bandit_single","A2ZRF4I5RTKN7G","pain","7","","72","H","0","img/none_selected.jpg","0","0","1","","0.319330444","false","220","","0.319330444","main_expt","","0.2167078271","","0.4713672071","","0.1920309772","","","","","",""
"247","","bandit","296","869585","0.0-258.0-0.0","70143722","wem/bandit_single","A2ZRF4I5RTKN7G","pain","7","","76","L","3","","0","0","1","","0.1770810464","false","221","","0.3105046037","main_expt","","0.2038989409","","0.4728071858","","0.1770810464","","","","","",""
"525","","bandit","297","871963","0.0-259.0-0.0","70143722","wem/bandit_single","A2ZRF4I5RTKN7G","pain","7","","74","J","1","","0","0","1","","0.18760722","false","222","","0.2971369975","main_expt","","0.18760722","","0.4742115633","","0.1726735039","","","","","",""
"2184","","bandit","298","876014","0.0-260.0-0.0","70143722","wem/bandit_single","A2ZRF4I5RTKN7G","pain","7","","75","K","2","","0","1","0","","0.4606319974","false","223","","0.2924153056","main_expt","","0.1794058889","","0.4606319974","","0.1935596247","","","","","",""
"2385","","bandit","299","880233","0.0-261.0-0.0","70143722","wem/bandit_single","A2ZRF4I5RTKN7G","pain","7","","75","K","2","","0","1","0","","0.4796626282","false","224","","0.3251713444","main_expt","","0.1973287288","","0.4796626282","","0.184290804","","","","","",""
"1054","","bandit","300","883113","0.0-262.0-0.0","70143722","wem/bandit_single","A2ZRF4I5RTKN7G","pain","7","","75","K","2","","0","0","1","","0.4770938662","false","225","","0.3191667618","main_expt","","0.1657141015","","0.4770938662","","0.1182631535","","","","","",""
"1126","","bandit","301","886064","0.0-263.0-0.0","70143722","wem/bandit_single","A2ZRF4I5RTKN7G","pain","7","","74","J","1","","0","0","1","","0.1333985498","false","226","","0.3163975521","main_expt","","0.1333985498","","0.4753940461","","0.1243406576","","","","","",""
"2798","","bandit","302","890688","0.0-264.0-0.0","70143722","wem/bandit_single","A2ZRF4I5RTKN7G","pain","7","","75","K","2","","0","0","1","","0.4692559414","false","227","","0.3153023093","main_expt","","0.1426718429","","0.4692559414","","0.1887705619","","","","","",""
"235","","bandit","303","892781","0.0-265.0-0.0","70143722","wem/bandit_single","A2ZRF4I5RTKN7G","pain","7","","72","H","0","img/none_selected.jpg","0","0","1","","0.252814401","false","228","","0.252814401","main_expt","","0.1510234048","","0.4549715312","","0.1594511678","","","","","",""
"153","","bandit","304","894757","0.0-266.0-0.0","70143722","wem/bandit_single","A2ZRF4I5RTKN7G","pain","7","","74","J","1","","0","0","1","","0.1786638104","false","229","","0.2830586582","main_expt","","0.1786638104","","0.4818432606","","0.1582092687","","","","","",""
"194","","bandit","305","896778","0.0-267.0-0.0","70143722","wem/bandit_single","A2ZRF4I5RTKN7G","pain","7","","76","L","3","","0","1","0","","0.149178519","false","230","","0.2124451555","main_expt","","0.1564383184","","0.4542350274","","0.149178519","","","","","",""
"257","","bandit","306","898854","0.0-268.0-0.0","70143722","wem/bandit_single","A2ZRF4I5RTKN7G","pain","7","","76","L","3","","0","1","0","","0.2063022429","false","231","","0.1175217461","main_expt","","0.1398607303","","0.4646494747","","0.2063022429","","","","","",""
"280","","bandit","307","900912","0.0-269.0-0.0","70143722","wem/bandit_single","A2ZRF4I5RTKN7G","pain","7","","76","L","3","","0","1","0","","0.2424934828","false","232","","0.144677577","main_expt","","0.1323980205","","0.4617677548","","0.2424934828","","","","","",""
"338","","bandit","308","903084","0.0-270.0-0.0","70143722","wem/bandit_single","A2ZRF4I5RTKN7G","pain","7","","76","L","3","","0","0","1","","0.2404462099","false","233","","0.1555092754","main_expt","","0.1510374747","","0.4535872836","","0.2404462099","","","","","",""
"844","","bandit","309","905745","0.0-271.0-0.0","70143722","wem/bandit_single","A2ZRF4I5RTKN7G","pain","7","","76","L","3","","0","0","1","","0.1830028502","false","234","","0.1250762939","main_expt","","0.133247495","","0.4297764401","","0.1830028502","","","","","",""
"171","","bandit","310","907697","0.0-272.0-0.0","70143722","wem/bandit_single","A2ZRF4I5RTKN7G","pain","7","","75","K","2","","0","0","1","","0.4335441617","false","235","","0.1094925358","main_expt","","0.1666928205","","0.4335441617","","0.2197419317","","","","","",""
"33","","bandit","311","909548","0.0-273.0-0.0","70143722","wem/bandit_single","A2ZRF4I5RTKN7G","pain","7","","74","J","1","","0","0","1","","0.1772374327","false","236","","0.09099935704","main_expt","","0.1772374327","","0.4390497594","","0.2537285896","","","","","",""
"275","","bandit","312","911683","0.0-274.0-0.0","70143722","wem/bandit_single","A2ZRF4I5RTKN7G","pain","7","","74","J","1","","0","0","1","","0.2093850131","false","237","","0.07445530481","main_expt","","0.2093850131","","0.4557250369","","0.2967198922","","","","","",""
"208","","bandit","313","913713","0.0-275.0-0.0","70143722","wem/bandit_single","A2ZRF4I5RTKN7G","pain","7","","72","H","0","img/none_selected.jpg","0","0","1","","0.1160826651","false","238","","0.1160826651","main_expt","","0.2323540058","","0.4712934341","","0.2716881628","","","","","",""
"219","","bandit","314","915863","0.0-276.0-0.0","70143722","wem/bandit_single","A2ZRF4I5RTKN7G","pain","7","","72","H","0","img/none_selected.jpg","0","0","1","","0.1935594103","false","239","","0.1935594103","main_expt","","0.2527052166","","0.4744109467","","0.2840113657","","","","","",""
"1568","","bandit","315","919258","0.0-277.0-0.0","70143722","wem/bandit_single","A2ZRF4I5RTKN7G","pain","7","","74","J","1","","0","1","0","","0.2429338356","false","240","","0.2305108235","main_expt","","0.2429338356","","0.4856904038","","0.3274134878","","","","","",""
"73","","bandit","316","921156","0.0-278.0-0.0","70143722","wem/bandit_single","A2ZRF4I5RTKN7G","pain","7","","74","J","1","","0","0","1","","0.2422046893","false","241","","0.23744922","main_expt","","0.2422046893","","0.474377245","","0.3106351565","","","","","",""
"69","","bandit","317","923050","0.0-279.0-0.0","70143722","wem/bandit_single","A2ZRF4I5RTKN7G","pain","7","","74","J","1","","0","0","1","","0.1974588069","false","242","","0.2644088126","main_expt","","0.1974588069","","0.4699498903","","0.276301991","","","","","",""
"118","","bandit","318","924994","0.0-280.0-0.0","70143722","wem/bandit_single","A2ZRF4I5RTKN7G","pain","7","","75","K","2","","0","1","0","","0.4696131401","false","243","","0.3029471314","main_expt","","0.1697106736","","0.4696131401","","0.2682550828","","","","","",""
"47","","bandit","319","927069","0.0-281.0-0.0","70143722","wem/bandit_single","A2ZRF4I5RTKN7G","pain","7","","75","K","2","","0","0","1","","0.4519085084","false","244","","0.2869027424","main_expt","","0.1495066821","","0.4519085084","","0.2717267912","","","","","",""
"442","","bandit","320","929437","0.0-282.0-0.0","70143722","wem/bandit_single","A2ZRF4I5RTKN7G","pain","7","","75","K","2","","0","0","1","","0.4620487724","false","245","","0.2928347339","main_expt","","0.1664551864","","0.4620487724","","0.2480355477","","","","","",""
"886","","bandit","321","932165","0.0-283.0-0.0","70143722","wem/bandit_single","A2ZRF4I5RTKN7G","pain","7","","72","H","0","img/none_selected.jpg","0","1","0","","0.2537870262","false","246","","0.2537870262","main_expt","","0.1660340973","","0.4553277256","","0.2978011657","","","","","",""
"578","","bandit","322","934597","0.0-284.0-0.0","70143722","wem/bandit_single","A2ZRF4I5RTKN7G","pain","7","","72","H","0","img/none_selected.jpg","0","0","1","","0.220788829","false","247","","0.220788829","main_expt","","0.2232834288","","0.4470790686","","0.3183795364","","","","","",""
"315","","bandit","323","936796","0.0-285.0-0.0","70143722","wem/bandit_single","A2ZRF4I5RTKN7G","pain","7","","72","H","0","img/none_selected.jpg","0","0","1","","0.2260039815","false","248","","0.2260039815","main_expt","","0.2337066106","","0.4370243233","","0.3496285813","","","","","",""
"216","","bandit","324","938896","0.0-286.0-0.0","70143722","wem/bandit_single","A2ZRF4I5RTKN7G","pain","7","","76","L","3","","0","1","0","","0.3450691196","false","249","","0.2536259712","main_expt","","0.2555848542","","0.4344986606","","0.3450691196","","","","","",""
"223","","bandit","325","940948","0.0-287.0-0.0","70143722","wem/bandit_single","A2ZRF4I5RTKN7G","pain","7","","76","L","3","","0","0","1","","0.3451339369","false","250","","0.2748463286","main_expt","","0.2423579198","","0.4418367533","","0.3451339369","","","","","",""
"5397","","bandit","326","948157","0.0-288.0-0.0","70143722","wem/bandit_single","A2ZRF4I5RTKN7G","pain","7","","76","L","3","","0","0","1","","0.3928119302","false","251","","0.2623633266","main_expt","","0.2275025436","","0.4227475224","","0.3928119302","","","","","",""
"106","","bandit","327","950097","0.0-289.0-0.0","70143722","wem/bandit_single","A2ZRF4I5RTKN7G","pain","7","","72","H","0","img/none_selected.jpg","0","1","0","","0.3173920108","false","252","","0.3173920108","main_expt","","0.2868871138","","0.423648384","","0.3926241496","","","","","",""
"65","","bandit","328","951991","0.0-290.0-0.0","70143722","wem/bandit_single","A2ZRF4I5RTKN7G","pain","7","","72","H","0","img/none_selected.jpg","0","0","1","","0.3172059241","false","253","","0.3172059241","main_expt","","0.2719675916","","0.4321428437","","0.4074069762","","","","","",""
"872","","bandit","329","954691","0.0-291.0-0.0","70143722","wem/bandit_single","A2ZRF4I5RTKN7G","pain","7","","74","J","1","","0","0","1","","0.3118638267","false","254","","0.3200237469","main_expt","","0.3118638267","","0.4621147124","","0.3831412703","","","","","",""
"54","","bandit","330","956582","0.0-292.0-0.0","70143722","wem/bandit_single","A2ZRF4I5RTKN7G","pain","7","","75","K","2","","0","0","1","","0.4586218194","false","255","","0.3358809316","main_expt","","0.2103897122","","0.4586218194","","0.3639457665","","","","","",""
"2000","","bandit","331","960540","0.0-293.0-0.0","70143722","wem/bandit_single","A2ZRF4I5RTKN7G","pain","7","","72","H","0","img/none_selected.jpg","0","0","1","","0.3288682213","false","256","","0.3288682213","main_expt","","0.2053105091","","0.4661438042","","0.3353936822","","","","","",""
"539","","bandit","332","962900","0.0-294.0-0.0","70143722","wem/bandit_single","A2ZRF4I5RTKN7G","pain","7","","74","J","1","","0","0","1","","0.2101260802","false","257","","0.3298558235","main_expt","","0.2101260802","","0.4746145216","","0.3457786028","","","","","",""
"710","","bandit","333","965394","0.0-295.0-0.0","70143722","wem/bandit_single","A2ZRF4I5RTKN7G","pain","7","","76","L","3","","0","0","1","","0.3336199161","false","258","","0.3544886593","main_expt","","0.251470712","","0.479590246","","0.3336199161","","","","","",""
"661","","bandit","334","967904","0.0-296.0-0.0","70143722","wem/bandit_single","A2ZRF4I5RTKN7G","pain","7","","75","K","2","","0","1","0","","0.4543592645","false","259","","0.3380036538","main_expt","","0.2320991284","","0.4543592645","","0.3182937175","","","","","",""
"39","","bandit","335","969767","0.0-297.0-0.0","70143722","wem/bandit_single","A2ZRF4I5RTKN7G","pain","7","","75","K","2","","0","0","1","","0.4591910344","false","260","","0.2797544445","main_expt","","0.2850429488","","0.4591910344","","0.3004718715","","","","","",""
"686","","bandit","336","972293","0.0-298.0-0.0","70143722","wem/bandit_single","A2ZRF4I5RTKN7G","pain","7","","74","J","1","","0","0","1","","0.3396488321","false","261","","0.2594239605","main_expt","","0.3396488321","","0.4416244086","","0.2969538951","","","","","",""
"80","","bandit","337","974198","0.0-299.0-0.0","70143722","wem/bandit_single","A2ZRF4I5RTKN7G","pain","7","","72","H","0","img/none_selected.jpg","0","0","1","","0.2804023839","false","262","","0.2804023839","main_expt","","0.243241633","","0.410126596","","0.336502974","","","","","",""
"244","","bandit","338","976304","0.0-300.0-0.0","70143722","wem/bandit_single","A2ZRF4I5RTKN7G","pain","7","","72","H","0","img/none_selected.jpg","0","1","0","","0.2526654216","false","263","","0.2526654216","main_expt","","0.221101122","","0.3852167719","","0.3417757729","","","","","",""
"127","","bandit","339","978241","0.0-301.0-0.0","70143722","wem/bandit_single","A2ZRF4I5RTKN7G","pain","7","","72","H","0","img/none_selected.jpg","0","0","1","","0.2262009497","false","264","","0.2262009497","main_expt","","0.2475963948","","0.4048243192","","0.3288238543","","","","","",""
"251","","bandit","340","980508","0.0-302.0-0.0","70143722","wem/bandit_single","A2ZRF4I5RTKN7G","pain","7","","72","H","0","img/none_selected.jpg","0","0","1","","0.2111455706","false","265","","0.2111455706","main_expt","","0.2472156829","","0.3671025299","","0.2661945806","","","","","",""
"10773","","bandit","341","993102","0.0-303.0-0.0","70143722","wem/bandit_single","A2ZRF4I5RTKN7G","pain","7","","76","L","3","","0","1","0","","0.2831053071","false","266","","0.1816972253","main_expt","","0.2257792125","","0.366792141","","0.2831053071","","","","","",""
"257","","bandit","342","995216","0.0-304.0-0.0","70143722","wem/bandit_single","A2ZRF4I5RTKN7G","pain","7","","76","L","3","","0","0","1","","0.2814616526","false","267","","0.08996407949","main_expt","","0.2434052149","","0.3187551676","","0.2814616526","","","","","",""
"614","","bandit","343","997671","0.0-305.0-0.0","70143722","wem/bandit_single","A2ZRF4I5RTKN7G","pain","7","","76","L","3","","0","0","1","","0.2698532634","false","268","","0.08316088703","main_expt","","0.2472891614","","0.2992927481","","0.2698532634","","","","","",""
"330","","bandit","344","999856","0.0-306.0-0.0","70143722","wem/bandit_single","A2ZRF4I5RTKN7G","pain","7","","76","L","3","","0","0","1","","0.332936287","false","269","","0.132755096","main_expt","","0.2592343403","","0.3158706852","","0.332936287","","","","","",""
"115","","bandit","345","1001830","0.0-307.0-0.0","70143722","wem/bandit_single","A2ZRF4I5RTKN7G","pain","7","","75","K","2","","0","0","1","","0.3399881701","false","270","","0.1295257529","main_expt","","0.2626766442","","0.3399881701","","0.3520051328","","","","","",""
"40","","bandit","346","1003714","0.0-308.0-0.0","70143722","wem/bandit_single","A2ZRF4I5RTKN7G","pain","7","","75","K","2","","0","0","1","","0.3425846673","false","271","","0.1243547369","main_expt","","0.2889536683","","0.3425846673","","0.319936882","","","","","",""
"263","","bandit","347","1005816","0.0-309.0-0.0","70143722","wem/bandit_single","A2ZRF4I5RTKN7G","pain","7","","74","J","1","","0","1","0","","0.3519527746","false","272","","0.1129401117","main_expt","","0.3519527746","","0.3661992365","","0.3526338178","","","","","",""
"85","","bandit","348","1007714","0.0-310.0-0.0","70143722","wem/bandit_single","A2ZRF4I5RTKN7G","pain","7","","74","J","1","","0","1","0","","0.3142239271","false","273","","0.07602588951","main_expt","","0.3142239271","","0.3548292996","","0.3661190652","","","","","",""
"216","","bandit","349","1009776","0.0-311.0-0.0","70143722","wem/bandit_single","A2ZRF4I5RTKN7G","pain","7","","74","J","1","","0","0","1","","0.2858465014","false","274","","0.08326080211","main_expt","","0.2858465014","","0.3015993901","","0.3531355024","","","","","",""
"54","","bandit","350","1011662","0.0-312.0-0.0","70143722","wem/bandit_single","A2ZRF4I5RTKN7G","pain","7","","74","J","1","","0","1","0","","0.2833142968","false","275","","0.1117875064","main_expt","","0.2833142968","","0.3074537736","","0.3710682781","","","","","",""
"204","","bandit","351","1013708","0.0-313.0-0.0","70143722","wem/bandit_single","A2ZRF4I5RTKN7G","pain","7","","74","J","1","","0","0","1","","0.303505508","false","276","","0.1087564456","main_expt","","0.303505508","","0.2995557441","","0.3039620657","","","","","",""
"154","","bandit","352","1015692","0.0-314.0-0.0","70143722","wem/bandit_single","A2ZRF4I5RTKN7G","pain","7","","74","J","1","","0","0","1","","0.2503405658","false","277","","0.1402577261","main_expt","","0.2503405658","","0.3372524479","","0.3661174243","","","","","",""
"27","","bandit","353","1017574","0.0-315.0-0.0","70143722","wem/bandit_single","A2ZRF4I5RTKN7G","pain","7","","72","H","0","img/none_selected.jpg","0","0","1","","0.1639331241","false","278","","0.1639331241","main_expt","","0.2575241406","","0.3941332117","","0.3603903852","","","","","",""
"156","","bandit","354","1019614","0.0-316.0-0.0","70143722","wem/bandit_single","A2ZRF4I5RTKN7G","pain","7","","72","H","0","img/none_selected.jpg","0","0","1","","0.08855821706","false","279","","0.08855821706","main_expt","","0.2537993043","","0.369807449","","0.3865241344","","","","","",""
"81","","bandit","355","1021722","0.0-317.0-0.0","70143722","wem/bandit_single","A2ZRF4I5RTKN7G","pain","7","","72","H","0","img/none_selected.jpg","0","0","1","","0.1116659285","false","280","","0.1116659285","main_expt","","0.1734094061","","0.3726167961","","0.3941828848","","","","","",""
"191","","bandit","356","1023690","0.0-318.0-0.0","70143722","wem/bandit_single","A2ZRF4I5RTKN7G","pain","7","","75","K","2","","0","1","0","","0.3849966858","false","281","","0.1032088387","main_expt","","0.1846732939","","0.3849966858","","0.4060440919","","","","","",""
"151","","bandit","357","1025646","0.0-319.0-0.0","70143722","wem/bandit_single","A2ZRF4I5RTKN7G","pain","7","","75","K","2","","0","0","1","","0.4081920515","false","282","","0.1449157137","main_expt","","0.1808782366","","0.4081920515","","0.3855255831","","","","","",""
"479","","bandit","358","1027965","0.0-320.0-0.0","70143722","wem/bandit_single","A2ZRF4I5RTKN7G","pain","7","","75","K","2","","0","0","1","","0.3930572229","false","283","","0.1649674285","main_expt","","0.1375342675","","0.3930572229","","0.3694157076","","","","","",""
"378","","bandit","359","1030171","0.0-321.0-0.0","70143722","wem/bandit_single","A2ZRF4I5RTKN7G","pain","7","","75","K","2","","0","0","1","","0.379410926","false","284","","0.1373277791","main_expt","","0.1029306966","","0.379410926","","0.4137550783","","","","","",""
"608","","bandit","360","1032614","0.0-322.0-0.0","70143722","wem/bandit_single","A2ZRF4I5RTKN7G","pain","7","","74","J","1","","0","0","1","","0.08821361919","false","285","","0.1616488504","main_expt","","0.08821361919","","0.3947179778","","0.4268254387","","","","","",""
"1000","","bandit","361","1035392","0.0-323.0-0.0","70143722","wem/bandit_single","A2ZRF4I5RTKN7G","pain","7","","74","J","1","","0","0","1","","0.08321279743","false","286","","0.1306737704","main_expt","","0.08321279743","","0.4036344472","","0.4115685589","","","","","",""
"136","","bandit","362","1037365","0.0-324.0-0.0","70143722","wem/bandit_single","A2ZRF4I5RTKN7G","pain","7","","76","L","3","","0","0","1","","0.3828423493","false","287","","0.2059275786","main_expt","","0.0595967864","","0.4025981517","","0.3828423493","","","","","",""
"202","","bandit","363","1039394","0.0-325.0-0.0","70143722","wem/bandit_single","A2ZRF4I5RTKN7G","pain","7","","76","L","3","","0","1","0","","0.4121581376","false","288","","0.1892738114","main_expt","","0.06539189492","","0.4183513528","","0.4121581376","","","","","",""
"34","","bandit","364","1041278","0.0-326.0-0.0","70143722","wem/bandit_single","A2ZRF4I5RTKN7G","pain","7","","76","L","3","","0","0","1","","0.4227758831","false","289","","0.1656659279","main_expt","","0.06484578344","","0.4516793017","","0.4227758831","","","","","",""
"3404","","bandit","365","1046507","0.0-327.0-0.0","70143722","wem/bandit_single","A2ZRF4I5RTKN7G","pain","7","","76","L","3","","0","0","1","","0.4149367164","false","290","","0.1814252587","main_expt","","0.06626982825","","0.4112115972","","0.4149367164","","","","","",""
"618","","bandit","366","1048954","0.0-328.0-0.0","70143722","wem/bandit_single","A2ZRF4I5RTKN7G","pain","7","","75","K","2","","0","1","0","","0.4372982331","false","291","","0.2385479929","main_expt","","0.1096348163","","0.4372982331","","0.399757838","","","","","",""
"186","","bandit","367","1050986","0.0-329.0-0.0","70143722","wem/bandit_single","A2ZRF4I5RTKN7G","pain","7","","75","K","2","","0","1","0","","0.4238416902","false","292","","0.2322046479","main_expt","","0.1604398542","","0.4238416902","","0.3846886596","","","","","",""
"813","","bandit","368","1053686","0.0-330.0-0.0","70143722","wem/bandit_single","A2ZRF4I5RTKN7G","pain","7","","75","K","2","","0","0","1","","0.4034354509","false","293","","0.223393304","main_expt","","0.1714651471","","0.4034354509","","0.3364000065","","","","","",""
"89","","bandit","369","1055644","0.0-331.0-0.0","70143722","wem/bandit_single","A2ZRF4I5RTKN7G","pain","7","","74","J","1","","0","0","1","","0.1378543876","false","294","","0.2290093083","main_expt","","0.1378543876","","0.4093667064","","0.3545739736","","","","","",""
"127","","bandit","370","1057660","0.0-332.0-0.0","70143722","wem/bandit_single","A2ZRF4I5RTKN7G","pain","7","","72","H","0","img/none_selected.jpg","0","1","0","","0.2875464899","false","295","","0.2875464899","main_expt","","0.1243446737","","0.4294791191","","0.2891777922","","","","","",""
"184","","bandit","371","1059626","0.0-333.0-0.0","70143722","wem/bandit_single","A2ZRF4I5RTKN7G","pain","7","","72","H","0","img/none_selected.jpg","0","1","0","","0.2880416719","false","296","","0.2880416719","main_expt","","0.1831574145","","0.4289259587","","0.2084544567","","","","","",""
"248","","bandit","372","1061703","0.0-334.0-0.0","70143722","wem/bandit_single","A2ZRF4I5RTKN7G","pain","7","","72","H","0","img/none_selected.jpg","0","0","1","","0.2144640116","false","297","","0.2144640116","main_expt","","0.1645554297","","0.4073385017","","0.2481546198","","","","","",""
