"rt","responses","trial_type","trial_index","time_elapsed","internal_node_id","subjID","study","MID","cond","drift","key_press","respCharCode","respKey","respChoiceNum","respChoice","gems","bombs","no_reward","GemPrChosen","BombPrChosen","practice","trial_counter","WinPr_0","LosePr_0","trial_label","WinPr_1","LosePr_1","WinPr_2","LosePr_2","WinPr_3","LosePr_3","Q0","Q1","Q2","gender","age","ethnicity"
"12767","{""Q0"":""A7KLTVEIASF4J""}","survey-text","0","12772","0.0-0.0","71391529","wem/bandit_single","A7KLTVEIASF4J","gain","8","","","","","","","","","","","","","","","","","","","","","","","","","","",""
"2661","","text","1","16439","0.0-1.0","71391529","wem/bandit_single","A7KLTVEIASF4J","gain","8","32","","","","","","","","","","","","","","","","","","","","","","","","","",""
"26942","","text","2","43383","0.0-2.0","71391529","wem/bandit_single","A7KLTVEIASF4J","gain","8","32","","","","","","","","","","","","","","","","","","","","","","","","","",""
"911","","text","3","44295","0.0-3.0","71391529","wem/bandit_single","A7KLTVEIASF4J","gain","8","32","","","","","","","","","","","","","","","","","","","","","","","","","",""
"287","","text","4","44582","0.0-4.0","71391529","wem/bandit_single","A7KLTVEIASF4J","gain","8","32","","","","","","","","","","","","","","","","","","","","","","","","","",""
"207","","text","5","44791","0.0-5.0","71391529","wem/bandit_single","A7KLTVEIASF4J","gain","8","32","","","","","","","","","","","","","","","","","","","","","","","","","",""
"495","","text","6","45286","0.0-6.0","71391529","wem/bandit_single","A7KLTVEIASF4J","gain","8","32","","","","","","","","","","","","","","","","","","","","","","","","","",""
"199","","text","7","45486","0.0-7.0","71391529","wem/bandit_single","A7KLTVEIASF4J","gain","8","32","","","","","","","","","","","","","","","","","","","","","","","","","",""
"263","","text","8","45751","0.0-8.0","71391529","wem/bandit_single","A7KLTVEIASF4J","gain","8","32","","","","","","","","","","","","","","","","","","","","","","","","","",""
"206","","text","9","45959","0.0-9.0","71391529","wem/bandit_single","A7KLTVEIASF4J","gain","8","32","","","","","","","","","","","","","","","","","","","","","","","","","",""
"295","","text","10","46254","0.0-10.0","71391529","wem/bandit_single","A7KLTVEIASF4J","gain","8","32","","","","","","","","","","","","","","","","","","","","","","","","","",""
"1303","","text","11","47558","0.0-11.0","71391529","wem/bandit_single","A7KLTVEIASF4J","gain","8","32","","","","","","","","","","","","","","","","","","","","","","","","","",""
"2254","","bandit","12","51316","0.0-12.0-0.0","71391529","wem/bandit_single","A7KLTVEIASF4J","gain","8","","74","J","0","img/none_selected_demo.jpg","0","0","1","0","0","true","0","0","0","","","","","","","","","","","","",""
"502","","bandit","13","53572","0.0-13.0-0.0","71391529","wem/bandit_single","A7KLTVEIASF4J","gain","8","","75","K","0","img/none_selected_demo.jpg","0","0","1","0","0","true","0","0","0","","","","","","","","","","","","",""
"695","","text","14","54518","0.0-14.0","71391529","wem/bandit_single","A7KLTVEIASF4J","gain","8","32","","","","","","","","","","","","","","","","","","","","","","","","","",""
"639","","text","15","55158","0.0-15.0","71391529","wem/bandit_single","A7KLTVEIASF4J","gain","8","32","","","","","","","","","","","","","","","","","","","","","","","","","",""
"447","","text","16","55607","0.0-16.0","71391529","wem/bandit_single","A7KLTVEIASF4J","gain","8","32","","","","","","","","","","","","","","","","","","","","","","","","","",""
"392","","text","17","55999","0.0-17.0","71391529","wem/bandit_single","A7KLTVEIASF4J","gain","8","32","","","","","","","","","","","","","","","","","","","","","","","","","",""
"614","","bandit","18","58116","0.0-18.0-0.0","71391529","wem/bandit_single","A7KLTVEIASF4J","gain","8","","74","J","0","img/none_selected_demo.jpg","1","0","0","0.8","0","true","0","0.8","0","80_20_practice","0.2","0","","","","","","","","","",""
"167","","bandit","19","60037","0.0-18.0-1.0","71391529","wem/bandit_single","A7KLTVEIASF4J","gain","8","","74","J","0","img/none_selected_demo.jpg","0","0","1","0.8","0","true","0","0.8","0","80_20_practice","0.2","0","","","","","","","","","",""
"93","","bandit","20","61885","0.0-18.0-2.0","71391529","wem/bandit_single","A7KLTVEIASF4J","gain","8","","75","K","1","","1","0","0","0.2","0","true","0","0.8","0","80_20_practice","0.2","0","","","","","","","","","",""
"182","","bandit","21","63824","0.0-18.0-3.0","71391529","wem/bandit_single","A7KLTVEIASF4J","gain","8","","74","J","0","img/none_selected_demo.jpg","1","0","0","0.8","0","true","0","0.8","0","80_20_practice","0.2","0","","","","","","","","","",""
"274","","bandit","22","65852","0.0-18.0-4.0","71391529","wem/bandit_single","A7KLTVEIASF4J","gain","8","","75","K","1","","0","0","1","0.2","0","true","0","0.8","0","80_20_practice","0.2","0","","","","","","","","","",""
"694","","bandit","23","68302","0.0-18.0-5.0","71391529","wem/bandit_single","A7KLTVEIASF4J","gain","8","","75","K","1","","0","0","1","0.2","0","true","0","0.8","0","80_20_practice","0.2","0","","","","","","","","","",""
"620","","bandit","24","70678","0.0-18.0-6.0","71391529","wem/bandit_single","A7KLTVEIASF4J","gain","8","","75","K","1","","0","0","1","0.2","0","true","0","0.8","0","80_20_practice","0.2","0","","","","","","","","","",""
"347","","bandit","25","72780","0.0-18.0-7.0","71391529","wem/bandit_single","A7KLTVEIASF4J","gain","8","","74","J","0","img/none_selected_demo.jpg","1","0","0","0.8","0","true","0","0.8","0","80_20_practice","0.2","0","","","","","","","","","",""
"5726","","bandit","26","80263","0.0-18.0-8.0","71391529","wem/bandit_single","A7KLTVEIASF4J","gain","8","","74","J","0","img/none_selected_demo.jpg","1","0","0","0.8","0","true","0","0.8","0","80_20_practice","0.2","0","","","","","","","","","",""
"956","","bandit","27","82972","0.0-18.0-9.0","71391529","wem/bandit_single","A7KLTVEIASF4J","gain","8","","74","J","0","img/none_selected_demo.jpg","1","0","0","0.8","0","true","0","0.8","0","80_20_practice","0.2","0","","","","","","","","","",""
"604","","bandit","28","85334","0.0-18.0-10.0","71391529","wem/bandit_single","A7KLTVEIASF4J","gain","8","","74","J","0","img/none_selected_demo.jpg","1","0","0","0.8","0","true","0","0.8","0","80_20_practice","0.2","0","","","","","","","","","",""
"133","","bandit","29","87221","0.0-18.0-11.0","71391529","wem/bandit_single","A7KLTVEIASF4J","gain","8","","75","K","1","","1","0","0","0.2","0","true","0","0.8","0","80_20_practice","0.2","0","","","","","","","","","",""
"45","","bandit","30","89021","0.0-18.0-12.0","71391529","wem/bandit_single","A7KLTVEIASF4J","gain","8","","74","J","0","img/none_selected_demo.jpg","0","0","1","0.8","0","true","0","0.8","0","80_20_practice","0.2","0","","","","","","","","","",""
"44","","bandit","31","90820","0.0-18.0-13.0","71391529","wem/bandit_single","A7KLTVEIASF4J","gain","8","","74","J","0","img/none_selected_demo.jpg","0","0","1","0.8","0","true","0","0.8","0","80_20_practice","0.2","0","","","","","","","","","",""
"6","","bandit","32","92581","0.0-18.0-14.0","71391529","wem/bandit_single","A7KLTVEIASF4J","gain","8","","74","J","0","img/none_selected_demo.jpg","1","0","0","0.8","0","true","0","0.8","0","80_20_practice","0.2","0","","","","","","","","","",""
"166","","bandit","33","94500","0.0-18.0-15.0","71391529","wem/bandit_single","A7KLTVEIASF4J","gain","8","","74","J","0","img/none_selected_demo.jpg","1","0","0","0.8","0","true","0","0.8","0","80_20_practice","0.2","0","","","","","","","","","",""
"29","","bandit","34","96285","0.0-18.0-16.0","71391529","wem/bandit_single","A7KLTVEIASF4J","gain","8","","75","K","1","","0","0","1","0.2","0","true","0","0.8","0","80_20_practice","0.2","0","","","","","","","","","",""
"62","","bandit","35","98101","0.0-18.0-17.0","71391529","wem/bandit_single","A7KLTVEIASF4J","gain","8","","75","K","1","","1","0","0","0.2","0","true","0","0.8","0","80_20_practice","0.2","0","","","","","","","","","",""
"22","","bandit","36","99877","0.0-18.0-18.0","71391529","wem/bandit_single","A7KLTVEIASF4J","gain","8","","75","K","1","","0","0","1","0.2","0","true","0","0.8","0","80_20_practice","0.2","0","","","","","","","","","",""
"173","","bandit","37","101804","0.0-18.0-19.0","71391529","wem/bandit_single","A7KLTVEIASF4J","gain","8","","75","K","1","","0","0","1","0.2","0","true","0","0.8","0","80_20_practice","0.2","0","","","","","","","","","",""
"894","","text","38","102950","0.0-19.0","71391529","wem/bandit_single","A7KLTVEIASF4J","gain","8","32","","","","","","","","","","","","","","","","","","","","","","","","","",""
"503","","bandit","39","104956","0.0-20.0-0.0","71391529","wem/bandit_single","A7KLTVEIASF4J","gain","8","","74","J","0","img/none_selected_demo.jpg","0","0","1","0","0","true","0","0","0","","0","0","","","","","","","","","",""
"120","","text","40","105327","0.0-21.0","71391529","wem/bandit_single","A7KLTVEIASF4J","gain","8","32","","","","","","","","","","","","","","","","","","","","","","","","","",""
"1110","","text","41","106438","0.0-22.0","71391529","wem/bandit_single","A7KLTVEIASF4J","gain","8","32","","","","","","","","","","","","","","","","","","","","","","","","","",""
"343","","text","42","106782","0.0-23.0","71391529","wem/bandit_single","A7KLTVEIASF4J","gain","8","32","","","","","","","","","","","","","","","","","","","","","","","","","",""
"335","","text","43","107119","0.0-24.0","71391529","wem/bandit_single","A7KLTVEIASF4J","gain","8","32","","","","","","","","","","","","","","","","","","","","","","","","","",""
"390","","text","44","107511","0.0-25.0","71391529","wem/bandit_single","A7KLTVEIASF4J","gain","8","32","","","","","","","","","","","","","","","","","","","","","","","","","",""
"287","","text","45","107798","0.0-26.0","71391529","wem/bandit_single","A7KLTVEIASF4J","gain","8","32","","","","","","","","","","","","","","","","","","","","","","","","","",""
"247","","text","46","108047","0.0-27.0","71391529","wem/bandit_single","A7KLTVEIASF4J","gain","8","32","","","","","","","","","","","","","","","","","","","","","","","","","",""
"175","","text","47","108222","0.0-28.0","71391529","wem/bandit_single","A7KLTVEIASF4J","gain","8","32","","","","","","","","","","","","","","","","","","","","","","","","","",""
"191","","text","48","108414","0.0-29.0","71391529","wem/bandit_single","A7KLTVEIASF4J","gain","8","32","","","","","","","","","","","","","","","","","","","","","","","","","",""
"183","","text","49","108598","0.0-30.0","71391529","wem/bandit_single","A7KLTVEIASF4J","gain","8","32","","","","","","","","","","","","","","","","","","","","","","","","","",""
"215","","text","50","108814","0.0-31.0","71391529","wem/bandit_single","A7KLTVEIASF4J","gain","8","32","","","","","","","","","","","","","","","","","","","","","","","","","",""
"1039","","bandit","51","111357","0.0-32.0-0.0","71391529","wem/bandit_single","A7KLTVEIASF4J","gain","8","","72","H","0","img/none_selected.jpg","1","0","0","0.8","0","true","0","0.8","0","full_practice","0.2","0","0.6","0","0.2","0","","","","","",""
"785","","bandit","52","113901","0.0-32.0-1.0","71391529","wem/bandit_single","A7KLTVEIASF4J","gain","8","","74","J","1","","0","0","1","0.2","0","true","0","0.8","0","full_practice","0.2","0","0.6","0","0.2","0","","","","","",""
"197","","bandit","53","115853","0.0-32.0-2.0","71391529","wem/bandit_single","A7KLTVEIASF4J","gain","8","","76","L","3","","1","0","0","0.2","0","true","0","0.8","0","full_practice","0.2","0","0.6","0","0.2","0","","","","","",""
"317","","bandit","54","117926","0.0-32.0-3.0","71391529","wem/bandit_single","A7KLTVEIASF4J","gain","8","","75","K","2","","0","0","1","0.6","0","true","0","0.8","0","full_practice","0.2","0","0.6","0","0.2","0","","","","","",""
"540","","bandit","55","120220","0.0-32.0-4.0","71391529","wem/bandit_single","A7KLTVEIASF4J","gain","8","","74","J","1","","0","0","1","0.2","0","true","0","0.8","0","full_practice","0.2","0","0.6","0","0.2","0","","","","","",""
"71","","bandit","56","122044","0.0-32.0-5.0","71391529","wem/bandit_single","A7KLTVEIASF4J","gain","8","","76","L","3","","1","0","0","0.2","0","true","0","0.8","0","full_practice","0.2","0","0.6","0","0.2","0","","","","","",""
"87","","bandit","57","123885","0.0-32.0-6.0","71391529","wem/bandit_single","A7KLTVEIASF4J","gain","8","","76","L","3","","0","0","1","0.2","0","true","0","0.8","0","full_practice","0.2","0","0.6","0","0.2","0","","","","","",""
"6","","bandit","58","125644","0.0-32.0-7.0","71391529","wem/bandit_single","A7KLTVEIASF4J","gain","8","","76","L","3","","1","0","0","0.2","0","true","0","0.8","0","full_practice","0.2","0","0.6","0","0.2","0","","","","","",""
"1319","","bandit","59","128718","0.0-32.0-8.0","71391529","wem/bandit_single","A7KLTVEIASF4J","gain","8","","76","L","3","","0","0","1","0.2","0","true","0","0.8","0","full_practice","0.2","0","0.6","0","0.2","0","","","","","",""
"773","","bandit","60","131245","0.0-32.0-9.0","71391529","wem/bandit_single","A7KLTVEIASF4J","gain","8","","76","L","3","","0","0","1","0.2","0","true","0","0.8","0","full_practice","0.2","0","0.6","0","0.2","0","","","","","",""
"262","","bandit","61","133261","0.0-32.0-10.0","71391529","wem/bandit_single","A7KLTVEIASF4J","gain","8","","76","L","3","","0","0","1","0.2","0","true","0","0.8","0","full_practice","0.2","0","0.6","0","0.2","0","","","","","",""
"1110","","bandit","62","136125","0.0-32.0-11.0","71391529","wem/bandit_single","A7KLTVEIASF4J","gain","8","","76","L","3","","1","0","0","0.2","0","true","0","0.8","0","full_practice","0.2","0","0.6","0","0.2","0","","","","","",""
"70","","bandit","63","137950","0.0-32.0-12.0","71391529","wem/bandit_single","A7KLTVEIASF4J","gain","8","","76","L","3","","1","0","0","0.2","0","true","0","0.8","0","full_practice","0.2","0","0.6","0","0.2","0","","","","","",""
"1204","","bandit","64","140920","0.0-32.0-13.0","71391529","wem/bandit_single","A7KLTVEIASF4J","gain","8","","76","L","3","","0","0","1","0.2","0","true","0","0.8","0","full_practice","0.2","0","0.6","0","0.2","0","","","","","",""
"883","","bandit","65","143558","0.0-32.0-14.0","71391529","wem/bandit_single","A7KLTVEIASF4J","gain","8","","76","L","3","","0","0","1","0.2","0","true","0","0.8","0","full_practice","0.2","0","0.6","0","0.2","0","","","","","",""
"1029","","bandit","66","146341","0.0-32.0-15.0","71391529","wem/bandit_single","A7KLTVEIASF4J","gain","8","","76","L","3","","0","0","1","0.2","0","true","0","0.8","0","full_practice","0.2","0","0.6","0","0.2","0","","","","","",""
"878","","bandit","67","148974","0.0-32.0-16.0","71391529","wem/bandit_single","A7KLTVEIASF4J","gain","8","","76","L","3","","1","0","0","0.2","0","true","0","0.8","0","full_practice","0.2","0","0.6","0","0.2","0","","","","","",""
"286","","bandit","68","151017","0.0-32.0-17.0","71391529","wem/bandit_single","A7KLTVEIASF4J","gain","8","","76","L","3","","0","0","1","0.2","0","true","0","0.8","0","full_practice","0.2","0","0.6","0","0.2","0","","","","","",""
"51","","bandit","69","152822","0.0-32.0-18.0","71391529","wem/bandit_single","A7KLTVEIASF4J","gain","8","","76","L","3","","0","0","1","0.2","0","true","0","0.8","0","full_practice","0.2","0","0.6","0","0.2","0","","","","","",""
"357","","bandit","70","154934","0.0-32.0-19.0","71391529","wem/bandit_single","A7KLTVEIASF4J","gain","8","","76","L","3","","0","0","1","0.2","0","true","0","0.8","0","full_practice","0.2","0","0.6","0","0.2","0","","","","","",""
"2268","","text","71","157455","0.0-33.0","71391529","wem/bandit_single","A7KLTVEIASF4J","gain","8","32","","","","","","","","","","","","","","","","","","","","","","","","","",""
"1270","","text","72","159728","0.0-34.0","71391529","wem/bandit_single","A7KLTVEIASF4J","gain","8","32","","","","","","","","","","","","","","","","","","","","","","","","","",""
"439","","text","73","160167","0.0-35.0","71391529","wem/bandit_single","A7KLTVEIASF4J","gain","8","32","","","","","","","","","","","","","","","","","","","","","","","","","",""
"375","","text","74","160544","0.0-36.0","71391529","wem/bandit_single","A7KLTVEIASF4J","gain","8","32","","","","","","","","","","","","","","","","","","","","","","","","","",""
"710","","text","75","161255","0.0-37.0","71391529","wem/bandit_single","A7KLTVEIASF4J","gain","8","32","","","","","","","","","","","","","","","","","","","","","","","","","",""
"782","","bandit","76","163541","0.0-38.0-0.0","71391529","wem/bandit_single","A7KLTVEIASF4J","gain","8","","72","H","0","img/none_selected.jpg","1","0","0","0.461186604","","false","1","0.461186604","","main_expt","0.2895646149","","0.4519399214","","0.2726752288","","","","","","",""
"10","","bandit","77","165309","0.0-39.0-0.0","71391529","wem/bandit_single","A7KLTVEIASF4J","gain","8","","74","J","1","","1","0","0","0.3162770887","","false","2","0.4745384616","","main_expt","0.3162770887","","0.4414774062","","0.2373300031","","","","","","",""
"205","","bandit","78","167268","0.0-40.0-0.0","71391529","wem/bandit_single","A7KLTVEIASF4J","gain","8","","75","K","2","","0","0","1","0.4248782664","","false","3","0.476270309","","main_expt","0.3445892231","","0.4248782664","","0.2268539811","","","","","","",""
"518","","bandit","79","169541","0.0-41.0-0.0","71391529","wem/bandit_single","A7KLTVEIASF4J","gain","8","","74","J","1","","1","0","0","0.318720175","","false","4","0.4750198572","","main_expt","0.318720175","","0.3797460064","","0.2312911009","","","","","","",""
"230","","bandit","80","171526","0.0-42.0-0.0","71391529","wem/bandit_single","A7KLTVEIASF4J","gain","8","","74","J","1","","1","0","0","0.2768356494","","false","5","0.4711191004","","main_expt","0.2768356494","","0.3747955817","","0.1875260819","","","","","","",""
"454","","bandit","81","173734","0.0-43.0-0.0","71391529","wem/bandit_single","A7KLTVEIASF4J","gain","8","","74","J","1","","0","0","1","0.2660169375","","false","6","0.4561500297","","main_expt","0.2660169375","","0.3434652127","","0.190272436","","","","","","",""
"7125","","bandit","82","182613","0.0-44.0-0.0","71391529","wem/bandit_single","A7KLTVEIASF4J","gain","8","","75","K","2","","1","0","0","0.3450192323","","false","7","0.4549462182","","main_expt","0.3364590491","","0.3450192323","","0.1912500229","","","","","","",""
"150","","bandit","83","184517","0.0-45.0-0.0","71391529","wem/bandit_single","A7KLTVEIASF4J","gain","8","","74","J","1","","0","0","1","0.2814314702","","false","8","0.4738433377","","main_expt","0.2814314702","","0.3319287687","","0.2317086102","","","","","","",""
"110","","bandit","84","186382","0.0-46.0-0.0","71391529","wem/bandit_single","A7KLTVEIASF4J","gain","8","","75","K","2","","0","0","1","0.3592879842","","false","9","0.4719526371","","main_expt","0.172204453","","0.3592879842","","0.2732709622","","","","","","",""
"212","","bandit","85","188349","0.0-47.0-0.0","71391529","wem/bandit_single","A7KLTVEIASF4J","gain","8","","76","L","3","","1","0","0","0.2369361721","","false","10","0.4102917743","","main_expt","0.1714760066","","0.4119036765","","0.2369361721","","","","","","",""
"437","","bandit","86","190542","0.0-48.0-0.0","71391529","wem/bandit_single","A7KLTVEIASF4J","gain","8","","74","J","1","","0","0","1","0.1477319919","","false","11","0.4247485268","","main_expt","0.1477319919","","0.440335537","","0.2428480584","","","","","","",""
"190","","bandit","87","192486","0.0-49.0-0.0","71391529","wem/bandit_single","A7KLTVEIASF4J","gain","8","","76","L","3","","0","0","1","0.3127978045","","false","12","0.3805001106","","main_expt","0.1195530135","","0.4198069009","","0.3127978045","","","","","","",""
"44","","bandit","88","194285","0.0-50.0-0.0","71391529","wem/bandit_single","A7KLTVEIASF4J","gain","8","","76","L","3","","1","0","0","0.3411181312","","false","13","0.3922463094","","main_expt","0.1097065617","","0.4095272681","","0.3411181312","","","","","","",""
"2246","","bandit","89","198285","0.0-51.0-0.0","71391529","wem/bandit_single","A7KLTVEIASF4J","gain","8","","75","K","2","","0","0","1","0.4393311008","","false","14","0.3385893542","","main_expt","0.1146709003","","0.4393311008","","0.3547490374","","","","","","",""
"243","","bandit","90","200285","0.0-52.0-0.0","71391529","wem/bandit_single","A7KLTVEIASF4J","gain","8","","75","K","2","","0","0","1","0.4232641195","","false","15","0.2580729479","","main_expt","0.105598426","","0.4232641195","","0.3447780093","","","","","","",""
"846","","bandit","91","202886","0.0-53.0-0.0","71391529","wem/bandit_single","A7KLTVEIASF4J","gain","8","","75","K","2","","1","0","0","0.408879381","","false","16","0.3126944558","","main_expt","0.1085338479","","0.408879381","","0.3451486401","","","","","","",""
"164","","bandit","92","204804","0.0-54.0-0.0","71391529","wem/bandit_single","A7KLTVEIASF4J","gain","8","","75","K","2","","0","0","1","0.376774317","","false","17","0.3693960878","","main_expt","0.1267686316","","0.376774317","","0.3788599072","","","","","","",""
"86","","bandit","93","206644","0.0-55.0-0.0","71391529","wem/bandit_single","A7KLTVEIASF4J","gain","8","","76","L","3","","0","0","1","0.3977159439","","false","18","0.3881723811","","main_expt","0.2161611973","","0.4245824949","","0.3977159439","","","","","","",""
"15","","bandit","94","208413","0.0-56.0-0.0","71391529","wem/bandit_single","A7KLTVEIASF4J","gain","8","","74","J","1","","1","0","0","0.2028493804","","false","19","0.3762380044","","main_expt","0.2028493804","","0.4391895307","","0.3885232362","","","","","","",""
"316","","bandit","95","210487","0.0-57.0-0.0","71391529","wem/bandit_single","A7KLTVEIASF4J","gain","8","","76","L","3","","0","0","1","0.3985462001","","false","20","0.3842023068","","main_expt","0.2258994585","","0.4621127774","","0.3985462001","","","","","","",""
"132","","bandit","96","212373","0.0-58.0-0.0","71391529","wem/bandit_single","A7KLTVEIASF4J","gain","8","","74","J","1","","0","0","1","0.1591174119","","false","21","0.3509270449","","main_expt","0.1591174119","","0.4621164646","","0.349749023","","","","","","",""
"90","","bandit","97","214217","0.0-59.0-0.0","71391529","wem/bandit_single","A7KLTVEIASF4J","gain","8","","75","K","2","","0","0","1","0.4347396303","","false","22","0.3777441782","","main_expt","0.1526874152","","0.4347396303","","0.3437713834","","","","","","",""
"986","","bandit","98","216957","0.0-60.0-0.0","71391529","wem/bandit_single","A7KLTVEIASF4J","gain","8","","74","J","1","","0","0","1","0.1461335862","","false","23","0.3799964268","","main_expt","0.1461335862","","0.43496863","","0.3608333873","","","","","","",""
"59","","bandit","99","218774","0.0-61.0-0.0","71391529","wem/bandit_single","A7KLTVEIASF4J","gain","8","","74","J","1","","0","0","1","0.194032511","","false","24","0.4097073291","","main_expt","0.194032511","","0.43684491","","0.3832767268","","","","","","",""
"5","","bandit","100","220533","0.0-62.0-0.0","71391529","wem/bandit_single","A7KLTVEIASF4J","gain","8","","74","J","1","","0","0","1","0.1913779305","","false","25","0.4196977393","","main_expt","0.1913779305","","0.3785768995","","0.3839685871","","","","","","",""
"54","","bandit","101","222342","0.0-63.0-0.0","71391529","wem/bandit_single","A7KLTVEIASF4J","gain","8","","76","L","3","","0","0","1","0.3871157951","","false","26","0.3798545817","","main_expt","0.2830828826","","0.3754964585","","0.3871157951","","","","","","",""
"430","","bandit","102","224525","0.0-64.0-0.0","71391529","wem/bandit_single","A7KLTVEIASF4J","gain","8","","76","L","3","","0","0","1","0.4093540125","","false","27","0.3531061786","","main_expt","0.3268824087","","0.3964499655","","0.4093540125","","","","","","",""
"318","","bandit","103","226601","0.0-65.0-0.0","71391529","wem/bandit_single","A7KLTVEIASF4J","gain","8","","74","J","1","","0","0","1","0.3092871108","","false","28","0.3327392046","","main_expt","0.3092871108","","0.4243602908","","0.3781829904","","","","","","",""
"121","","bandit","104","228478","0.0-66.0-0.0","71391529","wem/bandit_single","A7KLTVEIASF4J","gain","8","","74","J","1","","1","0","0","0.299803321","","false","29","0.2799969064","","main_expt","0.299803321","","0.4296462108","","0.3633234486","","","","","","",""
"213","","bandit","105","230446","0.0-67.0-0.0","71391529","wem/bandit_single","A7KLTVEIASF4J","gain","8","","74","J","1","","1","0","0","0.3318792252","","false","30","0.225268033","","main_expt","0.3318792252","","0.4442153724","","0.395486831","","","","","","",""
"133","","bandit","106","232332","0.0-68.0-0.0","71391529","wem/bandit_single","A7KLTVEIASF4J","gain","8","","74","J","1","","0","0","1","0.3274080626","","false","31","0.2195205817","","main_expt","0.3274080626","","0.4425075274","","0.353932484","","","","","","",""
"62","","bandit","107","234149","0.0-69.0-0.0","71391529","wem/bandit_single","A7KLTVEIASF4J","gain","8","","72","H","0","img/none_selected.jpg","0","0","1","0.2569702332","","false","32","0.2569702332","","main_expt","0.3233555863","","0.4038806219","","0.3902442546","","","","","","",""
"118","","bandit","108","236028","0.0-70.0-0.0","71391529","wem/bandit_single","A7KLTVEIASF4J","gain","8","","72","H","0","img/none_selected.jpg","0","0","1","0.2914027765","","false","33","0.2914027765","","main_expt","0.3836123675","","0.4283701542","","0.3727342875","","","","","","",""
"194","","bandit","109","237981","0.0-71.0-0.0","71391529","wem/bandit_single","A7KLTVEIASF4J","gain","8","","74","J","1","","0","0","1","0.4200589335","","false","34","0.2667004126","","main_expt","0.4200589335","","0.4332078231","","0.3940120807","","","","","","",""
"5","","bandit","110","239741","0.0-72.0-0.0","71391529","wem/bandit_single","A7KLTVEIASF4J","gain","8","","76","L","3","","0","0","1","0.3682756201","","false","35","0.3112773703","","main_expt","0.4280145355","","0.3861361583","","0.3682756201","","","","","","",""
"109","","bandit","111","241607","0.0-73.0-0.0","71391529","wem/bandit_single","A7KLTVEIASF4J","gain","8","","74","J","1","","1","0","0","0.3696194815","","false","36","0.3158013471","","main_expt","0.3696194815","","0.3176889815","","0.4136743311","","","","","","",""
"2514","","bandit","112","245880","0.0-74.0-0.0","71391529","wem/bandit_single","A7KLTVEIASF4J","gain","8","","74","J","1","","0","0","1","0.3567242832","","false","37","0.3348696363","","main_expt","0.3567242832","","0.3333355096","","0.449594317","","","","","","",""
"178","","bandit","113","247812","0.0-75.0-0.0","71391529","wem/bandit_single","A7KLTVEIASF4J","gain","8","","74","J","1","","0","0","1","0.3139752797","","false","38","0.2967031697","","main_expt","0.3139752797","","0.3613286773","","0.4427192246","","","","","","",""
"6","","bandit","114","249573","0.0-76.0-0.0","71391529","wem/bandit_single","A7KLTVEIASF4J","gain","8","","74","J","1","","1","0","0","0.2884672813","","false","39","0.2816090282","","main_expt","0.2884672813","","0.3354588101","","0.4375360897","","","","","","",""
"134","","bandit","115","251461","0.0-77.0-0.0","71391529","wem/bandit_single","A7KLTVEIASF4J","gain","8","","74","J","1","","1","0","0","0.3253538103","","false","40","0.2900329111","","main_expt","0.3253538103","","0.4044898685","","0.452648821","","","","","","",""
"182","","bandit","116","253397","0.0-78.0-0.0","71391529","wem/bandit_single","A7KLTVEIASF4J","gain","8","","74","J","1","","0","0","1","0.2782289032","","false","41","0.3160732104","","main_expt","0.2782289032","","0.3615903795","","0.4689255384","","","","","","",""
"134","","bandit","117","255286","0.0-79.0-0.0","71391529","wem/bandit_single","A7KLTVEIASF4J","gain","8","","72","H","0","img/none_selected.jpg","0","0","1","0.370849222","","false","42","0.370849222","","main_expt","0.2378060085","","0.3239257876","","0.470096522","","","","","","",""
"13","","bandit","118","257053","0.0-80.0-0.0","71391529","wem/bandit_single","A7KLTVEIASF4J","gain","8","","72","H","0","img/none_selected.jpg","0","0","1","0.385301305","","false","43","0.385301305","","main_expt","0.2250536993","","0.2907144625","","0.4349244256","","","","","","",""
"333","","bandit","119","259142","0.0-81.0-0.0","71391529","wem/bandit_single","A7KLTVEIASF4J","gain","8","","72","H","0","img/none_selected.jpg","0","0","1","0.416838688","","false","44","0.416838688","","main_expt","0.2132249492","","0.2937558929","","0.4316966947","","","","","","",""
"267","","bandit","120","261164","0.0-82.0-0.0","71391529","wem/bandit_single","A7KLTVEIASF4J","gain","8","","75","K","2","","0","0","1","0.3667346614","","false","45","0.3927526088","","main_expt","0.2669052982","","0.3667346614","","0.4526201082","","","","","","",""
"190","","bandit","121","263110","0.0-83.0-0.0","71391529","wem/bandit_single","A7KLTVEIASF4J","gain","8","","75","K","2","","1","0","0","0.4084803937","","false","46","0.3789336214","","main_expt","0.259601005","","0.4084803937","","0.4696962879","","","","","","",""
"92","","bandit","122","264957","0.0-84.0-0.0","71391529","wem/bandit_single","A7KLTVEIASF4J","gain","8","","75","K","2","","0","0","1","0.3956447052","","false","47","0.3994803113","","main_expt","0.2442503122","","0.3956447052","","0.4591824552","","","","","","",""
"709","","bandit","123","267420","0.0-85.0-0.0","71391529","wem/bandit_single","A7KLTVEIASF4J","gain","8","","72","H","0","img/none_selected.jpg","0","0","1","0.3570668153","","false","48","0.3570668153","","main_expt","0.2427668164","","0.3859230678","","0.4548607847","","","","","","",""
"358","","bandit","124","269534","0.0-86.0-0.0","71391529","wem/bandit_single","A7KLTVEIASF4J","gain","8","","75","K","2","","1","0","0","0.394993817","","false","49","0.3500417472","","main_expt","0.218731525","","0.394993817","","0.4625410341","","","","","","",""
"128","","bandit","125","271416","0.0-87.0-0.0","71391529","wem/bandit_single","A7KLTVEIASF4J","gain","8","","75","K","2","","0","0","1","0.4358915385","","false","50","0.3110114061","","main_expt","0.2187604329","","0.4358915385","","0.4620574215","","","","","","",""
"186","","bandit","126","273357","0.0-88.0-0.0","71391529","wem/bandit_single","A7KLTVEIASF4J","gain","8","","72","H","0","img/none_selected.jpg","0","0","1","0.3165374422","","false","51","0.3165374422","","main_expt","0.2764450854","","0.4437026926","","0.4573118055","","","","","","",""
"387","","bandit","127","275500","0.0-89.0-0.0","71391529","wem/bandit_single","A7KLTVEIASF4J","gain","8","","72","H","0","img/none_selected.jpg","1","0","0","0.3212783944","","false","52","0.3212783944","","main_expt","0.2735561336","","0.4357441266","","0.4577170033","","","","","","",""
"239","","bandit","128","277493","0.0-90.0-0.0","71391529","wem/bandit_single","A7KLTVEIASF4J","gain","8","","75","K","2","","0","0","1","0.3926545571","","false","53","0.3079714244","","main_expt","0.2558353256","","0.3926545571","","0.4599667981","","","","","","",""
"5","","bandit","129","279253","0.0-91.0-0.0","71391529","wem/bandit_single","A7KLTVEIASF4J","gain","8","","72","H","0","img/none_selected.jpg","0","0","1","0.3538619638","","false","54","0.3538619638","","main_expt","0.2856473895","","0.3841940555","","0.4598989899","","","","","","",""
"54","","bandit","130","281061","0.0-92.0-0.0","71391529","wem/bandit_single","A7KLTVEIASF4J","gain","8","","72","H","0","img/none_selected.jpg","1","0","0","0.3390258849","","false","55","0.3390258849","","main_expt","0.3110799389","","0.3733442546","","0.4371040197","","","","","","",""
"94","","bandit","131","282908","0.0-93.0-0.0","71391529","wem/bandit_single","A7KLTVEIASF4J","gain","8","","74","J","1","","0","0","1","0.2862995849","","false","56","0.3282580673","","main_expt","0.2862995849","","0.3500738246","","0.3889704242","","","","","","",""
"221","","bandit","132","284885","0.0-94.0-0.0","71391529","wem/bandit_single","A7KLTVEIASF4J","gain","8","","74","J","1","","1","0","0","0.3029349154","","false","57","0.3014999451","","main_expt","0.3029349154","","0.3265916347","","0.4089883961","","","","","","",""
"490","","bandit","133","287132","0.0-95.0-0.0","71391529","wem/bandit_single","A7KLTVEIASF4J","gain","8","","74","J","1","","0","0","1","0.282602966","","false","58","0.2895525025","","main_expt","0.282602966","","0.3203483638","","0.3682078294","","","","","","",""
"338","","bandit","134","289225","0.0-96.0-0.0","71391529","wem/bandit_single","A7KLTVEIASF4J","gain","8","","75","K","2","","0","0","1","0.258324817","","false","59","0.2538740387","","main_expt","0.3271218703","","0.258324817","","0.426053772","","","","","","",""
"366","","bandit","135","291350","0.0-97.0-0.0","71391529","wem/bandit_single","A7KLTVEIASF4J","gain","8","","72","H","0","img/none_selected.jpg","1","0","0","0.2509640494","","false","60","0.2509640494","","main_expt","0.2978757068","","0.2527557167","","0.4175969639","","","","","","",""
"459","","bandit","136","293565","0.0-98.0-0.0","71391529","wem/bandit_single","A7KLTVEIASF4J","gain","8","","72","H","0","img/none_selected.jpg","0","0","1","0.1930295055","","false","61","0.1930295055","","main_expt","0.1922553384","","0.2925705146","","0.4124946444","","","","","","",""
"311","","bandit","137","295633","0.0-99.0-0.0","71391529","wem/bandit_single","A7KLTVEIASF4J","gain","8","","75","K","2","","0","0","1","0.310648962","","false","62","0.1259826115","","main_expt","0.1408400783","","0.310648962","","0.4077217862","","","","","","",""
"80","","bandit","138","297469","0.0-100.0-0.0","71391529","wem/bandit_single","A7KLTVEIASF4J","gain","8","","72","H","0","img/none_selected.jpg","1","0","0","0.1388804293","","false","63","0.1388804293","","main_expt","0.1779610645","","0.3175489896","","0.4258821936","","","","","","",""
"1621","","bandit","139","300846","0.0-101.0-0.0","71391529","wem/bandit_single","A7KLTVEIASF4J","gain","8","","72","H","0","img/none_selected.jpg","0","0","1","0.1412297375","","false","64","0.1412297375","","main_expt","0.1733040919","","0.2756852574","","0.4314195329","","","","","","",""
"25","","bandit","140","302625","0.0-102.0-0.0","71391529","wem/bandit_single","A7KLTVEIASF4J","gain","8","","74","J","1","","0","0","1","0.1669650696","","false","65","0.07856201072","","main_expt","0.1669650696","","0.2798966648","","0.4174082156","","","","","","",""
"568","","bandit","141","304948","0.0-103.0-0.0","71391529","wem/bandit_single","A7KLTVEIASF4J","gain","8","","74","J","1","","0","0","1","0.1439674443","","false","66","0.04493535693","","main_expt","0.1439674443","","0.2440426105","","0.4396479182","","","","","","",""
"149","","bandit","142","306853","0.0-104.0-0.0","71391529","wem/bandit_single","A7KLTVEIASF4J","gain","8","","75","K","2","","0","0","1","0.2630461485","","false","67","0.06268984171","","main_expt","0.1892066175","","0.2630461485","","0.4080198752","","","","","","",""
"453","","bandit","143","309061","0.0-105.0-0.0","71391529","wem/bandit_single","A7KLTVEIASF4J","gain","8","","72","H","0","img/none_selected.jpg","0","0","1","0.0976634122","","false","68","0.0976634122","","main_expt","0.1994174399","","0.2456224984","","0.4137299856","","","","","","",""
"141","","bandit","144","310957","0.0-106.0-0.0","71391529","wem/bandit_single","A7KLTVEIASF4J","gain","8","","74","J","1","","0","0","1","0.1624567358","","false","69","0.1303859095","","main_expt","0.1624567358","","0.328759159","","0.3938947582","","","","","","",""
"317","","bandit","145","313029","0.0-107.0-0.0","71391529","wem/bandit_single","A7KLTVEIASF4J","gain","8","","72","H","0","img/none_selected.jpg","0","0","1","0.09159795462","","false","70","0.09159795462","","main_expt","0.203142037","","0.3063762308","","0.3876621225","","","","","","",""
"4","","bandit","146","314789","0.0-108.0-0.0","71391529","wem/bandit_single","A7KLTVEIASF4J","gain","8","","72","H","0","img/none_selected.jpg","0","0","1","0.07422050438","","false","71","0.07422050438","","main_expt","0.218187973","","0.3509026903","","0.3788053019","","","","","","",""
"69","","bandit","147","316615","0.0-109.0-0.0","71391529","wem/bandit_single","A7KLTVEIASF4J","gain","8","","75","K","2","","0","0","1","0.3695940198","","false","72","0.05420033029","","main_expt","0.2357875668","","0.3695940198","","0.3632611749","","","","","","",""
"91","","bandit","148","318461","0.0-110.0-0.0","71391529","wem/bandit_single","A7KLTVEIASF4J","gain","8","","74","J","1","","0","0","1","0.1951490082","","false","73","0.04794676006","","main_expt","0.1951490082","","0.3532210052","","0.3121818875","","","","","","",""
"37","","bandit","149","320253","0.0-111.0-0.0","71391529","wem/bandit_single","A7KLTVEIASF4J","gain","8","","72","H","0","img/none_selected.jpg","0","0","1","0.03645121522","","false","74","0.03645121522","","main_expt","0.208621177","","0.3780170277","","0.3385624816","","","","","","",""
"197","","bandit","150","322205","0.0-112.0-0.0","71391529","wem/bandit_single","A7KLTVEIASF4J","gain","8","","72","H","0","img/none_selected.jpg","0","0","1","0.04346784694","","false","75","0.04346784694","","main_expt","0.2016482668","","0.3141643986","","0.3393964734","","","","","","",""
"468","","bandit","151","324431","0.0-113.0-0.0","71391529","wem/bandit_single","A7KLTVEIASF4J","gain","8","","75","K","2","","0","0","1","0.3520496016","","false","76","0.05697420644","","main_expt","0.2495615647","","0.3520496016","","0.3489067358","","","","","","",""
"31","","bandit","152","326220","0.0-114.0-0.0","71391529","wem/bandit_single","A7KLTVEIASF4J","gain","8","","72","H","0","img/none_selected.jpg","0","0","1","0.05831686642","","false","77","0.05831686642","","main_expt","0.2225386599","","0.2628688268","","0.3502211764","","","","","","",""
"4933","","bandit","153","332909","0.0-115.0-0.0","71391529","wem/bandit_single","A7KLTVEIASF4J","gain","8","","72","H","0","img/none_selected.jpg","0","0","1","0.0396837938","","false","78","0.0396837938","","main_expt","0.2525784454","","0.2856335909","","0.2979424841","","","","","","",""
"249","","bandit","154","334913","0.0-116.0-0.0","71391529","wem/bandit_single","A7KLTVEIASF4J","gain","8","","74","J","1","","0","0","1","0.2691825077","","false","79","0.03651397352","","main_expt","0.2691825077","","0.3052483479","","0.2779986596","","","","","","",""
"111","","bandit","155","336781","0.0-117.0-0.0","71391529","wem/bandit_single","A7KLTVEIASF4J","gain","8","","75","K","2","","0","0","1","0.2809417262","","false","80","0.0570793957","","main_expt","0.2749696362","","0.2809417262","","0.2681941829","","","","","","",""
"517","","bandit","156","339053","0.0-118.0-0.0","71391529","wem/bandit_single","A7KLTVEIASF4J","gain","8","","75","K","2","","0","0","1","0.2639407754","","false","81","0.05597964966","","main_expt","0.291945729","","0.2639407754","","0.2536714586","","","","","","",""
"269","","bandit","157","341078","0.0-119.0-0.0","71391529","wem/bandit_single","A7KLTVEIASF4J","gain","8","","72","H","0","img/none_selected.jpg","0","0","1","0.0589745046","","false","82","0.0589745046","","main_expt","0.2804178179","","0.3352417475","","0.1904528106","","","","","","",""
"2178","","bandit","158","345015","0.0-120.0-0.0","71391529","wem/bandit_single","A7KLTVEIASF4J","gain","8","","72","H","0","img/none_selected.jpg","1","0","0","0.04461225985","","false","83","0.04461225985","","main_expt","0.2253075454","","0.3246721101","","0.2497062266","","","","","","",""
"11","","bandit","159","346780","0.0-121.0-0.0","71391529","wem/bandit_single","A7KLTVEIASF4J","gain","8","","75","K","2","","1","0","0","0.3082112656","","false","84","0.04600221485","","main_expt","0.2475548924","","0.3082112656","","0.2960017758","","","","","","",""
"198","","bandit","160","348732","0.0-122.0-0.0","71391529","wem/bandit_single","A7KLTVEIASF4J","gain","8","","75","K","2","","0","0","1","0.2733186338","","false","85","0.04782026086","","main_expt","0.2443994903","","0.2733186338","","0.2677312645","","","","","","",""
"13","","bandit","161","350501","0.0-123.0-0.0","71391529","wem/bandit_single","A7KLTVEIASF4J","gain","8","","75","K","2","","0","0","1","0.2595222796","","false","86","0.05551660222","","main_expt","0.2112262296","","0.2595222796","","0.2764415163","","","","","","",""
"4732","","bandit","162","356990","0.0-124.0-0.0","71391529","wem/bandit_single","A7KLTVEIASF4J","gain","8","","74","J","1","","0","0","1","0.2188998383","","false","87","0.04708869331","","main_expt","0.2188998383","","0.2256999028","","0.324022149","","","","","","",""
"100","","bandit","163","358844","0.0-125.0-0.0","71391529","wem/bandit_single","A7KLTVEIASF4J","gain","8","","75","K","2","","0","0","1","0.1990670624","","false","88","0.02844544313","","main_expt","0.2197891412","","0.1990670624","","0.3109963835","","","","","","",""
"84","","bandit","164","360686","0.0-126.0-0.0","71391529","wem/bandit_single","A7KLTVEIASF4J","gain","8","","74","J","1","","0","0","1","0.1264972534","","false","89","0.02947982339","","main_expt","0.1264972534","","0.2125628639","","0.324941543","","","","","","",""
"51","","bandit","165","362493","0.0-127.0-0.0","71391529","wem/bandit_single","A7KLTVEIASF4J","gain","8","","72","H","0","img/none_selected.jpg","0","0","1","0.01544371513","","false","90","0.01544371513","","main_expt","0.09492746395","","0.2335475446","","0.3309337967","","","","","","",""
"757","","bandit","166","365005","0.0-128.0-0.0","71391529","wem/bandit_single","A7KLTVEIASF4J","gain","8","","72","H","0","img/none_selected.jpg","0","0","1","0.02662688154","","false","91","0.02662688154","","main_expt","0.0779798764","","0.2803997126","","0.2419508287","","","","","","",""
"20","","bandit","167","366781","0.0-129.0-0.0","71391529","wem/bandit_single","A7KLTVEIASF4J","gain","8","","72","H","0","img/none_selected.jpg","0","0","1","0.03471523835","","false","92","0.03471523835","","main_expt","0.1178574791","","0.2771315147","","0.2040869203","","","","","","",""
"156","","bandit","168","368693","0.0-130.0-0.0","71391529","wem/bandit_single","A7KLTVEIASF4J","gain","8","","75","K","2","","0","0","1","0.3069544445","","false","93","0.0252433293","","main_expt","0.1199697814","","0.3069544445","","0.1936143615","","","","","","",""
"3677","","bandit","169","374125","0.0-131.0-0.0","71391529","wem/bandit_single","A7KLTVEIASF4J","gain","8","","75","K","2","","0","0","1","0.2585327286","","false","94","0.02873343753","","main_expt","0.1351842626","","0.2585327286","","0.2296452841","","","","","","",""
"45","","bandit","170","375924","0.0-132.0-0.0","71391529","wem/bandit_single","A7KLTVEIASF4J","gain","8","","75","K","2","","0","0","1","0.2043747222","","false","95","0.03754278977","","main_expt","0.1229387465","","0.2043747222","","0.3009770616","","","","","","",""
"77","","bandit","171","377757","0.0-133.0-0.0","71391529","wem/bandit_single","A7KLTVEIASF4J","gain","8","","75","K","2","","0","0","1","0.2149370614","","false","96","0.02045008397","","main_expt","0.1341504272","","0.2149370614","","0.3664634414","","","","","","",""
"165","","bandit","172","379677","0.0-134.0-0.0","71391529","wem/bandit_single","A7KLTVEIASF4J","gain","8","","72","H","0","img/none_selected.jpg","0","0","1","0.01282395838","","false","97","0.01282395838","","main_expt","0.08646330057","","0.1294523689","","0.3476641925","","","","","","",""
"53","","bandit","173","381484","0.0-135.0-0.0","71391529","wem/bandit_single","A7KLTVEIASF4J","gain","8","","72","H","0","img/none_selected.jpg","0","0","1","0.02206163243","","false","98","0.02206163243","","main_expt","0.07731746448","","0.1653870254","","0.3885632826","","","","","","",""
"237","","bandit","174","383476","0.0-136.0-0.0","71391529","wem/bandit_single","A7KLTVEIASF4J","gain","8","","74","J","1","","0","0","1","0.05048608161","","false","99","0.03016500256","","main_expt","0.05048608161","","0.187235433","","0.3222143249","","","","","","",""
"93","","bandit","175","385324","0.0-137.0-0.0","71391529","wem/bandit_single","A7KLTVEIASF4J","gain","8","","74","J","1","","0","0","1","0.03970728334","","false","100","0.03237578522","","main_expt","0.03970728334","","0.1583251777","","0.3386714995","","","","","","",""
"70","","bandit","176","387150","0.0-138.0-0.0","71391529","wem/bandit_single","A7KLTVEIASF4J","gain","8","","72","H","0","img/none_selected.jpg","0","0","1","0.03241037075","","false","101","0.03241037075","","main_expt","0.02108340439","","0.1337381207","","0.3131396166","","","","","","",""
"58","","bandit","177","388966","0.0-139.0-0.0","71391529","wem/bandit_single","A7KLTVEIASF4J","gain","8","","75","K","2","","0","0","1","0.1163639012","","false","102","0.06000215667","","main_expt","0.05244648731","","0.1163639012","","0.3417288757","","","","","","",""
"379","","bandit","178","391100","0.0-140.0-0.0","71391529","wem/bandit_single","A7KLTVEIASF4J","gain","8","","72","H","0","img/none_selected.jpg","0","0","1","0.08726741307","","false","103","0.08726741307","","main_expt","0.04574159302","","0.1118657557","","0.3582654759","","","","","","",""
"332","","bandit","179","393189","0.0-141.0-0.0","71391529","wem/bandit_single","A7KLTVEIASF4J","gain","8","","72","H","0","img/none_selected.jpg","0","0","1","0.1067467257","","false","104","0.1067467257","","main_expt","0.05033190662","","0.1501499683","","0.3409136392","","","","","","",""
"58","","bandit","180","395004","0.0-142.0-0.0","71391529","wem/bandit_single","A7KLTVEIASF4J","gain","8","","75","K","2","","0","0","1","0.1354733374","","false","105","0.1004566838","","main_expt","0.1076128494","","0.1354733374","","0.3532992837","","","","","","",""
"13","","bandit","181","396773","0.0-143.0-0.0","71391529","wem/bandit_single","A7KLTVEIASF4J","gain","8","","75","K","2","","0","0","1","0.1727398631","","false","106","0.1055318719","","main_expt","0.06740855405","","0.1727398631","","0.335683565","","","","","","",""
"4","","bandit","182","398536","0.0-144.0-0.0","71391529","wem/bandit_single","A7KLTVEIASF4J","gain","8","","72","H","0","img/none_selected.jpg","0","0","1","0.1236328269","","false","107","0.1236328269","","main_expt","0.06658027063","","0.1474174257","","0.3924059951","","","","","","",""
"137","","bandit","183","400429","0.0-145.0-0.0","71391529","wem/bandit_single","A7KLTVEIASF4J","gain","8","","72","H","0","img/none_selected.jpg","0","0","1","0.1301170461","","false","108","0.1301170461","","main_expt","0.0777756245","","0.1683059408","","0.3626054341","","","","","","",""
"611","","bandit","184","402796","0.0-146.0-0.0","71391529","wem/bandit_single","A7KLTVEIASF4J","gain","8","","72","H","0","img/none_selected.jpg","1","0","0","0.1507941036","","false","109","0.1507941036","","main_expt","0.1117823495","","0.1972223025","","0.3806857721","","","","","","",""
"4","","bandit","185","404557","0.0-147.0-0.0","71391529","wem/bandit_single","A7KLTVEIASF4J","gain","8","","72","H","0","img/none_selected.jpg","0","0","1","0.1647590848","","false","110","0.1647590848","","main_expt","0.08710900622","","0.2085186414","","0.3452619283","","","","","","",""
"132","","bandit","186","406443","0.0-148.0-0.0","71391529","wem/bandit_single","A7KLTVEIASF4J","gain","8","","75","K","2","","0","0","1","0.1811180602","","false","111","0.1574612326","","main_expt","0.107183683","","0.1811180602","","0.3653509784","","","","","","",""
"45","","bandit","187","408244","0.0-149.0-0.0","71391529","wem/bandit_single","A7KLTVEIASF4J","gain","8","","72","H","0","img/none_selected.jpg","1","0","0","0.1406493921","","false","112","0.1406493921","","main_expt","0.1099425133","","0.222295219","","0.3435522482","","","","","","",""
"149","","bandit","188","410148","0.0-150.0-0.0","71391529","wem/bandit_single","A7KLTVEIASF4J","gain","8","","75","K","2","","0","0","1","0.254178783","","false","113","0.1367300214","","main_expt","0.1457634924","","0.254178783","","0.3424956272","","","","","","",""
"517","","bandit","189","412419","0.0-151.0-0.0","71391529","wem/bandit_single","A7KLTVEIASF4J","gain","8","","75","K","2","","0","0","1","0.2315882939","","false","114","0.1534665218","","main_expt","0.09824844824","","0.2315882939","","0.3353894863","","","","","","",""
"77","","bandit","190","414255","0.0-152.0-0.0","71391529","wem/bandit_single","A7KLTVEIASF4J","gain","8","","75","K","2","","0","0","1","0.2079629003","","false","115","0.1890238391","","main_expt","0.07202874502","","0.2079629003","","0.3965113255","","","","","","",""
"66","","bandit","191","416077","0.0-153.0-0.0","71391529","wem/bandit_single","A7KLTVEIASF4J","gain","8","","75","K","2","","0","0","1","0.2117584369","","false","116","0.1480670238","","main_expt","0.08386797302","","0.2117584369","","0.3889101716","","","","","","",""
"99","","bandit","192","417932","0.0-154.0-0.0","71391529","wem/bandit_single","A7KLTVEIASF4J","gain","8","","72","H","0","img/none_selected.jpg","0","0","1","0.1450369027","","false","117","0.1450369027","","main_expt","0.1223406282","","0.1897465023","","0.412290601","","","","","","",""
"52","","bandit","193","419740","0.0-155.0-0.0","71391529","wem/bandit_single","A7KLTVEIASF4J","gain","8","","75","K","2","","0","0","1","0.2162179109","","false","118","0.1525061225","","main_expt","0.1131974311","","0.2162179109","","0.4090296977","","","","","","",""
"205","","bandit","194","421701","0.0-156.0-0.0","71391529","wem/bandit_single","A7KLTVEIASF4J","gain","8","","72","H","0","img/none_selected.jpg","0","0","1","0.1327940691","","false","119","0.1327940691","","main_expt","0.1214903214","","0.1954464435","","0.3900906375","","","","","","",""
"163","","bandit","195","423621","0.0-157.0-0.0","71391529","wem/bandit_single","A7KLTVEIASF4J","gain","8","","76","L","3","","0","0","1","0.3722828095","","false","120","0.1517026744","","main_expt","0.1379734046","","0.2433439763","","0.3722828095","","","","","","",""
"211","","bandit","196","425589","0.0-158.0-0.0","71391529","wem/bandit_single","A7KLTVEIASF4J","gain","8","","72","H","0","img/none_selected.jpg","1","0","0","0.09770447215","","false","121","0.09770447215","","main_expt","0.1537473387","","0.2093375247","","0.3593952677","","","","","","",""
"181","","bandit","197","427524","0.0-159.0-0.0","71391529","wem/bandit_single","A7KLTVEIASF4J","gain","8","","72","H","0","img/none_selected.jpg","0","0","1","0.1084092314","","false","122","0.1084092314","","main_expt","0.1654199468","","0.2030857612","","0.3670381393","","","","","","",""
"149","","bandit","198","429428","0.0-160.0-0.0","71391529","wem/bandit_single","A7KLTVEIASF4J","gain","8","","76","L","3","","0","0","1","0.3587286137","","false","123","0.1828660492","","main_expt","0.1908187881","","0.1810532848","","0.3587286137","","","","","","",""
"2733","","bandit","199","433916","0.0-161.0-0.0","71391529","wem/bandit_single","A7KLTVEIASF4J","gain","8","","72","H","0","img/none_selected.jpg","0","0","1","0.1743556658","","false","124","0.1743556658","","main_expt","0.2229551501","","0.1582229448","","0.3492740793","","","","","","",""
"3301","","bandit","200","438973","0.0-162.0-0.0","71391529","wem/bandit_single","A7KLTVEIASF4J","gain","8","","72","H","0","img/none_selected.jpg","0","0","1","0.2091647646","","false","125","0.2091647646","","main_expt","0.2354127912","","0.1223239468","","0.3031262708","","","","","","",""
"346","","bandit","201","441075","0.0-163.0-0.0","71391529","wem/bandit_single","A7KLTVEIASF4J","gain","8","","72","H","0","img/none_selected.jpg","0","0","1","0.2089783764","","false","126","0.2089783764","","main_expt","0.25119817","","0.08912034734","","0.3272336491","","","","","","",""
"21","","bandit","202","442851","0.0-164.0-0.0","71391529","wem/bandit_single","A7KLTVEIASF4J","gain","8","","72","H","0","img/none_selected.jpg","0","0","1","0.21334071","","false","127","0.21334071","","main_expt","0.2312690923","","0.05948163","","0.3153677968","","","","","","",""
"197","","bandit","203","444805","0.0-165.0-0.0","71391529","wem/bandit_single","A7KLTVEIASF4J","gain","8","","76","L","3","","0","0","1","0.3317710332","","false","128","0.1916283041","","main_expt","0.2741150261","","0.06525821595","","0.3317710332","","","","","","",""
"132","","bandit","204","446693","0.0-166.0-0.0","71391529","wem/bandit_single","A7KLTVEIASF4J","gain","8","","75","K","2","","0","0","1","0.04677418535","","false","129","0.1810604207","","main_expt","0.2804264122","","0.04677418535","","0.3818586719","","","","","","",""
"2203","","bandit","205","450653","0.0-167.0-0.0","71391529","wem/bandit_single","A7KLTVEIASF4J","gain","8","","72","H","0","img/none_selected.jpg","0","0","1","0.1492319935","","false","130","0.1492319935","","main_expt","0.2746384559","","0.04931785787","","0.3778611376","","","","","","",""
"1123","","bandit","206","453532","0.0-168.0-0.0","71391529","wem/bandit_single","A7KLTVEIASF4J","gain","8","","72","H","0","img/none_selected.jpg","0","0","1","0.129351286","","false","131","0.129351286","","main_expt","0.3052944487","","0.03231589458","","0.3745485054","","","","","","",""
"396","","bandit","207","455685","0.0-169.0-0.0","71391529","wem/bandit_single","A7KLTVEIASF4J","gain","8","","72","H","0","img/none_selected.jpg","0","0","1","0.1020216346","","false","132","0.1020216346","","main_expt","0.2871604017","","0.0374336399","","0.3901944836","","","","","","",""
"28","","bandit","208","457469","0.0-170.0-0.0","71391529","wem/bandit_single","A7KLTVEIASF4J","gain","8","","76","L","3","","0","0","1","0.3245875462","","false","133","0.1100395313","","main_expt","0.2262434135","","0.04583961862","","0.3245875462","","","","","","",""
"188","","bandit","209","459412","0.0-171.0-0.0","71391529","wem/bandit_single","A7KLTVEIASF4J","gain","8","","76","L","3","","0","0","1","0.2794858075","","false","134","0.1078381017","","main_expt","0.2020687113","","0.04150300199","","0.2794858075","","","","","","",""
"43","","bandit","210","461212","0.0-172.0-0.0","71391529","wem/bandit_single","A7KLTVEIASF4J","gain","8","","72","H","0","img/none_selected.jpg","0","0","1","0.1093486249","","false","135","0.1093486249","","main_expt","0.2168620662","","0.04663842542","","0.2867414221","","","","","","",""
"28","","bandit","211","462996","0.0-173.0-0.0","71391529","wem/bandit_single","A7KLTVEIASF4J","gain","8","","72","H","0","img/none_selected.jpg","0","0","1","0.1246456113","","false","136","0.1246456113","","main_expt","0.151139006","","0.06291357963","","0.2388941587","","","","","","",""
"204","","bandit","212","464956","0.0-174.0-0.0","71391529","wem/bandit_single","A7KLTVEIASF4J","gain","8","","72","H","0","img/none_selected.jpg","0","0","1","0.1167447495","","false","137","0.1167447495","","main_expt","0.1452995234","","0.0848669819","","0.2301747732","","","","","","",""
"76","","bandit","213","466788","0.0-175.0-0.0","71391529","wem/bandit_single","A7KLTVEIASF4J","gain","8","","72","H","0","img/none_selected.jpg","0","0","1","0.1357570265","","false","138","0.1357570265","","main_expt","0.1599176777","","0.1250360552","","0.2344721482","","","","","","",""
"180","","bandit","214","468725","0.0-176.0-0.0","71391529","wem/bandit_single","A7KLTVEIASF4J","gain","8","","76","L","3","","0","0","1","0.2351335283","","false","139","0.1616689495","","main_expt","0.1704699841","","0.122190115","","0.2351335283","","","","","","",""
"108","","bandit","215","470589","0.0-177.0-0.0","71391529","wem/bandit_single","A7KLTVEIASF4J","gain","8","","76","L","3","","1","0","0","0.2876903143","","false","140","0.1979747013","","main_expt","0.1142956015","","0.08666030548","","0.2876903143","","","","","","",""
"147","","bandit","216","472493","0.0-178.0-0.0","71391529","wem/bandit_single","A7KLTVEIASF4J","gain","8","","72","H","0","img/none_selected.jpg","0","0","1","0.1708965128","","false","141","0.1708965128","","main_expt","0.1206890816","","0.09967801986","","0.2865732071","","","","","","",""
"169","","bandit","217","474421","0.0-179.0-0.0","71391529","wem/bandit_single","A7KLTVEIASF4J","gain","8","","76","L","3","","0","0","1","0.248943806","","false","142","0.204481367","","main_expt","0.1324259923","","0.1125289611","","0.248943806","","","","","","",""
"52","","bandit","218","476228","0.0-180.0-0.0","71391529","wem/bandit_single","A7KLTVEIASF4J","gain","8","","76","L","3","","1","0","0","0.2839045407","","false","143","0.1861099789","","main_expt","0.09892217097","","0.1467602081","","0.2839045407","","","","","","",""
"296","","bandit","219","478281","0.0-181.0-0.0","71391529","wem/bandit_single","A7KLTVEIASF4J","gain","8","","75","K","2","","0","0","1","0.1467522766","","false","144","0.1956465744","","main_expt","0.1577744197","","0.1467522766","","0.3150250783","","","","","","",""
"111","","bandit","220","480148","0.0-182.0-0.0","71391529","wem/bandit_single","A7KLTVEIASF4J","gain","8","","75","K","2","","0","0","1","0.118212248","","false","145","0.2622876922","","main_expt","0.1392006829","","0.118212248","","0.3090395899","","","","","","",""
"62","","bandit","221","481964","0.0-183.0-0.0","71391529","wem/bandit_single","A7KLTVEIASF4J","gain","8","","75","K","2","","0","0","1","0.1089879874","","false","146","0.304745079","","main_expt","0.1262993523","","0.1089879874","","0.3122039877","","","","","","",""
"963","","bandit","222","484684","0.0-184.0-0.0","71391529","wem/bandit_single","A7KLTVEIASF4J","gain","8","","75","K","2","","0","0","1","0.1200469816","","false","147","0.2888799162","","main_expt","0.1970652478","","0.1200469816","","0.2959619691","","","","","","",""
"18","","bandit","223","486459","0.0-185.0-0.0","71391529","wem/bandit_single","A7KLTVEIASF4J","gain","8","","75","K","2","","0","0","1","0.1276189258","","false","148","0.2290209364","","main_expt","0.2502259542","","0.1276189258","","0.2395536641","","","","","","",""
"5221","","bandit","224","493435","0.0-186.0-0.0","71391529","wem/bandit_single","A7KLTVEIASF4J","gain","8","","72","H","0","img/none_selected.jpg","0","0","1","0.1626908122","","false","149","0.1626908122","","main_expt","0.264890558","","0.1280703092","","0.2650868272","","","","","","",""
"1165","","bandit","225","496356","0.0-187.0-0.0","71391529","wem/bandit_single","A7KLTVEIASF4J","gain","8","","72","H","0","img/none_selected.jpg","0","0","1","0.1958031623","","false","150","0.1958031623","","main_expt","0.2458403893","","0.1260403861","","0.2986082654","","","","","","",""
"27","","bandit","226","498139","0.0-188.0-0.0","71391529","wem/bandit_single","A7KLTVEIASF4J","gain","8","","76","L","3","","1","0","0","0.2843767109","","false","151","0.2110526716","","main_expt","0.3021038309","","0.1472493067","","0.2843767109","","","","","","",""
"93","","bandit","227","499987","0.0-189.0-0.0","71391529","wem/bandit_single","A7KLTVEIASF4J","gain","8","","76","L","3","","0","0","1","0.2910803031","","false","152","0.239542308","","main_expt","0.2863751765","","0.1256460397","","0.2910803031","","","","","","",""
"108","","bandit","228","501850","0.0-190.0-0.0","71391529","wem/bandit_single","A7KLTVEIASF4J","gain","8","","75","K","2","","0","0","1","0.1567097088","","false","153","0.2781725502","","main_expt","0.250244768","","0.1567097088","","0.2910028656","","","","","","",""
"61","","bandit","229","503668","0.0-191.0-0.0","71391529","wem/bandit_single","A7KLTVEIASF4J","gain","8","","72","H","0","img/none_selected.jpg","1","0","0","0.228047793","","false","154","0.228047793","","main_expt","0.2127808211","","0.1473662378","","0.2845613835","","","","","","",""
"51","","bandit","230","505476","0.0-192.0-0.0","71391529","wem/bandit_single","A7KLTVEIASF4J","gain","8","","75","K","2","","0","0","1","0.1466549972","","false","155","0.2683949018","","main_expt","0.205053704","","0.1466549972","","0.2707345723","","","","","","",""
"221","","bandit","231","507451","0.0-193.0-0.0","71391529","wem/bandit_single","A7KLTVEIASF4J","gain","8","","72","H","0","img/none_selected.jpg","0","0","1","0.3192141369","","false","156","0.3192141369","","main_expt","0.1648482415","","0.1127453184","","0.3156720475","","","","","","",""
"273","","bandit","232","509484","0.0-194.0-0.0","71391529","wem/bandit_single","A7KLTVEIASF4J","gain","8","","72","H","0","img/none_selected.jpg","1","0","0","0.3402823895","","false","157","0.3402823895","","main_expt","0.1888047422","","0.1577506677","","0.3101066834","","","","","","",""
"13","","bandit","233","511252","0.0-195.0-0.0","71391529","wem/bandit_single","A7KLTVEIASF4J","gain","8","","72","H","0","img/none_selected.jpg","0","0","1","0.2944958958","","false","158","0.2944958958","","main_expt","0.1759444775","","0.177177298","","0.3236654942","","","","","","",""
"59","","bandit","234","513067","0.0-196.0-0.0","71391529","wem/bandit_single","A7KLTVEIASF4J","gain","8","","76","L","3","","0","0","1","0.2735657487","","false","159","0.3007248388","","main_expt","0.2066832709","","0.1693510486","","0.2735657487","","","","","","",""
"25829","","bandit","235","540651","0.0-197.0-0.0","71391529","wem/bandit_single","A7KLTVEIASF4J","gain","8","","74","J","1","","0","0","1","0.2570817279","","false","160","0.3179332055","","main_expt","0.2570817279","","0.1230292859","","0.2384912546","","","","","","",""
"410","","bandit","236","542819","0.0-198.0-0.0","71391529","wem/bandit_single","A7KLTVEIASF4J","gain","8","","72","H","0","img/none_selected.jpg","1","0","0","0.2506164635","","false","161","0.2506164635","","main_expt","0.2244749933","","0.07903667538","","0.2615252743","","","","","","",""
"380","","bandit","237","544955","0.0-199.0-0.0","71391529","wem/bandit_single","A7KLTVEIASF4J","gain","8","","72","H","0","img/none_selected.jpg","0","0","1","0.2858836385","","false","162","0.2858836385","","main_expt","0.23263707","","0.1136507332","","0.2187643747","","","","","","",""
"1132","","bandit","238","547844","0.0-200.0-0.0","71391529","wem/bandit_single","A7KLTVEIASF4J","gain","8","","74","J","1","","0","0","1","0.2287127565","","false","163","0.2848163613","","main_expt","0.2287127565","","0.1137116213","","0.1909081127","","","","","","",""
"3","","bandit","239","549604","0.0-201.0-0.0","71391529","wem/bandit_single","A7KLTVEIASF4J","gain","8","","74","J","1","","0","0","1","0.2303253206","","false","164","0.2688566635","","main_expt","0.2303253206","","0.1254102563","","0.1808716434","","","","","","",""
"292","","bandit","240","551650","0.0-202.0-0.0","71391529","wem/bandit_single","A7KLTVEIASF4J","gain","8","","74","J","1","","0","0","1","0.2771057403","","false","165","0.2921202554","","main_expt","0.2771057403","","0.1216805934","","0.2118073572","","","","","","",""
"571","","bandit","241","553980","0.0-203.0-0.0","71391529","wem/bandit_single","A7KLTVEIASF4J","gain","8","","74","J","1","","0","0","1","0.2371810998","","false","166","0.3143591269","","main_expt","0.2371810998","","0.1291529517","","0.2410554973","","","","","","",""
"1995","","bandit","242","557731","0.0-204.0-0.0","71391529","wem/bandit_single","A7KLTVEIASF4J","gain","8","","72","H","0","img/none_selected.jpg","0","0","1","0.2892924204","","false","167","0.2892924204","","main_expt","0.2349122652","","0.1535345887","","0.2574005288","","","","","","",""
"251","","bandit","243","559739","0.0-205.0-0.0","71391529","wem/bandit_single","A7KLTVEIASF4J","gain","8","","72","H","0","img/none_selected.jpg","0","0","1","0.2786305655","","false","168","0.2786305655","","main_expt","0.1959020284","","0.1435034989","","0.2729884233","","","","","","",""
"1580","","bandit","244","563075","0.0-206.0-0.0","71391529","wem/bandit_single","A7KLTVEIASF4J","gain","8","","72","H","0","img/none_selected.jpg","1","0","0","0.246803054","","false","169","0.246803054","","main_expt","0.1899859579","","0.1957458285","","0.2625821735","","","","","","",""
"76","","bandit","245","564907","0.0-207.0-0.0","71391529","wem/bandit_single","A7KLTVEIASF4J","gain","8","","72","H","0","img/none_selected.jpg","0","0","1","0.2375021307","","false","170","0.2375021307","","main_expt","0.2213833812","","0.1308867566","","0.3100542845","","","","","","",""
"12","","bandit","246","568077","0.0-208.0-0.0","71391529","wem/bandit_single","A7KLTVEIASF4J","gain","8","","74","J","1","","0","0","1","0.1589997081","","false","171","0.2965678991","","main_expt","0.1589997081","","0.1422271972","","0.3083945368","","","","","","",""
"235","","bandit","247","570067","0.0-209.0-0.0","71391529","wem/bandit_single","A7KLTVEIASF4J","gain","8","","72","H","0","img/none_selected.jpg","0","0","1","0.2696718616","","false","172","0.2696718616","","main_expt","0.1669714507","","0.1541925874","","0.3929186772","","","","","","",""
"125","","bandit","248","571946","0.0-210.0-0.0","71391529","wem/bandit_single","A7KLTVEIASF4J","gain","8","","72","H","0","img/none_selected.jpg","0","0","1","0.2576521005","","false","173","0.2576521005","","main_expt","0.1699847696","","0.1416394444","","0.4107736206","","","","","","",""
"190","","bandit","249","573891","0.0-211.0-0.0","71391529","wem/bandit_single","A7KLTVEIASF4J","gain","8","","74","J","1","","0","0","1","0.202136981","","false","174","0.2839516933","","main_expt","0.202136981","","0.1207830423","","0.4267170337","","","","","","",""
"268","","bandit","250","575915","0.0-212.0-0.0","71391529","wem/bandit_single","A7KLTVEIASF4J","gain","8","","74","J","1","","0","0","1","0.1863880777","","false","175","0.2932452363","","main_expt","0.1863880777","","0.1636312712","","0.420504823","","","","","","",""
"61","","bandit","251","577731","0.0-213.0-0.0","71391529","wem/bandit_single","A7KLTVEIASF4J","gain","8","","74","J","1","","0","0","1","0.1426909825","","false","176","0.3118313574","","main_expt","0.1426909825","","0.186569684","","0.3956962169","","","","","","",""
"116","","bandit","252","579603","0.0-214.0-0.0","71391529","wem/bandit_single","A7KLTVEIASF4J","gain","8","","72","H","0","img/none_selected.jpg","0","0","1","0.3378695823","","false","177","0.3378695823","","main_expt","0.1335645184","","0.1089038478","","0.3834761318","","","","","","",""
"28","","bandit","253","581387","0.0-215.0-0.0","71391529","wem/bandit_single","A7KLTVEIASF4J","gain","8","","74","J","1","","0","0","1","0.09719791569","","false","178","0.3234122319","","main_expt","0.09719791569","","0.08465244813","","0.4167112469","","","","","","",""
"204","","bandit","254","583346","0.0-216.0-0.0","71391529","wem/bandit_single","A7KLTVEIASF4J","gain","8","","74","J","1","","0","0","1","0.07123289457","","false","179","0.3281528324","","main_expt","0.07123289457","","0.1015747644","","0.4370197561","","","","","","",""
"3923","","bandit","255","589030","0.0-217.0-0.0","71391529","wem/bandit_single","A7KLTVEIASF4J","gain","8","","74","J","1","","0","0","1","0.05555663239","","false","180","0.340497037","","main_expt","0.05555663239","","0.1277953302","","0.3776598584","","","","","","",""
"346","","bandit","256","591133","0.0-218.0-0.0","71391529","wem/bandit_single","A7KLTVEIASF4J","gain","8","","74","J","1","","0","0","1","0.04396828199","","false","181","0.3007371283","","main_expt","0.04396828199","","0.1854921141","","0.3636519722","","","","","","",""
"275","","bandit","257","593163","0.0-219.0-0.0","71391529","wem/bandit_single","A7KLTVEIASF4J","gain","8","","74","J","1","","0","0","1","0.02691259782","","false","182","0.3190136055","","main_expt","0.02691259782","","0.2273529654","","0.3246411676","","","","","","",""
"27","","bandit","258","594947","0.0-220.0-0.0","71391529","wem/bandit_single","A7KLTVEIASF4J","gain","8","","72","H","0","img/none_selected.jpg","1","0","0","0.322323442","","false","183","0.322323442","","main_expt","0.04807599522","","0.2600234541","","0.3187018958","","","","","","",""
"32","","bandit","259","596734","0.0-221.0-0.0","71391529","wem/bandit_single","A7KLTVEIASF4J","gain","8","","74","J","1","","0","0","1","0.05076165442","","false","184","0.3086696071","","main_expt","0.05076165442","","0.2689652485","","0.3497063737","","","","","","",""
"2890","","bandit","260","601382","0.0-222.0-0.0","71391529","wem/bandit_single","A7KLTVEIASF4J","gain","8","","72","H","0","img/none_selected.jpg","1","0","0","0.3146814862","","false","185","0.3146814862","","main_expt","0.1128087831","","0.2646203852","","0.3334532315","","","","","","",""
"191","","bandit","261","603330","0.0-223.0-0.0","71391529","wem/bandit_single","A7KLTVEIASF4J","gain","8","","72","H","0","img/none_selected.jpg","0","0","1","0.3353274036","","false","186","0.3353274036","","main_expt","0.1592260056","","0.2038557162","","0.3511592443","","","","","","",""
"485","","bandit","262","605571","0.0-224.0-0.0","71391529","wem/bandit_single","A7KLTVEIASF4J","gain","8","","72","H","0","img/none_selected.jpg","1","0","0","0.331036234","","false","187","0.331036234","","main_expt","0.2195828404","","0.2643634763","","0.3758503369","","","","","","",""
"292","","bandit","263","607618","0.0-225.0-0.0","71391529","wem/bandit_single","A7KLTVEIASF4J","gain","8","","74","J","1","","1","0","0","0.214856838","","false","188","0.3061178756","","main_expt","0.214856838","","0.2137054787","","0.3951098987","","","","","","",""
"76","","bandit","264","609450","0.0-226.0-0.0","71391529","wem/bandit_single","A7KLTVEIASF4J","gain","8","","74","J","1","","0","0","1","0.2103369464","","false","189","0.3455914038","","main_expt","0.2103369464","","0.2349639762","","0.3766733461","","","","","","",""
"461","","bandit","265","611666","0.0-227.0-0.0","71391529","wem/bandit_single","A7KLTVEIASF4J","gain","8","","72","H","0","img/none_selected.jpg","1","0","0","0.3734842368","","false","190","0.3734842368","","main_expt","0.1932940482","","0.2067261929","","0.3974997784","","","","","","",""
"308","","bandit","266","613731","0.0-228.0-0.0","71391529","wem/bandit_single","A7KLTVEIASF4J","gain","8","","74","J","1","","0","0","1","0.2285646161","","false","191","0.3648323685","","main_expt","0.2285646161","","0.275245882","","0.4174686418","","","","","","",""
"141","","bandit","267","615636","0.0-229.0-0.0","71391529","wem/bandit_single","A7KLTVEIASF4J","gain","8","","72","H","0","img/none_selected.jpg","1","0","0","0.3339781981","","false","192","0.3339781981","","main_expt","0.2589031043","","0.306220044","","0.3963748123","","","","","","",""
"43","","bandit","268","617436","0.0-230.0-0.0","71391529","wem/bandit_single","A7KLTVEIASF4J","gain","8","","74","J","1","","0","0","1","0.2195537535","","false","193","0.3342714415","","main_expt","0.2195537535","","0.3035773814","","0.3921748604","","","","","","",""
"18","","bandit","269","619211","0.0-231.0-0.0","71391529","wem/bandit_single","A7KLTVEIASF4J","gain","8","","74","J","1","","0","0","1","0.2027550427","","false","194","0.3241295504","","main_expt","0.2027550427","","0.2510827831","","0.3580841109","","","","","","",""
"19","","bandit","270","620988","0.0-232.0-0.0","71391529","wem/bandit_single","A7KLTVEIASF4J","gain","8","","74","J","1","","0","0","1","0.1862287394","","false","195","0.3116310431","","main_expt","0.1862287394","","0.2455858858","","0.3508589263","","","","","","",""
"26","","bandit","271","622772","0.0-233.0-0.0","71391529","wem/bandit_single","A7KLTVEIASF4J","gain","8","","74","J","1","","0","0","1","0.1892299528","","false","196","0.3757707762","","main_expt","0.1892299528","","0.2514601016","","0.3580593089","","","","","","",""
"280","","bandit","272","624812","0.0-234.0-0.0","71391529","wem/bandit_single","A7KLTVEIASF4J","gain","8","","74","J","1","","0","0","1","0.2217707201","","false","197","0.3510132286","","main_expt","0.2217707201","","0.2735270373","","0.325214339","","","","","","",""
"58","","bandit","273","626628","0.0-235.0-0.0","71391529","wem/bandit_single","A7KLTVEIASF4J","gain","8","","74","J","1","","0","0","1","0.2622368769","","false","198","0.3775824693","","main_expt","0.2622368769","","0.1856542716","","0.3214736551","","","","","","",""
"107","","bandit","274","628491","0.0-236.0-0.0","71391529","wem/bandit_single","A7KLTVEIASF4J","gain","8","","72","H","0","img/none_selected.jpg","0","0","1","0.3591355879","","false","199","0.3591355879","","main_expt","0.2566369559","","0.1439471636","","0.3134841864","","","","","","",""
"419","","bandit","275","630666","0.0-237.0-0.0","71391529","wem/bandit_single","A7KLTVEIASF4J","gain","8","","74","J","1","","0","0","1","0.2405232655","","false","200","0.4329566742","","main_expt","0.2405232655","","0.1920673188","","0.3484934822","","","","","","",""
"204","","bandit","276","632627","0.0-238.0-0.0","71391529","wem/bandit_single","A7KLTVEIASF4J","gain","8","","72","H","0","img/none_selected.jpg","1","0","0","0.4316294991","","false","201","0.4316294991","","main_expt","0.191632201","","0.2139557707","","0.3509587021","","","","","","",""
"99","","bandit","277","634483","0.0-239.0-0.0","71391529","wem/bandit_single","A7KLTVEIASF4J","gain","8","","74","J","1","","0","0","1","0.1860277461","","false","202","0.4446061493","","main_expt","0.1860277461","","0.2411081829","","0.3472711197","","","","","","",""
"147","","bandit","278","636388","0.0-240.0-0.0","71391529","wem/bandit_single","A7KLTVEIASF4J","gain","8","","74","J","1","","0","0","1","0.1959395152","","false","203","0.4350640844","","main_expt","0.1959395152","","0.2229679022","","0.3501901851","","","","","","",""
"707","","bandit","279","638851","0.0-241.0-0.0","71391529","wem/bandit_single","A7KLTVEIASF4J","gain","8","","74","J","1","","1","0","0","0.1909798814","","false","204","0.4511953558","","main_expt","0.1909798814","","0.2094072873","","0.4021923856","","","","","","",""
"44","","bandit","280","640651","0.0-242.0-0.0","71391529","wem/bandit_single","A7KLTVEIASF4J","gain","8","","72","H","0","img/none_selected.jpg","1","0","0","0.4444608137","","false","205","0.4444608137","","main_expt","0.1952925147","","0.2061243076","","0.4103624794","","","","","","",""
"2244","","bandit","281","644652","0.0-243.0-0.0","71391529","wem/bandit_single","A7KLTVEIASF4J","gain","8","","74","J","1","","0","0","1","0.2333477628","","false","206","0.4174874576","","main_expt","0.2333477628","","0.1830656651","","0.3884407208","","","","","","",""
"123","","bandit","282","646531","0.0-244.0-0.0","71391529","wem/bandit_single","A7KLTVEIASF4J","gain","8","","74","J","1","","0","0","1","0.2366383375","","false","207","0.4473837798","","main_expt","0.2366383375","","0.1806213093","","0.4205181933","","","","","","",""
"315","","bandit","283","649438","0.0-245.0-0.0","71391529","wem/bandit_single","A7KLTVEIASF4J","gain","8","","74","J","1","","0","0","1","0.2588239296","","false","208","0.4423282801","","main_expt","0.2588239296","","0.1547428587","","0.39705837","","","","","","",""
"1463","","bandit","284","653403","0.0-246.0-0.0","71391529","wem/bandit_single","A7KLTVEIASF4J","gain","8","","72","H","0","img/none_selected.jpg","1","0","0","0.4495798672","","false","209","0.4495798672","","main_expt","0.2109346514","","0.1633509089","","0.3763678409","","","","","","",""
"1170","","bandit","285","656331","0.0-247.0-0.0","71391529","wem/bandit_single","A7KLTVEIASF4J","gain","8","","72","H","0","img/none_selected.jpg","0","0","1","0.4604116181","","false","210","0.4604116181","","main_expt","0.2352346414","","0.194224154","","0.329669689","","","","","","",""
"114","","bandit","286","658202","0.0-248.0-0.0","71391529","wem/bandit_single","A7KLTVEIASF4J","gain","8","","74","J","1","","0","0","1","0.1919095989","","false","211","0.4515605979","","main_expt","0.1919095989","","0.1428536625","","0.3234151823","","","","","","",""
"763","","bandit","287","660724","0.0-249.0-0.0","71391529","wem/bandit_single","A7KLTVEIASF4J","gain","8","","72","H","0","img/none_selected.jpg","1","0","0","0.3796359761","","false","212","0.3796359761","","main_expt","0.2511997366","","0.1876263767","","0.346289724","","","","","","",""
"724","","bandit","288","663203","0.0-250.0-0.0","71391529","wem/bandit_single","A7KLTVEIASF4J","gain","8","","72","H","0","img/none_selected.jpg","0","0","1","0.4098311692","","false","213","0.4098311692","","main_expt","0.2247602752","","0.1767426991","","0.3579646626","","","","","","",""
"188","","bandit","289","665148","0.0-251.0-0.0","71391529","wem/bandit_single","A7KLTVEIASF4J","gain","8","","74","J","1","","1","0","0","0.2078026042","","false","214","0.3758430492","","main_expt","0.2078026042","","0.1997003326","","0.3871938136","","","","","","",""
"188","","bandit","290","667092","0.0-252.0-0.0","71391529","wem/bandit_single","A7KLTVEIASF4J","gain","8","","72","H","0","img/none_selected.jpg","0","0","1","0.3391734167","","false","215","0.3391734167","","main_expt","0.2000367883","","0.1753208105","","0.4072701047","","","","","","",""
"492","","bandit","291","669341","0.0-253.0-0.0","71391529","wem/bandit_single","A7KLTVEIASF4J","gain","8","","72","H","0","img/none_selected.jpg","0","0","1","0.3292806148","","false","216","0.3292806148","","main_expt","0.1850279066","","0.1526073348","","0.4139997029","","","","","","",""
"411","","bandit","292","671507","0.0-254.0-0.0","71391529","wem/bandit_single","A7KLTVEIASF4J","gain","8","","74","J","1","","1","0","0","0.1862329662","","false","217","0.3672552775","","main_expt","0.1862329662","","0.1885901152","","0.4058129166","","","","","","",""
"29","","bandit","293","673293","0.0-255.0-0.0","71391529","wem/bandit_single","A7KLTVEIASF4J","gain","8","","74","J","1","","0","0","1","0.2076422808","","false","218","0.3540988412","","main_expt","0.2076422808","","0.2068683321","","0.3831507141","","","","","","",""
"204","","bandit","294","675252","0.0-256.0-0.0","71391529","wem/bandit_single","A7KLTVEIASF4J","gain","8","","74","J","1","","0","0","1","0.1693095695","","false","219","0.3705907093","","main_expt","0.1693095695","","0.1830460615","","0.3975704748","","","","","","",""
"26","","bandit","295","677035","0.0-257.0-0.0","71391529","wem/bandit_single","A7KLTVEIASF4J","gain","8","","74","J","1","","1","0","0","0.1643321708","","false","220","0.4071767116","","main_expt","0.1643321708","","0.1510464272","","0.420208779","","","","","","",""
"404","","bandit","296","679196","0.0-258.0-0.0","71391529","wem/bandit_single","A7KLTVEIASF4J","gain","8","","72","H","0","img/none_selected.jpg","0","0","1","0.4000591573","","false","221","0.4000591573","","main_expt","0.1755642267","","0.1195154075","","0.4277126104","","","","","","",""
"20","","bandit","297","680973","0.0-259.0-0.0","71391529","wem/bandit_single","A7KLTVEIASF4J","gain","8","","74","J","1","","0","0","1","0.2047466037","","false","222","0.4257242725","","main_expt","0.2047466037","","0.1322821073","","0.4098861052","","","","","","",""
"1386","","bandit","298","684115","0.0-260.0-0.0","71391529","wem/bandit_single","A7KLTVEIASF4J","gain","8","","72","H","0","img/none_selected.jpg","0","0","1","0.4084538547","","false","223","0.4084538547","","main_expt","0.1261696039","","0.1634864242","","0.3865692481","","","","","","",""
"118","","bandit","299","685989","0.0-261.0-0.0","71391529","wem/bandit_single","A7KLTVEIASF4J","gain","8","","74","J","1","","1","0","0","0.1671605087","","false","224","0.3756333804","","main_expt","0.1671605087","","0.1927622759","","0.3942994903","","","","","","",""
"139","","bandit","300","687884","0.0-262.0-0.0","71391529","wem/bandit_single","A7KLTVEIASF4J","gain","8","","72","H","0","img/none_selected.jpg","1","0","0","0.3977261909","","false","225","0.3977261909","","main_expt","0.1498322393","","0.1949177646","","0.3444994861","","","","","","",""
"283","","bandit","301","689925","0.0-263.0-0.0","71391529","wem/bandit_single","A7KLTVEIASF4J","gain","8","","72","H","0","img/none_selected.jpg","0","0","1","0.3876796808","","false","226","0.3876796808","","main_expt","0.106170416","","0.1675301724","","0.4042132592","","","","","","",""
"33","","bandit","302","691716","0.0-264.0-0.0","71391529","wem/bandit_single","A7KLTVEIASF4J","gain","8","","72","H","0","img/none_selected.jpg","1","0","0","0.3213858912","","false","227","0.3213858912","","main_expt","0.0897934899","","0.163375113","","0.3906229402","","","","","","",""
"74","","bandit","303","693548","0.0-265.0-0.0","71391529","wem/bandit_single","A7KLTVEIASF4J","gain","8","","72","H","0","img/none_selected.jpg","1","0","0","0.3331191915","","false","228","0.3331191915","","main_expt","0.09443294629","","0.195474145","","0.3417164876","","","","","","",""
"280","","bandit","304","695588","0.0-266.0-0.0","71391529","wem/bandit_single","A7KLTVEIASF4J","gain","8","","72","H","0","img/none_selected.jpg","0","0","1","0.308496805","","false","229","0.308496805","","main_expt","0.0848669953","","0.2410354958","","0.3222205624","","","","","","",""
"540","","bandit","305","697883","0.0-267.0-0.0","71391529","wem/bandit_single","A7KLTVEIASF4J","gain","8","","72","H","0","img/none_selected.jpg","0","0","1","0.2734654059","","false","230","0.2734654059","","main_expt","0.0701458292","","0.2567648542","","0.3442672336","","","","","","",""
"267","","bandit","306","699907","0.0-268.0-0.0","71391529","wem/bandit_single","A7KLTVEIASF4J","gain","8","","72","H","0","img/none_selected.jpg","0","0","1","0.292212981","","false","231","0.292212981","","main_expt","0.1251282835","","0.2304241664","","0.3164459362","","","","","","",""
"267","","bandit","307","701934","0.0-269.0-0.0","71391529","wem/bandit_single","A7KLTVEIASF4J","gain","8","","72","H","0","img/none_selected.jpg","0","0","1","0.2516656152","","false","232","0.2516656152","","main_expt","0.1124912266","","0.2264886823","","0.3396906789","","","","","","",""
"290","","bandit","308","703980","0.0-270.0-0.0","71391529","wem/bandit_single","A7KLTVEIASF4J","gain","8","","72","H","0","img/none_selected.jpg","0","0","1","0.2563877418","","false","233","0.2563877418","","main_expt","0.1535494164","","0.1892320941","","0.3008540409","","","","","","",""
"66","","bandit","309","705803","0.0-271.0-0.0","71391529","wem/bandit_single","A7KLTVEIASF4J","gain","8","","72","H","0","img/none_selected.jpg","1","0","0","0.283882603","","false","234","0.283882603","","main_expt","0.1389628654","","0.1556895318","","0.2767988229","","","","","","",""
"146","","bandit","310","707708","0.0-272.0-0.0","71391529","wem/bandit_single","A7KLTVEIASF4J","gain","8","","74","J","1","","0","0","1","0.1680793718","","false","235","0.2758852766","","main_expt","0.1680793718","","0.1976044491","","0.2507781603","","","","","","",""
"403","","bandit","311","709867","0.0-273.0-0.0","71391529","wem/bandit_single","A7KLTVEIASF4J","gain","8","","72","H","0","img/none_selected.jpg","0","0","1","0.2434452049","","false","236","0.2434452049","","main_expt","0.2037097706","","0.1468950029","","0.3091667607","","","","","","",""
"762","","bandit","312","712388","0.0-274.0-0.0","71391529","wem/bandit_single","A7KLTVEIASF4J","gain","8","","74","J","1","","1","0","0","0.1897176974","","false","237","0.2405517979","","main_expt","0.1897176974","","0.1365515699","","0.2883211118","","","","","","",""
"298","","bandit","313","714444","0.0-275.0-0.0","71391529","wem/bandit_single","A7KLTVEIASF4J","gain","8","","72","H","0","img/none_selected.jpg","1","0","0","0.2260832521","","false","238","0.2260832521","","main_expt","0.2317710791","","0.1527077476","","0.2756444762","","","","","","",""
"554","","bandit","314","716756","0.0-276.0-0.0","71391529","wem/bandit_single","A7KLTVEIASF4J","gain","8","","74","J","1","","0","0","1","0.2206906913","","false","239","0.2061693665","","main_expt","0.2206906913","","0.1315224722","","0.3061346513","","","","","","",""
"139","","bandit","315","718652","0.0-277.0-0.0","71391529","wem/bandit_single","A7KLTVEIASF4J","gain","8","","72","H","0","img/none_selected.jpg","0","0","1","0.2203195159","","false","240","0.2203195159","","main_expt","0.2155283076","","0.1398926963","","0.3274201615","","","","","","",""
"83","","bandit","316","720492","0.0-278.0-0.0","71391529","wem/bandit_single","A7KLTVEIASF4J","gain","8","","74","J","1","","0","0","1","0.2386015387","","false","241","0.2230507071","","main_expt","0.2386015387","","0.1698873683","","0.2838770346","","","","","","",""
"599","","bandit","317","722853","0.0-279.0-0.0","71391529","wem/bandit_single","A7KLTVEIASF4J","gain","8","","72","H","0","img/none_selected.jpg","1","0","0","0.1834748297","","false","242","0.1834748297","","main_expt","0.2178179326","","0.1693915972","","0.261873528","","","","","","",""
"729","","bandit","318","725340","0.0-280.0-0.0","71391529","wem/bandit_single","A7KLTVEIASF4J","gain","8","","72","H","0","img/none_selected.jpg","0","0","1","0.1450766806","","false","243","0.1450766806","","main_expt","0.2209910316","","0.2011280514","","0.2346518895","","","","","","",""
"460","","bandit","319","727556","0.0-281.0-0.0","71391529","wem/bandit_single","A7KLTVEIASF4J","gain","8","","72","H","0","img/none_selected.jpg","1","0","0","0.1407015906","","false","244","0.1407015906","","main_expt","0.2202366047","","0.283074141","","0.2253303202","","","","","","",""
"34","","bandit","320","729348","0.0-282.0-0.0","71391529","wem/bandit_single","A7KLTVEIASF4J","gain","8","","72","H","0","img/none_selected.jpg","0","0","1","0.1386250556","","false","245","0.1386250556","","main_expt","0.2369425358","","0.2960363525","","0.2379184421","","","","","","",""
"284","","bandit","321","731388","0.0-283.0-0.0","71391529","wem/bandit_single","A7KLTVEIASF4J","gain","8","","74","J","1","","0","0","1","0.2437218948","","false","246","0.1561911267","","main_expt","0.2437218948","","0.2985154159","","0.1704118475","","","","","","",""
"3","","bandit","322","733149","0.0-284.0-0.0","71391529","wem/bandit_single","A7KLTVEIASF4J","gain","8","","74","J","1","","0","0","1","0.2573167276","","false","247","0.251644506","","main_expt","0.2573167276","","0.3159682012","","0.1520093858","","","","","","",""
"234","","bandit","323","735139","0.0-285.0-0.0","71391529","wem/bandit_single","A7KLTVEIASF4J","gain","8","","74","J","1","","1","0","0","0.255349996","","false","248","0.2541276422","","main_expt","0.255349996","","0.2937445921","","0.1246217458","","","","","","",""
"4764","","bandit","324","741660","0.0-286.0-0.0","71391529","wem/bandit_single","A7KLTVEIASF4J","gain","8","","74","J","1","","0","0","1","0.2866877344","","false","249","0.1924412691","","main_expt","0.2866877344","","0.2794909668","","0.1525969556","","","","","","",""
"1153","","bandit","325","744572","0.0-287.0-0.0","71391529","wem/bandit_single","A7KLTVEIASF4J","gain","8","","74","J","1","","0","0","1","0.2330780591","","false","250","0.1397358892","","main_expt","0.2330780591","","0.2327966623","","0.1500628479","","","","","","",""
"2559","","bandit","326","748892","0.0-288.0-0.0","71391529","wem/bandit_single","A7KLTVEIASF4J","gain","8","","72","H","0","img/none_selected.jpg","1","0","0","0.1362233376","","false","251","0.1362233376","","main_expt","0.2580196572","","0.2595602212","","0.1141396938","","","","","","",""
"457","","bandit","327","751108","0.0-289.0-0.0","71391529","wem/bandit_single","A7KLTVEIASF4J","gain","8","","72","H","0","img/none_selected.jpg","0","0","1","0.1796418735","","false","252","0.1796418735","","main_expt","0.2003146692","","0.2715763176","","0.1476089834","","","","","","",""
"93","","bandit","328","752956","0.0-290.0-0.0","71391529","wem/bandit_single","A7KLTVEIASF4J","gain","8","","72","H","0","img/none_selected.jpg","0","0","1","0.1833608075","","false","253","0.1833608075","","main_expt","0.1651092288","","0.3146654463","","0.175183139","","","","","","",""
"692","","bandit","329","755404","0.0-291.0-0.0","71391529","wem/bandit_single","A7KLTVEIASF4J","gain","8","","74","J","1","","0","0","1","0.1413675546","","false","254","0.1983034343","","main_expt","0.1413675546","","0.3037610447","","0.1916323123","","","","","","",""
"3492","","bandit","330","760652","0.0-292.0-0.0","71391529","wem/bandit_single","A7KLTVEIASF4J","gain","8","","74","J","1","","0","0","1","0.1801919014","","false","255","0.2286544637","","main_expt","0.1801919014","","0.287825992","","0.1888714334","","","","","","",""
"51","","bandit","331","762462","0.0-293.0-0.0","71391529","wem/bandit_single","A7KLTVEIASF4J","gain","8","","74","J","1","","0","0","1","0.1883387327","","false","256","0.2502735072","","main_expt","0.1883387327","","0.2673332977","","0.2338577058","","","","","","",""
"153","","bandit","332","764371","0.0-294.0-0.0","71391529","wem/bandit_single","A7KLTVEIASF4J","gain","8","","72","H","0","img/none_selected.jpg","0","0","1","0.2657937058","","false","257","0.2657937058","","main_expt","0.1757220287","","0.2867614738","","0.2235288738","","","","","","",""
"240","","bandit","333","766372","0.0-295.0-0.0","71391529","wem/bandit_single","A7KLTVEIASF4J","gain","8","","74","J","1","","1","0","0","0.1817694486","","false","258","0.2326681124","","main_expt","0.1817694486","","0.2432485896","","0.2256298632","","","","","","",""
"111","","bandit","334","768244","0.0-296.0-0.0","71391529","wem/bandit_single","A7KLTVEIASF4J","gain","8","","72","H","0","img/none_selected.jpg","0","0","1","0.2128848171","","false","259","0.2128848171","","main_expt","0.1938363466","","0.2433124215","","0.229367941","","","","","","",""
"408","","bandit","335","770408","0.0-297.0-0.0","71391529","wem/bandit_single","A7KLTVEIASF4J","gain","8","","74","J","1","","0","0","1","0.2129025296","","false","260","0.261065439","","main_expt","0.2129025296","","0.202057327","","0.2585863351","","","","","","",""
"356","","bandit","336","772524","0.0-298.0-0.0","71391529","wem/bandit_single","A7KLTVEIASF4J","gain","8","","72","H","0","img/none_selected.jpg","1","0","0","0.2693274395","","false","261","0.2693274395","","main_expt","0.1931457884","","0.163702413","","0.2748644017","","","","","","",""
"17","","bandit","337","774300","0.0-299.0-0.0","71391529","wem/bandit_single","A7KLTVEIASF4J","gain","8","","72","H","0","img/none_selected.jpg","1","0","0","0.3386888623","","false","262","0.3386888623","","main_expt","0.183306516","","0.1317961998","","0.288340978","","","","","","",""
"20","","bandit","338","776075","0.0-300.0-0.0","71391529","wem/bandit_single","A7KLTVEIASF4J","gain","8","","74","J","1","","1","0","0","0.1293037787","","false","263","0.3645909238","","main_expt","0.1293037787","","0.09680570831","","0.3151532186","","","","","","",""
"389","","bandit","339","778220","0.0-301.0-0.0","71391529","wem/bandit_single","A7KLTVEIASF4J","gain","8","","72","H","0","img/none_selected.jpg","1","0","0","0.3437159196","","false","264","0.3437159196","","main_expt","0.1386072774","","0.08846786375","","0.2931268787","","","","","","",""
"2644","","bandit","340","782619","0.0-302.0-0.0","71391529","wem/bandit_single","A7KLTVEIASF4J","gain","8","","74","J","1","","0","0","1","0.1511252148","","false","265","0.3644358952","","main_expt","0.1511252148","","0.08556864258","","0.3131275506","","","","","","",""
"11","","bandit","341","784386","0.0-303.0-0.0","71391529","wem/bandit_single","A7KLTVEIASF4J","gain","8","","74","J","1","","0","0","1","0.2186772706","","false","266","0.3904852039","","main_expt","0.2186772706","","0.0706515048","","0.336523231","","","","","","",""
"27","","bandit","342","786170","0.0-304.0-0.0","71391529","wem/bandit_single","A7KLTVEIASF4J","gain","8","","72","H","0","img/none_selected.jpg","0","0","1","0.3896615427","","false","267","0.3896615427","","main_expt","0.2625163009","","0.0747424838","","0.2850369317","","","","","","",""
"97","","bandit","343","788027","0.0-305.0-0.0","71391529","wem/bandit_single","A7KLTVEIASF4J","gain","8","","72","H","0","img/none_selected.jpg","1","0","0","0.4017278216","","false","268","0.4017278216","","main_expt","0.3140442454","","0.112617448","","0.3163307124","","","","","","",""
"882","","bandit","344","790667","0.0-306.0-0.0","71391529","wem/bandit_single","A7KLTVEIASF4J","gain","8","","74","J","1","","0","0","1","0.3069084364","","false","269","0.370996795","","main_expt","0.3069084364","","0.1406639307","","0.2956683275","","","","","","",""
"10","","bandit","345","792435","0.0-307.0-0.0","71391529","wem/bandit_single","A7KLTVEIASF4J","gain","8","","74","J","1","","0","0","1","0.2814908846","","false","270","0.4255483526","","main_expt","0.2814908846","","0.1398727949","","0.3574655381","","","","","","",""
"980","","bandit","346","795171","0.0-308.0-0.0","71391529","wem/bandit_single","A7KLTVEIASF4J","gain","8","","72","H","0","img/none_selected.jpg","0","0","1","0.3948114384","","false","271","0.3948114384","","main_expt","0.3060786573","","0.1430486157","","0.3969117111","","","","","","",""
"850","","bandit","347","797779","0.0-309.0-0.0","71391529","wem/bandit_single","A7KLTVEIASF4J","gain","8","","72","H","0","img/none_selected.jpg","1","0","0","0.3713372483","","false","272","0.3713372483","","main_expt","0.3555003363","","0.1872928851","","0.3938657786","","","","","","",""
"395","","bandit","348","799932","0.0-310.0-0.0","71391529","wem/bandit_single","A7KLTVEIASF4J","gain","8","","72","H","0","img/none_selected.jpg","0","0","1","0.3650537767","","false","273","0.3650537767","","main_expt","0.3980140183","","0.1769074474","","0.3903330825","","","","","","",""
"186","","bandit","349","801875","0.0-311.0-0.0","71391529","wem/bandit_single","A7KLTVEIASF4J","gain","8","","74","J","1","","1","0","0","0.4077181827","","false","274","0.3414565802","","main_expt","0.4077181827","","0.1820324592","","0.4236793781","","","","","","",""
"41","","bandit","350","803675","0.0-312.0-0.0","71391529","wem/bandit_single","A7KLTVEIASF4J","gain","8","","72","H","0","img/none_selected.jpg","1","0","0","0.3027622838","","false","275","0.3027622838","","main_expt","0.4142369189","","0.1923133529","","0.4320968281","","","","","","",""
"482","","bandit","351","805913","0.0-313.0-0.0","71391529","wem/bandit_single","A7KLTVEIASF4J","gain","8","","72","H","0","img/none_selected.jpg","0","0","1","0.3125082267","","false","276","0.3125082267","","main_expt","0.4250096067","","0.1917589367","","0.4017915655","","","","","","",""
"1195","","bandit","352","808866","0.0-314.0-0.0","71391529","wem/bandit_single","A7KLTVEIASF4J","gain","8","","74","J","1","","0","0","1","0.4378988515","","false","277","0.348890663","","main_expt","0.4378988515","","0.1667093518","","0.3548215972","","","","","","",""
"2386","","bandit","353","813011","0.0-315.0-0.0","71391529","wem/bandit_single","A7KLTVEIASF4J","gain","8","","72","H","0","img/none_selected.jpg","1","0","0","0.3341457036","","false","278","0.3341457036","","main_expt","0.4323676568","","0.1695638059","","0.3683165275","","","","","","",""
"1665","","bandit","354","816435","0.0-316.0-0.0","71391529","wem/bandit_single","A7KLTVEIASF4J","gain","8","","74","J","1","","1","0","0","0.4391545144","","false","279","0.2341959149","","main_expt","0.4391545144","","0.1696283439","","0.3750953637","","","","","","",""
"1723","","bandit","355","819915","0.0-317.0-0.0","71391529","wem/bandit_single","A7KLTVEIASF4J","gain","8","","74","J","1","","0","0","1","0.4467207207","","false","280","0.1839622844","","main_expt","0.4467207207","","0.09227733008","","0.3557095414","","","","","","",""
"450","","bandit","356","822122","0.0-318.0-0.0","71391529","wem/bandit_single","A7KLTVEIASF4J","gain","8","","74","J","1","","1","0","0","0.3922333676","","false","281","0.1303375237","","main_expt","0.3922333676","","0.08059064446","","0.374333358","","","","","","",""
"1356","","bandit","357","825235","0.0-319.0-0.0","71391529","wem/bandit_single","A7KLTVEIASF4J","gain","8","","74","J","1","","0","0","1","0.4243132136","","false","282","0.07449941097","","main_expt","0.4243132136","","0.06236597977","","0.3786855632","","","","","","",""
"594","","bandit","358","827588","0.0-320.0-0.0","71391529","wem/bandit_single","A7KLTVEIASF4J","gain","8","","74","J","1","","0","0","1","0.4187362854","","false","283","0.08783129911","","main_expt","0.4187362854","","0.07782340279","","0.437514669","","","","","","",""
"1416","","bandit","359","830761","0.0-321.0-0.0","71391529","wem/bandit_single","A7KLTVEIASF4J","gain","8","","74","J","1","","0","0","1","0.422543139","","false","284","0.08228152097","","main_expt","0.422543139","","0.07564660971","","0.410198323","","","","","","",""
"2507","","bandit","360","835026","0.0-322.0-0.0","71391529","wem/bandit_single","A7KLTVEIASF4J","gain","8","","72","H","0","img/none_selected.jpg","0","0","1","0.09246744832","","false","285","0.09246744832","","main_expt","0.434302279","","0.08237135124","","0.3777139522","","","","","","",""
"155","","bandit","361","836939","0.0-323.0-0.0","71391529","wem/bandit_single","A7KLTVEIASF4J","gain","8","","72","H","0","img/none_selected.jpg","0","0","1","0.08394792075","","false","286","0.08394792075","","main_expt","0.4094725029","","0.05670298638","","0.3841171753","","","","","","",""
"138","","bandit","362","838835","0.0-324.0-0.0","71391529","wem/bandit_single","A7KLTVEIASF4J","gain","8","","72","H","0","img/none_selected.jpg","1","0","0","0.1021913287","","false","287","0.1021913287","","main_expt","0.3778080042","","0.06647452785","","0.3641862554","","","","","","",""
"123","","bandit","363","840714","0.0-325.0-0.0","71391529","wem/bandit_single","A7KLTVEIASF4J","gain","8","","74","J","1","","1","0","0","0.3671495563","","false","288","0.1188664616","","main_expt","0.3671495563","","0.04859701272","","0.3192590496","","","","","","",""
"249","","bandit","364","842722","0.0-326.0-0.0","71391529","wem/bandit_single","A7KLTVEIASF4J","gain","8","","72","H","0","img/none_selected.jpg","0","0","1","0.1050513492","","false","289","0.1050513492","","main_expt","0.3622055636","","0.04246321062","","0.3384054944","","","","","","",""
"265","","bandit","365","844746","0.0-327.0-0.0","71391529","wem/bandit_single","A7KLTVEIASF4J","gain","8","","72","H","0","img/none_selected.jpg","0","0","1","0.1304324694","","false","290","0.1304324694","","main_expt","0.3616647964","","0.08307379137","","0.329366118","","","","","","",""
"426","","bandit","366","846930","0.0-328.0-0.0","71391529","wem/bandit_single","A7KLTVEIASF4J","gain","8","","72","H","0","img/none_selected.jpg","0","0","1","0.09707891459","","false","291","0.09707891459","","main_expt","0.3521760992","","0.09664054691","","0.38061917","","","","","","",""
"3019","","bandit","367","851707","0.0-329.0-0.0","71391529","wem/bandit_single","A7KLTVEIASF4J","gain","8","","72","H","0","img/none_selected.jpg","0","0","1","0.1166693976","","false","292","0.1166693976","","main_expt","0.3062989856","","0.1089287446","","0.3703624541","","","","","","",""
"58","","bandit","368","853522","0.0-330.0-0.0","71391529","wem/bandit_single","A7KLTVEIASF4J","gain","8","","72","H","0","img/none_selected.jpg","0","0","1","0.1448282665","","false","293","0.1448282665","","main_expt","0.2594623792","","0.1426967363","","0.3554666564","","","","","","",""
"4771","","bandit","369","860051","0.0-331.0-0.0","71391529","wem/bandit_single","A7KLTVEIASF4J","gain","8","","74","J","1","","0","0","1","0.2666401727","","false","294","0.1486412875","","main_expt","0.2666401727","","0.08295656842","","0.3976604504","","","","","","",""
"770","","bandit","370","862579","0.0-332.0-0.0","71391529","wem/bandit_single","A7KLTVEIASF4J","gain","8","","74","J","1","","1","0","0","0.2160621863","","false","295","0.1266024918","","main_expt","0.2160621863","","0.07441347029","","0.3567340825","","","","","","",""
"2697","","bandit","371","867035","0.0-333.0-0.0","71391529","wem/bandit_single","A7KLTVEIASF4J","gain","8","","74","J","1","","1","0","0","0.1924669582","","false","296","0.1499702932","","main_expt","0.1924669582","","0.08167080543","","0.3802278382","","","","","","",""
