"rt","responses","trial_type","trial_index","time_elapsed","internal_node_id","subjID","study","MID","cond","drift","key_press","respCharCode","respKey","respChoiceNum","respChoice","gems","bombs","no_reward","GemPrChosen","BombPrChosen","practice","trial_counter","WinPr_0","LosePr_0","trial_label","WinPr_1","LosePr_1","WinPr_2","LosePr_2","WinPr_3","LosePr_3","Q0","Q1","Q2","gender","age","ethnicity"
"46962","{""Q0"":""A40LU73SS18IW""}","survey-text","0","46973","0.0-0.0","73281822","wem/bandit_single","A40LU73SS18IW","gain","6","","","","","","","","","","","","","","","","","","","","","","","","","","",""
"4761","","text","1","52737","0.0-1.0","73281822","wem/bandit_single","A40LU73SS18IW","gain","6","32","","","","","","","","","","","","","","","","","","","","","","","","","",""
"18533","","text","2","71272","0.0-2.0","73281822","wem/bandit_single","A40LU73SS18IW","gain","6","32","","","","","","","","","","","","","","","","","","","","","","","","","",""
"52858","","text","3","124132","0.0-3.0","73281822","wem/bandit_single","A40LU73SS18IW","gain","6","32","","","","","","","","","","","","","","","","","","","","","","","","","",""
"44703","","text","4","168837","0.0-4.0","73281822","wem/bandit_single","A40LU73SS18IW","gain","6","32","","","","","","","","","","","","","","","","","","","","","","","","","",""
"8078","","text","5","176916","0.0-5.0","73281822","wem/bandit_single","A40LU73SS18IW","gain","6","32","","","","","","","","","","","","","","","","","","","","","","","","","",""
"42017","","text","6","218935","0.0-6.0","73281822","wem/bandit_single","A40LU73SS18IW","gain","6","32","","","","","","","","","","","","","","","","","","","","","","","","","",""
"3334","","text","7","222270","0.0-7.0","73281822","wem/bandit_single","A40LU73SS18IW","gain","6","32","","","","","","","","","","","","","","","","","","","","","","","","","",""
"2446","","text","8","224719","0.0-8.0","73281822","wem/bandit_single","A40LU73SS18IW","gain","6","32","","","","","","","","","","","","","","","","","","","","","","","","","",""
"3693","","text","9","228414","0.0-9.0","73281822","wem/bandit_single","A40LU73SS18IW","gain","6","32","","","","","","","","","","","","","","","","","","","","","","","","","",""
"6095","","text","10","234510","0.0-10.0","73281822","wem/bandit_single","A40LU73SS18IW","gain","6","32","","","","","","","","","","","","","","","","","","","","","","","","","",""
"46291","","text","11","280803","0.0-11.0","73281822","wem/bandit_single","A40LU73SS18IW","gain","6","32","","","","","","","","","","","","","","","","","","","","","","","","","",""
"2347","","bandit","12","284658","0.0-12.0-0.0","73281822","wem/bandit_single","A40LU73SS18IW","gain","6","","74","J","0","img/none_selected_demo.jpg","0","0","1","0","0","true","0","0","0","","","","","","","","","","","","",""
"956","","bandit","13","287368","0.0-13.0-0.0","73281822","wem/bandit_single","A40LU73SS18IW","gain","6","","75","K","0","img/none_selected_demo.jpg","0","0","1","0","0","true","0","0","0","","","","","","","","","","","","",""
"5334","","text","14","292955","0.0-14.0","73281822","wem/bandit_single","A40LU73SS18IW","gain","6","32","","","","","","","","","","","","","","","","","","","","","","","","","",""
"1711","","text","15","294668","0.0-15.0","73281822","wem/bandit_single","A40LU73SS18IW","gain","6","32","","","","","","","","","","","","","","","","","","","","","","","","","",""
"2157","","text","16","296827","0.0-16.0","73281822","wem/bandit_single","A40LU73SS18IW","gain","6","32","","","","","","","","","","","","","","","","","","","","","","","","","",""
"1902","","text","17","298731","0.0-17.0","73281822","wem/bandit_single","A40LU73SS18IW","gain","6","32","","","","","","","","","","","","","","","","","","","","","","","","","",""
"997","","bandit","18","301232","0.0-18.0-0.0","73281822","wem/bandit_single","A40LU73SS18IW","gain","6","","74","J","0","img/none_selected_demo.jpg","0","0","1","0.8","0","true","0","0.8","0","80_20_practice","0.2","0","","","","","","","","","",""
"182","","bandit","19","303167","0.0-18.0-1.0","73281822","wem/bandit_single","A40LU73SS18IW","gain","6","","75","K","1","","1","0","0","0.2","0","true","0","0.8","0","80_20_practice","0.2","0","","","","","","","","","",""
"126","","bandit","20","305048","0.0-18.0-2.0","73281822","wem/bandit_single","A40LU73SS18IW","gain","6","","75","K","1","","0","0","1","0.2","0","true","0","0.8","0","80_20_practice","0.2","0","","","","","","","","","",""
"231","","bandit","21","307034","0.0-18.0-3.0","73281822","wem/bandit_single","A40LU73SS18IW","gain","6","","75","K","1","","0","0","1","0.2","0","true","0","0.8","0","80_20_practice","0.2","0","","","","","","","","","",""
"76","","bandit","22","308863","0.0-18.0-4.0","73281822","wem/bandit_single","A40LU73SS18IW","gain","6","","74","J","0","img/none_selected_demo.jpg","1","0","0","0.8","0","true","0","0.8","0","80_20_practice","0.2","0","","","","","","","","","",""
"70","","bandit","23","310687","0.0-18.0-5.0","73281822","wem/bandit_single","A40LU73SS18IW","gain","6","","74","J","0","img/none_selected_demo.jpg","1","0","0","0.8","0","true","0","0.8","0","80_20_practice","0.2","0","","","","","","","","","",""
"54","","bandit","24","312496","0.0-18.0-6.0","73281822","wem/bandit_single","A40LU73SS18IW","gain","6","","74","J","0","img/none_selected_demo.jpg","1","0","0","0.8","0","true","0","0.8","0","80_20_practice","0.2","0","","","","","","","","","",""
"149","","bandit","25","314399","0.0-18.0-7.0","73281822","wem/bandit_single","A40LU73SS18IW","gain","6","","74","J","0","img/none_selected_demo.jpg","1","0","0","0.8","0","true","0","0.8","0","80_20_practice","0.2","0","","","","","","","","","",""
"46","","bandit","26","316200","0.0-18.0-8.0","73281822","wem/bandit_single","A40LU73SS18IW","gain","6","","74","J","0","img/none_selected_demo.jpg","1","0","0","0.8","0","true","0","0.8","0","80_20_practice","0.2","0","","","","","","","","","",""
"53","","bandit","27","318006","0.0-18.0-9.0","73281822","wem/bandit_single","A40LU73SS18IW","gain","6","","74","J","0","img/none_selected_demo.jpg","1","0","0","0.8","0","true","0","0.8","0","80_20_practice","0.2","0","","","","","","","","","",""
"23","","bandit","28","319793","0.0-18.0-10.0","73281822","wem/bandit_single","A40LU73SS18IW","gain","6","","74","J","0","img/none_selected_demo.jpg","1","0","0","0.8","0","true","0","0.8","0","80_20_practice","0.2","0","","","","","","","","","",""
"484","","bandit","29","322031","0.0-18.0-11.0","73281822","wem/bandit_single","A40LU73SS18IW","gain","6","","74","J","0","img/none_selected_demo.jpg","1","0","0","0.8","0","true","0","0.8","0","80_20_practice","0.2","0","","","","","","","","","",""
"366","","bandit","30","324151","0.0-18.0-12.0","73281822","wem/bandit_single","A40LU73SS18IW","gain","6","","74","J","0","img/none_selected_demo.jpg","0","0","1","0.8","0","true","0","0.8","0","80_20_practice","0.2","0","","","","","","","","","",""
"103","","bandit","31","326008","0.0-18.0-13.0","73281822","wem/bandit_single","A40LU73SS18IW","gain","6","","74","J","0","img/none_selected_demo.jpg","1","0","0","0.8","0","true","0","0.8","0","80_20_practice","0.2","0","","","","","","","","","",""
"100","","bandit","32","327863","0.0-18.0-14.0","73281822","wem/bandit_single","A40LU73SS18IW","gain","6","","74","J","0","img/none_selected_demo.jpg","0","0","1","0.8","0","true","0","0.8","0","80_20_practice","0.2","0","","","","","","","","","",""
"118","","bandit","33","329736","0.0-18.0-15.0","73281822","wem/bandit_single","A40LU73SS18IW","gain","6","","74","J","0","img/none_selected_demo.jpg","1","0","0","0.8","0","true","0","0.8","0","80_20_practice","0.2","0","","","","","","","","","",""
"45","","bandit","34","331536","0.0-18.0-16.0","73281822","wem/bandit_single","A40LU73SS18IW","gain","6","","74","J","0","img/none_selected_demo.jpg","1","0","0","0.8","0","true","0","0.8","0","80_20_practice","0.2","0","","","","","","","","","",""
"44","","bandit","35","333336","0.0-18.0-17.0","73281822","wem/bandit_single","A40LU73SS18IW","gain","6","","74","J","0","img/none_selected_demo.jpg","0","0","1","0.8","0","true","0","0.8","0","80_20_practice","0.2","0","","","","","","","","","",""
"76","","bandit","36","335166","0.0-18.0-18.0","73281822","wem/bandit_single","A40LU73SS18IW","gain","6","","74","J","0","img/none_selected_demo.jpg","1","0","0","0.8","0","true","0","0.8","0","80_20_practice","0.2","0","","","","","","","","","",""
"55","","bandit","37","336975","0.0-18.0-19.0","73281822","wem/bandit_single","A40LU73SS18IW","gain","6","","74","J","0","img/none_selected_demo.jpg","0","0","1","0.8","0","true","0","0.8","0","80_20_practice","0.2","0","","","","","","","","","",""
"3299","","text","38","340527","0.0-19.0","73281822","wem/bandit_single","A40LU73SS18IW","gain","6","32","","","","","","","","","","","","","","","","","","","","","","","","","",""
"2147","","bandit","39","344179","0.0-20.0-0.0","73281822","wem/bandit_single","A40LU73SS18IW","gain","6","","74","J","0","img/none_selected_demo.jpg","0","0","1","0","0","true","0","0","0","","0","0","","","","","","","","","",""
"181059","","text","40","525493","0.0-21.0","73281822","wem/bandit_single","A40LU73SS18IW","gain","6","32","","","","","","","","","","","","","","","","","","","","","","","","","",""
"3389","","text","41","528885","0.0-22.0","73281822","wem/bandit_single","A40LU73SS18IW","gain","6","32","","","","","","","","","","","","","","","","","","","","","","","","","",""
"2053","","text","42","530942","0.0-23.0","73281822","wem/bandit_single","A40LU73SS18IW","gain","6","32","","","","","","","","","","","","","","","","","","","","","","","","","",""
"7421","","text","43","538365","0.0-24.0","73281822","wem/bandit_single","A40LU73SS18IW","gain","6","32","","","","","","","","","","","","","","","","","","","","","","","","","",""
"7533","","text","44","545902","0.0-25.0","73281822","wem/bandit_single","A40LU73SS18IW","gain","6","32","","","","","","","","","","","","","","","","","","","","","","","","","",""
"5485","","text","45","551390","0.0-26.0","73281822","wem/bandit_single","A40LU73SS18IW","gain","6","32","","","","","","","","","","","","","","","","","","","","","","","","","",""
"6724","","text","46","558117","0.0-27.0","73281822","wem/bandit_single","A40LU73SS18IW","gain","6","32","","","","","","","","","","","","","","","","","","","","","","","","","",""
"2132","","text","47","560253","0.0-28.0","73281822","wem/bandit_single","A40LU73SS18IW","gain","6","32","","","","","","","","","","","","","","","","","","","","","","","","","",""
"27752","","text","48","588009","0.0-29.0","73281822","wem/bandit_single","A40LU73SS18IW","gain","6","32","","","","","","","","","","","","","","","","","","","","","","","","","",""
"1987","","text","49","590001","0.0-30.0","73281822","wem/bandit_single","A40LU73SS18IW","gain","6","32","","","","","","","","","","","","","","","","","","","","","","","","","",""
"2741","","text","50","592746","0.0-31.0","73281822","wem/bandit_single","A40LU73SS18IW","gain","6","32","","","","","","","","","","","","","","","","","","","","","","","","","",""
"778","","bandit","51","595030","0.0-32.0-0.0","73281822","wem/bandit_single","A40LU73SS18IW","gain","6","","74","J","1","","0","0","1","0.2","0","true","0","0.8","0","full_practice","0.2","0","0.6","0","0.2","0","","","","","",""
"404","","bandit","52","597189","0.0-32.0-1.0","73281822","wem/bandit_single","A40LU73SS18IW","gain","6","","74","J","1","","0","0","1","0.2","0","true","0","0.8","0","full_practice","0.2","0","0.6","0","0.2","0","","","","","",""
"542","","bandit","53","599486","0.0-32.0-2.0","73281822","wem/bandit_single","A40LU73SS18IW","gain","6","","74","J","1","","0","0","1","0.2","0","true","0","0.8","0","full_practice","0.2","0","0.6","0","0.2","0","","","","","",""
"301","","bandit","54","601542","0.0-32.0-3.0","73281822","wem/bandit_single","A40LU73SS18IW","gain","6","","74","J","1","","0","0","1","0.2","0","true","0","0.8","0","full_practice","0.2","0","0.6","0","0.2","0","","","","","",""
"205","","bandit","55","603502","0.0-32.0-4.0","73281822","wem/bandit_single","A40LU73SS18IW","gain","6","","74","J","1","","0","0","1","0.2","0","true","0","0.8","0","full_practice","0.2","0","0.6","0","0.2","0","","","","","",""
"157","","bandit","56","605415","0.0-32.0-5.0","73281822","wem/bandit_single","A40LU73SS18IW","gain","6","","74","J","1","","0","0","1","0.2","0","true","0","0.8","0","full_practice","0.2","0","0.6","0","0.2","0","","","","","",""
"156","","bandit","57","607326","0.0-32.0-6.0","73281822","wem/bandit_single","A40LU73SS18IW","gain","6","","74","J","1","","1","0","0","0.2","0","true","0","0.8","0","full_practice","0.2","0","0.6","0","0.2","0","","","","","",""
"316","","bandit","58","609398","0.0-32.0-7.0","73281822","wem/bandit_single","A40LU73SS18IW","gain","6","","74","J","1","","0","0","1","0.2","0","true","0","0.8","0","full_practice","0.2","0","0.6","0","0.2","0","","","","","",""
"339","","bandit","59","611494","0.0-32.0-8.0","73281822","wem/bandit_single","A40LU73SS18IW","gain","6","","74","J","1","","0","0","1","0.2","0","true","0","0.8","0","full_practice","0.2","0","0.6","0","0.2","0","","","","","",""
"461","","bandit","60","613709","0.0-32.0-9.0","73281822","wem/bandit_single","A40LU73SS18IW","gain","6","","74","J","1","","0","0","1","0.2","0","true","0","0.8","0","full_practice","0.2","0","0.6","0","0.2","0","","","","","",""
"197","","bandit","61","615662","0.0-32.0-10.0","73281822","wem/bandit_single","A40LU73SS18IW","gain","6","","74","J","1","","1","0","0","0.2","0","true","0","0.8","0","full_practice","0.2","0","0.6","0","0.2","0","","","","","",""
"396","","bandit","62","617816","0.0-32.0-11.0","73281822","wem/bandit_single","A40LU73SS18IW","gain","6","","74","J","1","","0","0","1","0.2","0","true","0","0.8","0","full_practice","0.2","0","0.6","0","0.2","0","","","","","",""
"203","","bandit","63","619774","0.0-32.0-12.0","73281822","wem/bandit_single","A40LU73SS18IW","gain","6","","74","J","1","","0","0","1","0.2","0","true","0","0.8","0","full_practice","0.2","0","0.6","0","0.2","0","","","","","",""
"324","","bandit","64","621854","0.0-32.0-13.0","73281822","wem/bandit_single","A40LU73SS18IW","gain","6","","74","J","1","","0","0","1","0.2","0","true","0","0.8","0","full_practice","0.2","0","0.6","0","0.2","0","","","","","",""
"467","","bandit","65","624078","0.0-32.0-14.0","73281822","wem/bandit_single","A40LU73SS18IW","gain","6","","74","J","1","","1","0","0","0.2","0","true","0","0.8","0","full_practice","0.2","0","0.6","0","0.2","0","","","","","",""
"221","","bandit","66","626054","0.0-32.0-15.0","73281822","wem/bandit_single","A40LU73SS18IW","gain","6","","74","J","1","","0","0","1","0.2","0","true","0","0.8","0","full_practice","0.2","0","0.6","0","0.2","0","","","","","",""
"218","","bandit","67","628030","0.0-32.0-16.0","73281822","wem/bandit_single","A40LU73SS18IW","gain","6","","74","J","1","","0","0","1","0.2","0","true","0","0.8","0","full_practice","0.2","0","0.6","0","0.2","0","","","","","",""
"467","","bandit","68","630253","0.0-32.0-17.0","73281822","wem/bandit_single","A40LU73SS18IW","gain","6","","74","J","1","","0","0","1","0.2","0","true","0","0.8","0","full_practice","0.2","0","0.6","0","0.2","0","","","","","",""
"605","","bandit","69","632613","0.0-32.0-18.0","73281822","wem/bandit_single","A40LU73SS18IW","gain","6","","74","J","1","","0","0","1","0.2","0","true","0","0.8","0","full_practice","0.2","0","0.6","0","0.2","0","","","","","",""
"452","","bandit","70","634826","0.0-32.0-19.0","73281822","wem/bandit_single","A40LU73SS18IW","gain","6","","74","J","1","","0","0","1","0.2","0","true","0","0.8","0","full_practice","0.2","0","0.6","0","0.2","0","","","","","",""
"4960","","text","71","640049","0.0-33.0","73281822","wem/bandit_single","A40LU73SS18IW","gain","6","32","","","","","","","","","","","","","","","","","","","","","","","","","",""
"7897","","text","72","648950","0.0-34.0","73281822","wem/bandit_single","A40LU73SS18IW","gain","6","32","","","","","","","","","","","","","","","","","","","","","","","","","",""
"9123","","text","73","658078","0.0-35.0","73281822","wem/bandit_single","A40LU73SS18IW","gain","6","32","","","","","","","","","","","","","","","","","","","","","","","","","",""
"7842","","text","74","665926","0.0-36.0","73281822","wem/bandit_single","A40LU73SS18IW","gain","6","32","","","","","","","","","","","","","","","","","","","","","","","","","",""
"2869","","text","75","668799","0.0-37.0","73281822","wem/bandit_single","A40LU73SS18IW","gain","6","32","","","","","","","","","","","","","","","","","","","","","","","","","",""
"889","","bandit","76","671196","0.0-38.0-0.0","73281822","wem/bandit_single","A40LU73SS18IW","gain","6","","72","H","0","img/none_selected.jpg","0","0","1","0.1142009487","","false","1","0.1142009487","","main_expt","0.3785571591","","0.1940838181","","0.1623639982","","","","","","",""
"673","","bandit","77","673627","0.0-39.0-0.0","73281822","wem/bandit_single","A40LU73SS18IW","gain","6","","74","J","1","","0","0","1","0.3894156921","","false","2","0.09165924831","","main_expt","0.3894156921","","0.2410489397","","0.1864124343","","","","","","",""
"260","","bandit","78","675643","0.0-40.0-0.0","73281822","wem/bandit_single","A40LU73SS18IW","gain","6","","75","K","2","","0","0","1","0.2645422736","","false","3","0.1174954382","","main_expt","0.4125386255","","0.2645422736","","0.1494323563","","","","","","",""
"395","","bandit","79","677795","0.0-41.0-0.0","73281822","wem/bandit_single","A40LU73SS18IW","gain","6","","76","L","3","","0","0","1","0.1266436655","","false","4","0.1426329369","","main_expt","0.3990363537","","0.1984909652","","0.1266436655","","","","","","",""
"170","","bandit","80","679723","0.0-42.0-0.0","73281822","wem/bandit_single","A40LU73SS18IW","gain","6","","72","H","0","img/none_selected.jpg","0","0","1","0.1503595054","","false","5","0.1503595054","","main_expt","0.454435597","","0.1239860826","","0.1476492511","","","","","","",""
"320","","bandit","81","681803","0.0-43.0-0.0","73281822","wem/bandit_single","A40LU73SS18IW","gain","6","","74","J","1","","0","0","1","0.4583077461","","false","6","0.1646450236","","main_expt","0.4583077461","","0.06805906468","","0.1525625276","","","","","","",""
"170","","bandit","82","683730","0.0-44.0-0.0","73281822","wem/bandit_single","A40LU73SS18IW","gain","6","","75","K","2","","0","0","1","0.05890971721","","false","7","0.2031930874","","main_expt","0.4617786505","","0.05890971721","","0.1856713893","","","","","","",""
"211","","bandit","83","685699","0.0-45.0-0.0","73281822","wem/bandit_single","A40LU73SS18IW","gain","6","","76","L","3","","0","0","1","0.2108076934","","false","8","0.181996894","","main_expt","0.475168559","","0.0832196585","","0.2108076934","","","","","","",""
"172","","bandit","84","687627","0.0-46.0-0.0","73281822","wem/bandit_single","A40LU73SS18IW","gain","6","","72","H","0","img/none_selected.jpg","0","0","1","0.1673845292","","false","9","0.1673845292","","main_expt","0.458325554","","0.1325638406","","0.1956497028","","","","","","",""
"178","","bandit","85","689563","0.0-47.0-0.0","73281822","wem/bandit_single","A40LU73SS18IW","gain","6","","74","J","1","","0","0","1","0.4316924572","","false","10","0.2328473308","","main_expt","0.4316924572","","0.1196898321","","0.1582923175","","","","","","",""
"187","","bandit","86","691507","0.0-48.0-0.0","73281822","wem/bandit_single","A40LU73SS18IW","gain","6","","75","K","2","","0","0","1","0.1103103944","","false","11","0.20589494","","main_expt","0.3756511011","","0.1103103944","","0.167734997","","","","","","",""
"180","","bandit","87","693443","0.0-49.0-0.0","73281822","wem/bandit_single","A40LU73SS18IW","gain","6","","76","L","3","","1","0","0","0.2150601968","","false","12","0.2246944015","","main_expt","0.3549088727","","0.06819125589","","0.2150601968","","","","","","",""
"145","","bandit","88","695348","0.0-50.0-0.0","73281822","wem/bandit_single","A40LU73SS18IW","gain","6","","76","L","3","","0","0","1","0.252216208","","false","13","0.2613447163","","main_expt","0.3455803359","","0.07076675629","","0.252216208","","","","","","",""
"242","","bandit","89","697348","0.0-51.0-0.0","73281822","wem/bandit_single","A40LU73SS18IW","gain","6","","76","L","3","","0","0","1","0.2184022087","","false","14","0.212655478","","main_expt","0.3809937316","","0.09241451512","","0.2184022087","","","","","","",""
"218","","bandit","90","699323","0.0-52.0-0.0","73281822","wem/bandit_single","A40LU73SS18IW","gain","6","","72","H","0","img/none_selected.jpg","0","0","1","0.1679070286","","false","15","0.1679070286","","main_expt","0.3479508526","","0.07205700739","","0.210005203","","","","","","",""
"57","","bandit","91","701139","0.0-53.0-0.0","73281822","wem/bandit_single","A40LU73SS18IW","gain","6","","74","J","1","","0","0","1","0.3287514515","","false","16","0.1774383452","","main_expt","0.3287514515","","0.04760190598","","0.2402495983","","","","","","",""
"65","","bandit","92","702963","0.0-54.0-0.0","73281822","wem/bandit_single","A40LU73SS18IW","gain","6","","75","K","2","","0","0","1","0.03958098904","","false","17","0.1562672395","","main_expt","0.4008698656","","0.03958098904","","0.2766196603","","","","","","",""
"170","","bandit","93","704891","0.0-55.0-0.0","73281822","wem/bandit_single","A40LU73SS18IW","gain","6","","76","L","3","","1","0","0","0.3193638145","","false","18","0.1407597156","","main_expt","0.3845126264","","0.03128671198","","0.3193638145","","","","","","",""
"122","","bandit","94","706771","0.0-56.0-0.0","73281822","wem/bandit_single","A40LU73SS18IW","gain","6","","76","L","3","","0","0","1","0.2953318626","","false","19","0.1310890834","","main_expt","0.3979941068","","0.04453616628","","0.2953318626","","","","","","",""
"178","","bandit","95","708707","0.0-57.0-0.0","73281822","wem/bandit_single","A40LU73SS18IW","gain","6","","76","L","3","","0","0","1","0.3007143328","","false","20","0.1317163977","","main_expt","0.3920029867","","0.04596917346","","0.3007143328","","","","","","",""
"98","","bandit","96","710559","0.0-58.0-0.0","73281822","wem/bandit_single","A40LU73SS18IW","gain","6","","76","L","3","","0","0","1","0.3105995928","","false","21","0.1752537558","","main_expt","0.4057752261","","0.04297504417","","0.3105995928","","","","","","",""
"97","","bandit","97","712415","0.0-59.0-0.0","73281822","wem/bandit_single","A40LU73SS18IW","gain","6","","76","L","3","","0","0","1","0.3742057862","","false","22","0.2064983175","","main_expt","0.4072420822","","0.04739698515","","0.3742057862","","","","","","",""
"170","","bandit","98","714344","0.0-60.0-0.0","73281822","wem/bandit_single","A40LU73SS18IW","gain","6","","76","L","3","","0","0","1","0.3439758112","","false","23","0.216691321","","main_expt","0.3798298113","","0.08003173613","","0.3439758112","","","","","","",""
"89","","bandit","99","716191","0.0-61.0-0.0","73281822","wem/bandit_single","A40LU73SS18IW","gain","6","","72","H","0","img/none_selected.jpg","0","0","1","0.2342773894","","false","24","0.2342773894","","main_expt","0.3329856024","","0.09868307827","","0.3549138733","","","","","","",""
"89","","bandit","100","718038","0.0-62.0-0.0","73281822","wem/bandit_single","A40LU73SS18IW","gain","6","","74","J","1","","0","0","1","0.3337381726","","false","25","0.2378870173","","main_expt","0.3337381726","","0.07950464875","","0.3811330683","","","","","","",""
"827","","bandit","101","720623","0.0-63.0-0.0","73281822","wem/bandit_single","A40LU73SS18IW","gain","6","","75","K","2","","0","0","1","0.09697268327","","false","26","0.2555438901","","main_expt","0.3650510818","","0.09697268327","","0.3131907418","","","","","","",""
"139","","bandit","102","722519","0.0-64.0-0.0","73281822","wem/bandit_single","A40LU73SS18IW","gain","6","","76","L","3","","0","0","1","0.3210571327","","false","27","0.2487754609","","main_expt","0.3930286133","","0.09831328215","","0.3210571327","","","","","","",""
"90","","bandit","103","724367","0.0-65.0-0.0","73281822","wem/bandit_single","A40LU73SS18IW","gain","6","","72","H","0","img/none_selected.jpg","0","0","1","0.2023297646","","false","28","0.2023297646","","main_expt","0.3849328395","","0.08798585883","","0.3350138966","","","","","","",""
"241","","bandit","104","726367","0.0-66.0-0.0","73281822","wem/bandit_single","A40LU73SS18IW","gain","6","","74","J","1","","0","0","1","0.3635333449","","false","29","0.1824385616","","main_expt","0.3635333449","","0.1001400419","","0.3491704597","","","","","","",""
"51","","bandit","105","728175","0.0-67.0-0.0","73281822","wem/bandit_single","A40LU73SS18IW","gain","6","","75","K","2","","1","0","0","0.100360092","","false","30","0.2108935763","","main_expt","0.3870800473","","0.100360092","","0.3515390533","","","","","","",""
"137","","bandit","106","730071","0.0-68.0-0.0","73281822","wem/bandit_single","A40LU73SS18IW","gain","6","","75","K","2","","0","0","1","0.1235489826","","false","31","0.2212072473","","main_expt","0.407818568","","0.1235489826","","0.3116189274","","","","","","",""
"153","","bandit","107","731983","0.0-69.0-0.0","73281822","wem/bandit_single","A40LU73SS18IW","gain","6","","75","K","2","","0","0","1","0.0999088058","","false","32","0.2349080289","","main_expt","0.4365503818","","0.0999088058","","0.2923613921","","","","","","",""
"114","","bandit","108","733856","0.0-70.0-0.0","73281822","wem/bandit_single","A40LU73SS18IW","gain","6","","75","K","2","","0","0","1","0.1229353218","","false","33","0.2233211346","","main_expt","0.438397095","","0.1229353218","","0.2833872006","","","","","","",""
"279","","bandit","109","735894","0.0-71.0-0.0","73281822","wem/bandit_single","A40LU73SS18IW","gain","6","","75","K","2","","0","0","1","0.1174339591","","false","34","0.2328620384","","main_expt","0.4225996483","","0.1174339591","","0.251012165","","","","","","",""
"139","","bandit","110","737791","0.0-72.0-0.0","73281822","wem/bandit_single","A40LU73SS18IW","gain","6","","76","L","3","","0","0","1","0.2150204629","","false","35","0.2442853791","","main_expt","0.3719427837","","0.08922948311","","0.2150204629","","","","","","",""
"137","","bandit","111","739687","0.0-73.0-0.0","73281822","wem/bandit_single","A40LU73SS18IW","gain","6","","72","H","0","img/none_selected.jpg","0","0","1","0.2536962779","","false","36","0.2536962779","","main_expt","0.3643608465","","0.1065429935","","0.2003821391","","","","","","",""
"83","","bandit","112","741527","0.0-74.0-0.0","73281822","wem/bandit_single","A40LU73SS18IW","gain","6","","74","J","1","","0","0","1","0.3951734682","","false","37","0.1968410568","","main_expt","0.3951734682","","0.119331244","","0.1584744983","","","","","","",""
"67","","bandit","113","743351","0.0-75.0-0.0","73281822","wem/bandit_single","A40LU73SS18IW","gain","6","","75","K","2","","0","0","1","0.1140529394","","false","38","0.1903576104","","main_expt","0.4106313244","","0.1140529394","","0.1107345946","","","","","","",""
"202","","bandit","114","745313","0.0-76.0-0.0","73281822","wem/bandit_single","A40LU73SS18IW","gain","6","","76","L","3","","1","0","0","0.1922112034","","false","39","0.2094560733","","main_expt","0.385877281","","0.1377706652","","0.1922112034","","","","","","",""
"151","","bandit","115","747223","0.0-77.0-0.0","73281822","wem/bandit_single","A40LU73SS18IW","gain","6","","76","L","3","","1","0","0","0.202991566","","false","40","0.2157952434","","main_expt","0.3814638094","","0.1686011578","","0.202991566","","","","","","",""
"146","","bandit","116","749127","0.0-78.0-0.0","73281822","wem/bandit_single","A40LU73SS18IW","gain","6","","76","L","3","","1","0","0","0.257249123","","false","41","0.1982376225","","main_expt","0.3569976603","","0.1640814413","","0.257249123","","","","","","",""
"161","","bandit","117","751047","0.0-79.0-0.0","73281822","wem/bandit_single","A40LU73SS18IW","gain","6","","76","L","3","","0","0","1","0.3139605103","","false","42","0.1815133425","","main_expt","0.3254656301","","0.1444461896","","0.3139605103","","","","","","",""
"393","","bandit","118","753199","0.0-80.0-0.0","73281822","wem/bandit_single","A40LU73SS18IW","gain","6","","76","L","3","","1","0","0","0.2859416922","","false","43","0.1804658283","","main_expt","0.3061667188","","0.1466097136","","0.2859416922","","","","","","",""
"152","","bandit","119","755110","0.0-81.0-0.0","73281822","wem/bandit_single","A40LU73SS18IW","gain","6","","76","L","3","","0","0","1","0.2344477797","","false","44","0.1453808853","","main_expt","0.3247162798","","0.1701376127","","0.2344477797","","","","","","",""
"290","","bandit","120","757159","0.0-82.0-0.0","73281822","wem/bandit_single","A40LU73SS18IW","gain","6","","76","L","3","","0","0","1","0.25278305","","false","45","0.1975985391","","main_expt","0.3464274235","","0.2382164817","","0.25278305","","","","","","",""
"249","","bandit","121","759169","0.0-83.0-0.0","73281822","wem/bandit_single","A40LU73SS18IW","gain","6","","76","L","3","","0","0","1","0.2447001663","","false","46","0.2099331931","","main_expt","0.2853596265","","0.2817064876","","0.2447001663","","","","","","",""
"343","","bandit","122","761271","0.0-84.0-0.0","73281822","wem/bandit_single","A40LU73SS18IW","gain","6","","76","L","3","","0","0","1","0.2439886488","","false","47","0.2373708448","","main_expt","0.2781892211","","0.3449614965","","0.2439886488","","","","","","",""
"322","","bandit","123","763351","0.0-85.0-0.0","73281822","wem/bandit_single","A40LU73SS18IW","gain","6","","72","H","0","img/none_selected.jpg","0","0","1","0.2929879582","","false","48","0.2929879582","","main_expt","0.2802769371","","0.2846403666","","0.3453423138","","","","","","",""
"118","","bandit","124","765231","0.0-86.0-0.0","73281822","wem/bandit_single","A40LU73SS18IW","gain","6","","74","J","1","","1","0","0","0.3162769287","","false","49","0.2643709298","","main_expt","0.3162769287","","0.3292227521","","0.3208634608","","","","","","",""
"104","","bandit","125","767095","0.0-87.0-0.0","73281822","wem/bandit_single","A40LU73SS18IW","gain","6","","74","J","1","","0","0","1","0.2524095143","","false","50","0.2666646559","","main_expt","0.2524095143","","0.270904054","","0.2600740437","","","","","","",""
"233","","bandit","126","769085","0.0-88.0-0.0","73281822","wem/bandit_single","A40LU73SS18IW","gain","6","","74","J","1","","0","0","1","0.2630113652","","false","51","0.2550538978","","main_expt","0.2630113652","","0.2503066232","","0.2451527442","","","","","","",""
"56","","bandit","127","770899","0.0-89.0-0.0","73281822","wem/bandit_single","A40LU73SS18IW","gain","6","","74","J","1","","0","0","1","0.2707742251","","false","52","0.3235330097","","main_expt","0.2707742251","","0.2405173112","","0.1882651979","","","","","","",""
"904","","bandit","128","773563","0.0-90.0-0.0","73281822","wem/bandit_single","A40LU73SS18IW","gain","6","","75","K","2","","0","0","1","0.2966352861","","false","53","0.347433539","","main_expt","0.2150274285","","0.2966352861","","0.1930778153","","","","","","",""
"464","","bandit","129","775788","0.0-91.0-0.0","73281822","wem/bandit_single","A40LU73SS18IW","gain","6","","76","L","3","","0","0","1","0.2216955806","","false","54","0.3368202787","","main_expt","0.2326572497","","0.2887198369","","0.2216955806","","","","","","",""
"448","","bandit","130","777998","0.0-92.0-0.0","73281822","wem/bandit_single","A40LU73SS18IW","gain","6","","72","H","0","img/none_selected.jpg","0","0","1","0.3503124627","","false","55","0.3503124627","","main_expt","0.2134399586","","0.2801160178","","0.2422165651","","","","","","",""
"110","","bandit","131","779868","0.0-93.0-0.0","73281822","wem/bandit_single","A40LU73SS18IW","gain","6","","74","J","1","","0","0","1","0.2394891912","","false","56","0.368841946","","main_expt","0.2394891912","","0.3022415889","","0.228979269","","","","","","",""
"169","","bandit","132","781796","0.0-94.0-0.0","73281822","wem/bandit_single","A40LU73SS18IW","gain","6","","75","K","2","","0","0","1","0.3300995428","","false","57","0.3883837061","","main_expt","0.2942469327","","0.3300995428","","0.243325051","","","","","","",""
"186","","bandit","133","783740","0.0-95.0-0.0","73281822","wem/bandit_single","A40LU73SS18IW","gain","6","","76","L","3","","0","0","1","0.2326991071","","false","58","0.4116863428","","main_expt","0.369295693","","0.3393984951","","0.2326991071","","","","","","",""
"488","","bandit","134","785988","0.0-96.0-0.0","73281822","wem/bandit_single","A40LU73SS18IW","gain","6","","72","H","0","img/none_selected.jpg","1","0","0","0.3980375199","","false","59","0.3980375199","","main_expt","0.3663837161","","0.3592245678","","0.2480349675","","","","","","",""
"71","","bandit","135","787819","0.0-97.0-0.0","73281822","wem/bandit_single","A40LU73SS18IW","gain","6","","72","H","0","img/none_selected.jpg","0","0","1","0.3849919156","","false","60","0.3849919156","","main_expt","0.3578669063","","0.3431938453","","0.2591134247","","","","","","",""
"80","","bandit","136","789659","0.0-98.0-0.0","73281822","wem/bandit_single","A40LU73SS18IW","gain","6","","72","H","0","img/none_selected.jpg","1","0","0","0.3822359719","","false","61","0.3822359719","","main_expt","0.3901807011","","0.3622980041","","0.2828027123","","","","","","",""
"89","","bandit","137","791507","0.0-99.0-0.0","73281822","wem/bandit_single","A40LU73SS18IW","gain","6","","72","H","0","img/none_selected.jpg","1","0","0","0.3356955782","","false","62","0.3356955782","","main_expt","0.4199484271","","0.3898917795","","0.2645717152","","","","","","",""
"65","","bandit","138","793332","0.0-100.0-0.0","73281822","wem/bandit_single","A40LU73SS18IW","gain","6","","72","H","0","img/none_selected.jpg","0","0","1","0.2961333539","","false","63","0.2961333539","","main_expt","0.431710707","","0.3730814422","","0.3164731366","","","","","","",""
"136","","bandit","139","795228","0.0-101.0-0.0","73281822","wem/bandit_single","A40LU73SS18IW","gain","6","","72","H","0","img/none_selected.jpg","0","0","1","0.3332154777","","false","64","0.3332154777","","main_expt","0.4302834116","","0.359514794","","0.3549458842","","","","","","",""
"48","","bandit","140","797036","0.0-102.0-0.0","73281822","wem/bandit_single","A40LU73SS18IW","gain","6","","72","H","0","img/none_selected.jpg","0","0","1","0.35785358","","false","65","0.35785358","","main_expt","0.3985691748","","0.3114607296","","0.288515421","","","","","","",""
"97","","bandit","141","798892","0.0-103.0-0.0","73281822","wem/bandit_single","A40LU73SS18IW","gain","6","","72","H","0","img/none_selected.jpg","0","0","1","0.406057841","","false","66","0.406057841","","main_expt","0.4041176093","","0.2942291023","","0.3011993237","","","","","","",""
"113","","bandit","142","800765","0.0-104.0-0.0","73281822","wem/bandit_single","A40LU73SS18IW","gain","6","","74","J","1","","0","0","1","0.4007812862","","false","67","0.4196038874","","main_expt","0.4007812862","","0.3320533568","","0.345072876","","","","","","",""
"126","","bandit","143","802652","0.0-105.0-0.0","73281822","wem/bandit_single","A40LU73SS18IW","gain","6","","75","K","2","","0","0","1","0.3600975808","","false","68","0.3890604874","","main_expt","0.4294162969","","0.3600975808","","0.3196529892","","","","","","",""
"151","","bandit","144","804565","0.0-106.0-0.0","73281822","wem/bandit_single","A40LU73SS18IW","gain","6","","76","L","3","","0","0","1","0.3649702463","","false","69","0.4084138829","","main_expt","0.3767619451","","0.2872110667","","0.3649702463","","","","","","",""
"175","","bandit","145","806499","0.0-107.0-0.0","73281822","wem/bandit_single","A40LU73SS18IW","gain","6","","72","H","0","img/none_selected.jpg","1","0","0","0.3468887804","","false","70","0.3468887804","","main_expt","0.3777248691","","0.295141158","","0.356932825","","","","","","",""
"112","","bandit","146","808371","0.0-108.0-0.0","73281822","wem/bandit_single","A40LU73SS18IW","gain","6","","72","H","0","img/none_selected.jpg","0","0","1","0.341524862","","false","71","0.341524862","","main_expt","0.3795242786","","0.3206647592","","0.3835678776","","","","","","",""
"202","","bandit","147","810332","0.0-109.0-0.0","73281822","wem/bandit_single","A40LU73SS18IW","gain","6","","72","H","0","img/none_selected.jpg","0","0","1","0.3749246652","","false","72","0.3749246652","","main_expt","0.3665841139","","0.3264000429","","0.4212385026","","","","","","",""
"176","","bandit","148","812268","0.0-110.0-0.0","73281822","wem/bandit_single","A40LU73SS18IW","gain","6","","74","J","1","","0","0","1","0.3651794524","","false","73","0.3871824506","","main_expt","0.3651794524","","0.333972891","","0.4261424303","","","","","","",""
"623","","bandit","149","814652","0.0-111.0-0.0","73281822","wem/bandit_single","A40LU73SS18IW","gain","6","","75","K","2","","0","0","1","0.3616968722","","false","74","0.3721906724","","main_expt","0.3550305672","","0.3616968722","","0.3977974162","","","","","","",""
"216","","bandit","150","816628","0.0-112.0-0.0","73281822","wem/bandit_single","A40LU73SS18IW","gain","6","","76","L","3","","1","0","0","0.4267201321","","false","75","0.3111946895","","main_expt","0.2927321298","","0.3975057441","","0.4267201321","","","","","","",""
"257","","bandit","151","818644","0.0-113.0-0.0","73281822","wem/bandit_single","A40LU73SS18IW","gain","6","","76","L","3","","1","0","0","0.4263250047","","false","76","0.3336428477","","main_expt","0.2842047713","","0.3807363423","","0.4263250047","","","","","","",""
"120","","bandit","152","820524","0.0-114.0-0.0","73281822","wem/bandit_single","A40LU73SS18IW","gain","6","","76","L","3","","0","0","1","0.4081139898","","false","77","0.2972108807","","main_expt","0.291961298","","0.394346207","","0.4081139898","","","","","","",""
"135","","bandit","153","822420","0.0-115.0-0.0","73281822","wem/bandit_single","A40LU73SS18IW","gain","6","","76","L","3","","1","0","0","0.4081745619","","false","78","0.3500338334","","main_expt","0.2772504781","","0.4130135997","","0.4081745619","","","","","","",""
"231","","bandit","154","824411","0.0-116.0-0.0","73281822","wem/bandit_single","A40LU73SS18IW","gain","6","","76","L","3","","1","0","0","0.4210543479","","false","79","0.3382579744","","main_expt","0.2910266255","","0.388257836","","0.4210543479","","","","","","",""
"111","","bandit","155","826285","0.0-117.0-0.0","73281822","wem/bandit_single","A40LU73SS18IW","gain","6","","76","L","3","","1","0","0","0.4173400146","","false","80","0.2848378437","","main_expt","0.3236474027","","0.402189785","","0.4173400146","","","","","","",""
"143","","bandit","156","828189","0.0-118.0-0.0","73281822","wem/bandit_single","A40LU73SS18IW","gain","6","","76","L","3","","0","0","1","0.3876294662","","false","81","0.2824957966","","main_expt","0.3171491255","","0.4188164015","","0.3876294662","","","","","","",""
"278","","bandit","157","830224","0.0-119.0-0.0","73281822","wem/bandit_single","A40LU73SS18IW","gain","6","","76","L","3","","1","0","0","0.3960397656","","false","82","0.2921189703","","main_expt","0.3253049084","","0.3923487362","","0.3960397656","","","","","","",""
"271","","bandit","158","832256","0.0-120.0-0.0","73281822","wem/bandit_single","A40LU73SS18IW","gain","6","","76","L","3","","0","0","1","0.4048972575","","false","83","0.346808059","","main_expt","0.2650825447","","0.3765831671","","0.4048972575","","","","","","",""
"152","","bandit","159","834168","0.0-121.0-0.0","73281822","wem/bandit_single","A40LU73SS18IW","gain","6","","76","L","3","","1","0","0","0.4261464595","","false","84","0.3142369957","","main_expt","0.2860936523","","0.3744655151","","0.4261464595","","","","","","",""
"159","","bandit","160","836088","0.0-122.0-0.0","73281822","wem/bandit_single","A40LU73SS18IW","gain","6","","76","L","3","","0","0","1","0.4252889048","","false","85","0.3336664699","","main_expt","0.2965161573","","0.4097897279","","0.4252889048","","","","","","",""
"189","","bandit","161","838040","0.0-123.0-0.0","73281822","wem/bandit_single","A40LU73SS18IW","gain","6","","76","L","3","","0","0","1","0.4234238012","","false","86","0.3487181938","","main_expt","0.2718920201","","0.4365994201","","0.4234238012","","","","","","",""
"246","","bandit","162","840047","0.0-124.0-0.0","73281822","wem/bandit_single","A40LU73SS18IW","gain","6","","76","L","3","","1","0","0","0.4493325849","","false","87","0.3595256023","","main_expt","0.2663647104","","0.4485753971","","0.4493325849","","","","","","",""
"263","","bandit","163","842071","0.0-125.0-0.0","73281822","wem/bandit_single","A40LU73SS18IW","gain","6","","76","L","3","","0","0","1","0.4618336953","","false","88","0.3633435887","","main_expt","0.2505207396","","0.4682155013","","0.4618336953","","","","","","",""
"160","","bandit","164","843992","0.0-126.0-0.0","73281822","wem/bandit_single","A40LU73SS18IW","gain","6","","76","L","3","","1","0","0","0.470357169","","false","89","0.3301577903","","main_expt","0.2380326514","","0.455546077","","0.470357169","","","","","","",""
"151","","bandit","165","845920","0.0-127.0-0.0","73281822","wem/bandit_single","A40LU73SS18IW","gain","6","","76","L","3","","0","0","1","0.4756012524","","false","90","0.2983975746","","main_expt","0.2825572521","","0.4648286352","","0.4756012524","","","","","","",""
"176","","bandit","166","847856","0.0-128.0-0.0","73281822","wem/bandit_single","A40LU73SS18IW","gain","6","","76","L","3","","1","0","0","0.4661355378","","false","91","0.2708507867","","main_expt","0.3629334232","","0.4597569826","","0.4661355378","","","","","","",""
"175","","bandit","167","849792","0.0-129.0-0.0","73281822","wem/bandit_single","A40LU73SS18IW","gain","6","","76","L","3","","0","0","1","0.4640816948","","false","92","0.2025174094","","main_expt","0.4318733099","","0.4636055165","","0.4640816948","","","","","","",""
"159","","bandit","168","851712","0.0-130.0-0.0","73281822","wem/bandit_single","A40LU73SS18IW","gain","6","","76","L","3","","0","0","1","0.4745032584","","false","93","0.1991535532","","main_expt","0.4354989634","","0.4344757896","","0.4745032584","","","","","","",""
"310","","bandit","169","853784","0.0-131.0-0.0","73281822","wem/bandit_single","A40LU73SS18IW","gain","6","","76","L","3","","1","0","0","0.4713826624","","false","94","0.2072674268","","main_expt","0.4569950804","","0.4540573516","","0.4713826624","","","","","","",""
"159","","bandit","170","855704","0.0-132.0-0.0","73281822","wem/bandit_single","A40LU73SS18IW","gain","6","","76","L","3","","1","0","0","0.4518091014","","false","95","0.2139910976","","main_expt","0.4626037768","","0.467393544","","0.4518091014","","","","","","",""
"389","","bandit","171","857856","0.0-133.0-0.0","73281822","wem/bandit_single","A40LU73SS18IW","gain","6","","76","L","3","","0","0","1","0.4610288074","","false","96","0.1714021876","","main_expt","0.4632162831","","0.4523779492","","0.4610288074","","","","","","",""
"182","","bandit","172","859800","0.0-134.0-0.0","73281822","wem/bandit_single","A40LU73SS18IW","gain","6","","76","L","3","","1","0","0","0.4610411697","","false","97","0.1776734449","","main_expt","0.4574348148","","0.4734298584","","0.4610411697","","","","","","",""
"439","","bandit","173","862000","0.0-135.0-0.0","73281822","wem/bandit_single","A40LU73SS18IW","gain","6","","76","L","3","","0","0","1","0.4658458747","","false","98","0.2143852757","","main_expt","0.4551488225","","0.4822123269","","0.4658458747","","","","","","",""
"191","","bandit","174","863952","0.0-136.0-0.0","73281822","wem/bandit_single","A40LU73SS18IW","gain","6","","76","L","3","","1","0","0","0.4372748216","","false","99","0.2341872784","","main_expt","0.4604873832","","0.4829706494","","0.4372748216","","","","","","",""
"359","","bandit","175","866072","0.0-137.0-0.0","73281822","wem/bandit_single","A40LU73SS18IW","gain","6","","76","L","3","","1","0","0","0.4237986198","","false","100","0.2835639283","","main_expt","0.4364445071","","0.4918551361","","0.4237986198","","","","","","",""
"391","","bandit","176","868224","0.0-138.0-0.0","73281822","wem/bandit_single","A40LU73SS18IW","gain","6","","76","L","3","","1","0","0","0.4239408107","","false","101","0.3342764243","","main_expt","0.4152010141","","0.4891782125","","0.4239408107","","","","","","",""
"223","","bandit","177","870208","0.0-139.0-0.0","73281822","wem/bandit_single","A40LU73SS18IW","gain","6","","76","L","3","","1","0","0","0.4482877494","","false","102","0.3693598309","","main_expt","0.4463558977","","0.484620563","","0.4482877494","","","","","","",""
"605","","bandit","178","872576","0.0-140.0-0.0","73281822","wem/bandit_single","A40LU73SS18IW","gain","6","","76","L","3","","0","0","1","0.4319618448","","false","103","0.3465782007","","main_expt","0.4519222506","","0.4880888492","","0.4319618448","","","","","","",""
"373","","bandit","179","874712","0.0-141.0-0.0","73281822","wem/bandit_single","A40LU73SS18IW","gain","6","","76","L","3","","0","0","1","0.3989131432","","false","104","0.356437927","","main_expt","0.44950272","","0.4862983338","","0.3989131432","","","","","","",""
"485","","bandit","180","876960","0.0-142.0-0.0","73281822","wem/bandit_single","A40LU73SS18IW","gain","6","","76","L","3","","1","0","0","0.3718051273","","false","105","0.349556789","","main_expt","0.4631277203","","0.4761426531","","0.3718051273","","","","","","",""
"286","","bandit","181","879007","0.0-143.0-0.0","73281822","wem/bandit_single","A40LU73SS18IW","gain","6","","76","L","3","","1","0","0","0.3820213715","","false","106","0.3368343046","","main_expt","0.4761070442","","0.4724420891","","0.3820213715","","","","","","",""
"142","","bandit","182","880912","0.0-144.0-0.0","73281822","wem/bandit_single","A40LU73SS18IW","gain","6","","76","L","3","","0","0","1","0.3903902173","","false","107","0.3492990444","","main_expt","0.4574049266","","0.4544285192","","0.3903902173","","","","","","",""
"230","","bandit","183","882904","0.0-145.0-0.0","73281822","wem/bandit_single","A40LU73SS18IW","gain","6","","76","L","3","","1","0","0","0.424383047","","false","108","0.3657086014","","main_expt","0.4342229458","","0.4489506099","","0.424383047","","","","","","",""
"246","","bandit","184","884912","0.0-146.0-0.0","73281822","wem/bandit_single","A40LU73SS18IW","gain","6","","76","L","3","","1","0","0","0.3732822228","","false","109","0.3473329542","","main_expt","0.4437976733","","0.4357570441","","0.3732822228","","","","","","",""
"109","","bandit","185","886784","0.0-147.0-0.0","73281822","wem/bandit_single","A40LU73SS18IW","gain","6","","76","L","3","","0","0","1","0.3545846445","","false","110","0.3937482981","","main_expt","0.4131704669","","0.4243789051","","0.3545846445","","","","","","",""
"174","","bandit","186","888720","0.0-148.0-0.0","73281822","wem/bandit_single","A40LU73SS18IW","gain","6","","76","L","3","","1","0","0","0.2861948885","","false","111","0.4067223002","","main_expt","0.3849612216","","0.4235572131","","0.2861948885","","","","","","",""
"117","","bandit","187","890597","0.0-149.0-0.0","73281822","wem/bandit_single","A40LU73SS18IW","gain","6","","76","L","3","","1","0","0","0.3148935151","","false","112","0.3791461054","","main_expt","0.4197473064","","0.4216330179","","0.3148935151","","","","","","",""
"173","","bandit","188","892532","0.0-150.0-0.0","73281822","wem/bandit_single","A40LU73SS18IW","gain","6","","76","L","3","","0","0","1","0.310891148","","false","113","0.3697872407","","main_expt","0.4477672952","","0.3981229654","","0.310891148","","","","","","",""
"221","","bandit","189","894516","0.0-151.0-0.0","73281822","wem/bandit_single","A40LU73SS18IW","gain","6","","76","L","3","","0","0","1","0.3312817134","","false","114","0.3542284497","","main_expt","0.4347577032","","0.4051483532","","0.3312817134","","","","","","",""
"334","","bandit","190","896612","0.0-152.0-0.0","73281822","wem/bandit_single","A40LU73SS18IW","gain","6","","76","L","3","","0","0","1","0.3328181623","","false","115","0.3424252445","","main_expt","0.4123529648","","0.3664587937","","0.3328181623","","","","","","",""
"293","","bandit","191","898669","0.0-153.0-0.0","73281822","wem/bandit_single","A40LU73SS18IW","gain","6","","76","L","3","","0","0","1","0.282168926","","false","116","0.3364913945","","main_expt","0.4374051313","","0.3815824605","","0.282168926","","","","","","",""
"612","","bandit","192","901045","0.0-154.0-0.0","73281822","wem/bandit_single","A40LU73SS18IW","gain","6","","72","H","0","img/none_selected.jpg","0","0","1","0.3607093693","","false","117","0.3607093693","","main_expt","0.4336999329","","0.3718524962","","0.3282440564","","","","","","",""
"166","","bandit","193","902973","0.0-155.0-0.0","73281822","wem/bandit_single","A40LU73SS18IW","gain","6","","74","J","1","","0","0","1","0.4609057125","","false","118","0.3651530194","","main_expt","0.4609057125","","0.3228128462","","0.3735758205","","","","","","",""
"158","","bandit","194","904893","0.0-156.0-0.0","73281822","wem/bandit_single","A40LU73SS18IW","gain","6","","75","K","2","","0","0","1","0.3303119184","","false","119","0.391691743","","main_expt","0.4644995027","","0.3303119184","","0.4085136599","","","","","","",""
"252","","bandit","195","906909","0.0-157.0-0.0","73281822","wem/bandit_single","A40LU73SS18IW","gain","6","","76","L","3","","1","0","0","0.4152109264","","false","120","0.3892352466","","main_expt","0.4699288035","","0.3566896217","","0.4152109264","","","","","","",""
"349","","bandit","196","909021","0.0-158.0-0.0","73281822","wem/bandit_single","A40LU73SS18IW","gain","6","","76","L","3","","0","0","1","0.4362055741","","false","121","0.4119078466","","main_expt","0.48416914","","0.3938610898","","0.4362055741","","","","","","",""
"349","","bandit","197","911133","0.0-159.0-0.0","73281822","wem/bandit_single","A40LU73SS18IW","gain","6","","76","L","3","","0","0","1","0.4381361327","","false","122","0.3864510994","","main_expt","0.4744752566","","0.3846692282","","0.4381361327","","","","","","",""
"188","","bandit","198","913085","0.0-160.0-0.0","73281822","wem/bandit_single","A40LU73SS18IW","gain","6","","76","L","3","","0","0","1","0.4266523018","","false","123","0.3206095238","","main_expt","0.4770694964","","0.3479888462","","0.4266523018","","","","","","",""
"156","","bandit","199","915006","0.0-161.0-0.0","73281822","wem/bandit_single","A40LU73SS18IW","gain","6","","72","H","0","img/none_selected.jpg","0","0","1","0.3004639257","","false","124","0.3004639257","","main_expt","0.4882663864","","0.3446564944","","0.3976500929","","","","","","",""
"91","","bandit","200","916862","0.0-162.0-0.0","73281822","wem/bandit_single","A40LU73SS18IW","gain","6","","74","J","1","","1","0","0","0.4867438878","","false","125","0.2718713493","","main_expt","0.4867438878","","0.3742116014","","0.4004048686","","","","","","",""
"84","","bandit","201","918709","0.0-163.0-0.0","73281822","wem/bandit_single","A40LU73SS18IW","gain","6","","74","J","1","","1","0","0","0.4859509926","","false","126","0.312825386","","main_expt","0.4859509926","","0.3522130289","","0.3978852423","","","","","","",""
"236","","bandit","202","920709","0.0-164.0-0.0","73281822","wem/bandit_single","A40LU73SS18IW","gain","6","","74","J","1","","0","0","1","0.4910312391","","false","127","0.2929193121","","main_expt","0.4910312391","","0.4136983804","","0.4164913371","","","","","","",""
"140","","bandit","203","922613","0.0-165.0-0.0","73281822","wem/bandit_single","A40LU73SS18IW","gain","6","","74","J","1","","0","0","1","0.4916106826","","false","128","0.3483635392","","main_expt","0.4916106826","","0.3740150402","","0.4273270633","","","","","","",""
"198","","bandit","204","924575","0.0-166.0-0.0","73281822","wem/bandit_single","A40LU73SS18IW","gain","6","","74","J","1","","1","0","0","0.4774596984","","false","129","0.3180783589","","main_expt","0.4774596984","","0.3561584853","","0.4403517336","","","","","","",""
"224","","bandit","205","926565","0.0-167.0-0.0","73281822","wem/bandit_single","A40LU73SS18IW","gain","6","","74","J","1","","0","0","1","0.4792113904","","false","130","0.332672873","","main_expt","0.4792113904","","0.3781611856","","0.436469863","","","","","","",""
"164","","bandit","206","928496","0.0-168.0-0.0","73281822","wem/bandit_single","A40LU73SS18IW","gain","6","","74","J","1","","1","0","0","0.4761250173","","false","131","0.3172252399","","main_expt","0.4761250173","","0.3972118802","","0.467157068","","","","","","",""
"105","","bandit","207","930365","0.0-169.0-0.0","73281822","wem/bandit_single","A40LU73SS18IW","gain","6","","74","J","1","","0","0","1","0.4782449011","","false","132","0.2808852702","","main_expt","0.4782449011","","0.3951630556","","0.4747764211","","","","","","",""
"148","","bandit","208","932277","0.0-170.0-0.0","73281822","wem/bandit_single","A40LU73SS18IW","gain","6","","74","J","1","","1","0","0","0.4789501527","","false","133","0.2846237695","","main_expt","0.4789501527","","0.3918056992","","0.4662147581","","","","","","",""
"197","","bandit","209","934238","0.0-171.0-0.0","73281822","wem/bandit_single","A40LU73SS18IW","gain","6","","74","J","1","","0","0","1","0.4821877595","","false","134","0.3115497245","","main_expt","0.4821877595","","0.395342783","","0.4711951182","","","","","","",""
"28","","bandit","210","936029","0.0-172.0-0.0","73281822","wem/bandit_single","A40LU73SS18IW","gain","6","","74","J","1","","0","0","1","0.4863767518","","false","135","0.3413582918","","main_expt","0.4863767518","","0.3867762939","","0.4540730246","","","","","","",""
"301","","bandit","211","938093","0.0-173.0-0.0","73281822","wem/bandit_single","A40LU73SS18IW","gain","6","","74","J","1","","0","0","1","0.4887786445","","false","136","0.316763081","","main_expt","0.4887786445","","0.3929594686","","0.4412688847","","","","","","",""
"148","","bandit","212","940005","0.0-174.0-0.0","73281822","wem/bandit_single","A40LU73SS18IW","gain","6","","75","K","2","","0","0","1","0.3067223256","","false","137","0.2585559296","","main_expt","0.4896902137","","0.3067223256","","0.4585130214","","","","","","",""
"147","","bandit","213","941917","0.0-175.0-0.0","73281822","wem/bandit_single","A40LU73SS18IW","gain","6","","76","L","3","","1","0","0","0.4413786145","","false","138","0.2320291273","","main_expt","0.4754525561","","0.3444805877","","0.4413786145","","","","","","",""
"100","","bandit","214","943781","0.0-176.0-0.0","73281822","wem/bandit_single","A40LU73SS18IW","gain","6","","76","L","3","","1","0","0","0.4235974169","","false","139","0.2705305451","","main_expt","0.4525902595","","0.4025185773","","0.4235974169","","","","","","",""
"140","","bandit","215","945684","0.0-177.0-0.0","73281822","wem/bandit_single","A40LU73SS18IW","gain","6","","76","L","3","","1","0","0","0.3993595144","","false","140","0.2115164241","","main_expt","0.474141966","","0.4000290511","","0.3993595144","","","","","","",""
"76","","bandit","216","947524","0.0-178.0-0.0","73281822","wem/bandit_single","A40LU73SS18IW","gain","6","","76","L","3","","0","0","1","0.3845482665","","false","141","0.2166269704","","main_expt","0.4642583801","","0.4052231698","","0.3845482665","","","","","","",""
"299","","bandit","217","949589","0.0-179.0-0.0","73281822","wem/bandit_single","A40LU73SS18IW","gain","6","","76","L","3","","1","0","0","0.3636407915","","false","142","0.2477117994","","main_expt","0.4713728632","","0.3881257509","","0.3636407915","","","","","","",""
"444","","bandit","218","951794","0.0-180.0-0.0","73281822","wem/bandit_single","A40LU73SS18IW","gain","6","","76","L","3","","1","0","0","0.3360879677","","false","143","0.2347168821","","main_expt","0.4714731714","","0.4101759482","","0.3360879677","","","","","","",""
"308","","bandit","219","953865","0.0-181.0-0.0","73281822","wem/bandit_single","A40LU73SS18IW","gain","6","","76","L","3","","1","0","0","0.2886719504","","false","144","0.190213181","","main_expt","0.4777196865","","0.4100488723","","0.2886719504","","","","","","",""
"116","","bandit","220","955745","0.0-182.0-0.0","73281822","wem/bandit_single","A40LU73SS18IW","gain","6","","76","L","3","","0","0","1","0.2607344777","","false","145","0.2873677543","","main_expt","0.467438704","","0.4294240464","","0.2607344777","","","","","","",""
"226","","bandit","221","957737","0.0-183.0-0.0","73281822","wem/bandit_single","A40LU73SS18IW","gain","6","","76","L","3","","0","0","1","0.261523257","","false","146","0.3434581746","","main_expt","0.4764572222","","0.4447984025","","0.261523257","","","","","","",""
"139","","bandit","222","959641","0.0-184.0-0.0","73281822","wem/bandit_single","A40LU73SS18IW","gain","6","","76","L","3","","1","0","0","0.2768268543","","false","147","0.3677167414","","main_expt","0.4670163239","","0.4339083406","","0.2768268543","","","","","","",""
"602","","bandit","223","962009","0.0-185.0-0.0","73281822","wem/bandit_single","A40LU73SS18IW","gain","6","","76","L","3","","0","0","1","0.2822793125","","false","148","0.378672096","","main_expt","0.4762727371","","0.4200875786","","0.2822793125","","","","","","",""
"283","","bandit","224","964057","0.0-186.0-0.0","73281822","wem/bandit_single","A40LU73SS18IW","gain","6","","76","L","3","","1","0","0","0.3100291085","","false","149","0.3447579657","","main_expt","0.4763998188","","0.4370731276","","0.3100291085","","","","","","",""
"444","","bandit","225","966266","0.0-187.0-0.0","73281822","wem/bandit_single","A40LU73SS18IW","gain","6","","76","L","3","","0","0","1","0.3473977335","","false","150","0.3225325285","","main_expt","0.4534074178","","0.4606741766","","0.3473977335","","","","","","",""
"196","","bandit","226","968225","0.0-188.0-0.0","73281822","wem/bandit_single","A40LU73SS18IW","gain","6","","76","L","3","","0","0","1","0.3755194153","","false","151","0.2971371866","","main_expt","0.4518750411","","0.4831185644","","0.3755194153","","","","","","",""
"244","","bandit","227","970233","0.0-189.0-0.0","73281822","wem/bandit_single","A40LU73SS18IW","gain","6","","76","L","3","","1","0","0","0.3931135366","","false","152","0.2436525959","","main_expt","0.4724220712","","0.489350082","","0.3931135366","","","","","","",""
"115","","bandit","228","972113","0.0-190.0-0.0","73281822","wem/bandit_single","A40LU73SS18IW","gain","6","","76","L","3","","1","0","0","0.3704791656","","false","153","0.2745817176","","main_expt","0.4655138208","","0.4874668037","","0.3704791656","","","","","","",""
"226","","bandit","229","974105","0.0-191.0-0.0","73281822","wem/bandit_single","A40LU73SS18IW","gain","6","","76","L","3","","0","0","1","0.3918087328","","false","154","0.2354012901","","main_expt","0.466892577","","0.4906252114","","0.3918087328","","","","","","",""
"26","","bandit","230","975897","0.0-192.0-0.0","73281822","wem/bandit_single","A40LU73SS18IW","gain","6","","76","L","3","","0","0","1","0.3629162862","","false","155","0.2125693007","","main_expt","0.4696525674","","0.4807331657","","0.3629162862","","","","","","",""
"129","","bandit","231","977793","0.0-193.0-0.0","73281822","wem/bandit_single","A40LU73SS18IW","gain","6","","76","L","3","","0","0","1","0.3329402669","","false","156","0.2344806361","","main_expt","0.4798639378","","0.4886913858","","0.3329402669","","","","","","",""
"1586","","bandit","232","981144","0.0-194.0-0.0","73281822","wem/bandit_single","A40LU73SS18IW","gain","6","","76","L","3","","1","0","0","0.2681960896","","false","157","0.1314384861","","main_expt","0.4706110477","","0.4791259403","","0.2681960896","","","","","","",""
"147","","bandit","233","983056","0.0-195.0-0.0","73281822","wem/bandit_single","A40LU73SS18IW","gain","6","","76","L","3","","0","0","1","0.2540197996","","false","158","0.181857365","","main_expt","0.4469873257","","0.4733263956","","0.2540197996","","","","","","",""
"421","","bandit","234","985241","0.0-196.0-0.0","73281822","wem/bandit_single","A40LU73SS18IW","gain","6","","74","J","1","","0","0","1","0.4239904196","","false","159","0.158015958","","main_expt","0.4239904196","","0.4815819336","","0.2609952623","","","","","","",""
"644","","bandit","235","987649","0.0-197.0-0.0","73281822","wem/bandit_single","A40LU73SS18IW","gain","6","","72","H","0","img/none_selected.jpg","1","0","0","0.141078422","","false","160","0.141078422","","main_expt","0.4459131135","","0.4721468952","","0.2023108268","","","","","","",""
"116","","bandit","236","989529","0.0-198.0-0.0","73281822","wem/bandit_single","A40LU73SS18IW","gain","6","","72","H","0","img/none_selected.jpg","0","0","1","0.1347361735","","false","161","0.1347361735","","main_expt","0.4186734055","","0.4711146003","","0.2500661268","","","","","","",""
"107","","bandit","237","991401","0.0-199.0-0.0","73281822","wem/bandit_single","A40LU73SS18IW","gain","6","","72","H","0","img/none_selected.jpg","0","0","1","0.09535719087","","false","162","0.09535719087","","main_expt","0.3857154427","","0.4712261849","","0.2540596089","","","","","","",""
"505","","bandit","238","993673","0.0-200.0-0.0","73281822","wem/bandit_single","A40LU73SS18IW","gain","6","","75","K","2","","0","0","1","0.4845321786","","false","163","0.08326456225","","main_expt","0.4174701589","","0.4845321786","","0.2601053227","","","","","","",""
"59","","bandit","239","995497","0.0-201.0-0.0","73281822","wem/bandit_single","A40LU73SS18IW","gain","6","","76","L","3","","0","0","1","0.2541421927","","false","164","0.09053498257","","main_expt","0.3890878976","","0.4759389929","","0.2541421927","","","","","","",""
"241","","bandit","240","997505","0.0-202.0-0.0","73281822","wem/bandit_single","A40LU73SS18IW","gain","6","","72","H","0","img/none_selected.jpg","0","0","1","0.08506048778","","false","165","0.08506048778","","main_expt","0.4138915172","","0.4720948066","","0.2481661974","","","","","","",""
"106","","bandit","241","999377","0.0-203.0-0.0","73281822","wem/bandit_single","A40LU73SS18IW","gain","6","","74","J","1","","0","0","1","0.3965001983","","false","166","0.1313511463","","main_expt","0.3965001983","","0.4785392204","","0.2774316831","","","","","","",""
"58","","bandit","242","1001200","0.0-204.0-0.0","73281822","wem/bandit_single","A40LU73SS18IW","gain","6","","75","K","2","","1","0","0","0.4807372421","","false","167","0.1176964862","","main_expt","0.3565429409","","0.4807372421","","0.2487678046","","","","","","",""
"116","","bandit","243","1003081","0.0-205.0-0.0","73281822","wem/bandit_single","A40LU73SS18IW","gain","6","","75","K","2","","0","0","1","0.4679921472","","false","168","0.08442850793","","main_expt","0.3697134737","","0.4679921472","","0.3058486258","","","","","","",""
"115","","bandit","244","1004962","0.0-206.0-0.0","73281822","wem/bandit_single","A40LU73SS18IW","gain","6","","75","K","2","","0","0","1","0.4504326489","","false","169","0.08508452716","","main_expt","0.3754926497","","0.4504326489","","0.3196595105","","","","","","",""
"153","","bandit","245","1006881","0.0-207.0-0.0","73281822","wem/bandit_single","A40LU73SS18IW","gain","6","","75","K","2","","1","0","0","0.4575738232","","false","170","0.06647736925","","main_expt","0.3688606114","","0.4575738232","","0.2675331271","","","","","","",""
"1225","","bandit","246","1009873","0.0-208.0-0.0","73281822","wem/bandit_single","A40LU73SS18IW","gain","6","","75","K","2","","0","0","1","0.4515033555","","false","171","0.05048422731","","main_expt","0.3548436987","","0.4515033555","","0.2898788388","","","","","","",""
"193","","bandit","247","1011830","0.0-209.0-0.0","73281822","wem/bandit_single","A40LU73SS18IW","gain","6","","75","K","2","","0","0","1","0.4804896953","","false","172","0.05782489063","","main_expt","0.3789739593","","0.4804896953","","0.3066863737","","","","","","",""
"345","","bandit","248","1013942","0.0-210.0-0.0","73281822","wem/bandit_single","A40LU73SS18IW","gain","6","","76","L","3","","1","0","0","0.2694007619","","false","173","0.05297704283","","main_expt","0.361488512","","0.4915792717","","0.2694007619","","","","","","",""
"138","","bandit","249","1015845","0.0-211.0-0.0","73281822","wem/bandit_single","A40LU73SS18IW","gain","6","","76","L","3","","1","0","0","0.2754062015","","false","174","0.05353397103","","main_expt","0.3460135238","","0.4861742571","","0.2754062015","","","","","","",""
"146","","bandit","250","1017759","0.0-212.0-0.0","73281822","wem/bandit_single","A40LU73SS18IW","gain","6","","76","L","3","","0","0","1","0.296446081","","false","175","0.03778759003","","main_expt","0.3522158256","","0.4817940596","","0.296446081","","","","","","",""
"89","","bandit","251","1019614","0.0-213.0-0.0","73281822","wem/bandit_single","A40LU73SS18IW","gain","6","","76","L","3","","0","0","1","0.3058710094","","false","176","0.02527008277","","main_expt","0.2998164985","","0.4757066075","","0.3058710094","","","","","","",""
"58","","bandit","252","1021438","0.0-214.0-0.0","73281822","wem/bandit_single","A40LU73SS18IW","gain","6","","76","L","3","","1","0","0","0.2349503117","","false","177","0.03305249037","","main_expt","0.2523084086","","0.4781570811","","0.2349503117","","","","","","",""
"115","","bandit","253","1023318","0.0-215.0-0.0","73281822","wem/bandit_single","A40LU73SS18IW","gain","6","","76","L","3","","0","0","1","0.2619038699","","false","178","0.03386287722","","main_expt","0.304071788","","0.4800614517","","0.2619038699","","","","","","",""
"243","","bandit","254","1025326","0.0-216.0-0.0","73281822","wem/bandit_single","A40LU73SS18IW","gain","6","","76","L","3","","0","0","1","0.2830684205","","false","179","0.04065763291","","main_expt","0.2871062198","","0.4829502963","","0.2830684205","","","","","","",""
"849","","bandit","255","1027942","0.0-217.0-0.0","73281822","wem/bandit_single","A40LU73SS18IW","gain","6","","76","L","3","","0","0","1","0.3534450431","","false","180","0.05743716857","","main_expt","0.2266659288","","0.4858173281","","0.3534450431","","","","","","",""
"290","","bandit","256","1029998","0.0-218.0-0.0","73281822","wem/bandit_single","A40LU73SS18IW","gain","6","","76","L","3","","0","0","1","0.3212605574","","false","181","0.04418568229","","main_expt","0.221928096","","0.4744777914","","0.3212605574","","","","","","",""
"117","","bandit","257","1031886","0.0-219.0-0.0","73281822","wem/bandit_single","A40LU73SS18IW","gain","6","","72","H","0","img/none_selected.jpg","0","0","1","0.08176319179","","false","182","0.08176319179","","main_expt","0.2300829386","","0.4845259409","","0.3315430587","","","","","","",""
"57","","bandit","258","1033709","0.0-220.0-0.0","73281822","wem/bandit_single","A40LU73SS18IW","gain","6","","74","J","1","","1","0","0","0.236046558","","false","183","0.127405614","","main_expt","0.236046558","","0.481953826","","0.3284942609","","","","","","",""
"185","","bandit","259","1035661","0.0-221.0-0.0","73281822","wem/bandit_single","A40LU73SS18IW","gain","6","","74","J","1","","0","0","1","0.2923178249","","false","184","0.08615736955","","main_expt","0.2923178249","","0.4855041368","","0.3122619856","","","","","","",""
"114","","bandit","260","1037542","0.0-222.0-0.0","73281822","wem/bandit_single","A40LU73SS18IW","gain","6","","74","J","1","","1","0","0","0.2808840613","","false","185","0.1184297318","","main_expt","0.2808840613","","0.4698046591","","0.2923416166","","","","","","",""
"89","","bandit","261","1039398","0.0-223.0-0.0","73281822","wem/bandit_single","A40LU73SS18IW","gain","6","","74","J","1","","0","0","1","0.2016881086","","false","186","0.1909222977","","main_expt","0.2016881086","","0.4595088788","","0.2743414945","","","","","","",""
"137","","bandit","262","1041302","0.0-224.0-0.0","73281822","wem/bandit_single","A40LU73SS18IW","gain","6","","74","J","1","","0","0","1","0.2403842116","","false","187","0.156943311","","main_expt","0.2403842116","","0.4646501277","","0.3313242874","","","","","","",""
"97","","bandit","263","1043166","0.0-225.0-0.0","73281822","wem/bandit_single","A40LU73SS18IW","gain","6","","74","J","1","","0","0","1","0.2559443775","","false","188","0.139104156","","main_expt","0.2559443775","","0.4587354039","","0.3665806697","","","","","","",""
"49","","bandit","264","1044982","0.0-226.0-0.0","73281822","wem/bandit_single","A40LU73SS18IW","gain","6","","75","K","2","","0","0","1","0.4433819168","","false","189","0.1984961232","","main_expt","0.2450962267","","0.4433819168","","0.3982105691","","","","","","",""
"88","","bandit","265","1046838","0.0-227.0-0.0","73281822","wem/bandit_single","A40LU73SS18IW","gain","6","","75","K","2","","1","0","0","0.441597313","","false","190","0.3152507924","","main_expt","0.2520413598","","0.441597313","","0.4063069195","","","","","","",""
"71","","bandit","266","1048678","0.0-228.0-0.0","73281822","wem/bandit_single","A40LU73SS18IW","gain","6","","75","K","2","","1","0","0","0.4447050695","","false","191","0.34868685","","main_expt","0.3069822625","","0.4447050695","","0.4073058099","","","","","","",""
"71","","bandit","267","1050518","0.0-229.0-0.0","73281822","wem/bandit_single","A40LU73SS18IW","gain","6","","75","K","2","","1","0","0","0.3903647542","","false","192","0.3244392246","","main_expt","0.269658105","","0.3903647542","","0.3597632315","","","","","","",""
"113","","bandit","268","1052397","0.0-230.0-0.0","73281822","wem/bandit_single","A40LU73SS18IW","gain","6","","75","K","2","","1","0","0","0.37796371","","false","193","0.3077199203","","main_expt","0.2337652902","","0.37796371","","0.3512918873","","","","","","",""
"74","","bandit","269","1054238","0.0-231.0-0.0","73281822","wem/bandit_single","A40LU73SS18IW","gain","6","","75","K","2","","1","0","0","0.4130200877","","false","194","0.3089314305","","main_expt","0.232364398","","0.4130200877","","0.2959519196","","","","","","",""
"66","","bandit","270","1056070","0.0-232.0-0.0","73281822","wem/bandit_single","A40LU73SS18IW","gain","6","","75","K","2","","0","0","1","0.4247195967","","false","195","0.2747286701","","main_expt","0.3001816851","","0.4247195967","","0.335494982","","","","","","",""
"208","","bandit","271","1058046","0.0-233.0-0.0","73281822","wem/bandit_single","A40LU73SS18IW","gain","6","","75","K","2","","0","0","1","0.4243543636","","false","196","0.234477082","","main_expt","0.3408234979","","0.4243543636","","0.349715921","","","","","","",""
"121","","bandit","272","1059934","0.0-234.0-0.0","73281822","wem/bandit_single","A40LU73SS18IW","gain","6","","75","K","2","","0","0","1","0.3856928417","","false","197","0.2134381397","","main_expt","0.3048500693","","0.3856928417","","0.301359959","","","","","","",""
"26","","bandit","273","1061726","0.0-235.0-0.0","73281822","wem/bandit_single","A40LU73SS18IW","gain","6","","76","L","3","","0","0","1","0.2948231879","","false","198","0.1732682886","","main_expt","0.320222978","","0.3619593125","","0.2948231879","","","","","","",""
"57","","bandit","274","1063550","0.0-236.0-0.0","73281822","wem/bandit_single","A40LU73SS18IW","gain","6","","76","L","3","","0","0","1","0.2739130918","","false","199","0.1702760897","","main_expt","0.3267381451","","0.367752629","","0.2739130918","","","","","","",""
"157","","bandit","275","1065478","0.0-237.0-0.0","73281822","wem/bandit_single","A40LU73SS18IW","gain","6","","72","H","0","img/none_selected.jpg","0","0","1","0.1149890083","","false","200","0.1149890083","","main_expt","0.3471124056","","0.3243939248","","0.2519174554","","","","","","",""
"127","","bandit","276","1067375","0.0-238.0-0.0","73281822","wem/bandit_single","A40LU73SS18IW","gain","6","","72","H","0","img/none_selected.jpg","1","0","0","0.1378425817","","false","201","0.1378425817","","main_expt","0.377370495","","0.309205964","","0.2607800984","","","","","","",""
"277","","bandit","277","1069422","0.0-239.0-0.0","73281822","wem/bandit_single","A40LU73SS18IW","gain","6","","72","H","0","img/none_selected.jpg","0","0","1","0.1351165101","","false","202","0.1351165101","","main_expt","0.4118986778","","0.2762714965","","0.2144757733","","","","","","",""
"280","","bandit","278","1071470","0.0-240.0-0.0","73281822","wem/bandit_single","A40LU73SS18IW","gain","6","","72","H","0","img/none_selected.jpg","0","0","1","0.105254576","","false","203","0.105254576","","main_expt","0.4232074982","","0.296808735","","0.3006883459","","","","","","",""
"189","","bandit","279","1073427","0.0-241.0-0.0","73281822","wem/bandit_single","A40LU73SS18IW","gain","6","","74","J","1","","0","0","1","0.422672589","","false","204","0.09939331469","","main_expt","0.422672589","","0.3198559136","","0.3059688055","","","","","","",""
"103","","bandit","280","1075298","0.0-242.0-0.0","73281822","wem/bandit_single","A40LU73SS18IW","gain","6","","74","J","1","","0","0","1","0.4290364806","","false","205","0.1099723927","","main_expt","0.4290364806","","0.3814451683","","0.2810212056","","","","","","",""
"128","","bandit","281","1077196","0.0-243.0-0.0","73281822","wem/bandit_single","A40LU73SS18IW","gain","6","","75","K","2","","1","0","0","0.3836436308","","false","206","0.1203356594","","main_expt","0.4412489094","","0.3836436308","","0.2427537705","","","","","","",""
"116","","bandit","282","1079082","0.0-244.0-0.0","73281822","wem/bandit_single","A40LU73SS18IW","gain","6","","75","K","2","","0","0","1","0.3943212714","","false","207","0.1887874267","","main_expt","0.461161346","","0.3943212714","","0.2312113295","","","","","","",""
"96","","bandit","283","1080946","0.0-245.0-0.0","73281822","wem/bandit_single","A40LU73SS18IW","gain","6","","75","K","2","","1","0","0","0.4100076043","","false","208","0.1570662604","","main_expt","0.4749000037","","0.4100076043","","0.2502246517","","","","","","",""
"63","","bandit","284","1082778","0.0-246.0-0.0","73281822","wem/bandit_single","A40LU73SS18IW","gain","6","","75","K","2","","1","0","0","0.4207901851","","false","209","0.2050570797","","main_expt","0.4677638209","","0.4207901851","","0.2378747501","","","","","","",""
"32","","bandit","285","1084578","0.0-247.0-0.0","73281822","wem/bandit_single","A40LU73SS18IW","gain","6","","75","K","2","","0","0","1","0.4261573075","","false","210","0.1803355731","","main_expt","0.4507398287","","0.4261573075","","0.2323826376","","","","","","",""
"63","","bandit","286","1086409","0.0-248.0-0.0","73281822","wem/bandit_single","A40LU73SS18IW","gain","6","","75","K","2","","0","0","1","0.3677002177","","false","211","0.2066302241","","main_expt","0.4275102647","","0.3677002177","","0.2346446126","","","","","","",""
"56","","bandit","287","1088233","0.0-249.0-0.0","73281822","wem/bandit_single","A40LU73SS18IW","gain","6","","75","K","2","","0","0","1","0.4030871251","","false","212","0.2190460355","","main_expt","0.4147803006","","0.4030871251","","0.2017096022","","","","","","",""
"41","","bandit","288","1090042","0.0-250.0-0.0","73281822","wem/bandit_single","A40LU73SS18IW","gain","6","","75","K","2","","0","0","1","0.3616850983","","false","213","0.2433731683","","main_expt","0.4119553225","","0.3616850983","","0.2149770465","","","","","","",""
"193","","bandit","289","1092002","0.0-251.0-0.0","73281822","wem/bandit_single","A40LU73SS18IW","gain","6","","76","L","3","","0","0","1","0.2323699387","","false","214","0.2355486522","","main_expt","0.4097086646","","0.3380837625","","0.2323699387","","","","","","",""
"167","","bandit","290","1093938","0.0-252.0-0.0","73281822","wem/bandit_single","A40LU73SS18IW","gain","6","","76","L","3","","0","0","1","0.1880023584","","false","215","0.2493822419","","main_expt","0.4553079268","","0.3788103814","","0.1880023584","","","","","","",""
"103","","bandit","291","1095810","0.0-253.0-0.0","73281822","wem/bandit_single","A40LU73SS18IW","gain","6","","72","H","0","img/none_selected.jpg","1","0","0","0.2455091026","","false","216","0.2455091026","","main_expt","0.4360341733","","0.3844600678","","0.2305078945","","","","","","",""
"267","","bandit","292","1097850","0.0-254.0-0.0","73281822","wem/bandit_single","A40LU73SS18IW","gain","6","","72","H","0","img/none_selected.jpg","1","0","0","0.193913996","","false","217","0.193913996","","main_expt","0.4337093526","","0.3747540642","","0.2042922501","","","","","","",""
"143","","bandit","293","1099762","0.0-255.0-0.0","73281822","wem/bandit_single","A40LU73SS18IW","gain","6","","72","H","0","img/none_selected.jpg","0","0","1","0.2375794361","","false","218","0.2375794361","","main_expt","0.4646024675","","0.373903774","","0.1827914188","","","","","","",""
"144","","bandit","294","1101674","0.0-256.0-0.0","73281822","wem/bandit_single","A40LU73SS18IW","gain","6","","72","H","0","img/none_selected.jpg","0","0","1","0.2477723709","","false","219","0.2477723709","","main_expt","0.4630893692","","0.3735380413","","0.2630445196","","","","","","",""
"111","","bandit","295","1103553","0.0-257.0-0.0","73281822","wem/bandit_single","A40LU73SS18IW","gain","6","","72","H","0","img/none_selected.jpg","0","0","1","0.2543503475","","false","220","0.2543503475","","main_expt","0.4683356487","","0.383917491","","0.311946342","","","","","","",""
"399","","bandit","296","1105721","0.0-258.0-0.0","73281822","wem/bandit_single","A40LU73SS18IW","gain","6","","72","H","0","img/none_selected.jpg","1","0","0","0.2776519347","","false","221","0.2776519347","","main_expt","0.4682635517","","0.3479973737","","0.2972788283","","","","","","",""
"257","","bandit","297","1107746","0.0-259.0-0.0","73281822","wem/bandit_single","A40LU73SS18IW","gain","6","","72","H","0","img/none_selected.jpg","1","0","0","0.2291835432","","false","222","0.2291835432","","main_expt","0.4771668828","","0.3845595158","","0.3550400804","","","","","","",""
"104","","bandit","298","1109618","0.0-260.0-0.0","73281822","wem/bandit_single","A40LU73SS18IW","gain","6","","72","H","0","img/none_selected.jpg","1","0","0","0.2266132179","","false","223","0.2266132179","","main_expt","0.4773959318","","0.368723436","","0.3246239653","","","","","","",""
"127","","bandit","299","1111514","0.0-261.0-0.0","73281822","wem/bandit_single","A40LU73SS18IW","gain","6","","72","H","0","img/none_selected.jpg","0","0","1","0.2124948974","","false","224","0.2124948974","","main_expt","0.4567335023","","0.3566991655","","0.351266899","","","","","","",""
"183","","bandit","300","1113466","0.0-262.0-0.0","73281822","wem/bandit_single","A40LU73SS18IW","gain","6","","72","H","0","img/none_selected.jpg","0","0","1","0.2168010387","","false","225","0.2168010387","","main_expt","0.4545703871","","0.3557331736","","0.3617362435","","","","","","",""
"15","","bandit","301","1115250","0.0-263.0-0.0","73281822","wem/bandit_single","A40LU73SS18IW","gain","6","","72","H","0","img/none_selected.jpg","0","0","1","0.2286352314","","false","226","0.2286352314","","main_expt","0.4563055184","","0.3620904828","","0.3625162538","","","","","","",""
"95","","bandit","302","1117114","0.0-264.0-0.0","73281822","wem/bandit_single","A40LU73SS18IW","gain","6","","72","H","0","img/none_selected.jpg","0","0","1","0.2349833204","","false","227","0.2349833204","","main_expt","0.4414344485","","0.3794330306","","0.3638477037","","","","","","",""
"70","","bandit","303","1118954","0.0-265.0-0.0","73281822","wem/bandit_single","A40LU73SS18IW","gain","6","","74","J","1","","1","0","0","0.4509897562","","false","228","0.2376541641","","main_expt","0.4509897562","","0.3480060926","","0.321865515","","","","","","",""
"32","","bandit","304","1120765","0.0-266.0-0.0","73281822","wem/bandit_single","A40LU73SS18IW","gain","6","","74","J","1","","1","0","0","0.4355264455","","false","229","0.2141250471","","main_expt","0.4355264455","","0.3197951212","","0.2574970425","","","","","","",""
"114","","bandit","305","1122650","0.0-267.0-0.0","73281822","wem/bandit_single","A40LU73SS18IW","gain","6","","74","J","1","","1","0","0","0.4393215817","","false","230","0.1986478114","","main_expt","0.4393215817","","0.2360623461","","0.3167366343","","","","","","",""
"79","","bandit","306","1124498","0.0-268.0-0.0","73281822","wem/bandit_single","A40LU73SS18IW","gain","6","","74","J","1","","0","0","1","0.426442838","","false","231","0.1632677176","","main_expt","0.426442838","","0.228441671","","0.359889087","","","","","","",""
"551","","bandit","307","1126820","0.0-269.0-0.0","73281822","wem/bandit_single","A40LU73SS18IW","gain","6","","74","J","1","","1","0","0","0.4455015341","","false","232","0.1437929512","","main_expt","0.4455015341","","0.2233622879","","0.3765691143","","","","","","",""
"116","","bandit","308","1128707","0.0-270.0-0.0","73281822","wem/bandit_single","A40LU73SS18IW","gain","6","","74","J","1","","1","0","0","0.4370113712","","false","233","0.2490618922","","main_expt","0.4370113712","","0.1782647691","","0.351320345","","","","","","",""
"79","","bandit","309","1130554","0.0-271.0-0.0","73281822","wem/bandit_single","A40LU73SS18IW","gain","6","","74","J","1","","0","0","1","0.4228056097","","false","234","0.2811602772","","main_expt","0.4228056097","","0.1971530904","","0.2997083133","","","","","","",""
"86","","bandit","310","1132407","0.0-272.0-0.0","73281822","wem/bandit_single","A40LU73SS18IW","gain","6","","74","J","1","","1","0","0","0.4176536857","","false","235","0.332316849","","main_expt","0.4176536857","","0.2109348075","","0.3526624454","","","","","","",""
"79","","bandit","311","1134255","0.0-273.0-0.0","73281822","wem/bandit_single","A40LU73SS18IW","gain","6","","74","J","1","","0","0","1","0.419442654","","false","236","0.3059905229","","main_expt","0.419442654","","0.1891579582","","0.3050627859","","","","","","",""
"311","","bandit","312","1136335","0.0-274.0-0.0","73281822","wem/bandit_single","A40LU73SS18IW","gain","6","","74","J","1","","0","0","1","0.4082659589","","false","237","0.3058344165","","main_expt","0.4082659589","","0.1278978542","","0.312969263","","","","","","",""
"278","","bandit","313","1138383","0.0-275.0-0.0","73281822","wem/bandit_single","A40LU73SS18IW","gain","6","","74","J","1","","1","0","0","0.4108407801","","false","238","0.2931512536","","main_expt","0.4108407801","","0.1509653188","","0.380225341","","","","","","",""
"198","","bandit","314","1140351","0.0-276.0-0.0","73281822","wem/bandit_single","A40LU73SS18IW","gain","6","","74","J","1","","0","0","1","0.4378360478","","false","239","0.2922133777","","main_expt","0.4378360478","","0.1919733462","","0.3657076542","","","","","","",""
"381","","bandit","315","1142503","0.0-277.0-0.0","73281822","wem/bandit_single","A40LU73SS18IW","gain","6","","74","J","1","","1","0","0","0.4467030129","","false","240","0.3452033359","","main_expt","0.4467030129","","0.1751407906","","0.3815359164","","","","","","",""
"157","","bandit","316","1144431","0.0-278.0-0.0","73281822","wem/bandit_single","A40LU73SS18IW","gain","6","","74","J","1","","0","0","1","0.4705393647","","false","241","0.3682897549","","main_expt","0.4705393647","","0.1759125222","","0.3251101936","","","","","","",""
"391","","bandit","317","1146591","0.0-279.0-0.0","73281822","wem/bandit_single","A40LU73SS18IW","gain","6","","74","J","1","","1","0","0","0.4610792938","","false","242","0.3628947189","","main_expt","0.4610792938","","0.2137068054","","0.3212185421","","","","","","",""
"167","","bandit","318","1148527","0.0-280.0-0.0","73281822","wem/bandit_single","A40LU73SS18IW","gain","6","","74","J","1","","1","0","0","0.4437729889","","false","243","0.3766569032","","main_expt","0.4437729889","","0.2179170348","","0.3270030252","","","","","","",""
"269","","bandit","319","1150567","0.0-281.0-0.0","73281822","wem/bandit_single","A40LU73SS18IW","gain","6","","74","J","1","","1","0","0","0.4199869792","","false","244","0.377991886","","main_expt","0.4199869792","","0.2426329099","","0.309973419","","","","","","",""
"173","","bandit","320","1152511","0.0-282.0-0.0","73281822","wem/bandit_single","A40LU73SS18IW","gain","6","","74","J","1","","1","0","0","0.4183767379","","false","245","0.304751896","","main_expt","0.4183767379","","0.2351694379","","0.3342881273","","","","","","",""
"86","","bandit","321","1154367","0.0-283.0-0.0","73281822","wem/bandit_single","A40LU73SS18IW","gain","6","","74","J","1","","0","0","1","0.4292136751","","false","246","0.3348187262","","main_expt","0.4292136751","","0.2111663312","","0.3149240913","","","","","","",""
"317","","bandit","322","1156454","0.0-284.0-0.0","73281822","wem/bandit_single","A40LU73SS18IW","gain","6","","74","J","1","","1","0","0","0.4577956797","","false","247","0.3307987246","","main_expt","0.4577956797","","0.1899020887","","0.296458043","","","","","","",""
"63","","bandit","323","1158287","0.0-285.0-0.0","73281822","wem/bandit_single","A40LU73SS18IW","gain","6","","74","J","1","","0","0","1","0.4586239927","","false","248","0.3774544282","","main_expt","0.4586239927","","0.2151484255","","0.3038576119","","","","","","",""
"101","","bandit","324","1160159","0.0-286.0-0.0","73281822","wem/bandit_single","A40LU73SS18IW","gain","6","","74","J","1","","1","0","0","0.4709187109","","false","249","0.3553688181","","main_expt","0.4709187109","","0.2454548658","","0.3383832125","","","","","","",""
"206","","bandit","325","1162135","0.0-287.0-0.0","73281822","wem/bandit_single","A40LU73SS18IW","gain","6","","74","J","1","","0","0","1","0.4742496359","","false","250","0.3209961504","","main_expt","0.4742496359","","0.1973527755","","0.3505221498","","","","","","",""
"157","","bandit","326","1164063","0.0-288.0-0.0","73281822","wem/bandit_single","A40LU73SS18IW","gain","6","","74","J","1","","0","0","1","0.4684276702","","false","251","0.2938420796","","main_expt","0.4684276702","","0.2459600056","","0.3439557404","","","","","","",""
"126","","bandit","327","1165959","0.0-289.0-0.0","73281822","wem/bandit_single","A40LU73SS18IW","gain","6","","74","J","1","","1","0","0","0.465775704","","false","252","0.2377141092","","main_expt","0.465775704","","0.2361341643","","0.3394881367","","","","","","",""
"62","","bandit","328","1167791","0.0-290.0-0.0","73281822","wem/bandit_single","A40LU73SS18IW","gain","6","","74","J","1","","1","0","0","0.4739398589","","false","253","0.28098189","","main_expt","0.4739398589","","0.2263014677","","0.3195186677","","","","","","",""
"46","","bandit","329","1169607","0.0-291.0-0.0","73281822","wem/bandit_single","A40LU73SS18IW","gain","6","","74","J","1","","0","0","1","0.4709597483","","false","254","0.36168886","","main_expt","0.4709597483","","0.2384195691","","0.3607388593","","","","","","",""
"52","","bandit","330","1171431","0.0-292.0-0.0","73281822","wem/bandit_single","A40LU73SS18IW","gain","6","","74","J","1","","0","0","1","0.468651231","","false","255","0.3196270919","","main_expt","0.468651231","","0.2186709452","","0.3801942793","","","","","","",""
"180","","bandit","331","1173383","0.0-293.0-0.0","73281822","wem/bandit_single","A40LU73SS18IW","gain","6","","74","J","1","","0","0","1","0.4837462493","","false","256","0.3201998045","","main_expt","0.4837462493","","0.1625458568","","0.2987962353","","","","","","",""
"1188","","bandit","332","1176342","0.0-294.0-0.0","73281822","wem/bandit_single","A40LU73SS18IW","gain","6","","74","J","1","","1","0","0","0.4842399178","","false","257","0.3576002339","","main_expt","0.4842399178","","0.159361747","","0.272571782","","","","","","",""
"103","","bandit","333","1178215","0.0-295.0-0.0","73281822","wem/bandit_single","A40LU73SS18IW","gain","6","","74","J","1","","1","0","0","0.4878873921","","false","258","0.3715220428","","main_expt","0.4878873921","","0.1556255119","","0.2593204486","","","","","","",""
"134","","bandit","334","1180119","0.0-296.0-0.0","73281822","wem/bandit_single","A40LU73SS18IW","gain","6","","74","J","1","","0","0","1","0.4869160663","","false","259","0.3730860303","","main_expt","0.4869160663","","0.1256368346","","0.2951424317","","","","","","",""
"253","","bandit","335","1182143","0.0-297.0-0.0","73281822","wem/bandit_single","A40LU73SS18IW","gain","6","","74","J","1","","1","0","0","0.4912834456","","false","260","0.3724964978","","main_expt","0.4912834456","","0.1449854444","","0.2369093976","","","","","","",""
"54","","bandit","336","1183967","0.0-298.0-0.0","73281822","wem/bandit_single","A40LU73SS18IW","gain","6","","74","J","1","","1","0","0","0.4907072989","","false","261","0.3574286068","","main_expt","0.4907072989","","0.1647157085","","0.2234433316","","","","","","",""
"44","","bandit","337","1185783","0.0-299.0-0.0","73281822","wem/bandit_single","A40LU73SS18IW","gain","6","","74","J","1","","1","0","0","0.4904114062","","false","262","0.4204463107","","main_expt","0.4904114062","","0.1586541082","","0.215626833","","","","","","",""
"32","","bandit","338","1187585","0.0-300.0-0.0","73281822","wem/bandit_single","A40LU73SS18IW","gain","6","","74","J","1","","0","0","1","0.4900075499","","false","263","0.4244263348","","main_expt","0.4900075499","","0.1683870388","","0.2227197798","","","","","","",""
"162","","bandit","339","1189519","0.0-301.0-0.0","73281822","wem/bandit_single","A40LU73SS18IW","gain","6","","74","J","1","","0","0","1","0.4922230388","","false","264","0.4217668892","","main_expt","0.4922230388","","0.2205087037","","0.2113558788","","","","","","",""
"204","","bandit","340","1191494","0.0-302.0-0.0","73281822","wem/bandit_single","A40LU73SS18IW","gain","6","","74","J","1","","0","0","1","0.4892111554","","false","265","0.3908218086","","main_expt","0.4892111554","","0.1554736059","","0.1814287308","","","","","","",""
"126","","bandit","341","1193387","0.0-303.0-0.0","73281822","wem/bandit_single","A40LU73SS18IW","gain","6","","74","J","1","","1","0","0","0.4894097466","","false","266","0.350583855","","main_expt","0.4894097466","","0.1556775797","","0.2579261203","","","","","","",""
"134","","bandit","342","1195291","0.0-304.0-0.0","73281822","wem/bandit_single","A40LU73SS18IW","gain","6","","74","J","1","","0","0","1","0.4898547377","","false","267","0.2971845499","","main_expt","0.4898547377","","0.1732223335","","0.3033521226","","","","","","",""
"294","","bandit","343","1197356","0.0-305.0-0.0","73281822","wem/bandit_single","A40LU73SS18IW","gain","6","","74","J","1","","1","0","0","0.4960714099","","false","268","0.3271935382","","main_expt","0.4960714099","","0.1670192172","","0.2697057224","","","","","","",""
"363","","bandit","344","1199491","0.0-306.0-0.0","73281822","wem/bandit_single","A40LU73SS18IW","gain","6","","74","J","1","","0","0","1","0.4951393121","","false","269","0.2912245063","","main_expt","0.4951393121","","0.1666577124","","0.3075876552","","","","","","",""
"142","","bandit","345","1201403","0.0-307.0-0.0","73281822","wem/bandit_single","A40LU73SS18IW","gain","6","","74","J","1","","0","0","1","0.4903783272","","false","270","0.3007980493","","main_expt","0.4903783272","","0.1133531577","","0.3437361696","","","","","","",""
"171","","bandit","346","1203347","0.0-308.0-0.0","73281822","wem/bandit_single","A40LU73SS18IW","gain","6","","74","J","1","","0","0","1","0.4932948231","","false","271","0.3025875308","","main_expt","0.4932948231","","0.1453503833","","0.2596534978","","","","","","",""
"213","","bandit","347","1205332","0.0-309.0-0.0","73281822","wem/bandit_single","A40LU73SS18IW","gain","6","","74","J","1","","0","0","1","0.4950636705","","false","272","0.2608882705","","main_expt","0.4950636705","","0.1542373291","","0.2680739133","","","","","","",""
"267","","bandit","348","1207371","0.0-310.0-0.0","73281822","wem/bandit_single","A40LU73SS18IW","gain","6","","74","J","1","","1","0","0","0.4866982898","","false","273","0.2985246063","","main_expt","0.4866982898","","0.1312836042","","0.2287209558","","","","","","",""
"292","","bandit","349","1209435","0.0-311.0-0.0","73281822","wem/bandit_single","A40LU73SS18IW","gain","6","","74","J","1","","0","0","1","0.4654226264","","false","274","0.296104213","","main_expt","0.4654226264","","0.1616535947","","0.2659047846","","","","","","",""
"244","","bandit","350","1211451","0.0-312.0-0.0","73281822","wem/bandit_single","A40LU73SS18IW","gain","6","","75","K","2","","1","0","0","0.163822666","","false","275","0.2897414639","","main_expt","0.4633702838","","0.163822666","","0.2303642271","","","","","","",""
"80","","bandit","351","1213307","0.0-313.0-0.0","73281822","wem/bandit_single","A40LU73SS18IW","gain","6","","75","K","2","","0","0","1","0.1500588852","","false","276","0.296822441","","main_expt","0.4741710053","","0.1500588852","","0.2631654739","","","","","","",""
"189","","bandit","352","1215267","0.0-314.0-0.0","73281822","wem/bandit_single","A40LU73SS18IW","gain","6","","75","K","2","","1","0","0","0.1975700973","","false","277","0.2769528726","","main_expt","0.4821206929","","0.1975700973","","0.2660527836","","","","","","",""
"100","","bandit","353","1217139","0.0-315.0-0.0","73281822","wem/bandit_single","A40LU73SS18IW","gain","6","","75","K","2","","1","0","0","0.1355298524","","false","278","0.3356585436","","main_expt","0.4704549119","","0.1355298524","","0.2869547209","","","","","","",""
"35","","bandit","354","1218947","0.0-316.0-0.0","73281822","wem/bandit_single","A40LU73SS18IW","gain","6","","75","K","2","","0","0","1","0.1437345226","","false","279","0.3222384225","","main_expt","0.4749598821","","0.1437345226","","0.3594721793","","","","","","",""
"107","","bandit","355","1220827","0.0-317.0-0.0","73281822","wem/bandit_single","A40LU73SS18IW","gain","6","","75","K","2","","0","0","1","0.126787642","","false","280","0.27346357","","main_expt","0.4385317488","","0.126787642","","0.3903699723","","","","","","",""
"66","","bandit","356","1222667","0.0-318.0-0.0","73281822","wem/bandit_single","A40LU73SS18IW","gain","6","","75","K","2","","0","0","1","0.1765789866","","false","281","0.3633072925","","main_expt","0.4397970497","","0.1765789866","","0.4583904318","","","","","","",""
"67","","bandit","357","1224507","0.0-319.0-0.0","73281822","wem/bandit_single","A40LU73SS18IW","gain","6","","75","K","2","","0","0","1","0.1659157347","","false","282","0.3269934488","","main_expt","0.4485424667","","0.1659157347","","0.4689346609","","","","","","",""
"98","","bandit","358","1226379","0.0-320.0-0.0","73281822","wem/bandit_single","A40LU73SS18IW","gain","6","","76","L","3","","0","0","1","0.460541741","","false","283","0.324321327","","main_expt","0.4460930912","","0.1876778028","","0.460541741","","","","","","",""
"76","","bandit","359","1228228","0.0-321.0-0.0","73281822","wem/bandit_single","A40LU73SS18IW","gain","6","","76","L","3","","1","0","0","0.4485703909","","false","284","0.2677217275","","main_expt","0.46041158","","0.2072959333","","0.4485703909","","","","","","",""
"338","","bandit","360","1230340","0.0-322.0-0.0","73281822","wem/bandit_single","A40LU73SS18IW","gain","6","","76","L","3","","0","0","1","0.4493749552","","false","285","0.2832280908","","main_expt","0.4722631388","","0.2171876524","","0.4493749552","","","","","","",""
"289","","bandit","361","1232403","0.0-323.0-0.0","73281822","wem/bandit_single","A40LU73SS18IW","gain","6","","76","L","3","","0","0","1","0.4223312446","","false","286","0.3338799161","","main_expt","0.4710864859","","0.224404947","","0.4223312446","","","","","","",""
"266","","bandit","362","1234443","0.0-324.0-0.0","73281822","wem/bandit_single","A40LU73SS18IW","gain","6","","76","L","3","","1","0","0","0.457140216","","false","287","0.3484096991","","main_expt","0.4400158941","","0.2249093708","","0.457140216","","","","","","",""
"171","","bandit","363","1236387","0.0-325.0-0.0","73281822","wem/bandit_single","A40LU73SS18IW","gain","6","","76","L","3","","0","0","1","0.4411377771","","false","288","0.3215301514","","main_expt","0.4036546776","","0.2219747159","","0.4411377771","","","","","","",""
"90","","bandit","364","1238251","0.0-326.0-0.0","73281822","wem/bandit_single","A40LU73SS18IW","gain","6","","76","L","3","","0","0","1","0.4501271696","","false","289","0.2965974011","","main_expt","0.4324218596","","0.2183007497","","0.4501271696","","","","","","",""
"107","","bandit","365","1240132","0.0-327.0-0.0","73281822","wem/bandit_single","A40LU73SS18IW","gain","6","","76","L","3","","0","0","1","0.4436507911","","false","290","0.2926361454","","main_expt","0.4536473803","","0.2481136515","","0.4436507911","","","","","","",""
"73","","bandit","366","1241979","0.0-328.0-0.0","73281822","wem/bandit_single","A40LU73SS18IW","gain","6","","76","L","3","","1","0","0","0.4381939672","","false","291","0.243163711","","main_expt","0.4634661847","","0.2972088317","","0.4381939672","","","","","","",""
"171","","bandit","367","1243923","0.0-329.0-0.0","73281822","wem/bandit_single","A40LU73SS18IW","gain","6","","76","L","3","","0","0","1","0.4101305143","","false","292","0.2064952975","","main_expt","0.4609966616","","0.2998647236","","0.4101305143","","","","","","",""
"144","","bandit","368","1245844","0.0-330.0-0.0","73281822","wem/bandit_single","A40LU73SS18IW","gain","6","","76","L","3","","1","0","0","0.4297915702","","false","293","0.2099334792","","main_expt","0.4648618971","","0.2861810992","","0.4297915702","","","","","","",""
"98","","bandit","369","1247715","0.0-331.0-0.0","73281822","wem/bandit_single","A40LU73SS18IW","gain","6","","76","L","3","","1","0","0","0.4537219743","","false","294","0.2507358833","","main_expt","0.4582487824","","0.345484004","","0.4537219743","","","","","","",""
"115","","bandit","370","1249603","0.0-332.0-0.0","73281822","wem/bandit_single","A40LU73SS18IW","gain","6","","76","L","3","","0","0","1","0.4694953972","","false","295","0.2494268831","","main_expt","0.4482247061","","0.3251772281","","0.4694953972","","","","","","",""
"132","","bandit","371","1251507","0.0-333.0-0.0","73281822","wem/bandit_single","A40LU73SS18IW","gain","6","","76","L","3","","0","0","1","0.4880383038","","false","296","0.2867080039","","main_expt","0.42326912","","0.2953905587","","0.4880383038","","","","","","",""
"114","","bandit","372","1253392","0.0-334.0-0.0","73281822","wem/bandit_single","A40LU73SS18IW","gain","6","","76","L","3","","1","0","0","0.4916251568","","false","297","0.2983387387","","main_expt","0.4151021773","","0.2717848064","","0.4916251568","","","","","","",""
"216","","bandit","373","1255382","0.0-335.0-0.0","73281822","wem/bandit_single","A40LU73SS18IW","gain","6","","76","L","3","","0","0","1","0.4921476303","","false","298","0.2982690602","","main_expt","0.4270228344","","0.2682571213","","0.4921476303","","","","","","",""
"108","","bandit","374","1257264","0.0-336.0-0.0","73281822","wem/bandit_single","A40LU73SS18IW","gain","6","","76","L","3","","1","0","0","0.4800884689","","false","299","0.2955511463","","main_expt","0.4168509428","","0.2400439073","","0.4800884689","","","","","","",""
"138","","bandit","375","1259176","0.0-337.0-0.0","73281822","wem/bandit_single","A40LU73SS18IW","gain","6","","76","L","3","","0","0","1","0.4882901572","","false","300","0.3236523504","","main_expt","0.414464059","","0.2494994512","","0.4882901572","","","","","","",""
"162","","bandit","376","1261112","0.0-338.0-0.0","73281822","wem/bandit_single","A40LU73SS18IW","gain","6","","76","L","3","","0","0","1","0.4849478036","","false","301","0.2926345705","","main_expt","0.423631951","","0.2511279273","","0.4849478036","","","","","","",""
"169","","bandit","377","1263055","0.0-339.0-0.0","73281822","wem/bandit_single","A40LU73SS18IW","gain","6","","76","L","3","","0","0","1","0.4799164125","","false","302","0.3320174044","","main_expt","0.4456639791","","0.2183253448","","0.4799164125","","","","","","",""
