"rt","responses","trial_type","trial_index","time_elapsed","internal_node_id","subjID","study","MID","cond","drift","key_press","respCharCode","respKey","respChoiceNum","respChoice","gems","bombs","no_reward","GemPrChosen","BombPrChosen","practice","trial_counter","WinPr_0","LosePr_0","trial_label","WinPr_1","LosePr_1","WinPr_2","LosePr_2","WinPr_3","LosePr_3","Q0","Q1","Q2","gender","age","ethnicity"
"8365","{""Q0"":""A3DS5B06ZCD3E3""}","survey-text","0","8369","0.0-0.0","75464013","wem/bandit_single","A3DS5B06ZCD3E3","gain","3","","","","","","","","","","","","","","","","","","","","","","","","","","",""
"1763","","text","1","11135","0.0-1.0","75464013","wem/bandit_single","A3DS5B06ZCD3E3","gain","3","32","","","","","","","","","","","","","","","","","","","","","","","","","",""
"3598","","text","2","14734","0.0-2.0","75464013","wem/bandit_single","A3DS5B06ZCD3E3","gain","3","32","","","","","","","","","","","","","","","","","","","","","","","","","",""
"26111","","text","3","40847","0.0-3.0","75464013","wem/bandit_single","A3DS5B06ZCD3E3","gain","3","32","","","","","","","","","","","","","","","","","","","","","","","","","",""
"9790","","text","4","50639","0.0-4.0","75464013","wem/bandit_single","A3DS5B06ZCD3E3","gain","3","32","","","","","","","","","","","","","","","","","","","","","","","","","",""
"6271","","text","5","56911","0.0-5.0","75464013","wem/bandit_single","A3DS5B06ZCD3E3","gain","3","32","","","","","","","","","","","","","","","","","","","","","","","","","",""
"4319","","text","6","61230","0.0-6.0","75464013","wem/bandit_single","A3DS5B06ZCD3E3","gain","3","32","","","","","","","","","","","","","","","","","","","","","","","","","",""
"4942","","text","7","66174","0.0-7.0","75464013","wem/bandit_single","A3DS5B06ZCD3E3","gain","3","32","","","","","","","","","","","","","","","","","","","","","","","","","",""
"2944","","text","8","69119","0.0-8.0","75464013","wem/bandit_single","A3DS5B06ZCD3E3","gain","3","32","","","","","","","","","","","","","","","","","","","","","","","","","",""
"5198","","text","9","74318","0.0-9.0","75464013","wem/bandit_single","A3DS5B06ZCD3E3","gain","3","32","","","","","","","","","","","","","","","","","","","","","","","","","",""
"4190","","text","10","78510","0.0-10.0","75464013","wem/bandit_single","A3DS5B06ZCD3E3","gain","3","32","","","","","","","","","","","","","","","","","","","","","","","","","",""
"4366","","text","11","82878","0.0-11.0","75464013","wem/bandit_single","A3DS5B06ZCD3E3","gain","3","32","","","","","","","","","","","","","","","","","","","","","","","","","",""
"1421","","bandit","12","85804","0.0-12.0-0.0","75464013","wem/bandit_single","A3DS5B06ZCD3E3","gain","3","","74","J","0","img/none_selected_demo.jpg","0","0","1","0","0","true","0","0","0","","","","","","","","","","","","",""
"1254","","bandit","13","88811","0.0-13.0-0.0","75464013","wem/bandit_single","A3DS5B06ZCD3E3","gain","3","","75","K","0","img/none_selected_demo.jpg","0","0","1","0","0","true","0","0","0","","","","","","","","","","","","",""
"2326","","text","14","91390","0.0-14.0","75464013","wem/bandit_single","A3DS5B06ZCD3E3","gain","3","32","","","","","","","","","","","","","","","","","","","","","","","","","",""
"1407","","text","15","92798","0.0-15.0","75464013","wem/bandit_single","A3DS5B06ZCD3E3","gain","3","32","","","","","","","","","","","","","","","","","","","","","","","","","",""
"2880","","text","16","95678","0.0-16.0","75464013","wem/bandit_single","A3DS5B06ZCD3E3","gain","3","32","","","","","","","","","","","","","","","","","","","","","","","","","",""
"2382","","text","17","98062","0.0-17.0","75464013","wem/bandit_single","A3DS5B06ZCD3E3","gain","3","32","","","","","","","","","","","","","","","","","","","","","","","","","",""
"1566","","bandit","18","101132","0.0-18.0-0.0","75464013","wem/bandit_single","A3DS5B06ZCD3E3","gain","3","","74","J","0","img/none_selected_demo.jpg","1","0","0","0.8","0","true","0","0.8","0","80_20_practice","0.2","0","","","","","","","","","",""
"806","","bandit","19","103691","0.0-18.0-1.0","75464013","wem/bandit_single","A3DS5B06ZCD3E3","gain","3","","74","J","0","img/none_selected_demo.jpg","1","0","0","0.8","0","true","0","0.8","0","80_20_practice","0.2","0","","","","","","","","","",""
"662","","bandit","20","106108","0.0-18.0-2.0","75464013","wem/bandit_single","A3DS5B06ZCD3E3","gain","3","","74","J","0","img/none_selected_demo.jpg","1","0","0","0.8","0","true","0","0.8","0","80_20_practice","0.2","0","","","","","","","","","",""
"661","","bandit","21","108524","0.0-18.0-3.0","75464013","wem/bandit_single","A3DS5B06ZCD3E3","gain","3","","74","J","0","img/none_selected_demo.jpg","1","0","0","0.8","0","true","0","0.8","0","80_20_practice","0.2","0","","","","","","","","","",""
"821","","bandit","22","111099","0.0-18.0-4.0","75464013","wem/bandit_single","A3DS5B06ZCD3E3","gain","3","","75","K","1","","0","0","1","0.2","0","true","0","0.8","0","80_20_practice","0.2","0","","","","","","","","","",""
"245","","bandit","23","113099","0.0-18.0-5.0","75464013","wem/bandit_single","A3DS5B06ZCD3E3","gain","3","","74","J","0","img/none_selected_demo.jpg","1","0","0","0.8","0","true","0","0.8","0","80_20_practice","0.2","0","","","","","","","","","",""
"327","","bandit","24","115179","0.0-18.0-6.0","75464013","wem/bandit_single","A3DS5B06ZCD3E3","gain","3","","74","J","0","img/none_selected_demo.jpg","1","0","0","0.8","0","true","0","0.8","0","80_20_practice","0.2","0","","","","","","","","","",""
"502","","bandit","25","117435","0.0-18.0-7.0","75464013","wem/bandit_single","A3DS5B06ZCD3E3","gain","3","","74","J","0","img/none_selected_demo.jpg","1","0","0","0.8","0","true","0","0.8","0","80_20_practice","0.2","0","","","","","","","","","",""
"117","","bandit","26","119307","0.0-18.0-8.0","75464013","wem/bandit_single","A3DS5B06ZCD3E3","gain","3","","74","J","0","img/none_selected_demo.jpg","0","0","1","0.8","0","true","0","0.8","0","80_20_practice","0.2","0","","","","","","","","","",""
"181","","bandit","27","121243","0.0-18.0-9.0","75464013","wem/bandit_single","A3DS5B06ZCD3E3","gain","3","","74","J","0","img/none_selected_demo.jpg","1","0","0","0.8","0","true","0","0.8","0","80_20_practice","0.2","0","","","","","","","","","",""
"198","","bandit","28","123195","0.0-18.0-10.0","75464013","wem/bandit_single","A3DS5B06ZCD3E3","gain","3","","74","J","0","img/none_selected_demo.jpg","1","0","0","0.8","0","true","0","0.8","0","80_20_practice","0.2","0","","","","","","","","","",""
"166","","bandit","29","125116","0.0-18.0-11.0","75464013","wem/bandit_single","A3DS5B06ZCD3E3","gain","3","","74","J","0","img/none_selected_demo.jpg","0","0","1","0.8","0","true","0","0.8","0","80_20_practice","0.2","0","","","","","","","","","",""
"229","","bandit","30","127100","0.0-18.0-12.0","75464013","wem/bandit_single","A3DS5B06ZCD3E3","gain","3","","74","J","0","img/none_selected_demo.jpg","1","0","0","0.8","0","true","0","0.8","0","80_20_practice","0.2","0","","","","","","","","","",""
"117","","bandit","31","128971","0.0-18.0-13.0","75464013","wem/bandit_single","A3DS5B06ZCD3E3","gain","3","","74","J","0","img/none_selected_demo.jpg","1","0","0","0.8","0","true","0","0.8","0","80_20_practice","0.2","0","","","","","","","","","",""
"181","","bandit","32","130907","0.0-18.0-14.0","75464013","wem/bandit_single","A3DS5B06ZCD3E3","gain","3","","74","J","0","img/none_selected_demo.jpg","1","0","0","0.8","0","true","0","0.8","0","80_20_practice","0.2","0","","","","","","","","","",""
"214","","bandit","33","132875","0.0-18.0-15.0","75464013","wem/bandit_single","A3DS5B06ZCD3E3","gain","3","","74","J","0","img/none_selected_demo.jpg","1","0","0","0.8","0","true","0","0.8","0","80_20_practice","0.2","0","","","","","","","","","",""
"277","","bandit","34","134907","0.0-18.0-16.0","75464013","wem/bandit_single","A3DS5B06ZCD3E3","gain","3","","74","J","0","img/none_selected_demo.jpg","0","0","1","0.8","0","true","0","0.8","0","80_20_practice","0.2","0","","","","","","","","","",""
"70","","bandit","35","136731","0.0-18.0-17.0","75464013","wem/bandit_single","A3DS5B06ZCD3E3","gain","3","","74","J","0","img/none_selected_demo.jpg","0","0","1","0.8","0","true","0","0.8","0","80_20_practice","0.2","0","","","","","","","","","",""
"85","","bandit","36","138572","0.0-18.0-18.0","75464013","wem/bandit_single","A3DS5B06ZCD3E3","gain","3","","74","J","0","img/none_selected_demo.jpg","0","0","1","0.8","0","true","0","0.8","0","80_20_practice","0.2","0","","","","","","","","","",""
"69","","bandit","37","140396","0.0-18.0-19.0","75464013","wem/bandit_single","A3DS5B06ZCD3E3","gain","3","","75","K","1","","0","0","1","0.2","0","true","0","0.8","0","80_20_practice","0.2","0","","","","","","","","","",""
"7845","","text","38","148494","0.0-19.0","75464013","wem/bandit_single","A3DS5B06ZCD3E3","gain","3","32","","","","","","","","","","","","","","","","","","","","","","","","","",""
"1917","","bandit","39","151915","0.0-20.0-0.0","75464013","wem/bandit_single","A3DS5B06ZCD3E3","gain","3","","74","J","0","img/none_selected_demo.jpg","0","0","1","0","0","true","0","0","0","","0","0","","","","","","","","","",""
"6245","","text","40","158414","0.0-21.0","75464013","wem/bandit_single","A3DS5B06ZCD3E3","gain","3","32","","","","","","","","","","","","","","","","","","","","","","","","","",""
"4415","","text","41","162830","0.0-22.0","75464013","wem/bandit_single","A3DS5B06ZCD3E3","gain","3","32","","","","","","","","","","","","","","","","","","","","","","","","","",""
"2558","","text","42","165390","0.0-23.0","75464013","wem/bandit_single","A3DS5B06ZCD3E3","gain","3","32","","","","","","","","","","","","","","","","","","","","","","","","","",""
"2190","","text","43","167582","0.0-24.0","75464013","wem/bandit_single","A3DS5B06ZCD3E3","gain","3","32","","","","","","","","","","","","","","","","","","","","","","","","","",""
"11086","","text","44","178670","0.0-25.0","75464013","wem/bandit_single","A3DS5B06ZCD3E3","gain","3","32","","","","","","","","","","","","","","","","","","","","","","","","","",""
"2862","","text","45","181534","0.0-26.0","75464013","wem/bandit_single","A3DS5B06ZCD3E3","gain","3","32","","","","","","","","","","","","","","","","","","","","","","","","","",""
"4013","","text","46","185549","0.0-27.0","75464013","wem/bandit_single","A3DS5B06ZCD3E3","gain","3","32","","","","","","","","","","","","","","","","","","","","","","","","","",""
"2959","","text","47","188509","0.0-28.0","75464013","wem/bandit_single","A3DS5B06ZCD3E3","gain","3","32","","","","","","","","","","","","","","","","","","","","","","","","","",""
"3631","","text","48","192142","0.0-29.0","75464013","wem/bandit_single","A3DS5B06ZCD3E3","gain","3","32","","","","","","","","","","","","","","","","","","","","","","","","","",""
"1918","","text","49","194062","0.0-30.0","75464013","wem/bandit_single","A3DS5B06ZCD3E3","gain","3","32","","","","","","","","","","","","","","","","","","","","","","","","","",""
"3566","","text","50","197629","0.0-31.0","75464013","wem/bandit_single","A3DS5B06ZCD3E3","gain","3","32","","","","","","","","","","","","","","","","","","","","","","","","","",""
"1982","","bandit","51","201115","0.0-32.0-0.0","75464013","wem/bandit_single","A3DS5B06ZCD3E3","gain","3","","72","H","0","img/none_selected.jpg","1","0","0","0.8","0","true","0","0.8","0","full_practice","0.2","0","0.6","0","0.2","0","","","","","",""
"148","","bandit","52","203019","0.0-32.0-1.0","75464013","wem/bandit_single","A3DS5B06ZCD3E3","gain","3","","72","H","0","img/none_selected.jpg","1","0","0","0.8","0","true","0","0.8","0","full_practice","0.2","0","0.6","0","0.2","0","","","","","",""
"85","","bandit","53","204860","0.0-32.0-2.0","75464013","wem/bandit_single","A3DS5B06ZCD3E3","gain","3","","72","H","0","img/none_selected.jpg","1","0","0","0.8","0","true","0","0.8","0","full_practice","0.2","0","0.6","0","0.2","0","","","","","",""
"131","","bandit","54","206747","0.0-32.0-3.0","75464013","wem/bandit_single","A3DS5B06ZCD3E3","gain","3","","72","H","0","img/none_selected.jpg","1","0","0","0.8","0","true","0","0.8","0","full_practice","0.2","0","0.6","0","0.2","0","","","","","",""
"166","","bandit","55","208666","0.0-32.0-4.0","75464013","wem/bandit_single","A3DS5B06ZCD3E3","gain","3","","72","H","0","img/none_selected.jpg","1","0","0","0.8","0","true","0","0.8","0","full_practice","0.2","0","0.6","0","0.2","0","","","","","",""
"117","","bandit","56","210539","0.0-32.0-5.0","75464013","wem/bandit_single","A3DS5B06ZCD3E3","gain","3","","72","H","0","img/none_selected.jpg","0","0","1","0.8","0","true","0","0.8","0","full_practice","0.2","0","0.6","0","0.2","0","","","","","",""
"116","","bandit","57","212411","0.0-32.0-6.0","75464013","wem/bandit_single","A3DS5B06ZCD3E3","gain","3","","72","H","0","img/none_selected.jpg","1","0","0","0.8","0","true","0","0.8","0","full_practice","0.2","0","0.6","0","0.2","0","","","","","",""
"84","","bandit","58","214251","0.0-32.0-7.0","75464013","wem/bandit_single","A3DS5B06ZCD3E3","gain","3","","72","H","0","img/none_selected.jpg","1","0","0","0.8","0","true","0","0.8","0","full_practice","0.2","0","0.6","0","0.2","0","","","","","",""
"85","","bandit","59","216092","0.0-32.0-8.0","75464013","wem/bandit_single","A3DS5B06ZCD3E3","gain","3","","72","H","0","img/none_selected.jpg","1","0","0","0.8","0","true","0","0.8","0","full_practice","0.2","0","0.6","0","0.2","0","","","","","",""
"52","","bandit","60","217899","0.0-32.0-9.0","75464013","wem/bandit_single","A3DS5B06ZCD3E3","gain","3","","72","H","0","img/none_selected.jpg","1","0","0","0.8","0","true","0","0.8","0","full_practice","0.2","0","0.6","0","0.2","0","","","","","",""
"100","","bandit","61","219757","0.0-32.0-10.0","75464013","wem/bandit_single","A3DS5B06ZCD3E3","gain","3","","72","H","0","img/none_selected.jpg","1","0","0","0.8","0","true","0","0.8","0","full_practice","0.2","0","0.6","0","0.2","0","","","","","",""
"131","","bandit","62","221643","0.0-32.0-11.0","75464013","wem/bandit_single","A3DS5B06ZCD3E3","gain","3","","72","H","0","img/none_selected.jpg","1","0","0","0.8","0","true","0","0.8","0","full_practice","0.2","0","0.6","0","0.2","0","","","","","",""
"148","","bandit","63","223547","0.0-32.0-12.0","75464013","wem/bandit_single","A3DS5B06ZCD3E3","gain","3","","72","H","0","img/none_selected.jpg","1","0","0","0.8","0","true","0","0.8","0","full_practice","0.2","0","0.6","0","0.2","0","","","","","",""
"180","","bandit","64","225483","0.0-32.0-13.0","75464013","wem/bandit_single","A3DS5B06ZCD3E3","gain","3","","72","H","0","img/none_selected.jpg","1","0","0","0.8","0","true","0","0.8","0","full_practice","0.2","0","0.6","0","0.2","0","","","","","",""
"101","","bandit","65","227339","0.0-32.0-14.0","75464013","wem/bandit_single","A3DS5B06ZCD3E3","gain","3","","72","H","0","img/none_selected.jpg","1","0","0","0.8","0","true","0","0.8","0","full_practice","0.2","0","0.6","0","0.2","0","","","","","",""
"68","","bandit","66","229163","0.0-32.0-15.0","75464013","wem/bandit_single","A3DS5B06ZCD3E3","gain","3","","72","H","0","img/none_selected.jpg","1","0","0","0.8","0","true","0","0.8","0","full_practice","0.2","0","0.6","0","0.2","0","","","","","",""
"68","","bandit","67","230987","0.0-32.0-16.0","75464013","wem/bandit_single","A3DS5B06ZCD3E3","gain","3","","72","H","0","img/none_selected.jpg","1","0","0","0.8","0","true","0","0.8","0","full_practice","0.2","0","0.6","0","0.2","0","","","","","",""
"148","","bandit","68","232892","0.0-32.0-17.0","75464013","wem/bandit_single","A3DS5B06ZCD3E3","gain","3","","72","H","0","img/none_selected.jpg","1","0","0","0.8","0","true","0","0.8","0","full_practice","0.2","0","0.6","0","0.2","0","","","","","",""
"117","","bandit","69","234762","0.0-32.0-18.0","75464013","wem/bandit_single","A3DS5B06ZCD3E3","gain","3","","72","H","0","img/none_selected.jpg","1","0","0","0.8","0","true","0","0.8","0","full_practice","0.2","0","0.6","0","0.2","0","","","","","",""
"181","","bandit","70","236699","0.0-32.0-19.0","75464013","wem/bandit_single","A3DS5B06ZCD3E3","gain","3","","72","H","0","img/none_selected.jpg","1","0","0","0.8","0","true","0","0.8","0","full_practice","0.2","0","0.6","0","0.2","0","","","","","",""
"4866","","text","71","241821","0.0-33.0","75464013","wem/bandit_single","A3DS5B06ZCD3E3","gain","3","32","","","","","","","","","","","","","","","","","","","","","","","","","",""
"11669","","text","72","254493","0.0-34.0","75464013","wem/bandit_single","A3DS5B06ZCD3E3","gain","3","32","","","","","","","","","","","","","","","","","","","","","","","","","",""
"8078","","text","73","262573","0.0-35.0","75464013","wem/bandit_single","A3DS5B06ZCD3E3","gain","3","32","","","","","","","","","","","","","","","","","","","","","","","","","",""
"5183","","text","74","267757","0.0-36.0","75464013","wem/bandit_single","A3DS5B06ZCD3E3","gain","3","32","","","","","","","","","","","","","","","","","","","","","","","","","",""
"4398","","text","75","272157","0.0-37.0","75464013","wem/bandit_single","A3DS5B06ZCD3E3","gain","3","32","","","","","","","","","","","","","","","","","","","","","","","","","",""
"1774","","bandit","76","275435","0.0-38.0-0.0","75464013","wem/bandit_single","A3DS5B06ZCD3E3","gain","3","","72","H","0","img/none_selected.jpg","0","0","1","0.3417032333","","false","1","0.3417032333","","main_expt","0.2211287853","","0.2015711498","","0.06813583588","","","","","","",""
"84","","bandit","77","277275","0.0-39.0-0.0","75464013","wem/bandit_single","A3DS5B06ZCD3E3","gain","3","","72","H","0","img/none_selected.jpg","0","0","1","0.3935143322","","false","2","0.3935143322","","main_expt","0.2921894834","","0.1868286341","","0.08840771113","","","","","","",""
"84","","bandit","78","279115","0.0-40.0-0.0","75464013","wem/bandit_single","A3DS5B06ZCD3E3","gain","3","","72","H","0","img/none_selected.jpg","1","0","0","0.3247841161","","false","3","0.3247841161","","main_expt","0.2712314767","","0.2285659085","","0.14311428","","","","","","",""
"149","","bandit","79","281019","0.0-41.0-0.0","75464013","wem/bandit_single","A3DS5B06ZCD3E3","gain","3","","72","H","0","img/none_selected.jpg","0","0","1","0.3524809632","","false","4","0.3524809632","","main_expt","0.3501044345","","0.2587006496","","0.1389033164","","","","","","",""
"37","","bandit","80","282811","0.0-42.0-0.0","75464013","wem/bandit_single","A3DS5B06ZCD3E3","gain","3","","72","H","0","img/none_selected.jpg","0","0","1","0.3243282494","","false","5","0.3243282494","","main_expt","0.3826883046","","0.2238216231","","0.1064755534","","","","","","",""
"52","","bandit","81","284619","0.0-43.0-0.0","75464013","wem/bandit_single","A3DS5B06ZCD3E3","gain","3","","72","H","0","img/none_selected.jpg","0","0","1","0.3856520047","","false","6","0.3856520047","","main_expt","0.3538977559","","0.2114086621","","0.07607549968","","","","","","",""
"52","","bandit","82","286427","0.0-44.0-0.0","75464013","wem/bandit_single","A3DS5B06ZCD3E3","gain","3","","74","J","1","","0","0","1","0.3911179113","","false","7","0.3595299576","","main_expt","0.3911179113","","0.225256176","","0.0490522351","","","","","","",""
"68","","bandit","83","288251","0.0-45.0-0.0","75464013","wem/bandit_single","A3DS5B06ZCD3E3","gain","3","","74","J","1","","0","0","1","0.3378010318","","false","8","0.2908809246","","main_expt","0.3378010318","","0.1920600422","","0.04564729275","","","","","","",""
"2085","","bandit","84","292091","0.0-46.0-0.0","75464013","wem/bandit_single","A3DS5B06ZCD3E3","gain","3","","74","J","1","","1","0","0","0.3584091786","","false","9","0.3401169694","","main_expt","0.3584091786","","0.222474992","","0.05361883364","","","","","","",""
"181","","bandit","85","294027","0.0-47.0-0.0","75464013","wem/bandit_single","A3DS5B06ZCD3E3","gain","3","","74","J","1","","0","0","1","0.3822252457","","false","10","0.370347707","","main_expt","0.3822252457","","0.1720297318","","0.05689605437","","","","","","",""
"36","","bandit","86","295819","0.0-48.0-0.0","75464013","wem/bandit_single","A3DS5B06ZCD3E3","gain","3","","74","J","1","","0","0","1","0.4003480189","","false","11","0.3385652673","","main_expt","0.4003480189","","0.1672236423","","0.05596529361","","","","","","",""
"164","","bandit","87","297739","0.0-49.0-0.0","75464013","wem/bandit_single","A3DS5B06ZCD3E3","gain","3","","75","K","2","","1","0","0","0.1908353862","","false","12","0.3433253296","","main_expt","0.4035898181","","0.1908353862","","0.07455145674","","","","","","",""
"68","","bandit","88","299562","0.0-50.0-0.0","75464013","wem/bandit_single","A3DS5B06ZCD3E3","gain","3","","75","K","2","","0","0","1","0.1373256951","","false","13","0.3306460316","","main_expt","0.3939267589","","0.1373256951","","0.1061797552","","","","","","",""
"1045","","bandit","89","302363","0.0-51.0-0.0","75464013","wem/bandit_single","A3DS5B06ZCD3E3","gain","3","","75","K","2","","0","0","1","0.1605467602","","false","14","0.3423394156","","main_expt","0.4058751809","","0.1605467602","","0.09003395111","","","","","","",""
"196","","bandit","90","304315","0.0-52.0-0.0","75464013","wem/bandit_single","A3DS5B06ZCD3E3","gain","3","","75","K","2","","0","0","1","0.1270826231","","false","15","0.3514631564","","main_expt","0.3784768297","","0.1270826231","","0.09190110762","","","","","","",""
"99","","bandit","91","306171","0.0-53.0-0.0","75464013","wem/bandit_single","A3DS5B06ZCD3E3","gain","3","","75","K","2","","0","0","1","0.1659789958","","false","16","0.3763865137","","main_expt","0.3742197382","","0.1659789958","","0.1119147711","","","","","","",""
"84","","bandit","92","308010","0.0-54.0-0.0","75464013","wem/bandit_single","A3DS5B06ZCD3E3","gain","3","","76","L","3","","1","0","0","0.1268228496","","false","17","0.3613216018","","main_expt","0.3738750299","","0.1810296119","","0.1268228496","","","","","","",""
"100","","bandit","93","309866","0.0-55.0-0.0","75464013","wem/bandit_single","A3DS5B06ZCD3E3","gain","3","","76","L","3","","0","0","1","0.160542793","","false","18","0.3354311471","","main_expt","0.30878177","","0.2209588372","","0.160542793","","","","","","",""
"150","","bandit","94","311771","0.0-56.0-0.0","75464013","wem/bandit_single","A3DS5B06ZCD3E3","gain","3","","76","L","3","","0","0","1","0.1913020378","","false","19","0.3151580681","","main_expt","0.3257740717","","0.1577150754","","0.1913020378","","","","","","",""
"52","","bandit","95","313579","0.0-57.0-0.0","75464013","wem/bandit_single","A3DS5B06ZCD3E3","gain","3","","76","L","3","","0","0","1","0.2201213849","","false","20","0.2633525784","","main_expt","0.2780557495","","0.2368366468","","0.2201213849","","","","","","",""
"148","","bandit","96","315483","0.0-58.0-0.0","75464013","wem/bandit_single","A3DS5B06ZCD3E3","gain","3","","76","L","3","","1","0","0","0.1747441944","","false","21","0.2730255539","","main_expt","0.2552615423","","0.1692925459","","0.1747441944","","","","","","",""
"132","","bandit","97","317370","0.0-59.0-0.0","75464013","wem/bandit_single","A3DS5B06ZCD3E3","gain","3","","76","L","3","","0","0","1","0.1407764438","","false","22","0.2366183143","","main_expt","0.2862558775","","0.144462955","","0.1407764438","","","","","","",""
"85","","bandit","98","319210","0.0-60.0-0.0","75464013","wem/bandit_single","A3DS5B06ZCD3E3","gain","3","","76","L","3","","1","0","0","0.1444197889","","false","23","0.2193011186","","main_expt","0.290674517","","0.1928882479","","0.1444197889","","","","","","",""
"52","","bandit","99","321019","0.0-61.0-0.0","75464013","wem/bandit_single","A3DS5B06ZCD3E3","gain","3","","76","L","3","","0","0","1","0.1898422889","","false","24","0.2058852999","","main_expt","0.2669553567","","0.2077361259","","0.1898422889","","","","","","",""
"148","","bandit","100","322923","0.0-62.0-0.0","75464013","wem/bandit_single","A3DS5B06ZCD3E3","gain","3","","76","L","3","","0","0","1","0.2319991336","","false","25","0.2377147794","","main_expt","0.2134469473","","0.2580980749","","0.2319991336","","","","","","",""
"52","","bandit","101","324730","0.0-63.0-0.0","75464013","wem/bandit_single","A3DS5B06ZCD3E3","gain","3","","76","L","3","","0","0","1","0.2140617454","","false","26","0.3017638279","","main_expt","0.2027981442","","0.2593960467","","0.2140617454","","","","","","",""
"84","","bandit","102","326570","0.0-64.0-0.0","75464013","wem/bandit_single","A3DS5B06ZCD3E3","gain","3","","76","L","3","","0","0","1","0.2186733942","","false","27","0.2647551657","","main_expt","0.1669761534","","0.2913294918","","0.2186733942","","","","","","",""
"1334","","bandit","103","329658","0.0-65.0-0.0","75464013","wem/bandit_single","A3DS5B06ZCD3E3","gain","3","","72","H","0","img/none_selected.jpg","0","0","1","0.2864353885","","false","28","0.2864353885","","main_expt","0.1301617017","","0.2838721205","","0.2573772923","","","","","","",""
"101","","bandit","104","331515","0.0-66.0-0.0","75464013","wem/bandit_single","A3DS5B06ZCD3E3","gain","3","","72","H","0","img/none_selected.jpg","0","0","1","0.2669447337","","false","29","0.2669447337","","main_expt","0.1540227795","","0.2225595658","","0.2563684882","","","","","","",""
"291","","bandit","105","333563","0.0-67.0-0.0","75464013","wem/bandit_single","A3DS5B06ZCD3E3","gain","3","","74","J","1","","0","0","1","0.1290956128","","false","30","0.242519946","","main_expt","0.1290956128","","0.2450998207","","0.3180657859","","","","","","",""
"84","","bandit","106","335403","0.0-68.0-0.0","75464013","wem/bandit_single","A3DS5B06ZCD3E3","gain","3","","74","J","1","","0","0","1","0.157476084","","false","31","0.1808952067","","main_expt","0.157476084","","0.2358374841","","0.3391977199","","","","","","",""
"100","","bandit","107","337259","0.0-69.0-0.0","75464013","wem/bandit_single","A3DS5B06ZCD3E3","gain","3","","74","J","1","","0","0","1","0.1667461438","","false","32","0.1490402933","","main_expt","0.1667461438","","0.2465538883","","0.3655242212","","","","","","",""
"195","","bandit","108","339210","0.0-70.0-0.0","75464013","wem/bandit_single","A3DS5B06ZCD3E3","gain","3","","75","K","2","","0","0","1","0.2479029149","","false","33","0.1607825008","","main_expt","0.1698659255","","0.2479029149","","0.3476833293","","","","","","",""
"85","","bandit","109","341050","0.0-71.0-0.0","75464013","wem/bandit_single","A3DS5B06ZCD3E3","gain","3","","75","K","2","","0","0","1","0.1813792252","","false","34","0.2019438485","","main_expt","0.1830702822","","0.1813792252","","0.3287357547","","","","","","",""
"181","","bandit","110","342987","0.0-72.0-0.0","75464013","wem/bandit_single","A3DS5B06ZCD3E3","gain","3","","75","K","2","","0","0","1","0.1507873856","","false","35","0.1187506792","","main_expt","0.1648441896","","0.1507873856","","0.3568635533","","","","","","",""
"116","","bandit","111","344859","0.0-73.0-0.0","75464013","wem/bandit_single","A3DS5B06ZCD3E3","gain","3","","72","H","0","img/none_selected.jpg","0","0","1","0.107122158","","false","36","0.107122158","","main_expt","0.1702375356","","0.185146395","","0.2559818432","","","","","","",""
"1268","","bandit","112","347882","0.0-74.0-0.0","75464013","wem/bandit_single","A3DS5B06ZCD3E3","gain","3","","76","L","3","","0","0","1","0.2095103509","","false","37","0.1462043769","","main_expt","0.1248493821","","0.1995500277","","0.2095103509","","","","","","",""
"131","","bandit","113","349770","0.0-75.0-0.0","75464013","wem/bandit_single","A3DS5B06ZCD3E3","gain","3","","76","L","3","","0","0","1","0.1824107212","","false","38","0.1562864446","","main_expt","0.1806095344","","0.2324476024","","0.1824107212","","","","","","",""
"101","","bandit","114","351626","0.0-76.0-0.0","75464013","wem/bandit_single","A3DS5B06ZCD3E3","gain","3","","76","L","3","","0","0","1","0.180532013","","false","39","0.1425148763","","main_expt","0.1636381498","","0.2374336796","","0.180532013","","","","","","",""
"68","","bandit","115","353451","0.0-77.0-0.0","75464013","wem/bandit_single","A3DS5B06ZCD3E3","gain","3","","76","L","3","","1","0","0","0.209403608","","false","40","0.1332413707","","main_expt","0.128328165","","0.1871034738","","0.209403608","","","","","","",""
"84","","bandit","116","355291","0.0-78.0-0.0","75464013","wem/bandit_single","A3DS5B06ZCD3E3","gain","3","","76","L","3","","0","0","1","0.1790729352","","false","41","0.170838957","","main_expt","0.1128848486","","0.1923798107","","0.1790729352","","","","","","",""
"69","","bandit","117","357115","0.0-79.0-0.0","75464013","wem/bandit_single","A3DS5B06ZCD3E3","gain","3","","76","L","3","","0","0","1","0.1586268334","","false","42","0.221577246","","main_expt","0.1024028154","","0.2175202152","","0.1586268334","","","","","","",""
"147","","bandit","118","359018","0.0-80.0-0.0","75464013","wem/bandit_single","A3DS5B06ZCD3E3","gain","3","","76","L","3","","0","0","1","0.1953085145","","false","43","0.2937465132","","main_expt","0.1842117743","","0.199004634","","0.1953085145","","","","","","",""
"133","","bandit","119","360906","0.0-81.0-0.0","75464013","wem/bandit_single","A3DS5B06ZCD3E3","gain","3","","76","L","3","","0","0","1","0.229373846","","false","44","0.2473378206","","main_expt","0.2398699605","","0.1979694218","","0.229373846","","","","","","",""
"148","","bandit","120","362811","0.0-82.0-0.0","75464013","wem/bandit_single","A3DS5B06ZCD3E3","gain","3","","76","L","3","","1","0","0","0.2387173179","","false","45","0.2911711657","","main_expt","0.2666943954","","0.1992427108","","0.2387173179","","","","","","",""
"324","","bandit","121","364891","0.0-83.0-0.0","75464013","wem/bandit_single","A3DS5B06ZCD3E3","gain","3","","76","L","3","","0","0","1","0.2142046797","","false","46","0.2520057509","","main_expt","0.3187479261","","0.2240306516","","0.2142046797","","","","","","",""
"100","","bandit","122","366746","0.0-84.0-0.0","75464013","wem/bandit_single","A3DS5B06ZCD3E3","gain","3","","76","L","3","","0","0","1","0.2454335886","","false","47","0.2527148282","","main_expt","0.3190608455","","0.2065012218","","0.2454335886","","","","","","",""
"53","","bandit","123","368554","0.0-85.0-0.0","75464013","wem/bandit_single","A3DS5B06ZCD3E3","gain","3","","76","L","3","","1","0","0","0.2810950816","","false","48","0.273334487","","main_expt","0.3135096665","","0.1926440163","","0.2810950816","","","","","","",""
"102","","bandit","124","370410","0.0-86.0-0.0","75464013","wem/bandit_single","A3DS5B06ZCD3E3","gain","3","","76","L","3","","0","0","1","0.2547597437","","false","49","0.3181736471","","main_expt","0.3341811191","","0.1670810943","","0.2547597437","","","","","","",""
"132","","bandit","125","372298","0.0-87.0-0.0","75464013","wem/bandit_single","A3DS5B06ZCD3E3","gain","3","","76","L","3","","0","0","1","0.224323175","","false","50","0.3806153608","","main_expt","0.3459923598","","0.1198069869","","0.224323175","","","","","","",""
"53","","bandit","126","374106","0.0-88.0-0.0","75464013","wem/bandit_single","A3DS5B06ZCD3E3","gain","3","","76","L","3","","0","0","1","0.2755477452","","false","51","0.3949296296","","main_expt","0.3331953563","","0.103394302","","0.2755477452","","","","","","",""
"51","","bandit","127","375914","0.0-89.0-0.0","75464013","wem/bandit_single","A3DS5B06ZCD3E3","gain","3","","76","L","3","","0","0","1","0.3022170302","","false","52","0.3544293331","","main_expt","0.3915962888","","0.1018912343","","0.3022170302","","","","","","",""
"53","","bandit","128","377722","0.0-90.0-0.0","75464013","wem/bandit_single","A3DS5B06ZCD3E3","gain","3","","76","L","3","","1","0","0","0.2886203433","","false","53","0.3007967805","","main_expt","0.3984086051","","0.07233269407","","0.2886203433","","","","","","",""
"741","","bandit","129","380218","0.0-91.0-0.0","75464013","wem/bandit_single","A3DS5B06ZCD3E3","gain","3","","72","H","0","img/none_selected.jpg","0","0","1","0.3376398899","","false","54","0.3376398899","","main_expt","0.4181407331","","0.09210147888","","0.3072524501","","","","","","",""
"19","","bandit","130","381994","0.0-92.0-0.0","75464013","wem/bandit_single","A3DS5B06ZCD3E3","gain","3","","72","H","0","img/none_selected.jpg","0","0","1","0.3625264345","","false","55","0.3625264345","","main_expt","0.3964386999","","0.08866102842","","0.3847595325","","","","","","",""
"20","","bandit","131","383771","0.0-93.0-0.0","75464013","wem/bandit_single","A3DS5B06ZCD3E3","gain","3","","72","H","0","img/none_selected.jpg","0","0","1","0.313137485","","false","56","0.313137485","","main_expt","0.4043277199","","0.1208391037","","0.4008313728","","","","","","",""
"36","","bandit","132","385562","0.0-94.0-0.0","75464013","wem/bandit_single","A3DS5B06ZCD3E3","gain","3","","74","J","1","","0","0","1","0.3232173094","","false","57","0.3287581384","","main_expt","0.3232173094","","0.1429525169","","0.3763680666","","","","","","",""
"35","","bandit","133","387354","0.0-95.0-0.0","75464013","wem/bandit_single","A3DS5B06ZCD3E3","gain","3","","74","J","1","","0","0","1","0.3352595409","","false","58","0.2891608333","","main_expt","0.3352595409","","0.1800007821","","0.3630839511","","","","","","",""
"21","","bandit","134","389130","0.0-96.0-0.0","75464013","wem/bandit_single","A3DS5B06ZCD3E3","gain","3","","74","J","1","","0","0","1","0.3423270404","","false","59","0.2228703537","","main_expt","0.3423270404","","0.1168587732","","0.3166885591","","","","","","",""
"84","","bandit","135","390971","0.0-97.0-0.0","75464013","wem/bandit_single","A3DS5B06ZCD3E3","gain","3","","75","K","2","","0","0","1","0.08966050757","","false","60","0.2694349638","","main_expt","0.3326485747","","0.08966050757","","0.3339947878","","","","","","",""
"100","","bandit","136","392826","0.0-98.0-0.0","75464013","wem/bandit_single","A3DS5B06ZCD3E3","gain","3","","75","K","2","","0","0","1","0.06827284498","","false","61","0.3291501217","","main_expt","0.3239501662","","0.06827284498","","0.3559621948","","","","","","",""
"83","","bandit","137","394666","0.0-99.0-0.0","75464013","wem/bandit_single","A3DS5B06ZCD3E3","gain","3","","75","K","2","","0","0","1","0.0870528816","","false","62","0.3516688484","","main_expt","0.3140158541","","0.0870528816","","0.3565904981","","","","","","",""
"181","","bandit","138","396602","0.0-100.0-0.0","75464013","wem/bandit_single","A3DS5B06ZCD3E3","gain","3","","76","L","3","","0","0","1","0.3766945074","","false","63","0.3662001291","","main_expt","0.2896297009","","0.07384780705","","0.3766945074","","","","","","",""
"179","","bandit","139","398538","0.0-101.0-0.0","75464013","wem/bandit_single","A3DS5B06ZCD3E3","gain","3","","76","L","3","","0","0","1","0.4038560084","","false","64","0.3986377969","","main_expt","0.2848001348","","0.09386223648","","0.4038560084","","","","","","",""
"117","","bandit","140","400410","0.0-102.0-0.0","75464013","wem/bandit_single","A3DS5B06ZCD3E3","gain","3","","76","L","3","","0","0","1","0.4081833366","","false","65","0.4284050928","","main_expt","0.2621939157","","0.08656227431","","0.4081833366","","","","","","",""
"84","","bandit","141","402250","0.0-103.0-0.0","75464013","wem/bandit_single","A3DS5B06ZCD3E3","gain","3","","76","L","3","","0","0","1","0.4111507483","","false","66","0.4295130084","","main_expt","0.2218985249","","0.1254260964","","0.4111507483","","","","","","",""
"132","","bandit","142","404138","0.0-104.0-0.0","75464013","wem/bandit_single","A3DS5B06ZCD3E3","gain","3","","76","L","3","","0","0","1","0.3731562577","","false","67","0.4192215244","","main_expt","0.2203007364","","0.0848557225","","0.3731562577","","","","","","",""
"35","","bandit","143","405930","0.0-105.0-0.0","75464013","wem/bandit_single","A3DS5B06ZCD3E3","gain","3","","76","L","3","","1","0","0","0.3471707475","","false","68","0.4617344849","","main_expt","0.2163243509","","0.1277621339","","0.3471707475","","","","","","",""
"149","","bandit","144","407834","0.0-106.0-0.0","75464013","wem/bandit_single","A3DS5B06ZCD3E3","gain","3","","76","L","3","","1","0","0","0.3163780081","","false","69","0.4496684627","","main_expt","0.1552451017","","0.1425885083","","0.3163780081","","","","","","",""
"148","","bandit","145","409739","0.0-107.0-0.0","75464013","wem/bandit_single","A3DS5B06ZCD3E3","gain","3","","76","L","3","","0","0","1","0.2872849644","","false","70","0.4572021165","","main_expt","0.144295094","","0.1765985622","","0.2872849644","","","","","","",""
"372","","bandit","146","411867","0.0-108.0-0.0","75464013","wem/bandit_single","A3DS5B06ZCD3E3","gain","3","","76","L","3","","0","0","1","0.300298776","","false","71","0.457930868","","main_expt","0.1823242822","","0.1520060204","","0.300298776","","","","","","",""
"227","","bandit","147","413850","0.0-109.0-0.0","75464013","wem/bandit_single","A3DS5B06ZCD3E3","gain","3","","76","L","3","","1","0","0","0.3280152389","","false","72","0.4687468973","","main_expt","0.144478384","","0.09933583891","","0.3280152389","","","","","","",""
"228","","bandit","148","415834","0.0-110.0-0.0","75464013","wem/bandit_single","A3DS5B06ZCD3E3","gain","3","","76","L","3","","0","0","1","0.2758062481","","false","73","0.4707862587","","main_expt","0.1420634247","","0.1087995109","","0.2758062481","","","","","","",""
"101","","bandit","149","417691","0.0-111.0-0.0","75464013","wem/bandit_single","A3DS5B06ZCD3E3","gain","3","","76","L","3","","1","0","0","0.3370537031","","false","74","0.4602293826","","main_expt","0.1358649702","","0.150223613","","0.3370537031","","","","","","",""
"163","","bandit","150","419610","0.0-112.0-0.0","75464013","wem/bandit_single","A3DS5B06ZCD3E3","gain","3","","76","L","3","","1","0","0","0.3323795279","","false","75","0.439891953","","main_expt","0.09700523291","","0.1945690608","","0.3323795279","","","","","","",""
"147","","bandit","151","421514","0.0-113.0-0.0","75464013","wem/bandit_single","A3DS5B06ZCD3E3","gain","3","","76","L","3","","0","0","1","0.3822428931","","false","76","0.4424180744","","main_expt","0.07829726083","","0.2454913388","","0.3822428931","","","","","","",""
"53","","bandit","152","423323","0.0-114.0-0.0","75464013","wem/bandit_single","A3DS5B06ZCD3E3","gain","3","","76","L","3","","0","0","1","0.4136836411","","false","77","0.4066280348","","main_expt","0.08460916486","","0.2181262922","","0.4136836411","","","","","","",""
"67","","bandit","153","425146","0.0-115.0-0.0","75464013","wem/bandit_single","A3DS5B06ZCD3E3","gain","3","","76","L","3","","1","0","0","0.4505469687","","false","78","0.3969262671","","main_expt","0.0875988483","","0.2500794828","","0.4505469687","","","","","","",""
"85","","bandit","154","426986","0.0-116.0-0.0","75464013","wem/bandit_single","A3DS5B06ZCD3E3","gain","3","","76","L","3","","0","0","1","0.4251749511","","false","79","0.4119020232","","main_expt","0.06491107755","","0.2021405589","","0.4251749511","","","","","","",""
"52","","bandit","155","428794","0.0-117.0-0.0","75464013","wem/bandit_single","A3DS5B06ZCD3E3","gain","3","","76","L","3","","0","0","1","0.3976376265","","false","80","0.3797331509","","main_expt","0.1021818806","","0.1654874554","","0.3976376265","","","","","","",""
"84","","bandit","156","430634","0.0-118.0-0.0","75464013","wem/bandit_single","A3DS5B06ZCD3E3","gain","3","","76","L","3","","0","0","1","0.409462467","","false","81","0.4024270851","","main_expt","0.07175209231","","0.1281487551","","0.409462467","","","","","","",""
"147","","bandit","157","432538","0.0-119.0-0.0","75464013","wem/bandit_single","A3DS5B06ZCD3E3","gain","3","","76","L","3","","0","0","1","0.4541942335","","false","82","0.3976574516","","main_expt","0.04651379375","","0.1167166884","","0.4541942335","","","","","","",""
"51","","bandit","158","434346","0.0-120.0-0.0","75464013","wem/bandit_single","A3DS5B06ZCD3E3","gain","3","","76","L","3","","0","0","1","0.4452160763","","false","83","0.3749492802","","main_expt","0.03148502893","","0.1426109787","","0.4452160763","","","","","","",""
"100","","bandit","159","436203","0.0-121.0-0.0","75464013","wem/bandit_single","A3DS5B06ZCD3E3","gain","3","","76","L","3","","1","0","0","0.438985114","","false","84","0.4021863709","","main_expt","0.05186863446","","0.121887906","","0.438985114","","","","","","",""
"67","","bandit","160","438027","0.0-122.0-0.0","75464013","wem/bandit_single","A3DS5B06ZCD3E3","gain","3","","76","L","3","","1","0","0","0.4331173667","","false","85","0.3624574422","","main_expt","0.04986731509","","0.1361926199","","0.4331173667","","","","","","",""
"19","","bandit","161","439802","0.0-123.0-0.0","75464013","wem/bandit_single","A3DS5B06ZCD3E3","gain","3","","76","L","3","","1","0","0","0.447547065","","false","86","0.387939101","","main_expt","0.05891938772","","0.1287871674","","0.447547065","","","","","","",""
"36","","bandit","162","441594","0.0-124.0-0.0","75464013","wem/bandit_single","A3DS5B06ZCD3E3","gain","3","","76","L","3","","0","0","1","0.4451560311","","false","87","0.3949621072","","main_expt","0.06619539979","","0.13112728","","0.4451560311","","","","","","",""
"131","","bandit","163","443482","0.0-125.0-0.0","75464013","wem/bandit_single","A3DS5B06ZCD3E3","gain","3","","76","L","3","","0","0","1","0.4010299359","","false","88","0.3789082299","","main_expt","0.03553047297","","0.1385028762","","0.4010299359","","","","","","",""
"1332","","bandit","164","446572","0.0-126.0-0.0","75464013","wem/bandit_single","A3DS5B06ZCD3E3","gain","3","","76","L","3","","0","0","1","0.430672582","","false","89","0.3718344374","","main_expt","0.03983007571","","0.1377901848","","0.430672582","","","","","","",""
"179","","bandit","165","448506","0.0-127.0-0.0","75464013","wem/bandit_single","A3DS5B06ZCD3E3","gain","3","","76","L","3","","0","0","1","0.4063924327","","false","90","0.4341719303","","main_expt","0.02618566652","","0.1642812903","","0.4063924327","","","","","","",""
"4","","bandit","166","450266","0.0-128.0-0.0","75464013","wem/bandit_single","A3DS5B06ZCD3E3","gain","3","","76","L","3","","1","0","0","0.4115689239","","false","91","0.4538289377","","main_expt","0.03325063158","","0.2115922749","","0.4115689239","","","","","","",""
"180","","bandit","167","452202","0.0-129.0-0.0","75464013","wem/bandit_single","A3DS5B06ZCD3E3","gain","3","","76","L","3","","1","0","0","0.4195244723","","false","92","0.4508501544","","main_expt","0.02042352937","","0.1819790886","","0.4195244723","","","","","","",""
"196","","bandit","168","454154","0.0-130.0-0.0","75464013","wem/bandit_single","A3DS5B06ZCD3E3","gain","3","","76","L","3","","0","0","1","0.3976010387","","false","93","0.4548943395","","main_expt","0.01887694535","","0.2039146085","","0.3976010387","","","","","","",""
"259","","bandit","169","456170","0.0-131.0-0.0","75464013","wem/bandit_single","A3DS5B06ZCD3E3","gain","3","","76","L","3","","0","0","1","0.3668479885","","false","94","0.4646086811","","main_expt","0.02367451168","","0.2307813202","","0.3668479885","","","","","","",""
"228","","bandit","170","458154","0.0-132.0-0.0","75464013","wem/bandit_single","A3DS5B06ZCD3E3","gain","3","","76","L","3","","0","0","1","0.3332342888","","false","95","0.467541367","","main_expt","0.02723032617","","0.2213313998","","0.3332342888","","","","","","",""
"84","","bandit","171","459994","0.0-133.0-0.0","75464013","wem/bandit_single","A3DS5B06ZCD3E3","gain","3","","76","L","3","","1","0","0","0.2884910782","","false","96","0.4642351642","","main_expt","0.02648196594","","0.2568515079","","0.2884910782","","","","","","",""
"100","","bandit","172","461850","0.0-134.0-0.0","75464013","wem/bandit_single","A3DS5B06ZCD3E3","gain","3","","76","L","3","","1","0","0","0.2656891479","","false","97","0.4467755515","","main_expt","0.01585024216","","0.2699845376","","0.2656891479","","","","","","",""
"83","","bandit","173","463690","0.0-135.0-0.0","75464013","wem/bandit_single","A3DS5B06ZCD3E3","gain","3","","76","L","3","","0","0","1","0.2595300749","","false","98","0.4056350907","","main_expt","0.01169409205","","0.2797451528","","0.2595300749","","","","","","",""
"99","","bandit","174","465546","0.0-136.0-0.0","75464013","wem/bandit_single","A3DS5B06ZCD3E3","gain","3","","76","L","3","","0","0","1","0.2519900202","","false","99","0.339742379","","main_expt","0.01197913588","","0.3187705275","","0.2519900202","","","","","","",""
"36","","bandit","175","467338","0.0-137.0-0.0","75464013","wem/bandit_single","A3DS5B06ZCD3E3","gain","3","","76","L","3","","0","0","1","0.2523409295","","false","100","0.3381167522","","main_expt","0.01759776774","","0.3570824245","","0.2523409295","","","","","","",""
"1316","","bandit","176","470409","0.0-138.0-0.0","75464013","wem/bandit_single","A3DS5B06ZCD3E3","gain","3","","76","L","3","","0","0","1","0.2146893193","","false","101","0.2803213009","","main_expt","0.04295615511","","0.3489468272","","0.2146893193","","","","","","",""
"196","","bandit","177","472362","0.0-139.0-0.0","75464013","wem/bandit_single","A3DS5B06ZCD3E3","gain","3","","76","L","3","","0","0","1","0.1843767259","","false","102","0.317644571","","main_expt","0.06572998715","","0.3015799625","","0.1843767259","","","","","","",""
"67","","bandit","178","474186","0.0-140.0-0.0","75464013","wem/bandit_single","A3DS5B06ZCD3E3","gain","3","","75","K","2","","0","0","1","0.2656450655","","false","103","0.3024927185","","main_expt","0.1043212589","","0.2656450655","","0.2108432206","","","","","","",""
"83","","bandit","179","476026","0.0-141.0-0.0","75464013","wem/bandit_single","A3DS5B06ZCD3E3","gain","3","","75","K","2","","1","0","0","0.261155182","","false","104","0.3339077782","","main_expt","0.07063930719","","0.261155182","","0.26792014","","","","","","",""
"371","","bandit","180","478154","0.0-142.0-0.0","75464013","wem/bandit_single","A3DS5B06ZCD3E3","gain","3","","75","K","2","","0","0","1","0.2794756432","","false","105","0.2966783269","","main_expt","0.09992353171","","0.2794756432","","0.3302583292","","","","","","",""
"547","","bandit","181","480458","0.0-143.0-0.0","75464013","wem/bandit_single","A3DS5B06ZCD3E3","gain","3","","75","K","2","","0","0","1","0.2719827923","","false","106","0.3722996478","","main_expt","0.1074399807","","0.2719827923","","0.3099187861","","","","","","",""
"99","","bandit","182","482314","0.0-144.0-0.0","75464013","wem/bandit_single","A3DS5B06ZCD3E3","gain","3","","75","K","2","","0","0","1","0.2614179637","","false","107","0.3764369168","","main_expt","0.1398361659","","0.2614179637","","0.3526315454","","","","","","",""
"83","","bandit","183","484154","0.0-145.0-0.0","75464013","wem/bandit_single","A3DS5B06ZCD3E3","gain","3","","75","K","2","","0","0","1","0.3154283329","","false","108","0.3221289315","","main_expt","0.1503356919","","0.3154283329","","0.3741147492","","","","","","",""
"100","","bandit","184","486009","0.0-146.0-0.0","75464013","wem/bandit_single","A3DS5B06ZCD3E3","gain","3","","75","K","2","","1","0","0","0.3965133924","","false","109","0.3394272446","","main_expt","0.1554773292","","0.3965133924","","0.3775387023","","","","","","",""
"84","","bandit","185","487850","0.0-147.0-0.0","75464013","wem/bandit_single","A3DS5B06ZCD3E3","gain","3","","74","J","1","","0","0","1","0.1862379276","","false","110","0.3108194313","","main_expt","0.1862379276","","0.4096679205","","0.3603169275","","","","","","",""
"148","","bandit","186","489754","0.0-148.0-0.0","75464013","wem/bandit_single","A3DS5B06ZCD3E3","gain","3","","74","J","1","","0","0","1","0.2096222548","","false","111","0.2754643313","","main_expt","0.2096222548","","0.4107972434","","0.3492898999","","","","","","",""
"36","","bandit","187","491546","0.0-149.0-0.0","75464013","wem/bandit_single","A3DS5B06ZCD3E3","gain","3","","74","J","1","","0","0","1","0.2432579143","","false","112","0.2906444469","","main_expt","0.2432579143","","0.4229867006","","0.3332089306","","","","","","",""
"1924","","bandit","188","495225","0.0-150.0-0.0","75464013","wem/bandit_single","A3DS5B06ZCD3E3","gain","3","","72","H","0","img/none_selected.jpg","0","0","1","0.3006146448","","false","113","0.3006146448","","main_expt","0.1721880852","","0.4045712819","","0.3450976056","","","","","","",""
"68","","bandit","189","497050","0.0-151.0-0.0","75464013","wem/bandit_single","A3DS5B06ZCD3E3","gain","3","","72","H","0","img/none_selected.jpg","1","0","0","0.2668468313","","false","114","0.2668468313","","main_expt","0.2081909003","","0.3821667802","","0.3725565121","","","","","","",""
"131","","bandit","190","498938","0.0-152.0-0.0","75464013","wem/bandit_single","A3DS5B06ZCD3E3","gain","3","","72","H","0","img/none_selected.jpg","0","0","1","0.3032344037","","false","115","0.3032344037","","main_expt","0.272711811","","0.3342096713","","0.3789561431","","","","","","",""
"131","","bandit","191","500826","0.0-153.0-0.0","75464013","wem/bandit_single","A3DS5B06ZCD3E3","gain","3","","72","H","0","img/none_selected.jpg","0","0","1","0.279678247","","false","116","0.279678247","","main_expt","0.2801201945","","0.3475890958","","0.3829881954","","","","","","",""
"68","","bandit","192","502650","0.0-154.0-0.0","75464013","wem/bandit_single","A3DS5B06ZCD3E3","gain","3","","72","H","0","img/none_selected.jpg","1","0","0","0.2762620489","","false","117","0.2762620489","","main_expt","0.3615324036","","0.3545652452","","0.3872477479","","","","","","",""
"450","","bandit","193","504857","0.0-155.0-0.0","75464013","wem/bandit_single","A3DS5B06ZCD3E3","gain","3","","72","H","0","img/none_selected.jpg","0","0","1","0.2880572365","","false","118","0.2880572365","","main_expt","0.3615177178","","0.3542043025","","0.3952603005","","","","","","",""
"84","","bandit","194","506698","0.0-156.0-0.0","75464013","wem/bandit_single","A3DS5B06ZCD3E3","gain","3","","72","H","0","img/none_selected.jpg","0","0","1","0.2807620685","","false","119","0.2807620685","","main_expt","0.3875935955","","0.3471352845","","0.3838673248","","","","","","",""
"67","","bandit","195","508523","0.0-157.0-0.0","75464013","wem/bandit_single","A3DS5B06ZCD3E3","gain","3","","72","H","0","img/none_selected.jpg","0","0","1","0.2811576832","","false","120","0.2811576832","","main_expt","0.4052723714","","0.3343169965","","0.4148997213","","","","","","",""
"147","","bandit","196","510426","0.0-158.0-0.0","75464013","wem/bandit_single","A3DS5B06ZCD3E3","gain","3","","72","H","0","img/none_selected.jpg","1","0","0","0.3016455194","","false","121","0.3016455194","","main_expt","0.44462971","","0.3595120763","","0.4184259471","","","","","","",""
"163","","bandit","197","512346","0.0-159.0-0.0","75464013","wem/bandit_single","A3DS5B06ZCD3E3","gain","3","","72","H","0","img/none_selected.jpg","0","0","1","0.3161331551","","false","122","0.3161331551","","main_expt","0.4338931322","","0.3296914373","","0.4271141924","","","","","","",""
"68","","bandit","198","514170","0.0-160.0-0.0","75464013","wem/bandit_single","A3DS5B06ZCD3E3","gain","3","","72","H","0","img/none_selected.jpg","0","0","1","0.2882518765","","false","123","0.2882518765","","main_expt","0.4248885798","","0.3369167856","","0.3994299035","","","","","","",""
"51","","bandit","199","515978","0.0-161.0-0.0","75464013","wem/bandit_single","A3DS5B06ZCD3E3","gain","3","","72","H","0","img/none_selected.jpg","0","0","1","0.3426101702","","false","124","0.3426101702","","main_expt","0.3773411534","","0.3181772373","","0.4319292606","","","","","","",""
"67","","bandit","200","517802","0.0-162.0-0.0","75464013","wem/bandit_single","A3DS5B06ZCD3E3","gain","3","","72","H","0","img/none_selected.jpg","0","0","1","0.3623178769","","false","125","0.3623178769","","main_expt","0.3322500489","","0.3285823626","","0.4228137624","","","","","","",""
"83","","bandit","201","519641","0.0-163.0-0.0","75464013","wem/bandit_single","A3DS5B06ZCD3E3","gain","3","","72","H","0","img/none_selected.jpg","0","0","1","0.3487147863","","false","126","0.3487147863","","main_expt","0.3742157909","","0.3203566048","","0.4445824992","","","","","","",""
"164","","bandit","202","521561","0.0-164.0-0.0","75464013","wem/bandit_single","A3DS5B06ZCD3E3","gain","3","","74","J","1","","0","0","1","0.3851047317","","false","127","0.4137567253","","main_expt","0.3851047317","","0.3852478983","","0.4525048151","","","","","","",""
"163","","bandit","203","523481","0.0-165.0-0.0","75464013","wem/bandit_single","A3DS5B06ZCD3E3","gain","3","","74","J","1","","1","0","0","0.4043255462","","false","128","0.3814482247","","main_expt","0.4043255462","","0.3389365807","","0.4692783601","","","","","","",""
"117","","bandit","204","525354","0.0-166.0-0.0","75464013","wem/bandit_single","A3DS5B06ZCD3E3","gain","3","","74","J","1","","0","0","1","0.4123407707","","false","129","0.4168244781","","main_expt","0.4123407707","","0.3137404055","","0.4168961411","","","","","","",""
"147","","bandit","205","527258","0.0-167.0-0.0","75464013","wem/bandit_single","A3DS5B06ZCD3E3","gain","3","","74","J","1","","1","0","0","0.4046971735","","false","130","0.4365918222","","main_expt","0.4046971735","","0.3258581953","","0.3790243023","","","","","","",""
"131","","bandit","206","529146","0.0-168.0-0.0","75464013","wem/bandit_single","A3DS5B06ZCD3E3","gain","3","","74","J","1","","0","0","1","0.4461276952","","false","131","0.4389841863","","main_expt","0.4461276952","","0.2883577813","","0.4049885765","","","","","","",""
"274","","bandit","207","531178","0.0-169.0-0.0","75464013","wem/bandit_single","A3DS5B06ZCD3E3","gain","3","","74","J","1","","1","0","0","0.4611465992","","false","132","0.4152650591","","main_expt","0.4611465992","","0.3560589507","","0.4146365962","","","","","","",""
"131","","bandit","208","533065","0.0-170.0-0.0","75464013","wem/bandit_single","A3DS5B06ZCD3E3","gain","3","","74","J","1","","0","0","1","0.4798080461","","false","133","0.4542457407","","main_expt","0.4798080461","","0.358394082","","0.3895917514","","","","","","",""
"196","","bandit","209","535017","0.0-171.0-0.0","75464013","wem/bandit_single","A3DS5B06ZCD3E3","gain","3","","74","J","1","","0","0","1","0.4536835414","","false","134","0.4598844585","","main_expt","0.4536835414","","0.3605573227","","0.4031985028","","","","","","",""
"485","","bandit","210","537258","0.0-172.0-0.0","75464013","wem/bandit_single","A3DS5B06ZCD3E3","gain","3","","74","J","1","","0","0","1","0.4297718384","","false","135","0.4690925783","","main_expt","0.4297718384","","0.3695471057","","0.3950250086","","","","","","",""
"274","","bandit","211","539289","0.0-173.0-0.0","75464013","wem/bandit_single","A3DS5B06ZCD3E3","gain","3","","74","J","1","","0","0","1","0.4047290025","","false","136","0.4382452635","","main_expt","0.4047290025","","0.4060603524","","0.3958408827","","","","","","",""
"1060","","bandit","212","542106","0.0-174.0-0.0","75464013","wem/bandit_single","A3DS5B06ZCD3E3","gain","3","","74","J","1","","0","0","1","0.4062789173","","false","137","0.4469583278","","main_expt","0.4062789173","","0.3977168634","","0.4025558346","","","","","","",""
"114","","bandit","213","543978","0.0-175.0-0.0","75464013","wem/bandit_single","A3DS5B06ZCD3E3","gain","3","","74","J","1","","0","0","1","0.3893267926","","false","138","0.44739429","","main_expt","0.3893267926","","0.3884520433","","0.3901350715","","","","","","",""
"114","","bandit","214","545850","0.0-176.0-0.0","75464013","wem/bandit_single","A3DS5B06ZCD3E3","gain","3","","74","J","1","","0","0","1","0.3355070849","","false","139","0.4329330235","","main_expt","0.3355070849","","0.3517782966","","0.4069565875","","","","","","",""
"179","","bandit","215","547785","0.0-177.0-0.0","75464013","wem/bandit_single","A3DS5B06ZCD3E3","gain","3","","75","K","2","","0","0","1","0.3147433726","","false","140","0.4427321083","","main_expt","0.3033729388","","0.3147433726","","0.4384632306","","","","","","",""
"195","","bandit","216","549737","0.0-178.0-0.0","75464013","wem/bandit_single","A3DS5B06ZCD3E3","gain","3","","75","K","2","","0","0","1","0.315874603","","false","141","0.4630674526","","main_expt","0.3495942718","","0.315874603","","0.4513823692","","","","","","",""
"116","","bandit","217","551610","0.0-179.0-0.0","75464013","wem/bandit_single","A3DS5B06ZCD3E3","gain","3","","75","K","2","","1","0","0","0.2660579121","","false","142","0.4678156034","","main_expt","0.373744609","","0.2660579121","","0.4477105457","","","","","","",""
"98","","bandit","218","553466","0.0-180.0-0.0","75464013","wem/bandit_single","A3DS5B06ZCD3E3","gain","3","","75","K","2","","0","0","1","0.2791435274","","false","143","0.4556942345","","main_expt","0.3983109068","","0.2791435274","","0.4399018081","","","","","","",""
"98","","bandit","219","555322","0.0-181.0-0.0","75464013","wem/bandit_single","A3DS5B06ZCD3E3","gain","3","","75","K","2","","0","0","1","0.3232226047","","false","144","0.4606745253","","main_expt","0.4290647624","","0.3232226047","","0.3929519584","","","","","","",""
"66","","bandit","220","557145","0.0-182.0-0.0","75464013","wem/bandit_single","A3DS5B06ZCD3E3","gain","3","","75","K","2","","1","0","0","0.2863527335","","false","145","0.4493721712","","main_expt","0.4360055891","","0.2863527335","","0.3638959839","","","","","","",""
"147","","bandit","221","559050","0.0-183.0-0.0","75464013","wem/bandit_single","A3DS5B06ZCD3E3","gain","3","","75","K","2","","0","0","1","0.2399582054","","false","146","0.411205332","","main_expt","0.4408793748","","0.2399582054","","0.3109408856","","","","","","",""
"130","","bandit","222","560938","0.0-184.0-0.0","75464013","wem/bandit_single","A3DS5B06ZCD3E3","gain","3","","75","K","2","","0","0","1","0.2186627863","","false","147","0.4091009254","","main_expt","0.4152856751","","0.2186627863","","0.303790043","","","","","","",""
"18","","bandit","223","562714","0.0-185.0-0.0","75464013","wem/bandit_single","A3DS5B06ZCD3E3","gain","3","","75","K","2","","0","0","1","0.233860686","","false","148","0.3878952866","","main_expt","0.400149315","","0.233860686","","0.2836070719","","","","","","",""
"66","","bandit","224","564537","0.0-186.0-0.0","75464013","wem/bandit_single","A3DS5B06ZCD3E3","gain","3","","75","K","2","","0","0","1","0.2752018233","","false","149","0.39239053","","main_expt","0.4081055764","","0.2752018233","","0.2132997302","","","","","","",""
"99","","bandit","225","566393","0.0-187.0-0.0","75464013","wem/bandit_single","A3DS5B06ZCD3E3","gain","3","","76","L","3","","1","0","0","0.1906505553","","false","150","0.3869122725","","main_expt","0.3946041437","","0.2306982087","","0.1906505553","","","","","","",""
"115","","bandit","226","568265","0.0-188.0-0.0","75464013","wem/bandit_single","A3DS5B06ZCD3E3","gain","3","","76","L","3","","0","0","1","0.1887938372","","false","151","0.3562084687","","main_expt","0.3517385329","","0.272940168","","0.1887938372","","","","","","",""
"67","","bandit","227","570090","0.0-189.0-0.0","75464013","wem/bandit_single","A3DS5B06ZCD3E3","gain","3","","76","L","3","","0","0","1","0.1452925277","","false","152","0.3975166132","","main_expt","0.33807167","","0.246833375","","0.1452925277","","","","","","",""
"114","","bandit","228","571961","0.0-190.0-0.0","75464013","wem/bandit_single","A3DS5B06ZCD3E3","gain","3","","76","L","3","","0","0","1","0.1236287895","","false","153","0.4221253747","","main_expt","0.3507556502","","0.2555278221","","0.1236287895","","","","","","",""
"114","","bandit","229","573833","0.0-191.0-0.0","75464013","wem/bandit_single","A3DS5B06ZCD3E3","gain","3","","76","L","3","","0","0","1","0.119712108","","false","154","0.3887365422","","main_expt","0.3484399371","","0.1964980564","","0.119712108","","","","","","",""
"68","","bandit","230","575657","0.0-192.0-0.0","75464013","wem/bandit_single","A3DS5B06ZCD3E3","gain","3","","76","L","3","","0","0","1","0.1638630184","","false","155","0.3935049101","","main_expt","0.4023996329","","0.2158986014","","0.1638630184","","","","","","",""
"835","","bandit","231","578249","0.0-193.0-0.0","75464013","wem/bandit_single","A3DS5B06ZCD3E3","gain","3","","72","H","0","img/none_selected.jpg","0","0","1","0.4185769797","","false","156","0.4185769797","","main_expt","0.3489947109","","0.2269609611","","0.138562935","","","","","","",""
"82","","bandit","232","580089","0.0-194.0-0.0","75464013","wem/bandit_single","A3DS5B06ZCD3E3","gain","3","","72","H","0","img/none_selected.jpg","1","0","0","0.412821327","","false","157","0.412821327","","main_expt","0.3223479281","","0.2997599927","","0.1424057266","","","","","","",""
"84","","bandit","233","581930","0.0-195.0-0.0","75464013","wem/bandit_single","A3DS5B06ZCD3E3","gain","3","","72","H","0","img/none_selected.jpg","1","0","0","0.4433072999","","false","158","0.4433072999","","main_expt","0.3334556671","","0.2608946303","","0.1068688432","","","","","","",""
"114","","bandit","234","583802","0.0-196.0-0.0","75464013","wem/bandit_single","A3DS5B06ZCD3E3","gain","3","","72","H","0","img/none_selected.jpg","0","0","1","0.4600675837","","false","159","0.4600675837","","main_expt","0.3686402331","","0.2927903113","","0.08394897778","","","","","","",""
"98","","bandit","235","585658","0.0-197.0-0.0","75464013","wem/bandit_single","A3DS5B06ZCD3E3","gain","3","","72","H","0","img/none_selected.jpg","1","0","0","0.449399373","","false","160","0.449399373","","main_expt","0.3711838842","","0.3165869591","","0.09909711901","","","","","","",""
"114","","bandit","236","587529","0.0-198.0-0.0","75464013","wem/bandit_single","A3DS5B06ZCD3E3","gain","3","","72","H","0","img/none_selected.jpg","0","0","1","0.4303005813","","false","161","0.4303005813","","main_expt","0.385982022","","0.3355773311","","0.09256485174","","","","","","",""
"162","","bandit","237","589450","0.0-199.0-0.0","75464013","wem/bandit_single","A3DS5B06ZCD3E3","gain","3","","72","H","0","img/none_selected.jpg","1","0","0","0.4319487415","","false","162","0.4319487415","","main_expt","0.3435676447","","0.3801839585","","0.07550585721","","","","","","",""
"98","","bandit","238","591305","0.0-200.0-0.0","75464013","wem/bandit_single","A3DS5B06ZCD3E3","gain","3","","72","H","0","img/none_selected.jpg","0","0","1","0.4459750046","","false","163","0.4459750046","","main_expt","0.3840292687","","0.3796909961","","0.08055395315","","","","","","",""
"211","","bandit","239","593274","0.0-201.0-0.0","75464013","wem/bandit_single","A3DS5B06ZCD3E3","gain","3","","72","H","0","img/none_selected.jpg","0","0","1","0.4529977304","","false","164","0.4529977304","","main_expt","0.3427058888","","0.3657353238","","0.07824920034","","","","","","",""
"2066","","bandit","240","597097","0.0-202.0-0.0","75464013","wem/bandit_single","A3DS5B06ZCD3E3","gain","3","","72","H","0","img/none_selected.jpg","0","0","1","0.4472909282","","false","165","0.4472909282","","main_expt","0.3258967388","","0.3937598932","","0.08439791844","","","","","","",""
"82","","bandit","241","598937","0.0-203.0-0.0","75464013","wem/bandit_single","A3DS5B06ZCD3E3","gain","3","","72","H","0","img/none_selected.jpg","0","0","1","0.4399772256","","false","166","0.4399772256","","main_expt","0.2704303424","","0.3914196171","","0.05039915739","","","","","","",""
"84","","bandit","242","600777","0.0-204.0-0.0","75464013","wem/bandit_single","A3DS5B06ZCD3E3","gain","3","","72","H","0","img/none_selected.jpg","1","0","0","0.4636729032","","false","167","0.4636729032","","main_expt","0.3205555932","","0.3919877423","","0.05759530337","","","","","","",""
"99","","bandit","243","602634","0.0-205.0-0.0","75464013","wem/bandit_single","A3DS5B06ZCD3E3","gain","3","","72","H","0","img/none_selected.jpg","1","0","0","0.4437796743","","false","168","0.4437796743","","main_expt","0.3639109947","","0.3647459683","","0.04992464654","","","","","","",""
"98","","bandit","244","604490","0.0-206.0-0.0","75464013","wem/bandit_single","A3DS5B06ZCD3E3","gain","3","","72","H","0","img/none_selected.jpg","1","0","0","0.456101387","","false","169","0.456101387","","main_expt","0.3733582142","","0.4058418149","","0.03416660819","","","","","","",""
"50","","bandit","245","606297","0.0-207.0-0.0","75464013","wem/bandit_single","A3DS5B06ZCD3E3","gain","3","","72","H","0","img/none_selected.jpg","1","0","0","0.4571218852","","false","170","0.4571218852","","main_expt","0.3832331311","","0.3998590153","","0.01917125828","","","","","","",""
"101","","bandit","246","608153","0.0-208.0-0.0","75464013","wem/bandit_single","A3DS5B06ZCD3E3","gain","3","","72","H","0","img/none_selected.jpg","0","0","1","0.445510323","","false","171","0.445510323","","main_expt","0.3815339887","","0.3887500458","","0.02244253376","","","","","","",""
"84","","bandit","247","609993","0.0-209.0-0.0","75464013","wem/bandit_single","A3DS5B06ZCD3E3","gain","3","","72","H","0","img/none_selected.jpg","1","0","0","0.4280794999","","false","172","0.4280794999","","main_expt","0.3471775219","","0.4102182378","","0.02619280326","","","","","","",""
"163","","bandit","248","611914","0.0-210.0-0.0","75464013","wem/bandit_single","A3DS5B06ZCD3E3","gain","3","","72","H","0","img/none_selected.jpg","0","0","1","0.4379780546","","false","173","0.4379780546","","main_expt","0.340289466","","0.3895773165","","0.0218428458","","","","","","",""
"2052","","bandit","249","615721","0.0-211.0-0.0","75464013","wem/bandit_single","A3DS5B06ZCD3E3","gain","3","","72","H","0","img/none_selected.jpg","0","0","1","0.4160926905","","false","174","0.4160926905","","main_expt","0.3280863639","","0.3826402373","","0.02840617367","","","","","","",""
"51","","bandit","250","617529","0.0-212.0-0.0","75464013","wem/bandit_single","A3DS5B06ZCD3E3","gain","3","","72","H","0","img/none_selected.jpg","0","0","1","0.44195178","","false","175","0.44195178","","main_expt","0.3782643392","","0.38572844","","0.0268928826","","","","","","",""
"1380","","bandit","251","620665","0.0-213.0-0.0","75464013","wem/bandit_single","A3DS5B06ZCD3E3","gain","3","","72","H","0","img/none_selected.jpg","0","0","1","0.4469840309","","false","176","0.4469840309","","main_expt","0.3714875018","","0.3566605828","","0.04471375276","","","","","","",""
"259","","bandit","252","622681","0.0-214.0-0.0","75464013","wem/bandit_single","A3DS5B06ZCD3E3","gain","3","","72","H","0","img/none_selected.jpg","0","0","1","0.4732589693","","false","177","0.4732589693","","main_expt","0.3110573775","","0.3736379944","","0.04508647299","","","","","","",""
"179","","bandit","253","624618","0.0-215.0-0.0","75464013","wem/bandit_single","A3DS5B06ZCD3E3","gain","3","","72","H","0","img/none_selected.jpg","0","0","1","0.4716065645","","false","178","0.4716065645","","main_expt","0.3725785744","","0.3835263095","","0.07342594821","","","","","","",""
"194","","bandit","254","626570","0.0-216.0-0.0","75464013","wem/bandit_single","A3DS5B06ZCD3E3","gain","3","","72","H","0","img/none_selected.jpg","0","0","1","0.4724187392","","false","179","0.4724187392","","main_expt","0.4143512522","","0.3531759074","","0.08189943715","","","","","","",""
"146","","bandit","255","628473","0.0-217.0-0.0","75464013","wem/bandit_single","A3DS5B06ZCD3E3","gain","3","","72","H","0","img/none_selected.jpg","0","0","1","0.4551908631","","false","180","0.4551908631","","main_expt","0.4240428135","","0.3185705061","","0.07894611151","","","","","","",""
"1570","","bandit","256","631802","0.0-218.0-0.0","75464013","wem/bandit_single","A3DS5B06ZCD3E3","gain","3","","74","J","1","","0","0","1","0.4394908049","","false","181","0.456416976","","main_expt","0.4394908049","","0.2823592255","","0.06982230443","","","","","","",""
"147","","bandit","257","633705","0.0-219.0-0.0","75464013","wem/bandit_single","A3DS5B06ZCD3E3","gain","3","","74","J","1","","1","0","0","0.4180692962","","false","182","0.4525945541","","main_expt","0.4180692962","","0.2741397005","","0.06674639092","","","","","","",""
"82","","bandit","258","635545","0.0-220.0-0.0","75464013","wem/bandit_single","A3DS5B06ZCD3E3","gain","3","","74","J","1","","0","0","1","0.4468782907","","false","183","0.4439654651","","main_expt","0.4468782907","","0.2936799338","","0.04008595334","","","","","","",""
"132","","bandit","259","637434","0.0-221.0-0.0","75464013","wem/bandit_single","A3DS5B06ZCD3E3","gain","3","","74","J","1","","1","0","0","0.4489540851","","false","184","0.4366406792","","main_expt","0.4489540851","","0.3027831177","","0.04652727321","","","","","","",""
"802","","bandit","260","639993","0.0-222.0-0.0","75464013","wem/bandit_single","A3DS5B06ZCD3E3","gain","3","","74","J","1","","1","0","0","0.4669005471","","false","185","0.4282468188","","main_expt","0.4669005471","","0.3180510168","","0.05033673313","","","","","","",""
"322","","bandit","261","642073","0.0-223.0-0.0","75464013","wem/bandit_single","A3DS5B06ZCD3E3","gain","3","","74","J","1","","1","0","0","0.419417397","","false","186","0.4249990568","","main_expt","0.419417397","","0.3285352945","","0.03009771755","","","","","","",""
"178","","bandit","262","644009","0.0-224.0-0.0","75464013","wem/bandit_single","A3DS5B06ZCD3E3","gain","3","","74","J","1","","0","0","1","0.3735271503","","false","187","0.4159118542","","main_expt","0.3735271503","","0.3278715557","","0.02601150791","","","","","","",""
"162","","bandit","263","645929","0.0-225.0-0.0","75464013","wem/bandit_single","A3DS5B06ZCD3E3","gain","3","","74","J","1","","0","0","1","0.3339942922","","false","188","0.4294829221","","main_expt","0.3339942922","","0.3408065186","","0.02389042297","","","","","","",""
"163","","bandit","264","647850","0.0-226.0-0.0","75464013","wem/bandit_single","A3DS5B06ZCD3E3","gain","3","","74","J","1","","0","0","1","0.3200911101","","false","189","0.4183094629","","main_expt","0.3200911101","","0.3335894225","","0.02303770395","","","","","","",""
"162","","bandit","265","649769","0.0-227.0-0.0","75464013","wem/bandit_single","A3DS5B06ZCD3E3","gain","3","","74","J","1","","1","0","0","0.379511296","","false","190","0.3769048436","","main_expt","0.379511296","","0.2560009578","","0.0156858998","","","","","","",""
"211","","bandit","266","651738","0.0-228.0-0.0","75464013","wem/bandit_single","A3DS5B06ZCD3E3","gain","3","","74","J","1","","0","0","1","0.3475909393","","false","191","0.3654839124","","main_expt","0.3475909393","","0.2422543603","","0.02184200568","","","","","","",""
"98","","bandit","267","653593","0.0-229.0-0.0","75464013","wem/bandit_single","A3DS5B06ZCD3E3","gain","3","","74","J","1","","0","0","1","0.3248483226","","false","192","0.4158526776","","main_expt","0.3248483226","","0.2479432207","","0.04159540118","","","","","","",""
"66","","bandit","268","655417","0.0-230.0-0.0","75464013","wem/bandit_single","A3DS5B06ZCD3E3","gain","3","","74","J","1","","0","0","1","0.3530355579","","false","193","0.4294001388","","main_expt","0.3530355579","","0.2198669916","","0.02418359434","","","","","","",""
"66","","bandit","269","657241","0.0-231.0-0.0","75464013","wem/bandit_single","A3DS5B06ZCD3E3","gain","3","","74","J","1","","0","0","1","0.3613612536","","false","194","0.421006879","","main_expt","0.3613612536","","0.1832858475","","0.03036789999","","","","","","",""
"131","","bandit","270","659130","0.0-232.0-0.0","75464013","wem/bandit_single","A3DS5B06ZCD3E3","gain","3","","74","J","1","","0","0","1","0.3712676973","","false","195","0.3993762185","","main_expt","0.3712676973","","0.1758973168","","0.0328032794","","","","","","",""
"1858","","bandit","271","662745","0.0-233.0-0.0","75464013","wem/bandit_single","A3DS5B06ZCD3E3","gain","3","","75","K","2","","0","0","1","0.1472052011","","false","196","0.3953591144","","main_expt","0.3797177139","","0.1472052011","","0.03367124179","","","","","","",""
"163","","bandit","272","664665","0.0-234.0-0.0","75464013","wem/bandit_single","A3DS5B06ZCD3E3","gain","3","","75","K","2","","0","0","1","0.09357285733","","false","197","0.4186523265","","main_expt","0.3703437648","","0.09357285733","","0.03515804352","","","","","","",""
"130","","bandit","273","666553","0.0-235.0-0.0","75464013","wem/bandit_single","A3DS5B06ZCD3E3","gain","3","","75","K","2","","0","0","1","0.1466532231","","false","198","0.4334783576","","main_expt","0.3269028648","","0.1466532231","","0.0474911349","","","","","","",""
"35","","bandit","274","668346","0.0-236.0-0.0","75464013","wem/bandit_single","A3DS5B06ZCD3E3","gain","3","","75","K","2","","0","0","1","0.1745555733","","false","199","0.452916177","","main_expt","0.2972028605","","0.1745555733","","0.04758635843","","","","","","",""
"66","","bandit","275","670169","0.0-237.0-0.0","75464013","wem/bandit_single","A3DS5B06ZCD3E3","gain","3","","76","L","3","","0","0","1","0.06637193447","","false","200","0.4652130485","","main_expt","0.2548635421","","0.1496088854","","0.06637193447","","","","","","",""
"82","","bandit","276","672009","0.0-238.0-0.0","75464013","wem/bandit_single","A3DS5B06ZCD3E3","gain","3","","76","L","3","","0","0","1","0.03961336895","","false","201","0.4544628945","","main_expt","0.2360204523","","0.1144678821","","0.03961336895","","","","","","",""
"1218","","bandit","277","674985","0.0-239.0-0.0","75464013","wem/bandit_single","A3DS5B06ZCD3E3","gain","3","","76","L","3","","0","0","1","0.04217273593","","false","202","0.4346785174","","main_expt","0.1847208139","","0.08314182588","","0.04217273593","","","","","","",""
"114","","bandit","278","676857","0.0-240.0-0.0","75464013","wem/bandit_single","A3DS5B06ZCD3E3","gain","3","","76","L","3","","0","0","1","0.03601881868","","false","203","0.4340895374","","main_expt","0.1740418795","","0.1008304514","","0.03601881868","","","","","","",""
"1748","","bandit","279","680361","0.0-241.0-0.0","75464013","wem/bandit_single","A3DS5B06ZCD3E3","gain","3","","72","H","0","img/none_selected.jpg","1","0","0","0.4398780919","","false","204","0.4398780919","","main_expt","0.1469060572","","0.1170364225","","0.04663301139","","","","","","",""
"290","","bandit","280","682409","0.0-242.0-0.0","75464013","wem/bandit_single","A3DS5B06ZCD3E3","gain","3","","72","H","0","img/none_selected.jpg","1","0","0","0.4001316318","","false","205","0.4001316318","","main_expt","0.1162446513","","0.1228414706","","0.04643109282","","","","","","",""
"435","","bandit","281","684601","0.0-243.0-0.0","75464013","wem/bandit_single","A3DS5B06ZCD3E3","gain","3","","72","H","0","img/none_selected.jpg","0","0","1","0.4347617828","","false","206","0.4347617828","","main_expt","0.1289033918","","0.1574749647","","0.06886832812","","","","","","",""
"595","","bandit","282","686953","0.0-244.0-0.0","75464013","wem/bandit_single","A3DS5B06ZCD3E3","gain","3","","72","H","0","img/none_selected.jpg","1","0","0","0.4383015813","","false","207","0.4383015813","","main_expt","0.1261822501","","0.1922173773","","0.0600143171","","","","","","",""
"466","","bandit","283","689177","0.0-245.0-0.0","75464013","wem/bandit_single","A3DS5B06ZCD3E3","gain","3","","72","H","0","img/none_selected.jpg","1","0","0","0.4038237536","","false","208","0.4038237536","","main_expt","0.1024795668","","0.1673160211","","0.04637571639","","","","","","",""
"226","","bandit","284","691161","0.0-246.0-0.0","75464013","wem/bandit_single","A3DS5B06ZCD3E3","gain","3","","72","H","0","img/none_selected.jpg","0","0","1","0.3890753365","","false","209","0.3890753365","","main_expt","0.1129838087","","0.1269527993","","0.04040360689","","","","","","",""
"66","","bandit","285","692985","0.0-247.0-0.0","75464013","wem/bandit_single","A3DS5B06ZCD3E3","gain","3","","72","H","0","img/none_selected.jpg","0","0","1","0.3792373644","","false","210","0.3792373644","","main_expt","0.1562804612","","0.1114377498","","0.02069644656","","","","","","",""
"146","","bandit","286","694889","0.0-248.0-0.0","75464013","wem/bandit_single","A3DS5B06ZCD3E3","gain","3","","72","H","0","img/none_selected.jpg","0","0","1","0.3780611868","","false","211","0.3780611868","","main_expt","0.1363837251","","0.1155820846","","0.03173395488","","","","","","",""
"82","","bandit","287","696729","0.0-249.0-0.0","75464013","wem/bandit_single","A3DS5B06ZCD3E3","gain","3","","72","H","0","img/none_selected.jpg","0","0","1","0.3483689532","","false","212","0.3483689532","","main_expt","0.09358237554","","0.1553323518","","0.02469601981","","","","","","",""
"99","","bandit","288","698585","0.0-250.0-0.0","75464013","wem/bandit_single","A3DS5B06ZCD3E3","gain","3","","72","H","0","img/none_selected.jpg","1","0","0","0.2874103991","","false","213","0.2874103991","","main_expt","0.05743859841","","0.2062901667","","0.04258417901","","","","","","",""
"370","","bandit","289","700714","0.0-251.0-0.0","75464013","wem/bandit_single","A3DS5B06ZCD3E3","gain","3","","72","H","0","img/none_selected.jpg","0","0","1","0.2620706088","","false","214","0.2620706088","","main_expt","0.05800100084","","0.2076956631","","0.05493755721","","","","","","",""
"82","","bandit","290","702553","0.0-252.0-0.0","75464013","wem/bandit_single","A3DS5B06ZCD3E3","gain","3","","72","H","0","img/none_selected.jpg","1","0","0","0.2855520155","","false","215","0.2855520155","","main_expt","0.05413405856","","0.2609492508","","0.08978059799","","","","","","",""
"115","","bandit","291","704425","0.0-253.0-0.0","75464013","wem/bandit_single","A3DS5B06ZCD3E3","gain","3","","72","H","0","img/none_selected.jpg","1","0","0","0.2916786734","","false","216","0.2916786734","","main_expt","0.03942357166","","0.2500101786","","0.09809121306","","","","","","",""
"66","","bandit","292","706249","0.0-254.0-0.0","75464013","wem/bandit_single","A3DS5B06ZCD3E3","gain","3","","72","H","0","img/none_selected.jpg","0","0","1","0.2823685681","","false","217","0.2823685681","","main_expt","0.03801572204","","0.2748248586","","0.1427848958","","","","","","",""
"67","","bandit","293","708072","0.0-255.0-0.0","75464013","wem/bandit_single","A3DS5B06ZCD3E3","gain","3","","72","H","0","img/none_selected.jpg","0","0","1","0.2423520158","","false","218","0.2423520158","","main_expt","0.03890441123","","0.311954441","","0.1570322525","","","","","","",""
"67","","bandit","294","709897","0.0-256.0-0.0","75464013","wem/bandit_single","A3DS5B06ZCD3E3","gain","3","","72","H","0","img/none_selected.jpg","0","0","1","0.2949403562","","false","219","0.2949403562","","main_expt","0.01887456362","","0.3632760336","","0.1805036953","","","","","","",""
"83","","bandit","295","711737","0.0-257.0-0.0","75464013","wem/bandit_single","A3DS5B06ZCD3E3","gain","3","","72","H","0","img/none_selected.jpg","0","0","1","0.3123592507","","false","220","0.3123592507","","main_expt","0.02149820142","","0.3369908474","","0.1305519061","","","","","","",""
"83","","bandit","296","713577","0.0-258.0-0.0","75464013","wem/bandit_single","A3DS5B06ZCD3E3","gain","3","","72","H","0","img/none_selected.jpg","1","0","0","0.3184432139","","false","221","0.3184432139","","main_expt","0.03528878979","","0.3047504054","","0.09039333473","","","","","","",""
"115","","bandit","297","715449","0.0-259.0-0.0","75464013","wem/bandit_single","A3DS5B06ZCD3E3","gain","3","","72","H","0","img/none_selected.jpg","1","0","0","0.3596246423","","false","222","0.3596246423","","main_expt","0.03906528797","","0.3107799438","","0.0801847008","","","","","","",""
"66","","bandit","298","717274","0.0-260.0-0.0","75464013","wem/bandit_single","A3DS5B06ZCD3E3","gain","3","","72","H","0","img/none_selected.jpg","0","0","1","0.3048299186","","false","223","0.3048299186","","main_expt","0.04285152396","","0.3359374044","","0.08930296305","","","","","","",""
"83","","bandit","299","719113","0.0-261.0-0.0","75464013","wem/bandit_single","A3DS5B06ZCD3E3","gain","3","","72","H","0","img/none_selected.jpg","0","0","1","0.3097637171","","false","224","0.3097637171","","main_expt","0.03308098724","","0.354776332","","0.0783544472","","","","","","",""
"82","","bandit","300","720953","0.0-262.0-0.0","75464013","wem/bandit_single","A3DS5B06ZCD3E3","gain","3","","72","H","0","img/none_selected.jpg","0","0","1","0.3313621339","","false","225","0.3313621339","","main_expt","0.03318257961","","0.3747964846","","0.05733223117","","","","","","",""
"35","","bandit","301","722744","0.0-263.0-0.0","75464013","wem/bandit_single","A3DS5B06ZCD3E3","gain","3","","72","H","0","img/none_selected.jpg","0","0","1","0.2611013425","","false","226","0.2611013425","","main_expt","0.02568716964","","0.3530330239","","0.09472546141","","","","","","",""
"83","","bandit","302","724585","0.0-264.0-0.0","75464013","wem/bandit_single","A3DS5B06ZCD3E3","gain","3","","74","J","1","","0","0","1","0.03534330031","","false","227","0.2761398934","","main_expt","0.03534330031","","0.3299445106","","0.08353253247","","","","","","",""
"306","","bandit","303","726649","0.0-265.0-0.0","75464013","wem/bandit_single","A3DS5B06ZCD3E3","gain","3","","74","J","1","","0","0","1","0.03702628412","","false","228","0.2358148364","","main_expt","0.03702628412","","0.3286020352","","0.06220105415","","","","","","",""
"131","","bandit","304","728537","0.0-266.0-0.0","75464013","wem/bandit_single","A3DS5B06ZCD3E3","gain","3","","74","J","1","","0","0","1","0.03077125553","","false","229","0.2091128555","","main_expt","0.03077125553","","0.3178943429","","0.06639782905","","","","","","",""
"99","","bandit","305","730394","0.0-267.0-0.0","75464013","wem/bandit_single","A3DS5B06ZCD3E3","gain","3","","74","J","1","","0","0","1","0.03752036101","","false","230","0.181986641","","main_expt","0.03752036101","","0.3254915512","","0.07029464087","","","","","","",""
"113","","bandit","306","732266","0.0-268.0-0.0","75464013","wem/bandit_single","A3DS5B06ZCD3E3","gain","3","","75","K","2","","1","0","0","0.3298497064","","false","231","0.1599443191","","main_expt","0.02736090244","","0.3298497064","","0.07612781315","","","","","","",""
"226","","bandit","307","734248","0.0-269.0-0.0","75464013","wem/bandit_single","A3DS5B06ZCD3E3","gain","3","","75","K","2","","0","0","1","0.300331178","","false","232","0.125214013","","main_expt","0.02154887034","","0.300331178","","0.04325191911","","","","","","",""
"99","","bandit","308","736105","0.0-270.0-0.0","75464013","wem/bandit_single","A3DS5B06ZCD3E3","gain","3","","75","K","2","","1","0","0","0.3357562734","","false","233","0.134118517","","main_expt","0.0228348974","","0.3357562734","","0.04039924652","","","","","","",""
"115","","bandit","309","737977","0.0-271.0-0.0","75464013","wem/bandit_single","A3DS5B06ZCD3E3","gain","3","","75","K","2","","0","0","1","0.3257461803","","false","234","0.1238594142","","main_expt","0.01030782054","","0.3257461803","","0.0435796211","","","","","","",""
"210","","bandit","310","739945","0.0-272.0-0.0","75464013","wem/bandit_single","A3DS5B06ZCD3E3","gain","3","","75","K","2","","0","0","1","0.3534766227","","false","235","0.1141846942","","main_expt","0.02615737471","","0.3534766227","","0.02315237623","","","","","","",""
"82","","bandit","311","741786","0.0-273.0-0.0","75464013","wem/bandit_single","A3DS5B06ZCD3E3","gain","3","","75","K","2","","1","0","0","0.3733068719","","false","236","0.1101280349","","main_expt","0.0224272094","","0.3733068719","","0.02010779399","","","","","","",""
"225","","bandit","312","743769","0.0-274.0-0.0","75464013","wem/bandit_single","A3DS5B06ZCD3E3","gain","3","","75","K","2","","1","0","0","0.4105295152","","false","237","0.09079266978","","main_expt","0.02679999918","","0.4105295152","","0.01796146932","","","","","","",""
"147","","bandit","313","745672","0.0-275.0-0.0","75464013","wem/bandit_single","A3DS5B06ZCD3E3","gain","3","","75","K","2","","1","0","0","0.4225156592","","false","238","0.1365862295","","main_expt","0.07542988795","","0.4225156592","","0.0167141813","","","","","","",""
"19","","bandit","314","747449","0.0-276.0-0.0","75464013","wem/bandit_single","A3DS5B06ZCD3E3","gain","3","","75","K","2","","0","0","1","0.4360895212","","false","239","0.1846819155","","main_expt","0.09772903","","0.4360895212","","0.03283355296","","","","","","",""
"65","","bandit","315","749274","0.0-277.0-0.0","75464013","wem/bandit_single","A3DS5B06ZCD3E3","gain","3","","75","K","2","","1","0","0","0.423514393","","false","240","0.1795044078","","main_expt","0.1044145256","","0.423514393","","0.05325110434","","","","","","",""
"81","","bandit","316","751113","0.0-278.0-0.0","75464013","wem/bandit_single","A3DS5B06ZCD3E3","gain","3","","75","K","2","","0","0","1","0.3824942702","","false","241","0.1522343712","","main_expt","0.109937241","","0.3824942702","","0.04551940083","","","","","","",""
"66","","bandit","317","752936","0.0-279.0-0.0","75464013","wem/bandit_single","A3DS5B06ZCD3E3","gain","3","","75","K","2","","1","0","0","0.3758562762","","false","242","0.1433696576","","main_expt","0.09239004846","","0.3758562762","","0.05503183359","","","","","","",""
"18","","bandit","318","754713","0.0-280.0-0.0","75464013","wem/bandit_single","A3DS5B06ZCD3E3","gain","3","","75","K","2","","1","0","0","0.2984655584","","false","243","0.1427577162","","main_expt","0.1014218366","","0.2984655584","","0.04467871076","","","","","","",""
"17","","bandit","319","756489","0.0-281.0-0.0","75464013","wem/bandit_single","A3DS5B06ZCD3E3","gain","3","","75","K","2","","0","0","1","0.2901672904","","false","244","0.1340795621","","main_expt","0.192841162","","0.2901672904","","0.06552455376","","","","","","",""
"50","","bandit","320","758297","0.0-282.0-0.0","75464013","wem/bandit_single","A3DS5B06ZCD3E3","gain","3","","75","K","2","","0","0","1","0.2495050599","","false","245","0.1469719784","","main_expt","0.1953250812","","0.2495050599","","0.1005127954","","","","","","",""
"1424","","bandit","321","761480","0.0-283.0-0.0","75464013","wem/bandit_single","A3DS5B06ZCD3E3","gain","3","","75","K","2","","0","0","1","0.2406773486","","false","246","0.140914489","","main_expt","0.1865380945","","0.2406773486","","0.11534406","","","","","","",""
"98","","bandit","322","763336","0.0-284.0-0.0","75464013","wem/bandit_single","A3DS5B06ZCD3E3","gain","3","","75","K","2","","0","0","1","0.2265306157","","false","247","0.1592666071","","main_expt","0.221100819","","0.2265306157","","0.08579934652","","","","","","",""
"83","","bandit","323","765177","0.0-285.0-0.0","75464013","wem/bandit_single","A3DS5B06ZCD3E3","gain","3","","76","L","3","","0","0","1","0.08554071629","","false","248","0.2210893918","","main_expt","0.2106100544","","0.2000380921","","0.08554071629","","","","","","",""
"129","","bandit","324","767065","0.0-286.0-0.0","75464013","wem/bandit_single","A3DS5B06ZCD3E3","gain","3","","76","L","3","","0","0","1","0.07137080198","","false","249","0.2306666851","","main_expt","0.2172535859","","0.1920984986","","0.07137080198","","","","","","",""
"114","","bandit","325","768937","0.0-287.0-0.0","75464013","wem/bandit_single","A3DS5B06ZCD3E3","gain","3","","76","L","3","","0","0","1","0.06874505311","","false","250","0.2422322172","","main_expt","0.1953648199","","0.1624135027","","0.06874505311","","","","","","",""
"129","","bandit","326","770824","0.0-288.0-0.0","75464013","wem/bandit_single","A3DS5B06ZCD3E3","gain","3","","76","L","3","","0","0","1","0.04927492375","","false","251","0.2425189851","","main_expt","0.2129795833","","0.2057369507","","0.04927492375","","","","","","",""
"962","","bandit","327","773545","0.0-289.0-0.0","75464013","wem/bandit_single","A3DS5B06ZCD3E3","gain","3","","72","H","0","img/none_selected.jpg","0","0","1","0.1980379423","","false","252","0.1980379423","","main_expt","0.2271134102","","0.26034901","","0.0504542679","","","","","","",""
"81","","bandit","328","775385","0.0-290.0-0.0","75464013","wem/bandit_single","A3DS5B06ZCD3E3","gain","3","","72","H","0","img/none_selected.jpg","0","0","1","0.2040952335","","false","253","0.2040952335","","main_expt","0.2152809257","","0.1886300366","","0.0313618618","","","","","","",""
"1457","","bandit","329","778601","0.0-291.0-0.0","75464013","wem/bandit_single","A3DS5B06ZCD3E3","gain","3","","72","H","0","img/none_selected.jpg","1","0","0","0.1621407843","","false","254","0.1621407843","","main_expt","0.2065685424","","0.1978078828","","0.0191685034","","","","","","",""
"162","","bandit","330","780521","0.0-292.0-0.0","75464013","wem/bandit_single","A3DS5B06ZCD3E3","gain","3","","72","H","0","img/none_selected.jpg","0","0","1","0.1817956319","","false","255","0.1817956319","","main_expt","0.2000715388","","0.1544468143","","0.01882474885","","","","","","",""
"96","","bandit","331","782376","0.0-293.0-0.0","75464013","wem/bandit_single","A3DS5B06ZCD3E3","gain","3","","72","H","0","img/none_selected.jpg","0","0","1","0.1796151025","","false","256","0.1796151025","","main_expt","0.1997851389","","0.1552120094","","0.01765542058","","","","","","",""
"98","","bandit","332","784232","0.0-294.0-0.0","75464013","wem/bandit_single","A3DS5B06ZCD3E3","gain","3","","72","H","0","img/none_selected.jpg","0","0","1","0.1874922979","","false","257","0.1874922979","","main_expt","0.1965173465","","0.1337291471","","0.0162265086","","","","","","",""
"50","","bandit","333","786041","0.0-295.0-0.0","75464013","wem/bandit_single","A3DS5B06ZCD3E3","gain","3","","72","H","0","img/none_selected.jpg","0","0","1","0.2152410464","","false","258","0.2152410464","","main_expt","0.1816932188","","0.1279332347","","0.01630278654","","","","","","",""
"49","","bandit","334","787849","0.0-296.0-0.0","75464013","wem/bandit_single","A3DS5B06ZCD3E3","gain","3","","74","J","1","","1","0","0","0.2275026539","","false","259","0.2311433436","","main_expt","0.2275026539","","0.152418206","","0.0149919991","","","","","","",""
"97","","bandit","335","789704","0.0-297.0-0.0","75464013","wem/bandit_single","A3DS5B06ZCD3E3","gain","3","","74","J","1","","1","0","0","0.1798156178","","false","260","0.1621257941","","main_expt","0.1798156178","","0.1100328583","","0.02225913397","","","","","","",""
"130","","bandit","336","791593","0.0-298.0-0.0","75464013","wem/bandit_single","A3DS5B06ZCD3E3","gain","3","","74","J","1","","0","0","1","0.187122726","","false","261","0.1219102136","","main_expt","0.187122726","","0.1537012171","","0.02865634389","","","","","","",""
"49","","bandit","337","793401","0.0-299.0-0.0","75464013","wem/bandit_single","A3DS5B06ZCD3E3","gain","3","","74","J","1","","0","0","1","0.1507521212","","false","262","0.1667536199","","main_expt","0.1507521212","","0.1302597035","","0.03173788073","","","","","","",""
"65","","bandit","338","795225","0.0-300.0-0.0","75464013","wem/bandit_single","A3DS5B06ZCD3E3","gain","3","","74","J","1","","0","0","1","0.1374951011","","false","263","0.1361259709","","main_expt","0.1374951011","","0.1297736826","","0.04250990858","","","","","","",""
"1","","bandit","339","796984","0.0-301.0-0.0","75464013","wem/bandit_single","A3DS5B06ZCD3E3","gain","3","","74","J","1","","0","0","1","0.1158818852","","false","264","0.1217381733","","main_expt","0.1158818852","","0.1326654045","","0.056503948","","","","","","",""
"130","","bandit","340","798872","0.0-302.0-0.0","75464013","wem/bandit_single","A3DS5B06ZCD3E3","gain","3","","75","K","2","","1","0","0","0.1586413096","","false","265","0.1258265959","","main_expt","0.1147359408","","0.1586413096","","0.07592662832","","","","","","",""
"131","","bandit","341","800760","0.0-303.0-0.0","75464013","wem/bandit_single","A3DS5B06ZCD3E3","gain","3","","75","K","2","","1","0","0","0.1496521415","","false","266","0.1445769791","","main_expt","0.09491002089","","0.1496521415","","0.1002340293","","","","","","",""
"66","","bandit","342","802585","0.0-304.0-0.0","75464013","wem/bandit_single","A3DS5B06ZCD3E3","gain","3","","75","K","2","","1","0","0","0.1410052581","","false","267","0.1014120844","","main_expt","0.1181284109","","0.1410052581","","0.1526998269","","","","","","",""
"65","","bandit","343","804408","0.0-305.0-0.0","75464013","wem/bandit_single","A3DS5B06ZCD3E3","gain","3","","75","K","2","","0","0","1","0.145208313","","false","268","0.06386630904","","main_expt","0.1054434992","","0.145208313","","0.1340815566","","","","","","",""
"65","","bandit","344","806232","0.0-306.0-0.0","75464013","wem/bandit_single","A3DS5B06ZCD3E3","gain","3","","75","K","2","","0","0","1","0.1387339362","","false","269","0.03725778621","","main_expt","0.1307900039","","0.1387339362","","0.1350059692","","","","","","",""
"2","","bandit","345","807993","0.0-307.0-0.0","75464013","wem/bandit_single","A3DS5B06ZCD3E3","gain","3","","75","K","2","","0","0","1","0.1822325734","","false","270","0.02825676517","","main_expt","0.1444746669","","0.1822325734","","0.1008257698","","","","","","",""
"1","","bandit","346","809753","0.0-308.0-0.0","75464013","wem/bandit_single","A3DS5B06ZCD3E3","gain","3","","75","K","2","","0","0","1","0.1752825828","","false","271","0.02967844624","","main_expt","0.1622504114","","0.1752825828","","0.1257425884","","","","","","",""
"33","","bandit","347","811544","0.0-309.0-0.0","75464013","wem/bandit_single","A3DS5B06ZCD3E3","gain","3","","75","K","2","","1","0","0","0.1572277832","","false","272","0.03051557875","","main_expt","0.1814673171","","0.1572277832","","0.1363444874","","","","","","",""
"130","","bandit","348","813433","0.0-310.0-0.0","75464013","wem/bandit_single","A3DS5B06ZCD3E3","gain","3","","75","K","2","","0","0","1","0.1609880977","","false","273","0.0408401102","","main_expt","0.1930303076","","0.1609880977","","0.1090842693","","","","","","",""
"81","","bandit","349","815273","0.0-311.0-0.0","75464013","wem/bandit_single","A3DS5B06ZCD3E3","gain","3","","75","K","2","","0","0","1","0.2228580822","","false","274","0.03240614182","","main_expt","0.1704680895","","0.2228580822","","0.1397265487","","","","","","",""
"16","","bandit","350","817049","0.0-312.0-0.0","75464013","wem/bandit_single","A3DS5B06ZCD3E3","gain","3","","75","K","2","","0","0","1","0.2126640298","","false","275","0.04120982645","","main_expt","0.1785534293","","0.2126640298","","0.210641606","","","","","","",""
"1","","bandit","351","818808","0.0-313.0-0.0","75464013","wem/bandit_single","A3DS5B06ZCD3E3","gain","3","","75","K","2","","0","0","1","0.2006548762","","false","276","0.04353307789","","main_expt","0.1843971019","","0.2006548762","","0.1523626192","","","","","","",""
"34","","bandit","352","820601","0.0-314.0-0.0","75464013","wem/bandit_single","A3DS5B06ZCD3E3","gain","3","","75","K","2","","0","0","1","0.1986275587","","false","277","0.0172565486","","main_expt","0.2042268453","","0.1986275587","","0.16102954","","","","","","",""
"1105","","bandit","353","823465","0.0-315.0-0.0","75464013","wem/bandit_single","A3DS5B06ZCD3E3","gain","3","","75","K","2","","0","0","1","0.1321506531","","false","278","0.02582715814","","main_expt","0.1609113936","","0.1321506531","","0.1166001048","","","","","","",""
"32","","bandit","354","825256","0.0-316.0-0.0","75464013","wem/bandit_single","A3DS5B06ZCD3E3","gain","3","","76","L","3","","0","0","1","0.1427402012","","false","279","0.03609925784","","main_expt","0.1604878733","","0.2112193978","","0.1427402012","","","","","","",""
"177","","bandit","355","827192","0.0-317.0-0.0","75464013","wem/bandit_single","A3DS5B06ZCD3E3","gain","3","","76","L","3","","0","0","1","0.1524149458","","false","280","0.02629944548","","main_expt","0.1678567182","","0.1872216356","","0.1524149458","","","","","","",""
"83","","bandit","356","829032","0.0-318.0-0.0","75464013","wem/bandit_single","A3DS5B06ZCD3E3","gain","3","","76","L","3","","0","0","1","0.1638207856","","false","281","0.01890368782","","main_expt","0.1338700362","","0.1635487084","","0.1638207856","","","","","","",""
"226","","bandit","357","831016","0.0-319.0-0.0","75464013","wem/bandit_single","A3DS5B06ZCD3E3","gain","3","","74","J","1","","0","0","1","0.2010661714","","false","282","0.01508823693","","main_expt","0.2010661714","","0.1576359327","","0.1055747009","","","","","","",""
"242","","bandit","358","833017","0.0-320.0-0.0","75464013","wem/bandit_single","A3DS5B06ZCD3E3","gain","3","","74","J","1","","0","0","1","0.1763159594","","false","283","0.01359220223","","main_expt","0.1763159594","","0.21861051","","0.1121395768","","","","","","",""
"81","","bandit","359","834857","0.0-321.0-0.0","75464013","wem/bandit_single","A3DS5B06ZCD3E3","gain","3","","74","J","1","","0","0","1","0.2379754842","","false","284","0.01691173417","","main_expt","0.2379754842","","0.180487154","","0.1110051372","","","","","","",""
"49","","bandit","360","836664","0.0-322.0-0.0","75464013","wem/bandit_single","A3DS5B06ZCD3E3","gain","3","","72","H","0","img/none_selected.jpg","0","0","1","0.01734240677","","false","285","0.01734240677","","main_expt","0.2769670592","","0.1641106304","","0.1746572204","","","","","","",""
"131","","bandit","361","838552","0.0-323.0-0.0","75464013","wem/bandit_single","A3DS5B06ZCD3E3","gain","3","","72","H","0","img/none_selected.jpg","0","0","1","0.01574531315","","false","286","0.01574531315","","main_expt","0.3002963297","","0.1866508097","","0.2038956484","","","","","","",""
"114","","bandit","362","840425","0.0-324.0-0.0","75464013","wem/bandit_single","A3DS5B06ZCD3E3","gain","3","","72","H","0","img/none_selected.jpg","0","0","1","0.011703364","","false","287","0.011703364","","main_expt","0.2804215723","","0.1339791425","","0.2396876396","","","","","","",""
"97","","bandit","363","842281","0.0-325.0-0.0","75464013","wem/bandit_single","A3DS5B06ZCD3E3","gain","3","","72","H","0","img/none_selected.jpg","0","0","1","0.01499165326","","false","288","0.01499165326","","main_expt","0.2873948651","","0.1910191906","","0.2300823482","","","","","","",""
"353","","bandit","364","844393","0.0-326.0-0.0","75464013","wem/bandit_single","A3DS5B06ZCD3E3","gain","3","","75","K","2","","0","0","1","0.1987886011","","false","289","0.01307353483","","main_expt","0.3383825142","","0.1987886011","","0.2697946193","","","","","","",""
"240","","bandit","365","846394","0.0-327.0-0.0","75464013","wem/bandit_single","A3DS5B06ZCD3E3","gain","3","","75","K","2","","0","0","1","0.2163493667","","false","290","0.005839555229","","main_expt","0.3597664772","","0.2163493667","","0.3030113395","","","","","","",""
"160","","bandit","366","848312","0.0-328.0-0.0","75464013","wem/bandit_single","A3DS5B06ZCD3E3","gain","3","","75","K","2","","0","0","1","0.1987756658","","false","291","0.00760433752","","main_expt","0.3684517111","","0.1987756658","","0.2903670118","","","","","","",""
"80","","bandit","367","850152","0.0-329.0-0.0","75464013","wem/bandit_single","A3DS5B06ZCD3E3","gain","3","","75","K","2","","0","0","1","0.1996771378","","false","292","0.01807310376","","main_expt","0.3471931258","","0.1996771378","","0.3219279298","","","","","","",""
"97","","bandit","368","852008","0.0-330.0-0.0","75464013","wem/bandit_single","A3DS5B06ZCD3E3","gain","3","","75","K","2","","0","0","1","0.2067525645","","false","293","0.02882206876","","main_expt","0.3742872252","","0.2067525645","","0.2585416619","","","","","","",""
"130","","bandit","369","853897","0.0-331.0-0.0","75464013","wem/bandit_single","A3DS5B06ZCD3E3","gain","3","","76","L","3","","0","0","1","0.3093607287","","false","294","0.02728804169","","main_expt","0.3937541296","","0.230585761","","0.3093607287","","","","","","",""
"129","","bandit","370","855785","0.0-332.0-0.0","75464013","wem/bandit_single","A3DS5B06ZCD3E3","gain","3","","76","L","3","","0","0","1","0.315069057","","false","295","0.01545304162","","main_expt","0.3331550888","","0.1936278336","","0.315069057","","","","","","",""
"240","","bandit","371","857784","0.0-333.0-0.0","75464013","wem/bandit_single","A3DS5B06ZCD3E3","gain","3","","76","L","3","","1","0","0","0.3556215031","","false","296","0.01463146341","","main_expt","0.3564327955","","0.1733248866","","0.3556215031","","","","","","",""
