"rt","responses","trial_type","trial_index","time_elapsed","internal_node_id","subjID","study","MID","cond","drift","key_press","respCharCode","respKey","respChoiceNum","respChoice","gems","bombs","no_reward","GemPrChosen","BombPrChosen","practice","trial_counter","WinPr_0","LosePr_0","trial_label","WinPr_1","LosePr_1","WinPr_2","LosePr_2","WinPr_3","LosePr_3","Q0","Q1","Q2","gender","age","ethnicity"
"15926","{""Q0"":""A3GEL5PWFIK05S""}","survey-text","0","15940","0.0-0.0","76694274","wem/bandit_single","A3GEL5PWFIK05S","pain","4","","","","","","","","","","","","","","","","","","","","","","","","","","",""
"1258","","text","1","18205","0.0-1.0","76694274","wem/bandit_single","A3GEL5PWFIK05S","pain","4","32","","","","","","","","","","","","","","","","","","","","","","","","","",""
"8262","","text","2","26469","0.0-2.0","76694274","wem/bandit_single","A3GEL5PWFIK05S","pain","4","32","","","","","","","","","","","","","","","","","","","","","","","","","",""
"19850","","text","3","46322","0.0-3.0","76694274","wem/bandit_single","A3GEL5PWFIK05S","pain","4","32","","","","","","","","","","","","","","","","","","","","","","","","","",""
"19256","","text","4","65580","0.0-4.0","76694274","wem/bandit_single","A3GEL5PWFIK05S","pain","4","32","","","","","","","","","","","","","","","","","","","","","","","","","",""
"9211","","text","5","74793","0.0-5.0","76694274","wem/bandit_single","A3GEL5PWFIK05S","pain","4","32","","","","","","","","","","","","","","","","","","","","","","","","","",""
"5127","","text","6","79922","0.0-6.0","76694274","wem/bandit_single","A3GEL5PWFIK05S","pain","4","32","","","","","","","","","","","","","","","","","","","","","","","","","",""
"3271","","text","7","83195","0.0-7.0","76694274","wem/bandit_single","A3GEL5PWFIK05S","pain","4","32","","","","","","","","","","","","","","","","","","","","","","","","","",""
"5176","","text","8","88376","0.0-8.0","76694274","wem/bandit_single","A3GEL5PWFIK05S","pain","4","32","","","","","","","","","","","","","","","","","","","","","","","","","",""
"2035","","text","9","90414","0.0-9.0","76694274","wem/bandit_single","A3GEL5PWFIK05S","pain","4","32","","","","","","","","","","","","","","","","","","","","","","","","","",""
"2174","","text","10","92591","0.0-10.0","76694274","wem/bandit_single","A3GEL5PWFIK05S","pain","4","32","","","","","","","","","","","","","","","","","","","","","","","","","",""
"12637","","text","11","105230","0.0-11.0","76694274","wem/bandit_single","A3GEL5PWFIK05S","pain","4","32","","","","","","","","","","","","","","","","","","","","","","","","","",""
"1900","","bandit","12","108679","0.0-12.0-0.0","76694274","wem/bandit_single","A3GEL5PWFIK05S","pain","4","","74","J","0","img/none_selected_demo.jpg","0","0","1","0","0","true","0","0","0","","","","","","","","","","","","",""
"605","","bandit","13","111042","0.0-13.0-0.0","76694274","wem/bandit_single","A3GEL5PWFIK05S","pain","4","","75","K","0","img/none_selected_demo.jpg","0","0","1","0","0","true","0","0","0","","","","","","","","","","","","",""
"2234","","text","14","113529","0.0-14.0","76694274","wem/bandit_single","A3GEL5PWFIK05S","pain","4","32","","","","","","","","","","","","","","","","","","","","","","","","","",""
"1330","","text","15","114862","0.0-15.0","76694274","wem/bandit_single","A3GEL5PWFIK05S","pain","4","32","","","","","","","","","","","","","","","","","","","","","","","","","",""
"2616","","text","16","117480","0.0-16.0","76694274","wem/bandit_single","A3GEL5PWFIK05S","pain","4","32","","","","","","","","","","","","","","","","","","","","","","","","","",""
"3147","","text","17","120629","0.0-17.0","76694274","wem/bandit_single","A3GEL5PWFIK05S","pain","4","32","","","","","","","","","","","","","","","","","","","","","","","","","",""
"1062","","bandit","18","123198","0.0-18.0-0.0","76694274","wem/bandit_single","A3GEL5PWFIK05S","pain","4","","74","J","0","img/none_selected_demo.jpg","0","1","0","0","0.8","true","0","0","0.8","80_20_practice","0","0.2","","","","","","","","","",""
"862","","bandit","19","125817","0.0-18.0-1.0","76694274","wem/bandit_single","A3GEL5PWFIK05S","pain","4","","74","J","0","img/none_selected_demo.jpg","0","1","0","0","0.8","true","0","0","0.8","80_20_practice","0","0.2","","","","","","","","","",""
"269","","bandit","20","128310","0.0-18.0-2.0","76694274","wem/bandit_single","A3GEL5PWFIK05S","pain","4","","74","J","0","img/none_selected_demo.jpg","0","0","1","0","0.8","true","0","0","0.8","80_20_practice","0","0.2","","","","","","","","","",""
"1375","","bandit","21","131443","0.0-18.0-3.0","76694274","wem/bandit_single","A3GEL5PWFIK05S","pain","4","","74","J","0","img/none_selected_demo.jpg","0","1","0","0","0.8","true","0","0","0.8","80_20_practice","0","0.2","","","","","","","","","",""
"344","","bandit","22","133545","0.0-18.0-4.0","76694274","wem/bandit_single","A3GEL5PWFIK05S","pain","4","","74","J","0","img/none_selected_demo.jpg","0","1","0","0","0.8","true","0","0","0.8","80_20_practice","0","0.2","","","","","","","","","",""
"185","","bandit","23","135488","0.0-18.0-5.0","76694274","wem/bandit_single","A3GEL5PWFIK05S","pain","4","","74","J","0","img/none_selected_demo.jpg","0","1","0","0","0.8","true","0","0","0.8","80_20_practice","0","0.2","","","","","","","","","",""
"208","","bandit","24","137452","0.0-18.0-6.0","76694274","wem/bandit_single","A3GEL5PWFIK05S","pain","4","","74","J","0","img/none_selected_demo.jpg","0","1","0","0","0.8","true","0","0","0.8","80_20_practice","0","0.2","","","","","","","","","",""
"2","","bandit","25","139212","0.0-18.0-7.0","76694274","wem/bandit_single","A3GEL5PWFIK05S","pain","4","","74","J","0","img/none_selected_demo.jpg","0","1","0","0","0.8","true","0","0","0.8","80_20_practice","0","0.2","","","","","","","","","",""
"1223","","bandit","26","142194","0.0-18.0-8.0","76694274","wem/bandit_single","A3GEL5PWFIK05S","pain","4","","74","J","0","img/none_selected_demo.jpg","0","1","0","0","0.8","true","0","0","0.8","80_20_practice","0","0.2","","","","","","","","","",""
"1302","","bandit","27","145254","0.0-18.0-9.0","76694274","wem/bandit_single","A3GEL5PWFIK05S","pain","4","","75","K","1","","0","0","1","0","0.2","true","0","0","0.8","80_20_practice","0","0.2","","","","","","","","","",""
"392","","bandit","28","147404","0.0-18.0-10.0","76694274","wem/bandit_single","A3GEL5PWFIK05S","pain","4","","75","K","1","","0","0","1","0","0.2","true","0","0","0.8","80_20_practice","0","0.2","","","","","","","","","",""
"799","","bandit","29","149987","0.0-18.0-11.0","76694274","wem/bandit_single","A3GEL5PWFIK05S","pain","4","","74","J","0","img/none_selected_demo.jpg","0","1","0","0","0.8","true","0","0","0.8","80_20_practice","0","0.2","","","","","","","","","",""
"1210","","bandit","30","153168","0.0-18.0-12.0","76694274","wem/bandit_single","A3GEL5PWFIK05S","pain","4","","74","J","0","img/none_selected_demo.jpg","0","0","1","0","0.8","true","0","0","0.8","80_20_practice","0","0.2","","","","","","","","","",""
"290","","bandit","31","155217","0.0-18.0-13.0","76694274","wem/bandit_single","A3GEL5PWFIK05S","pain","4","","74","J","0","img/none_selected_demo.jpg","0","1","0","0","0.8","true","0","0","0.8","80_20_practice","0","0.2","","","","","","","","","",""
"847","","bandit","32","158338","0.0-18.0-14.0","76694274","wem/bandit_single","A3GEL5PWFIK05S","pain","4","","74","J","0","img/none_selected_demo.jpg","0","1","0","0","0.8","true","0","0","0.8","80_20_practice","0","0.2","","","","","","","","","",""
"2096","","bandit","33","162192","0.0-18.0-15.0","76694274","wem/bandit_single","A3GEL5PWFIK05S","pain","4","","74","J","0","img/none_selected_demo.jpg","0","1","0","0","0.8","true","0","0","0.8","80_20_practice","0","0.2","","","","","","","","","",""
"695","","bandit","34","164652","0.0-18.0-16.0","76694274","wem/bandit_single","A3GEL5PWFIK05S","pain","4","","74","J","0","img/none_selected_demo.jpg","0","1","0","0","0.8","true","0","0","0.8","80_20_practice","0","0.2","","","","","","","","","",""
"150","","bandit","35","166560","0.0-18.0-17.0","76694274","wem/bandit_single","A3GEL5PWFIK05S","pain","4","","74","J","0","img/none_selected_demo.jpg","0","0","1","0","0.8","true","0","0","0.8","80_20_practice","0","0.2","","","","","","","","","",""
"284","","bandit","36","168602","0.0-18.0-18.0","76694274","wem/bandit_single","A3GEL5PWFIK05S","pain","4","","74","J","0","img/none_selected_demo.jpg","0","0","1","0","0.8","true","0","0","0.8","80_20_practice","0","0.2","","","","","","","","","",""
"145","","bandit","37","170506","0.0-18.0-19.0","76694274","wem/bandit_single","A3GEL5PWFIK05S","pain","4","","74","J","0","img/none_selected_demo.jpg","0","1","0","0","0.8","true","0","0","0.8","80_20_practice","0","0.2","","","","","","","","","",""
"4208","","text","38","174969","0.0-19.0","76694274","wem/bandit_single","A3GEL5PWFIK05S","pain","4","32","","","","","","","","","","","","","","","","","","","","","","","","","",""
"2213","","bandit","39","178689","0.0-20.0-0.0","76694274","wem/bandit_single","A3GEL5PWFIK05S","pain","4","","74","J","0","img/none_selected_demo.jpg","0","0","1","0","0","true","0","0","0","","0","0","","","","","","","","","",""
"5635","","text","40","184578","0.0-21.0","76694274","wem/bandit_single","A3GEL5PWFIK05S","pain","4","32","","","","","","","","","","","","","","","","","","","","","","","","","",""
"6021","","text","41","190603","0.0-22.0","76694274","wem/bandit_single","A3GEL5PWFIK05S","pain","4","32","","","","","","","","","","","","","","","","","","","","","","","","","",""
"2535","","text","42","193142","0.0-23.0","76694274","wem/bandit_single","A3GEL5PWFIK05S","pain","4","32","","","","","","","","","","","","","","","","","","","","","","","","","",""
"2732","","text","43","195888","0.0-24.0","76694274","wem/bandit_single","A3GEL5PWFIK05S","pain","4","32","","","","","","","","","","","","","","","","","","","","","","","","","",""
"8317","","text","44","204209","0.0-25.0","76694274","wem/bandit_single","A3GEL5PWFIK05S","pain","4","32","","","","","","","","","","","","","","","","","","","","","","","","","",""
"2573","","text","45","206787","0.0-26.0","76694274","wem/bandit_single","A3GEL5PWFIK05S","pain","4","32","","","","","","","","","","","","","","","","","","","","","","","","","",""
"4864","","text","46","211654","0.0-27.0","76694274","wem/bandit_single","A3GEL5PWFIK05S","pain","4","32","","","","","","","","","","","","","","","","","","","","","","","","","",""
"2955","","text","47","214613","0.0-28.0","76694274","wem/bandit_single","A3GEL5PWFIK05S","pain","4","32","","","","","","","","","","","","","","","","","","","","","","","","","",""
"4949","","text","48","219567","0.0-29.0","76694274","wem/bandit_single","A3GEL5PWFIK05S","pain","4","32","","","","","","","","","","","","","","","","","","","","","","","","","",""
"1614","","text","49","221184","0.0-30.0","76694274","wem/bandit_single","A3GEL5PWFIK05S","pain","4","32","","","","","","","","","","","","","","","","","","","","","","","","","",""
"2709","","text","50","223897","0.0-31.0","76694274","wem/bandit_single","A3GEL5PWFIK05S","pain","4","32","","","","","","","","","","","","","","","","","","","","","","","","","",""
"746","","bandit","51","226153","0.0-32.0-0.0","76694274","wem/bandit_single","A3GEL5PWFIK05S","pain","4","","72","H","0","img/none_selected.jpg","0","1","0","0","0.8","true","0","0","0.8","full_practice","0","0.2","0","0.6","0","0.2","","","","","",""
"379","","bandit","52","228291","0.0-32.0-1.0","76694274","wem/bandit_single","A3GEL5PWFIK05S","pain","4","","72","H","0","img/none_selected.jpg","0","0","1","0","0.8","true","0","0","0.8","full_practice","0","0.2","0","0.6","0","0.2","","","","","",""
"166","","bandit","53","230215","0.0-32.0-2.0","76694274","wem/bandit_single","A3GEL5PWFIK05S","pain","4","","72","H","0","img/none_selected.jpg","0","1","0","0","0.8","true","0","0","0.8","full_practice","0","0.2","0","0.6","0","0.2","","","","","",""
"385","","bandit","54","232358","0.0-32.0-3.0","76694274","wem/bandit_single","A3GEL5PWFIK05S","pain","4","","72","H","0","img/none_selected.jpg","0","1","0","0","0.8","true","0","0","0.8","full_practice","0","0.2","0","0.6","0","0.2","","","","","",""
"725","","bandit","55","234841","0.0-32.0-4.0","76694274","wem/bandit_single","A3GEL5PWFIK05S","pain","4","","72","H","0","img/none_selected.jpg","0","1","0","0","0.8","true","0","0","0.8","full_practice","0","0.2","0","0.6","0","0.2","","","","","",""
"394","","bandit","56","236993","0.0-32.0-5.0","76694274","wem/bandit_single","A3GEL5PWFIK05S","pain","4","","74","J","1","","0","0","1","0","0.2","true","0","0","0.8","full_practice","0","0.2","0","0.6","0","0.2","","","","","",""
"223","","bandit","57","239164","0.0-32.0-6.0","76694274","wem/bandit_single","A3GEL5PWFIK05S","pain","4","","74","J","1","","0","0","1","0","0.2","true","0","0","0.8","full_practice","0","0.2","0","0.6","0","0.2","","","","","",""
"295","","bandit","58","241219","0.0-32.0-7.0","76694274","wem/bandit_single","A3GEL5PWFIK05S","pain","4","","74","J","1","","0","0","1","0","0.2","true","0","0","0.8","full_practice","0","0.2","0","0.6","0","0.2","","","","","",""
"85","","bandit","59","243193","0.0-32.0-8.0","76694274","wem/bandit_single","A3GEL5PWFIK05S","pain","4","","74","J","1","","0","0","1","0","0.2","true","0","0","0.8","full_practice","0","0.2","0","0.6","0","0.2","","","","","",""
"768","","bandit","60","245719","0.0-32.0-9.0","76694274","wem/bandit_single","A3GEL5PWFIK05S","pain","4","","75","K","2","","0","0","1","0","0.6","true","0","0","0.8","full_practice","0","0.2","0","0.6","0","0.2","","","","","",""
"167","","bandit","61","247671","0.0-32.0-10.0","76694274","wem/bandit_single","A3GEL5PWFIK05S","pain","4","","75","K","2","","0","1","0","0","0.6","true","0","0","0.8","full_practice","0","0.2","0","0.6","0","0.2","","","","","",""
"1582","","bandit","62","251432","0.0-32.0-11.0","76694274","wem/bandit_single","A3GEL5PWFIK05S","pain","4","","75","K","2","","0","0","1","0","0.6","true","0","0","0.8","full_practice","0","0.2","0","0.6","0","0.2","","","","","",""
"109","","bandit","63","253299","0.0-32.0-12.0","76694274","wem/bandit_single","A3GEL5PWFIK05S","pain","4","","75","K","2","","0","0","1","0","0.6","true","0","0","0.8","full_practice","0","0.2","0","0.6","0","0.2","","","","","",""
"2717","","bandit","64","258201","0.0-32.0-13.0","76694274","wem/bandit_single","A3GEL5PWFIK05S","pain","4","","76","L","3","","0","0","1","0","0.2","true","0","0","0.8","full_practice","0","0.2","0","0.6","0","0.2","","","","","",""
"123","","bandit","65","260084","0.0-32.0-14.0","76694274","wem/bandit_single","A3GEL5PWFIK05S","pain","4","","76","L","3","","0","0","1","0","0.2","true","0","0","0.8","full_practice","0","0.2","0","0.6","0","0.2","","","","","",""
"2083","","bandit","66","264354","0.0-32.0-15.0","76694274","wem/bandit_single","A3GEL5PWFIK05S","pain","4","","72","H","0","img/none_selected.jpg","0","1","0","0","0.8","true","0","0","0.8","full_practice","0","0.2","0","0.6","0","0.2","","","","","",""
"298","","bandit","67","266412","0.0-32.0-16.0","76694274","wem/bandit_single","A3GEL5PWFIK05S","pain","4","","72","H","0","img/none_selected.jpg","0","1","0","0","0.8","true","0","0","0.8","full_practice","0","0.2","0","0.6","0","0.2","","","","","",""
"179","","bandit","68","268350","0.0-32.0-17.0","76694274","wem/bandit_single","A3GEL5PWFIK05S","pain","4","","72","H","0","img/none_selected.jpg","0","1","0","0","0.8","true","0","0","0.8","full_practice","0","0.2","0","0.6","0","0.2","","","","","",""
"97","","bandit","69","270206","0.0-32.0-18.0","76694274","wem/bandit_single","A3GEL5PWFIK05S","pain","4","","72","H","0","img/none_selected.jpg","0","1","0","0","0.8","true","0","0","0.8","full_practice","0","0.2","0","0.6","0","0.2","","","","","",""
"58","","bandit","70","272025","0.0-32.0-19.0","76694274","wem/bandit_single","A3GEL5PWFIK05S","pain","4","","72","H","0","img/none_selected.jpg","0","1","0","0","0.8","true","0","0","0.8","full_practice","0","0.2","0","0.6","0","0.2","","","","","",""
"2512","","text","71","274799","0.0-33.0","76694274","wem/bandit_single","A3GEL5PWFIK05S","pain","4","32","","","","","","","","","","","","","","","","","","","","","","","","","",""
"10851","","text","72","286657","0.0-34.0","76694274","wem/bandit_single","A3GEL5PWFIK05S","pain","4","32","","","","","","","","","","","","","","","","","","","","","","","","","",""
"6499","","text","73","293160","0.0-35.0","76694274","wem/bandit_single","A3GEL5PWFIK05S","pain","4","32","","","","","","","","","","","","","","","","","","","","","","","","","",""
"5568","","text","74","298741","0.0-36.0","76694274","wem/bandit_single","A3GEL5PWFIK05S","pain","4","32","","","","","","","","","","","","","","","","","","","","","","","","","",""
"6294","","text","75","305039","0.0-37.0","76694274","wem/bandit_single","A3GEL5PWFIK05S","pain","4","32","","","","","","","","","","","","","","","","","","","","","","","","","",""
"3416","","bandit","76","309963","0.0-38.0-0.0","76694274","wem/bandit_single","A3GEL5PWFIK05S","pain","4","","72","H","0","img/none_selected.jpg","0","0","1","","0.2633340886","false","1","","0.2633340886","main_expt","","0.1530555908","","0.1534711312","","0.04789219489","","","","","",""
"135","","bandit","77","311858","0.0-39.0-0.0","76694274","wem/bandit_single","A3GEL5PWFIK05S","pain","4","","72","H","0","img/none_selected.jpg","0","0","1","","0.288049036","false","2","","0.288049036","main_expt","","0.103598712","","0.1140054314","","0.06526788736","","","","","",""
"141","","bandit","78","314390","0.0-40.0-0.0","76694274","wem/bandit_single","A3GEL5PWFIK05S","pain","4","","72","H","0","img/none_selected.jpg","0","0","1","","0.2979487298","false","3","","0.2979487298","main_expt","","0.08136741005","","0.1012650834","","0.04764418461","","","","","",""
"2","","bandit","79","316154","0.0-41.0-0.0","76694274","wem/bandit_single","A3GEL5PWFIK05S","pain","4","","74","J","1","","0","0","1","","0.08723083084","false","4","","0.3306303211","main_expt","","0.08723083084","","0.09541256236","","0.05056035824","","","","","",""
"47","","bandit","80","318187","0.0-42.0-0.0","76694274","wem/bandit_single","A3GEL5PWFIK05S","pain","4","","74","J","1","","0","0","1","","0.1255982651","false","5","","0.2438199519","main_expt","","0.1255982651","","0.07842998328","","0.05944929255","","","","","",""
"42","","bandit","81","319990","0.0-43.0-0.0","76694274","wem/bandit_single","A3GEL5PWFIK05S","pain","4","","74","J","1","","0","0","1","","0.09044777998","false","6","","0.2362074668","main_expt","","0.09044777998","","0.09158282766","","0.09562353852","","","","","",""
"188","","bandit","82","321937","0.0-44.0-0.0","76694274","wem/bandit_single","A3GEL5PWFIK05S","pain","4","","75","K","2","","0","0","1","","0.09712353232","false","7","","0.2591683673","main_expt","","0.1067491613","","0.09712353232","","0.08069121891","","","","","",""
"137","","bandit","83","324192","0.0-45.0-0.0","76694274","wem/bandit_single","A3GEL5PWFIK05S","pain","4","","75","K","2","","0","1","0","","0.08440361392","false","8","","0.2299415188","main_expt","","0.15597148","","0.08440361392","","0.07203927837","","","","","",""
"152","","bandit","84","326102","0.0-46.0-0.0","76694274","wem/bandit_single","A3GEL5PWFIK05S","pain","4","","75","K","2","","0","0","1","","0.102519384","false","9","","0.2057198223","main_expt","","0.2250404859","","0.102519384","","0.08219025907","","","","","",""
"72","","bandit","85","328196","0.0-47.0-0.0","76694274","wem/bandit_single","A3GEL5PWFIK05S","pain","4","","76","L","3","","0","0","1","","0.06517742799","false","10","","0.2002554128","main_expt","","0.2205918947","","0.06157476224","","0.06517742799","","","","","",""
"115","","bandit","86","330071","0.0-48.0-0.0","76694274","wem/bandit_single","A3GEL5PWFIK05S","pain","4","","76","L","3","","0","0","1","","0.0549201251","false","11","","0.2390702858","main_expt","","0.1999173076","","0.05516119966","","0.0549201251","","","","","",""
"56","","bandit","87","331886","0.0-49.0-0.0","76694274","wem/bandit_single","A3GEL5PWFIK05S","pain","4","","76","L","3","","0","0","1","","0.0630283727","false","12","","0.2309669968","main_expt","","0.2006159367","","0.04311537102","","0.0630283727","","","","","",""
"86","","bandit","88","333731","0.0-50.0-0.0","76694274","wem/bandit_single","A3GEL5PWFIK05S","pain","4","","75","K","2","","0","0","1","","0.03895599675","false","13","","0.2667386483","main_expt","","0.202674457","","0.03895599675","","0.07136250487","","","","","",""
"157","","bandit","89","335668","0.0-51.0-0.0","76694274","wem/bandit_single","A3GEL5PWFIK05S","pain","4","","75","K","2","","0","0","1","","0.03256744162","false","14","","0.2057326914","main_expt","","0.152812741","","0.03256744162","","0.07333211558","","","","","",""
"73","","bandit","90","337500","0.0-52.0-0.0","76694274","wem/bandit_single","A3GEL5PWFIK05S","pain","4","","75","K","2","","0","0","1","","0.01982065674","false","15","","0.2081585857","main_expt","","0.1648564856","","0.01982065674","","0.1154740655","","","","","",""
"1655","","bandit","91","341407","0.0-53.0-0.0","76694274","wem/bandit_single","A3GEL5PWFIK05S","pain","4","","72","H","0","img/none_selected.jpg","0","0","1","","0.1909184248","false","16","","0.1909184248","main_expt","","0.1619055423","","0.04082574049","","0.1011313391","","","","","",""
"192","","bandit","92","343362","0.0-54.0-0.0","76694274","wem/bandit_single","A3GEL5PWFIK05S","pain","4","","72","H","0","img/none_selected.jpg","0","1","0","","0.2198432556","false","17","","0.2198432556","main_expt","","0.1651197045","","0.0363298649","","0.1447019112","","","","","",""
"200","","bandit","93","345321","0.0-55.0-0.0","76694274","wem/bandit_single","A3GEL5PWFIK05S","pain","4","","72","H","0","img/none_selected.jpg","0","0","1","","0.2347766335","false","18","","0.2347766335","main_expt","","0.1079041081","","0.07917382237","","0.1039364862","","","","","",""
"222","","bandit","94","347303","0.0-56.0-0.0","76694274","wem/bandit_single","A3GEL5PWFIK05S","pain","4","","72","H","0","img/none_selected.jpg","0","0","1","","0.24668571","false","19","","0.24668571","main_expt","","0.1059999363","","0.08476555987","","0.08759831402","","","","","",""
"1259","","bandit","95","350323","0.0-57.0-0.0","76694274","wem/bandit_single","A3GEL5PWFIK05S","pain","4","","72","H","0","img/none_selected.jpg","0","0","1","","0.2355281317","false","20","","0.2355281317","main_expt","","0.1197169881","","0.04047152317","","0.08010338479","","","","","",""
"68","","bandit","96","352152","0.0-58.0-0.0","76694274","wem/bandit_single","A3GEL5PWFIK05S","pain","4","","74","J","1","","0","0","1","","0.1338215077","false","21","","0.2290721377","main_expt","","0.1338215077","","0.07021106672","","0.07820488182","","","","","",""
"278","","bandit","97","354377","0.0-59.0-0.0","76694274","wem/bandit_single","A3GEL5PWFIK05S","pain","4","","74","J","1","","0","1","0","","0.1691749215","false","22","","0.1982968879","main_expt","","0.1691749215","","0.08794503477","","0.06301774499","","","","","",""
"105","","bandit","98","356242","0.0-60.0-0.0","76694274","wem/bandit_single","A3GEL5PWFIK05S","pain","4","","74","J","1","","0","1","0","","0.2100599157","false","23","","0.1991555028","main_expt","","0.2100599157","","0.07274518233","","0.04380944514","","","","","",""
"345","","bandit","99","358348","0.0-61.0-0.0","76694274","wem/bandit_single","A3GEL5PWFIK05S","pain","4","","74","J","1","","0","0","1","","0.1763606332","false","24","","0.1700743611","main_expt","","0.1763606332","","0.09602528561","","0.04485861341","","","","","",""
"13","","bandit","100","360122","0.0-62.0-0.0","76694274","wem/bandit_single","A3GEL5PWFIK05S","pain","4","","74","J","1","","0","0","1","","0.1155065599","false","25","","0.2303117276","main_expt","","0.1155065599","","0.07148754983","","0.08350983839","","","","","",""
"4","","bandit","101","361886","0.0-63.0-0.0","76694274","wem/bandit_single","A3GEL5PWFIK05S","pain","4","","74","J","1","","0","0","1","","0.08411514459","false","26","","0.2615068669","main_expt","","0.08411514459","","0.05591681381","","0.04946014148","","","","","",""
"1096","","bandit","102","364750","0.0-64.0-0.0","76694274","wem/bandit_single","A3GEL5PWFIK05S","pain","4","","74","J","1","","0","0","1","","0.1192049255","false","27","","0.2108316327","main_expt","","0.1192049255","","0.06488914964","","0.07008172503","","","","","",""
"56","","bandit","103","366565","0.0-65.0-0.0","76694274","wem/bandit_single","A3GEL5PWFIK05S","pain","4","","75","K","2","","0","0","1","","0.07067710387","false","28","","0.2616222854","main_expt","","0.1530516972","","0.07067710387","","0.09766989806","","","","","",""
"131","","bandit","104","368457","0.0-66.0-0.0","76694274","wem/bandit_single","A3GEL5PWFIK05S","pain","4","","75","K","2","","0","0","1","","0.06184318105","false","29","","0.2754145478","main_expt","","0.1243035263","","0.06184318105","","0.1020433103","","","","","",""
"1290","","bandit","105","371510","0.0-67.0-0.0","76694274","wem/bandit_single","A3GEL5PWFIK05S","pain","4","","75","K","2","","0","0","1","","0.06562203124","false","30","","0.3091083038","main_expt","","0.2106934108","","0.06562203124","","0.1128186897","","","","","",""
"716","","bandit","106","374372","0.0-68.0-0.0","76694274","wem/bandit_single","A3GEL5PWFIK05S","pain","4","","75","K","2","","0","0","1","","0.06340423818","false","31","","0.3032558385","main_expt","","0.269819176","","0.06340423818","","0.1021038766","","","","","",""
"364","","bandit","107","376497","0.0-69.0-0.0","76694274","wem/bandit_single","A3GEL5PWFIK05S","pain","4","","75","K","2","","0","0","1","","0.08582013972","false","32","","0.3160124579","main_expt","","0.2415851803","","0.08582013972","","0.1010238501","","","","","",""
"155","","bandit","108","378414","0.0-70.0-0.0","76694274","wem/bandit_single","A3GEL5PWFIK05S","pain","4","","76","L","3","","0","0","1","","0.0674926465","false","33","","0.355825184","main_expt","","0.2754451294","","0.1020351259","","0.0674926465","","","","","",""
"674","","bandit","109","380848","0.0-71.0-0.0","76694274","wem/bandit_single","A3GEL5PWFIK05S","pain","4","","76","L","3","","0","0","1","","0.1007783216","false","34","","0.3380280112","main_expt","","0.3566428969","","0.07925884201","","0.1007783216","","","","","",""
"280","","bandit","110","383181","0.0-72.0-0.0","76694274","wem/bandit_single","A3GEL5PWFIK05S","pain","4","","76","L","3","","0","0","1","","0.09542819821","false","35","","0.3772093912","main_expt","","0.2652811253","","0.06071167626","","0.09542819821","","","","","",""
"79","","bandit","111","385020","0.0-73.0-0.0","76694274","wem/bandit_single","A3GEL5PWFIK05S","pain","4","","72","H","0","img/none_selected.jpg","0","0","1","","0.3916459715","false","36","","0.3916459715","main_expt","","0.2472166127","","0.05331310492","","0.07425724813","","","","","",""
"429","","bandit","112","387210","0.0-74.0-0.0","76694274","wem/bandit_single","A3GEL5PWFIK05S","pain","4","","72","H","0","img/none_selected.jpg","0","1","0","","0.3724196513","false","37","","0.3724196513","main_expt","","0.2941536534","","0.08395737389","","0.07325651263","","","","","",""
"905","","bandit","113","389876","0.0-75.0-0.0","76694274","wem/bandit_single","A3GEL5PWFIK05S","pain","4","","72","H","0","img/none_selected.jpg","0","0","1","","0.3885064771","false","38","","0.3885064771","main_expt","","0.2850199379","","0.07562804978","","0.06058557764","","","","","",""
"241","","bandit","114","391879","0.0-76.0-0.0","76694274","wem/bandit_single","A3GEL5PWFIK05S","pain","4","","72","H","0","img/none_selected.jpg","0","0","1","","0.4332305888","false","39","","0.4332305888","main_expt","","0.2308750992","","0.06339693541","","0.05480529152","","","","","",""
"1984","","bandit","115","395625","0.0-77.0-0.0","76694274","wem/bandit_single","A3GEL5PWFIK05S","pain","4","","72","H","0","img/none_selected.jpg","0","1","0","","0.4320021358","false","40","","0.4320021358","main_expt","","0.2166928419","","0.07741261751","","0.08480448704","","","","","",""
"239","","bandit","116","397625","0.0-78.0-0.0","76694274","wem/bandit_single","A3GEL5PWFIK05S","pain","4","","72","H","0","img/none_selected.jpg","0","0","1","","0.4378374231","false","41","","0.4378374231","main_expt","","0.222341992","","0.08199889575","","0.07863220129","","","","","",""
"200","","bandit","117","400084","0.0-79.0-0.0","76694274","wem/bandit_single","A3GEL5PWFIK05S","pain","4","","72","H","0","img/none_selected.jpg","0","1","0","","0.4138470733","false","42","","0.4138470733","main_expt","","0.2420609394","","0.1252939417","","0.07947159818","","","","","",""
"180","","bandit","118","402025","0.0-80.0-0.0","76694274","wem/bandit_single","A3GEL5PWFIK05S","pain","4","","72","H","0","img/none_selected.jpg","0","0","1","","0.3618848001","false","43","","0.3618848001","main_expt","","0.2683234569","","0.1464491551","","0.0747194724","","","","","",""
"1651","","bandit","119","405437","0.0-81.0-0.0","76694274","wem/bandit_single","A3GEL5PWFIK05S","pain","4","","72","H","0","img/none_selected.jpg","0","1","0","","0.3902132048","false","44","","0.3902132048","main_expt","","0.2592073096","","0.1846315016","","0.06873866496","","","","","",""
"172","","bandit","120","407370","0.0-82.0-0.0","76694274","wem/bandit_single","A3GEL5PWFIK05S","pain","4","","72","H","0","img/none_selected.jpg","0","1","0","","0.370584769","false","45","","0.370584769","main_expt","","0.258850709","","0.1454302639","","0.05624711086","","","","","",""
"577","","bandit","121","409707","0.0-83.0-0.0","76694274","wem/bandit_single","A3GEL5PWFIK05S","pain","4","","72","H","0","img/none_selected.jpg","0","0","1","","0.3416192418","false","46","","0.3416192418","main_expt","","0.2162528617","","0.1420401956","","0.06710767933","","","","","",""
"1950","","bandit","122","413417","0.0-84.0-0.0","76694274","wem/bandit_single","A3GEL5PWFIK05S","pain","4","","72","H","0","img/none_selected.jpg","0","0","1","","0.3254497978","false","47","","0.3254497978","main_expt","","0.1380472806","","0.2049545467","","0.05828218186","","","","","",""
"38","","bandit","123","415220","0.0-85.0-0.0","76694274","wem/bandit_single","A3GEL5PWFIK05S","pain","4","","72","H","0","img/none_selected.jpg","0","0","1","","0.3438960799","false","48","","0.3438960799","main_expt","","0.1673270425","","0.1608881285","","0.1161016377","","","","","",""
"835","","bandit","124","418174","0.0-86.0-0.0","76694274","wem/bandit_single","A3GEL5PWFIK05S","pain","4","","74","J","1","","0","0","1","","0.1637821127","false","49","","0.3405395495","main_expt","","0.1637821127","","0.2001806823","","0.1135844416","","","","","",""
"1395","","bandit","125","421330","0.0-87.0-0.0","76694274","wem/bandit_single","A3GEL5PWFIK05S","pain","4","","74","J","1","","0","1","0","","0.1826101584","false","50","","0.3305224856","main_expt","","0.1826101584","","0.2061381611","","0.1646239324","","","","","",""
"868","","bandit","126","424371","0.0-88.0-0.0","76694274","wem/bandit_single","A3GEL5PWFIK05S","pain","4","","74","J","1","","0","1","0","","0.2270371056","false","51","","0.2304924019","main_expt","","0.2270371056","","0.2369791141","","0.1699716213","","","","","",""
"525","","bandit","127","426661","0.0-89.0-0.0","76694274","wem/bandit_single","A3GEL5PWFIK05S","pain","4","","74","J","1","","0","0","1","","0.2203225001","false","52","","0.2832256505","main_expt","","0.2203225001","","0.2378663067","","0.1762937123","","","","","",""
"185","","bandit","128","428606","0.0-90.0-0.0","76694274","wem/bandit_single","A3GEL5PWFIK05S","pain","4","","74","J","1","","0","1","0","","0.2776849753","false","53","","0.2391441838","main_expt","","0.2776849753","","0.2063519028","","0.2287193473","","","","","",""
"67","","bandit","129","430435","0.0-91.0-0.0","76694274","wem/bandit_single","A3GEL5PWFIK05S","pain","4","","74","J","1","","0","0","1","","0.2454572706","false","54","","0.2697071588","main_expt","","0.2454572706","","0.2439582882","","0.2356834932","","","","","",""
"1030","","bandit","130","433227","0.0-92.0-0.0","76694274","wem/bandit_single","A3GEL5PWFIK05S","pain","4","","74","J","1","","0","0","1","","0.2382153161","false","55","","0.2875326611","main_expt","","0.2382153161","","0.2381950618","","0.306547883","","","","","",""
"576","","bandit","131","435565","0.0-93.0-0.0","76694274","wem/bandit_single","A3GEL5PWFIK05S","pain","4","","74","J","1","","0","0","1","","0.1960908288","false","56","","0.2854258916","main_expt","","0.1960908288","","0.1800346575","","0.2853582168","","","","","",""
"1111","","bandit","132","438440","0.0-94.0-0.0","76694274","wem/bandit_single","A3GEL5PWFIK05S","pain","4","","75","K","2","","0","0","1","","0.2336203315","false","57","","0.3445045135","main_expt","","0.2042340564","","0.2336203315","","0.2834250679","","","","","",""
"2466","","bandit","133","442687","0.0-95.0-0.0","76694274","wem/bandit_single","A3GEL5PWFIK05S","pain","4","","75","K","2","","0","0","1","","0.189887459","false","58","","0.3390226593","main_expt","","0.1490893454","","0.189887459","","0.2690284398","","","","","",""
"980","","bandit","134","445691","0.0-96.0-0.0","76694274","wem/bandit_single","A3GEL5PWFIK05S","pain","4","","75","K","2","","0","0","1","","0.1548607402","false","59","","0.2666291788","main_expt","","0.1581154669","","0.1548607402","","0.2616697142","","","","","",""
"586","","bandit","135","448397","0.0-97.0-0.0","76694274","wem/bandit_single","A3GEL5PWFIK05S","pain","4","","76","L","3","","0","0","1","","0.2704186185","false","60","","0.246985882","main_expt","","0.1715954381","","0.1233285174","","0.2704186185","","","","","",""
"202","","bandit","136","450362","0.0-98.0-0.0","76694274","wem/bandit_single","A3GEL5PWFIK05S","pain","4","","76","L","3","","0","0","1","","0.3376037184","false","61","","0.2171589204","main_expt","","0.1999420892","","0.186549837","","0.3376037184","","","","","",""
"1046","","bandit","137","453183","0.0-99.0-0.0","76694274","wem/bandit_single","A3GEL5PWFIK05S","pain","4","","76","L","3","","0","0","1","","0.3098521258","false","62","","0.2677831299","main_expt","","0.1539309088","","0.1420872584","","0.3098521258","","","","","",""
"149","","bandit","138","455093","0.0-100.0-0.0","76694274","wem/bandit_single","A3GEL5PWFIK05S","pain","4","","72","H","0","img/none_selected.jpg","0","0","1","","0.2303454974","false","63","","0.2303454974","main_expt","","0.1085632924","","0.151707711","","0.3137631198","","","","","",""
"319","","bandit","139","457174","0.0-101.0-0.0","76694274","wem/bandit_single","A3GEL5PWFIK05S","pain","4","","72","H","0","img/none_selected.jpg","0","0","1","","0.196947777","false","64","","0.196947777","main_expt","","0.1370187426","","0.1474827626","","0.3179430645","","","","","",""
"887","","bandit","140","459834","0.0-102.0-0.0","76694274","wem/bandit_single","A3GEL5PWFIK05S","pain","4","","72","H","0","img/none_selected.jpg","0","1","0","","0.1645630622","false","65","","0.1645630622","main_expt","","0.1322062037","","0.1746529425","","0.2980330155","","","","","",""
"570","","bandit","141","462165","0.0-103.0-0.0","76694274","wem/bandit_single","A3GEL5PWFIK05S","pain","4","","72","H","0","img/none_selected.jpg","0","0","1","","0.1533283495","false","66","","0.1533283495","main_expt","","0.1496501041","","0.1310865155","","0.2537140377","","","","","",""
"192","","bandit","142","464210","0.0-104.0-0.0","76694274","wem/bandit_single","A3GEL5PWFIK05S","pain","4","","72","H","0","img/none_selected.jpg","0","0","1","","0.1708403009","false","67","","0.1708403009","main_expt","","0.1626820295","","0.1370872981","","0.2153704701","","","","","",""
"92","","bandit","143","466066","0.0-105.0-0.0","76694274","wem/bandit_single","A3GEL5PWFIK05S","pain","4","","72","H","0","img/none_selected.jpg","0","0","1","","0.1887917493","false","68","","0.1887917493","main_expt","","0.1989514297","","0.09914494933","","0.2417705853","","","","","",""
"242","","bandit","144","468185","0.0-106.0-0.0","76694274","wem/bandit_single","A3GEL5PWFIK05S","pain","4","","74","J","1","","0","1","0","","0.1888867792","false","69","","0.2160515082","main_expt","","0.1888867792","","0.1092411584","","0.3235463827","","","","","",""
"490","","bandit","145","470445","0.0-107.0-0.0","76694274","wem/bandit_single","A3GEL5PWFIK05S","pain","4","","74","J","1","","0","0","1","","0.1767550628","false","70","","0.2778565133","main_expt","","0.1767550628","","0.1213917008","","0.3647615206","","","","","",""
"181","","bandit","146","472388","0.0-108.0-0.0","76694274","wem/bandit_single","A3GEL5PWFIK05S","pain","4","","74","J","1","","0","0","1","","0.1253641033","false","71","","0.2623699359","main_expt","","0.1253641033","","0.1479005197","","0.3472934012","","","","","",""
"1362","","bandit","147","475512","0.0-109.0-0.0","76694274","wem/bandit_single","A3GEL5PWFIK05S","pain","4","","74","J","1","","0","0","1","","0.1319365506","false","72","","0.2574081817","main_expt","","0.1319365506","","0.1931369739","","0.2965124106","","","","","",""
"59","","bandit","148","477333","0.0-110.0-0.0","76694274","wem/bandit_single","A3GEL5PWFIK05S","pain","4","","75","K","2","","0","0","1","","0.1900103681","false","73","","0.2503470883","main_expt","","0.1061905376","","0.1900103681","","0.2823595977","","","","","",""
"597","","bandit","149","479692","0.0-111.0-0.0","76694274","wem/bandit_single","A3GEL5PWFIK05S","pain","4","","75","K","2","","0","0","1","","0.1344428369","false","74","","0.2710758316","main_expt","","0.1303083533","","0.1344428369","","0.2835749375","","","","","",""
"292","","bandit","150","481745","0.0-112.0-0.0","76694274","wem/bandit_single","A3GEL5PWFIK05S","pain","4","","75","K","2","","0","0","1","","0.1528357022","false","75","","0.260759121","main_expt","","0.1359111238","","0.1528357022","","0.3526847528","","","","","",""
"630","","bandit","151","484203","0.0-113.0-0.0","76694274","wem/bandit_single","A3GEL5PWFIK05S","pain","4","","76","L","3","","0","1","0","","0.3434196486","false","76","","0.2610050464","main_expt","","0.1128391495","","0.1898592508","","0.3434196486","","","","","",""
"410","","bandit","152","486376","0.0-114.0-0.0","76694274","wem/bandit_single","A3GEL5PWFIK05S","pain","4","","76","L","3","","0","0","1","","0.3073782559","false","77","","0.1920601856","main_expt","","0.1118044987","","0.191464519","","0.3073782559","","","","","",""
"1926","","bandit","153","490065","0.0-115.0-0.0","76694274","wem/bandit_single","A3GEL5PWFIK05S","pain","4","","76","L","3","","0","0","1","","0.3200097729","false","78","","0.1726035312","main_expt","","0.1315400358","","0.2665821314","","0.3200097729","","","","","",""
"809","","bandit","154","492637","0.0-116.0-0.0","76694274","wem/bandit_single","A3GEL5PWFIK05S","pain","4","","76","L","3","","0","0","1","","0.3406321397","false","79","","0.1974193715","main_expt","","0.1421279646","","0.2510402579","","0.3406321397","","","","","",""
"2210","","bandit","155","496921","0.0-117.0-0.0","76694274","wem/bandit_single","A3GEL5PWFIK05S","pain","4","","72","H","0","img/none_selected.jpg","0","0","1","","0.1771423485","false","80","","0.1771423485","main_expt","","0.1666910293","","0.2803090616","","0.2934749235","","","","","",""
"1122","","bandit","156","499809","0.0-118.0-0.0","76694274","wem/bandit_single","A3GEL5PWFIK05S","pain","4","","72","H","0","img/none_selected.jpg","0","0","1","","0.1689426189","false","81","","0.1689426189","main_expt","","0.1514130178","","0.3053401272","","0.3080678564","","","","","",""
"649","","bandit","157","502221","0.0-119.0-0.0","76694274","wem/bandit_single","A3GEL5PWFIK05S","pain","4","","72","H","0","img/none_selected.jpg","0","0","1","","0.2008945118","false","82","","0.2008945118","main_expt","","0.1667518413","","0.3079009489","","0.3118316764","","","","","",""
"921","","bandit","158","504914","0.0-120.0-0.0","76694274","wem/bandit_single","A3GEL5PWFIK05S","pain","4","","72","H","0","img/none_selected.jpg","0","1","0","","0.2679993971","false","83","","0.2679993971","main_expt","","0.1620161121","","0.3294465445","","0.2539803618","","","","","",""
"232","","bandit","159","506909","0.0-121.0-0.0","76694274","wem/bandit_single","A3GEL5PWFIK05S","pain","4","","72","H","0","img/none_selected.jpg","0","0","1","","0.2187304288","false","84","","0.2187304288","main_expt","","0.1920696542","","0.3567704092","","0.2665148507","","","","","",""
"1102","","bandit","160","509773","0.0-122.0-0.0","76694274","wem/bandit_single","A3GEL5PWFIK05S","pain","4","","72","H","0","img/none_selected.jpg","0","0","1","","0.2668074714","false","85","","0.2668074714","main_expt","","0.1790321084","","0.3637986046","","0.2638978108","","","","","",""
"597","","bandit","161","512133","0.0-123.0-0.0","76694274","wem/bandit_single","A3GEL5PWFIK05S","pain","4","","72","H","0","img/none_selected.jpg","0","0","1","","0.3011617684","false","86","","0.3011617684","main_expt","","0.1644507099","","0.3661817966","","0.2430370424","","","","","",""
"243","","bandit","162","514225","0.0-124.0-0.0","76694274","wem/bandit_single","A3GEL5PWFIK05S","pain","4","","72","H","0","img/none_selected.jpg","0","0","1","","0.2866912597","false","87","","0.2866912597","main_expt","","0.1731377232","","0.349996741","","0.2369050713","","","","","",""
"699","","bandit","163","516686","0.0-125.0-0.0","76694274","wem/bandit_single","A3GEL5PWFIK05S","pain","4","","72","H","0","img/none_selected.jpg","0","0","1","","0.2921806028","false","88","","0.2921806028","main_expt","","0.1562940882","","0.3021468993","","0.2322244834","","","","","",""
"151","","bandit","164","518601","0.0-126.0-0.0","76694274","wem/bandit_single","A3GEL5PWFIK05S","pain","4","","74","J","1","","0","0","1","","0.1344734597","false","89","","0.2877077994","main_expt","","0.1344734597","","0.2752269066","","0.214722025","","","","","",""
"489","","bandit","165","520852","0.0-127.0-0.0","76694274","wem/bandit_single","A3GEL5PWFIK05S","pain","4","","74","J","1","","0","0","1","","0.1192135027","false","90","","0.2390413286","main_expt","","0.1192135027","","0.3172240337","","0.1767670318","","","","","",""
"130","","bandit","166","522745","0.0-128.0-0.0","76694274","wem/bandit_single","A3GEL5PWFIK05S","pain","4","","74","J","1","","0","0","1","","0.1639104845","false","91","","0.2582098676","main_expt","","0.1639104845","","0.3049723864","","0.1391375388","","","","","",""
"2263","","bandit","167","526980","0.0-129.0-0.0","76694274","wem/bandit_single","A3GEL5PWFIK05S","pain","4","","74","J","1","","0","0","1","","0.1960431165","false","92","","0.3066747335","main_expt","","0.1960431165","","0.3261529518","","0.1283323985","","","","","",""
"449","","bandit","168","529582","0.0-130.0-0.0","76694274","wem/bandit_single","A3GEL5PWFIK05S","pain","4","","74","J","1","","0","1","0","","0.2137056669","false","93","","0.3051362106","main_expt","","0.2137056669","","0.3550538726","","0.07538544447","","","","","",""
"270","","bandit","169","531614","0.0-131.0-0.0","76694274","wem/bandit_single","A3GEL5PWFIK05S","pain","4","","74","J","1","","0","0","1","","0.2188004936","false","94","","0.3433649514","main_expt","","0.2188004936","","0.3335231974","","0.07407963518","","","","","",""
"371","","bandit","170","533748","0.0-132.0-0.0","76694274","wem/bandit_single","A3GEL5PWFIK05S","pain","4","","74","J","1","","0","0","1","","0.2442185641","false","95","","0.3638642947","main_expt","","0.2442185641","","0.3060397856","","0.06265185683","","","","","",""
"187","","bandit","171","535702","0.0-133.0-0.0","76694274","wem/bandit_single","A3GEL5PWFIK05S","pain","4","","74","J","1","","0","0","1","","0.2062156096","false","96","","0.3433071503","main_expt","","0.2062156096","","0.3420618169","","0.0626930361","","","","","",""
"2234","","bandit","172","539699","0.0-134.0-0.0","76694274","wem/bandit_single","A3GEL5PWFIK05S","pain","4","","74","J","1","","0","0","1","","0.1824441478","false","97","","0.3287523936","main_expt","","0.1824441478","","0.3451805041","","0.03702031205","","","","","",""
"268","","bandit","173","541729","0.0-135.0-0.0","76694274","wem/bandit_single","A3GEL5PWFIK05S","pain","4","","74","J","1","","0","0","1","","0.1741419228","false","98","","0.3384657171","main_expt","","0.1741419228","","0.3067376926","","0.02896114516","","","","","",""
"429","","bandit","174","544222","0.0-136.0-0.0","76694274","wem/bandit_single","A3GEL5PWFIK05S","pain","4","","75","K","2","","0","0","1","","0.2980645096","false","99","","0.3929596429","main_expt","","0.1402348549","","0.2980645096","","0.04301278827","","","","","",""
"1249","","bandit","175","547234","0.0-137.0-0.0","76694274","wem/bandit_single","A3GEL5PWFIK05S","pain","4","","75","K","2","","0","0","1","","0.2862788702","false","100","","0.3972918561","main_expt","","0.1856728267","","0.2862788702","","0.03198738169","","","","","",""
"204","","bandit","176","549231","0.0-138.0-0.0","76694274","wem/bandit_single","A3GEL5PWFIK05S","pain","4","","75","K","2","","0","0","1","","0.2622165861","false","101","","0.4064604032","main_expt","","0.1731032509","","0.2622165861","","0.03387094668","","","","","",""
"241","","bandit","177","551235","0.0-139.0-0.0","76694274","wem/bandit_single","A3GEL5PWFIK05S","pain","4","","75","K","2","","0","0","1","","0.3261799811","false","102","","0.4273413635","main_expt","","0.1387116465","","0.3261799811","","0.0235124197","","","","","",""
"370","","bandit","178","553370","0.0-140.0-0.0","76694274","wem/bandit_single","A3GEL5PWFIK05S","pain","4","","75","K","2","","0","1","0","","0.334814711","false","103","","0.4566487837","main_expt","","0.1880660303","","0.334814711","","0.02482610326","","","","","",""
"465","","bandit","179","555649","0.0-141.0-0.0","76694274","wem/bandit_single","A3GEL5PWFIK05S","pain","4","","75","K","2","","0","1","0","","0.3486298313","false","104","","0.459539636","main_expt","","0.142060421","","0.3486298313","","0.03330094042","","","","","",""
"212","","bandit","180","557629","0.0-142.0-0.0","76694274","wem/bandit_single","A3GEL5PWFIK05S","pain","4","","75","K","2","","0","0","1","","0.3538911629","false","105","","0.4462881264","main_expt","","0.1839839798","","0.3538911629","","0.06543537915","","","","","",""
"2344","","bandit","181","562230","0.0-143.0-0.0","76694274","wem/bandit_single","A3GEL5PWFIK05S","pain","4","","75","K","2","","0","1","0","","0.3886974852","false","106","","0.4417011126","main_expt","","0.1691947451","","0.3886974852","","0.07051160025","","","","","",""
"719","","bandit","182","564714","0.0-144.0-0.0","76694274","wem/bandit_single","A3GEL5PWFIK05S","pain","4","","75","K","2","","0","0","1","","0.3489433712","false","107","","0.4419194373","main_expt","","0.180010917","","0.3489433712","","0.08830456602","","","","","",""
"284","","bandit","183","566761","0.0-145.0-0.0","76694274","wem/bandit_single","A3GEL5PWFIK05S","pain","4","","75","K","2","","0","1","0","","0.3901728218","false","108","","0.4061848383","main_expt","","0.1338722415","","0.3901728218","","0.05921849724","","","","","",""
"688","","bandit","184","569219","0.0-146.0-0.0","76694274","wem/bandit_single","A3GEL5PWFIK05S","pain","4","","75","K","2","","0","0","1","","0.4006799949","false","109","","0.3906669636","main_expt","","0.1350853679","","0.4006799949","","0.04581125366","","","","","",""
"164","","bandit","185","571147","0.0-147.0-0.0","76694274","wem/bandit_single","A3GEL5PWFIK05S","pain","4","","75","K","2","","0","0","1","","0.3867714499","false","110","","0.3969614195","main_expt","","0.184551263","","0.3867714499","","0.08345510588","","","","","",""
"25","","bandit","186","573375","0.0-148.0-0.0","76694274","wem/bandit_single","A3GEL5PWFIK05S","pain","4","","75","K","2","","0","0","1","","0.4252141842","false","111","","0.370186674","main_expt","","0.2635344293","","0.4252141842","","0.07355878572","","","","","",""
"345","","bandit","187","575485","0.0-149.0-0.0","76694274","wem/bandit_single","A3GEL5PWFIK05S","pain","4","","75","K","2","","0","0","1","","0.4197282726","false","112","","0.3488043283","main_expt","","0.2972025743","","0.4197282726","","0.09226575929","","","","","",""
"315","","bandit","188","577564","0.0-150.0-0.0","76694274","wem/bandit_single","A3GEL5PWFIK05S","pain","4","","75","K","2","","0","0","1","","0.4371411526","false","113","","0.2886117592","main_expt","","0.2853398636","","0.4371411526","","0.07711661396","","","","","",""
"808","","bandit","189","580512","0.0-151.0-0.0","76694274","wem/bandit_single","A3GEL5PWFIK05S","pain","4","","76","L","3","","0","0","1","","0.09366406151","false","114","","0.3507025671","main_expt","","0.2354235092","","0.4523407119","","0.09366406151","","","","","",""
"273","","bandit","190","582548","0.0-152.0-0.0","76694274","wem/bandit_single","A3GEL5PWFIK05S","pain","4","","76","L","3","","0","0","1","","0.09297781317","false","115","","0.3308051733","main_expt","","0.2228923984","","0.4544977282","","0.09297781317","","","","","",""
"657","","bandit","191","585372","0.0-153.0-0.0","76694274","wem/bandit_single","A3GEL5PWFIK05S","pain","4","","76","L","3","","0","0","1","","0.09292735615","false","116","","0.2696902145","main_expt","","0.182615248","","0.4458191396","","0.09292735615","","","","","",""
"470","","bandit","192","587606","0.0-154.0-0.0","76694274","wem/bandit_single","A3GEL5PWFIK05S","pain","4","","76","L","3","","0","0","1","","0.1277349031","false","117","","0.3048340551","main_expt","","0.1702457594","","0.4384124693","","0.1277349031","","","","","",""
"376","","bandit","193","590253","0.0-155.0-0.0","76694274","wem/bandit_single","A3GEL5PWFIK05S","pain","4","","76","L","3","","0","0","1","","0.1057820856","false","118","","0.2682044258","main_expt","","0.2075823826","","0.4590850855","","0.1057820856","","","","","",""
"563","","bandit","194","592580","0.0-156.0-0.0","76694274","wem/bandit_single","A3GEL5PWFIK05S","pain","4","","72","H","0","img/none_selected.jpg","0","0","1","","0.2314514612","false","119","","0.2314514612","main_expt","","0.2281388084","","0.4718937063","","0.08453932314","","","","","",""
"329","","bandit","195","595022","0.0-157.0-0.0","76694274","wem/bandit_single","A3GEL5PWFIK05S","pain","4","","72","H","0","img/none_selected.jpg","0","1","0","","0.197474053","false","120","","0.197474053","main_expt","","0.2620651535","","0.4645470247","","0.1106897037","","","","","",""
"338","","bandit","196","597124","0.0-158.0-0.0","76694274","wem/bandit_single","A3GEL5PWFIK05S","pain","4","","72","H","0","img/none_selected.jpg","0","1","0","","0.1819521248","false","121","","0.1819521248","main_expt","","0.2953433235","","0.4422277234","","0.1200625234","","","","","",""
"808","","bandit","197","599695","0.0-159.0-0.0","76694274","wem/bandit_single","A3GEL5PWFIK05S","pain","4","","72","H","0","img/none_selected.jpg","0","0","1","","0.171732915","false","122","","0.171732915","main_expt","","0.2702367277","","0.4150525319","","0.1570760405","","","","","",""
"374","","bandit","198","601834","0.0-160.0-0.0","76694274","wem/bandit_single","A3GEL5PWFIK05S","pain","4","","72","H","0","img/none_selected.jpg","0","0","1","","0.1577660673","false","123","","0.1577660673","main_expt","","0.3190818872","","0.4356762379","","0.1616024906","","","","","",""
"195","","bandit","199","604350","0.0-161.0-0.0","76694274","wem/bandit_single","A3GEL5PWFIK05S","pain","4","","72","H","0","img/none_selected.jpg","0","0","1","","0.1384195938","false","124","","0.1384195938","main_expt","","0.3415455108","","0.4475351861","","0.1371750093","","","","","",""
"75","","bandit","200","606188","0.0-162.0-0.0","76694274","wem/bandit_single","A3GEL5PWFIK05S","pain","4","","72","H","0","img/none_selected.jpg","0","0","1","","0.1367208018","false","125","","0.1367208018","main_expt","","0.3955313072","","0.4310995666","","0.1293707667","","","","","",""
"79","","bandit","201","608186","0.0-163.0-0.0","76694274","wem/bandit_single","A3GEL5PWFIK05S","pain","4","","72","H","0","img/none_selected.jpg","0","0","1","","0.14570125","false","126","","0.14570125","main_expt","","0.4150522509","","0.4246911586","","0.1231453761","","","","","",""
"126","","bandit","202","610077","0.0-164.0-0.0","76694274","wem/bandit_single","A3GEL5PWFIK05S","pain","4","","74","J","1","","0","0","1","","0.3803228979","false","127","","0.116128816","main_expt","","0.3803228979","","0.3855858577","","0.1044431599","","","","","",""
"352","","bandit","203","612193","0.0-165.0-0.0","76694274","wem/bandit_single","A3GEL5PWFIK05S","pain","4","","74","J","1","","0","1","0","","0.4028097642","false","128","","0.1118736017","main_expt","","0.4028097642","","0.3886900275","","0.07509994275","","","","","",""
"756","","bandit","204","614718","0.0-166.0-0.0","76694274","wem/bandit_single","A3GEL5PWFIK05S","pain","4","","74","J","1","","0","1","0","","0.3759087187","false","129","","0.1153634536","main_expt","","0.3759087187","","0.3712880315","","0.07499531951","","","","","",""
"51","","bandit","205","616533","0.0-167.0-0.0","76694274","wem/bandit_single","A3GEL5PWFIK05S","pain","4","","74","J","1","","0","1","0","","0.3578404683","false","130","","0.09323577747","main_expt","","0.3578404683","","0.3163545042","","0.06898381409","","","","","",""
"433","","bandit","206","618730","0.0-168.0-0.0","76694274","wem/bandit_single","A3GEL5PWFIK05S","pain","4","","74","J","1","","0","0","1","","0.3874222675","false","131","","0.1064947735","main_expt","","0.3874222675","","0.3203759455","","0.08255272978","","","","","",""
"320","","bandit","207","620814","0.0-169.0-0.0","76694274","wem/bandit_single","A3GEL5PWFIK05S","pain","4","","74","J","1","","0","0","1","","0.3773694481","false","132","","0.1574274544","main_expt","","0.3773694481","","0.3128419263","","0.06266196304","","","","","",""
"407","","bandit","208","623211","0.0-170.0-0.0","76694274","wem/bandit_single","A3GEL5PWFIK05S","pain","4","","74","J","1","","0","0","1","","0.3961249281","false","133","","0.1613106331","main_expt","","0.3961249281","","0.3057041938","","0.06584579886","","","","","",""
"497","","bandit","209","625474","0.0-171.0-0.0","76694274","wem/bandit_single","A3GEL5PWFIK05S","pain","4","","74","J","1","","0","1","0","","0.4152923946","false","134","","0.1660744508","main_expt","","0.4152923946","","0.2816585421","","0.05935363428","","","","","",""
"296","","bandit","210","627535","0.0-172.0-0.0","76694274","wem/bandit_single","A3GEL5PWFIK05S","pain","4","","74","J","1","","0","0","1","","0.4424865849","false","135","","0.1973964499","main_expt","","0.4424865849","","0.2955422992","","0.05732645975","","","","","",""
"403","","bandit","211","630097","0.0-173.0-0.0","76694274","wem/bandit_single","A3GEL5PWFIK05S","pain","4","","74","J","1","","0","0","1","","0.4465543098","false","136","","0.1813196928","main_expt","","0.4465543098","","0.3509846551","","0.07342087183","","","","","",""
"224","","bandit","212","632087","0.0-174.0-0.0","76694274","wem/bandit_single","A3GEL5PWFIK05S","pain","4","","74","J","1","","0","1","0","","0.4520996047","false","137","","0.1859539446","main_expt","","0.4520996047","","0.3344410146","","0.07676045657","","","","","",""
"1156","","bandit","213","635007","0.0-175.0-0.0","76694274","wem/bandit_single","A3GEL5PWFIK05S","pain","4","","74","J","1","","0","1","0","","0.428300575","false","138","","0.1014888705","main_expt","","0.428300575","","0.2657268636","","0.09127868582","","","","","",""
"537","","bandit","214","637309","0.0-176.0-0.0","76694274","wem/bandit_single","A3GEL5PWFIK05S","pain","4","","74","J","1","","0","0","1","","0.419833238","false","139","","0.09034098631","main_expt","","0.419833238","","0.2267955479","","0.1057771966","","","","","",""
"694","","bandit","215","639770","0.0-177.0-0.0","76694274","wem/bandit_single","A3GEL5PWFIK05S","pain","4","","74","J","1","","0","0","1","","0.423721229","false","140","","0.09102227313","main_expt","","0.423721229","","0.2278141127","","0.1134354218","","","","","",""
"374","","bandit","216","641910","0.0-178.0-0.0","76694274","wem/bandit_single","A3GEL5PWFIK05S","pain","4","","74","J","1","","0","0","1","","0.4382479885","false","141","","0.1095349378","main_expt","","0.4382479885","","0.23653477","","0.1205694848","","","","","",""
"72","","bandit","217","643749","0.0-179.0-0.0","76694274","wem/bandit_single","A3GEL5PWFIK05S","pain","4","","74","J","1","","0","1","0","","0.4247465964","false","142","","0.1184068784","main_expt","","0.4247465964","","0.2155890047","","0.1423721259","","","","","",""
"219","","bandit","218","645735","0.0-180.0-0.0","76694274","wem/bandit_single","A3GEL5PWFIK05S","pain","4","","74","J","1","","0","0","1","","0.3978340057","false","143","","0.1056920569","main_expt","","0.3978340057","","0.2203428631","","0.1199770031","","","","","",""
"27","","bandit","219","647527","0.0-181.0-0.0","76694274","wem/bandit_single","A3GEL5PWFIK05S","pain","4","","74","J","1","","0","0","1","","0.4094639435","false","144","","0.1563123998","main_expt","","0.4094639435","","0.1834171178","","0.1431068991","","","","","",""
"983","","bandit","220","650926","0.0-182.0-0.0","76694274","wem/bandit_single","A3GEL5PWFIK05S","pain","4","","74","J","1","","0","0","1","","0.4198905501","false","145","","0.09088636348","main_expt","","0.4198905501","","0.2064693802","","0.1630017245","","","","","",""
"65","","bandit","221","652756","0.0-183.0-0.0","76694274","wem/bandit_single","A3GEL5PWFIK05S","pain","4","","74","J","1","","0","1","0","","0.4050886303","false","146","","0.0827806059","main_expt","","0.4050886303","","0.1342941172","","0.145034553","","","","","",""
"2","","bandit","222","654857","0.0-184.0-0.0","76694274","wem/bandit_single","A3GEL5PWFIK05S","pain","4","","74","J","1","","0","0","1","","0.3785891444","false","147","","0.1149215639","main_expt","","0.3785891444","","0.1515740161","","0.1488017726","","","","","",""
"494","","bandit","223","657118","0.0-185.0-0.0","76694274","wem/bandit_single","A3GEL5PWFIK05S","pain","4","","74","J","1","","0","0","1","","0.3854511928","false","148","","0.1099148444","main_expt","","0.3854511928","","0.1212747878","","0.1582677895","","","","","",""
"97","","bandit","224","659225","0.0-186.0-0.0","76694274","wem/bandit_single","A3GEL5PWFIK05S","pain","4","","74","J","1","","0","0","1","","0.3928641012","false","149","","0.1127327795","main_expt","","0.3928641012","","0.08453377975","","0.1647072654","","","","","",""
"1830","","bandit","225","663208","0.0-187.0-0.0","76694274","wem/bandit_single","A3GEL5PWFIK05S","pain","4","","74","J","1","","0","1","0","","0.3981420368","false","150","","0.1477728786","main_expt","","0.3981420368","","0.1060211344","","0.1333243968","","","","","",""
"216","","bandit","226","665200","0.0-188.0-0.0","76694274","wem/bandit_single","A3GEL5PWFIK05S","pain","4","","74","J","1","","0","0","1","","0.3954234158","false","151","","0.1634569086","main_expt","","0.3954234158","","0.06473992137","","0.1232516149","","","","","",""
"1815","","bandit","227","669426","0.0-189.0-0.0","76694274","wem/bandit_single","A3GEL5PWFIK05S","pain","4","","74","J","1","","0","0","1","","0.3684376671","false","152","","0.2119786212","main_expt","","0.3684376671","","0.07847139908","","0.1218764731","","","","","",""
"1235","","bandit","228","672427","0.0-190.0-0.0","76694274","wem/bandit_single","A3GEL5PWFIK05S","pain","4","","74","J","1","","0","1","0","","0.3586265296","false","153","","0.190815194","main_expt","","0.3586265296","","0.06170083269","","0.1181944444","","","","","",""
"643","","bandit","229","674872","0.0-191.0-0.0","76694274","wem/bandit_single","A3GEL5PWFIK05S","pain","4","","74","J","1","","0","0","1","","0.3711835277","false","154","","0.2539230859","main_expt","","0.3711835277","","0.07752027139","","0.1524072167","","","","","",""
"701","","bandit","230","677344","0.0-192.0-0.0","76694274","wem/bandit_single","A3GEL5PWFIK05S","pain","4","","74","J","1","","0","0","1","","0.3296220366","false","155","","0.2214647723","main_expt","","0.3296220366","","0.07430376846","","0.2181316645","","","","","",""
"592","","bandit","231","679702","0.0-193.0-0.0","76694274","wem/bandit_single","A3GEL5PWFIK05S","pain","4","","74","J","1","","0","0","1","","0.287903252","false","156","","0.1812397975","main_expt","","0.287903252","","0.05925504694","","0.213475765","","","","","",""
"135","","bandit","232","681602","0.0-194.0-0.0","76694274","wem/bandit_single","A3GEL5PWFIK05S","pain","4","","74","J","1","","0","1","0","","0.296290929","false","157","","0.1447548225","main_expt","","0.296290929","","0.0737155059","","0.2264995707","","","","","",""
"614","","bandit","233","684381","0.0-195.0-0.0","76694274","wem/bandit_single","A3GEL5PWFIK05S","pain","4","","74","J","1","","0","0","1","","0.2721348168","false","158","","0.1458137519","main_expt","","0.2721348168","","0.05755321342","","0.2991482761","","","","","",""
"233","","bandit","234","686379","0.0-196.0-0.0","76694274","wem/bandit_single","A3GEL5PWFIK05S","pain","4","","74","J","1","","0","0","1","","0.2765185667","false","159","","0.1035755389","main_expt","","0.2765185667","","0.1007830752","","0.3365391658","","","","","",""
"132","","bandit","235","688276","0.0-197.0-0.0","76694274","wem/bandit_single","A3GEL5PWFIK05S","pain","4","","74","J","1","","0","1","0","","0.3162688162","false","160","","0.1142027444","main_expt","","0.3162688162","","0.06149362121","","0.313402929","","","","","",""
"612","","bandit","236","690654","0.0-198.0-0.0","76694274","wem/bandit_single","A3GEL5PWFIK05S","pain","4","","74","J","1","","0","1","0","","0.3302336848","false","161","","0.1510988582","main_expt","","0.3302336848","","0.09516109007","","0.3529908654","","","","","",""
"351","","bandit","237","692772","0.0-199.0-0.0","76694274","wem/bandit_single","A3GEL5PWFIK05S","pain","4","","74","J","1","","0","1","0","","0.3622896815","false","162","","0.1720124831","main_expt","","0.3622896815","","0.08429007215","","0.3608295961","","","","","",""
"464","","bandit","238","695217","0.0-200.0-0.0","76694274","wem/bandit_single","A3GEL5PWFIK05S","pain","4","","74","J","1","","0","0","1","","0.3696580379","false","163","","0.2119433459","main_expt","","0.3696580379","","0.1199893575","","0.4197284319","","","","","",""
"441","","bandit","239","697424","0.0-201.0-0.0","76694274","wem/bandit_single","A3GEL5PWFIK05S","pain","4","","74","J","1","","0","0","1","","0.3217553384","false","164","","0.2413639604","main_expt","","0.3217553384","","0.1353867718","","0.4162507976","","","","","",""
"700","","bandit","240","699913","0.0-202.0-0.0","76694274","wem/bandit_single","A3GEL5PWFIK05S","pain","4","","74","J","1","","0","0","1","","0.2370356752","false","165","","0.3231443763","main_expt","","0.2370356752","","0.08700720397","","0.424344073","","","","","",""
"1100","","bandit","241","703217","0.0-203.0-0.0","76694274","wem/bandit_single","A3GEL5PWFIK05S","pain","4","","74","J","1","","0","0","1","","0.1952619304","false","166","","0.2907209657","main_expt","","0.1952619304","","0.09613155095","","0.4385436022","","","","","",""
"2340","","bandit","242","707323","0.0-204.0-0.0","76694274","wem/bandit_single","A3GEL5PWFIK05S","pain","4","","75","K","2","","0","0","1","","0.08740230362","false","167","","0.2386263765","main_expt","","0.2008635704","","0.08740230362","","0.4428370211","","","","","",""
"1384","","bandit","243","710473","0.0-205.0-0.0","76694274","wem/bandit_single","A3GEL5PWFIK05S","pain","4","","75","K","2","","0","0","1","","0.1033010443","false","168","","0.2802872421","main_expt","","0.2872582577","","0.1033010443","","0.4475632301","","","","","",""
"1420","","bandit","244","713660","0.0-206.0-0.0","76694274","wem/bandit_single","A3GEL5PWFIK05S","pain","4","","75","K","2","","0","0","1","","0.1288835215","false","169","","0.2858578204","main_expt","","0.2478638945","","0.1288835215","","0.4358894507","","","","","",""
"650","","bandit","245","716078","0.0-207.0-0.0","76694274","wem/bandit_single","A3GEL5PWFIK05S","pain","4","","75","K","2","","0","0","1","","0.0821831217","false","170","","0.3542119366","main_expt","","0.2335785199","","0.0821831217","","0.4401344765","","","","","",""
"484","","bandit","246","718330","0.0-208.0-0.0","76694274","wem/bandit_single","A3GEL5PWFIK05S","pain","4","","76","L","3","","0","0","1","","0.4182824287","false","171","","0.363516632","main_expt","","0.263029084","","0.08448133796","","0.4182824287","","","","","",""
"303","","bandit","247","720398","0.0-209.0-0.0","76694274","wem/bandit_single","A3GEL5PWFIK05S","pain","4","","76","L","3","","0","0","1","","0.4206293302","false","172","","0.3285232471","main_expt","","0.282237019","","0.1142172702","","0.4206293302","","","","","",""
"281","","bandit","248","722445","0.0-210.0-0.0","76694274","wem/bandit_single","A3GEL5PWFIK05S","pain","4","","76","L","3","","0","1","0","","0.4424673434","false","173","","0.3379934215","main_expt","","0.2798091978","","0.1585219493","","0.4424673434","","","","","",""
"924","","bandit","249","725142","0.0-211.0-0.0","76694274","wem/bandit_single","A3GEL5PWFIK05S","pain","4","","76","L","3","","0","0","1","","0.4470793942","false","174","","0.2937018888","main_expt","","0.2782342077","","0.2167008269","","0.4470793942","","","","","",""
"985","","bandit","250","728387","0.0-212.0-0.0","76694274","wem/bandit_single","A3GEL5PWFIK05S","pain","4","","76","L","3","","0","0","1","","0.4466152725","false","175","","0.2691073907","main_expt","","0.3095951925","","0.2564405216","","0.4466152725","","","","","",""
"197","","bandit","251","730393","0.0-213.0-0.0","76694274","wem/bandit_single","A3GEL5PWFIK05S","pain","4","","76","L","3","","0","1","0","","0.4622816701","false","176","","0.2797966768","main_expt","","0.3149167583","","0.2740916264","","0.4622816701","","","","","",""
"843","","bandit","252","733224","0.0-214.0-0.0","76694274","wem/bandit_single","A3GEL5PWFIK05S","pain","4","","76","L","3","","0","0","1","","0.4791174255","false","177","","0.2956207272","main_expt","","0.3057016371","","0.2701885048","","0.4791174255","","","","","",""
"104","","bandit","253","735102","0.0-215.0-0.0","76694274","wem/bandit_single","A3GEL5PWFIK05S","pain","4","","76","L","3","","0","1","0","","0.4878404122","false","178","","0.2903749226","main_expt","","0.2973749651","","0.2525299603","","0.4878404122","","","","","",""
"663","","bandit","254","737531","0.0-216.0-0.0","76694274","wem/bandit_single","A3GEL5PWFIK05S","pain","4","","76","L","3","","0","0","1","","0.4871204803","false","179","","0.2324022499","main_expt","","0.3205080684","","0.2923151224","","0.4871204803","","","","","",""
"634","","bandit","255","740341","0.0-217.0-0.0","76694274","wem/bandit_single","A3GEL5PWFIK05S","pain","4","","76","L","3","","0","1","0","","0.4783768728","false","180","","0.157369965","main_expt","","0.3668921479","","0.2712435876","","0.4783768728","","","","","",""
"1575","","bandit","256","743703","0.0-218.0-0.0","76694274","wem/bandit_single","A3GEL5PWFIK05S","pain","4","","76","L","3","","0","1","0","","0.4791844977","false","181","","0.1928111427","main_expt","","0.36743573","","0.2911825171","","0.4791844977","","","","","",""
"254","","bandit","257","745726","0.0-219.0-0.0","76694274","wem/bandit_single","A3GEL5PWFIK05S","pain","4","","76","L","3","","0","0","1","","0.4796326775","false","182","","0.1831473083","main_expt","","0.3444330154","","0.2812290194","","0.4796326775","","","","","",""
"988","","bandit","258","748489","0.0-220.0-0.0","76694274","wem/bandit_single","A3GEL5PWFIK05S","pain","4","","76","L","3","","0","1","0","","0.4610412729","false","183","","0.1367876881","main_expt","","0.376594699","","0.2998653002","","0.4610412729","","","","","",""
"536","","bandit","259","750791","0.0-221.0-0.0","76694274","wem/bandit_single","A3GEL5PWFIK05S","pain","4","","76","L","3","","0","1","0","","0.4654872089","false","184","","0.1225312115","main_expt","","0.3576767422","","0.3019566185","","0.4654872089","","","","","",""
"633","","bandit","260","753222","0.0-222.0-0.0","76694274","wem/bandit_single","A3GEL5PWFIK05S","pain","4","","76","L","3","","0","0","1","","0.4579605539","false","185","","0.1342014861","main_expt","","0.3420219295","","0.3297019868","","0.4579605539","","","","","",""
"13","","bandit","261","755009","0.0-223.0-0.0","76694274","wem/bandit_single","A3GEL5PWFIK05S","pain","4","","76","L","3","","0","0","1","","0.4285966985","false","186","","0.1302900424","main_expt","","0.3398722127","","0.3522504082","","0.4285966985","","","","","",""
"31","","bandit","262","756806","0.0-224.0-0.0","76694274","wem/bandit_single","A3GEL5PWFIK05S","pain","4","","76","L","3","","0","0","1","","0.4348535533","false","187","","0.1721475048","main_expt","","0.3329123812","","0.3716798598","","0.4348535533","","","","","",""
"223","","bandit","263","759406","0.0-225.0-0.0","76694274","wem/bandit_single","A3GEL5PWFIK05S","pain","4","","76","L","3","","0","0","1","","0.4485299143","false","188","","0.194848396","main_expt","","0.3185375489","","0.3516931858","","0.4485299143","","","","","",""
"431","","bandit","264","761609","0.0-226.0-0.0","76694274","wem/bandit_single","A3GEL5PWFIK05S","pain","4","","72","H","0","img/none_selected.jpg","0","1","0","","0.2010474049","false","189","","0.2010474049","main_expt","","0.2819885058","","0.311825216","","0.4108460603","","","","","",""
"694","","bandit","265","764218","0.0-227.0-0.0","76694274","wem/bandit_single","A3GEL5PWFIK05S","pain","4","","72","H","0","img/none_selected.jpg","0","1","0","","0.2388592571","false","190","","0.2388592571","main_expt","","0.2938453289","","0.3228194114","","0.4276881046","","","","","",""
"760","","bandit","266","766745","0.0-228.0-0.0","76694274","wem/bandit_single","A3GEL5PWFIK05S","pain","4","","72","H","0","img/none_selected.jpg","0","0","1","","0.2125939305","false","191","","0.2125939305","main_expt","","0.3252392313","","0.3070679034","","0.4252680513","","","","","",""
"742","","bandit","267","769419","0.0-229.0-0.0","76694274","wem/bandit_single","A3GEL5PWFIK05S","pain","4","","72","H","0","img/none_selected.jpg","0","0","1","","0.2494953747","false","192","","0.2494953747","main_expt","","0.2886148476","","0.3224985291","","0.4128843357","","","","","",""
"734","","bandit","268","771923","0.0-230.0-0.0","76694274","wem/bandit_single","A3GEL5PWFIK05S","pain","4","","72","H","0","img/none_selected.jpg","0","0","1","","0.2831479201","false","193","","0.2831479201","main_expt","","0.2985788169","","0.3869795439","","0.3935422506","","","","","",""
"1047","","bandit","269","774743","0.0-231.0-0.0","76694274","wem/bandit_single","A3GEL5PWFIK05S","pain","4","","72","H","0","img/none_selected.jpg","0","0","1","","0.3119862296","false","194","","0.3119862296","main_expt","","0.2480640489","","0.4012627402","","0.3844836544","","","","","",""
"991","","bandit","270","777502","0.0-232.0-0.0","76694274","wem/bandit_single","A3GEL5PWFIK05S","pain","4","","74","J","1","","0","0","1","","0.2512767584","false","195","","0.3216729489","main_expt","","0.2512767584","","0.3984750166","","0.3676726872","","","","","",""
"898","","bandit","271","780176","0.0-233.0-0.0","76694274","wem/bandit_single","A3GEL5PWFIK05S","pain","4","","74","J","1","","0","0","1","","0.2465093633","false","196","","0.3321806914","main_expt","","0.2465093633","","0.354698241","","0.3789354293","","","","","",""
"1509","","bandit","272","783452","0.0-234.0-0.0","76694274","wem/bandit_single","A3GEL5PWFIK05S","pain","4","","74","J","1","","0","0","1","","0.2064088789","false","197","","0.3046277309","main_expt","","0.2064088789","","0.388220233","","0.3163718389","","","","","",""
"1401","","bandit","273","786620","0.0-235.0-0.0","76694274","wem/bandit_single","A3GEL5PWFIK05S","pain","4","","74","J","1","","0","1","0","","0.1991167995","false","198","","0.2780350238","main_expt","","0.1991167995","","0.3702696144","","0.3791854339","","","","","",""
"300","","bandit","274","788720","0.0-236.0-0.0","76694274","wem/bandit_single","A3GEL5PWFIK05S","pain","4","","74","J","1","","0","1","0","","0.217931059","false","199","","0.2933352516","main_expt","","0.217931059","","0.3901406761","","0.3677616307","","","","","",""
"30","","bandit","275","790517","0.0-237.0-0.0","76694274","wem/bandit_single","A3GEL5PWFIK05S","pain","4","","74","J","1","","0","0","1","","0.1684289921","false","200","","0.2826656477","main_expt","","0.1684289921","","0.3606677237","","0.3696360463","","","","","",""
"2464","","bandit","276","794759","0.0-238.0-0.0","76694274","wem/bandit_single","A3GEL5PWFIK05S","pain","4","","74","J","1","","0","0","1","","0.1526494416","false","201","","0.2337361703","main_expt","","0.1526494416","","0.3608273241","","0.3685313937","","","","","",""
"863","","bandit","277","797390","0.0-239.0-0.0","76694274","wem/bandit_single","A3GEL5PWFIK05S","pain","4","","74","J","1","","0","0","1","","0.1474087426","false","202","","0.1697000529","main_expt","","0.1474087426","","0.3495453025","","0.354480527","","","","","",""
"1055","","bandit","278","800221","0.0-240.0-0.0","76694274","wem/bandit_single","A3GEL5PWFIK05S","pain","4","","74","J","1","","0","0","1","","0.1499100939","false","203","","0.1941246875","main_expt","","0.1499100939","","0.3660628182","","0.3420940801","","","","","",""
"1385","","bandit","279","803383","0.0-241.0-0.0","76694274","wem/bandit_single","A3GEL5PWFIK05S","pain","4","","74","J","1","","0","0","1","","0.173155318","false","204","","0.2006574904","main_expt","","0.173155318","","0.337040125","","0.3365711719","","","","","",""
"570","","bandit","280","805762","0.0-242.0-0.0","76694274","wem/bandit_single","A3GEL5PWFIK05S","pain","4","","75","K","2","","0","0","1","","0.303371863","false","205","","0.1905393187","main_expt","","0.1813441082","","0.303371863","","0.3517226909","","","","","",""
"854","","bandit","281","808385","0.0-243.0-0.0","76694274","wem/bandit_single","A3GEL5PWFIK05S","pain","4","","75","K","2","","0","1","0","","0.256221391","false","206","","0.1715448013","main_expt","","0.1491413167","","0.256221391","","0.3476038752","","","","","",""
"804","","bandit","282","810957","0.0-244.0-0.0","76694274","wem/bandit_single","A3GEL5PWFIK05S","pain","4","","75","K","2","","0","0","1","","0.2368802791","false","207","","0.1857981004","main_expt","","0.08847738283","","0.2368802791","","0.3349551135","","","","","",""
"1494","","bandit","283","814251","0.0-245.0-0.0","76694274","wem/bandit_single","A3GEL5PWFIK05S","pain","4","","75","K","2","","0","0","1","","0.1949321076","false","208","","0.2102455122","main_expt","","0.1283817583","","0.1949321076","","0.342580335","","","","","",""
"470","","bandit","284","816489","0.0-246.0-0.0","76694274","wem/bandit_single","A3GEL5PWFIK05S","pain","4","","75","K","2","","0","1","0","","0.1838736563","false","209","","0.2400108979","main_expt","","0.116273769","","0.1838736563","","0.3043768385","","","","","",""
"827","","bandit","285","819421","0.0-247.0-0.0","76694274","wem/bandit_single","A3GEL5PWFIK05S","pain","4","","75","K","2","","0","0","1","","0.2021797606","false","210","","0.2756077388","main_expt","","0.1255054793","","0.2021797606","","0.2578785415","","","","","",""
"740","","bandit","286","821933","0.0-248.0-0.0","76694274","wem/bandit_single","A3GEL5PWFIK05S","pain","4","","75","K","2","","0","0","1","","0.1724183734","false","211","","0.2509099491","main_expt","","0.1183517879","","0.1724183734","","0.2684152162","","","","","",""
"187","","bandit","287","824231","0.0-249.0-0.0","76694274","wem/bandit_single","A3GEL5PWFIK05S","pain","4","","75","K","2","","0","1","0","","0.1730984207","false","212","","0.1980821896","main_expt","","0.05794836862","","0.1730984207","","0.2734791169","","","","","",""
"349","","bandit","288","826348","0.0-250.0-0.0","76694274","wem/bandit_single","A3GEL5PWFIK05S","pain","4","","75","K","2","","0","0","1","","0.1324166562","false","213","","0.1925164192","main_expt","","0.05975327623","","0.1324166562","","0.2278558496","","","","","",""
"2000","","bandit","289","830125","0.0-251.0-0.0","76694274","wem/bandit_single","A3GEL5PWFIK05S","pain","4","","75","K","2","","0","0","1","","0.1503769339","false","214","","0.2265747235","main_expt","","0.08438277685","","0.1503769339","","0.3028606466","","","","","",""
"829","","bandit","290","832742","0.0-252.0-0.0","76694274","wem/bandit_single","A3GEL5PWFIK05S","pain","4","","75","K","2","","0","0","1","","0.1957560139","false","215","","0.2019374621","main_expt","","0.06249742642","","0.1957560139","","0.2931323275","","","","","",""
"112","","bandit","291","835036","0.0-253.0-0.0","76694274","wem/bandit_single","A3GEL5PWFIK05S","pain","4","","76","L","3","","0","0","1","","0.3496422565","false","216","","0.1789305456","main_expt","","0.03962767808","","0.2405167914","","0.3496422565","","","","","",""
"581","","bandit","292","837386","0.0-254.0-0.0","76694274","wem/bandit_single","A3GEL5PWFIK05S","pain","4","","76","L","3","","0","0","1","","0.3773047798","false","217","","0.1749198907","main_expt","","0.04234009702","","0.1730494568","","0.3773047798","","","","","",""
"657","","bandit","293","839819","0.0-255.0-0.0","76694274","wem/bandit_single","A3GEL5PWFIK05S","pain","4","","76","L","3","","0","0","1","","0.3416605923","false","218","","0.1735363699","main_expt","","0.03503126556","","0.194438436","","0.3416605923","","","","","",""
"311","","bandit","294","841898","0.0-256.0-0.0","76694274","wem/bandit_single","A3GEL5PWFIK05S","pain","4","","76","L","3","","0","1","0","","0.3559276739","false","219","","0.2007391453","main_expt","","0.04555228435","","0.1883779435","","0.3559276739","","","","","",""
"1308","","bandit","295","844986","0.0-257.0-0.0","76694274","wem/bandit_single","A3GEL5PWFIK05S","pain","4","","76","L","3","","0","0","1","","0.3535435837","false","220","","0.2082644318","main_expt","","0.03183460319","","0.146052069","","0.3535435837","","","","","",""
"769","","bandit","296","847528","0.0-258.0-0.0","76694274","wem/bandit_single","A3GEL5PWFIK05S","pain","4","","76","L","3","","0","0","1","","0.3418709783","false","221","","0.1821586712","main_expt","","0.05071015327","","0.1494285134","","0.3418709783","","","","","",""
"1","","bandit","297","849951","0.0-259.0-0.0","76694274","wem/bandit_single","A3GEL5PWFIK05S","pain","4","","76","L","3","","0","0","1","","0.3004905908","false","222","","0.2158533928","main_expt","","0.04027023507","","0.182387278","","0.3004905908","","","","","",""
"347","","bandit","298","852073","0.0-260.0-0.0","76694274","wem/bandit_single","A3GEL5PWFIK05S","pain","4","","76","L","3","","0","0","1","","0.3691689592","false","223","","0.1832968935","main_expt","","0.05247893246","","0.198140534","","0.3691689592","","","","","",""
"970","","bandit","299","854819","0.0-261.0-0.0","76694274","wem/bandit_single","A3GEL5PWFIK05S","pain","4","","76","L","3","","0","1","0","","0.2915556832","false","224","","0.1701073256","main_expt","","0.06352932029","","0.1957066115","","0.2915556832","","","","","",""
"342","","bandit","300","856929","0.0-262.0-0.0","76694274","wem/bandit_single","A3GEL5PWFIK05S","pain","4","","76","L","3","","0","1","0","","0.3175642321","false","225","","0.1599508429","main_expt","","0.04388745626","","0.2132826896","","0.3175642321","","","","","",""
"86","","bandit","301","859252","0.0-263.0-0.0","76694274","wem/bandit_single","A3GEL5PWFIK05S","pain","4","","76","L","3","","0","0","1","","0.2803716623","false","226","","0.1801289829","main_expt","","0.0536624769","","0.2679811769","","0.2803716623","","","","","",""
"2882","","bandit","302","864424","0.0-264.0-0.0","76694274","wem/bandit_single","A3GEL5PWFIK05S","pain","4","","76","L","3","","0","1","0","","0.2506224893","false","227","","0.1920788888","main_expt","","0.07211167966","","0.2101601544","","0.2506224893","","","","","",""
"1362","","bandit","303","867557","0.0-265.0-0.0","76694274","wem/bandit_single","A3GEL5PWFIK05S","pain","4","","76","L","3","","0","0","1","","0.2890404278","false","228","","0.1540575712","main_expt","","0.04486621846","","0.1808571688","","0.2890404278","","","","","",""
"3076","","bandit","304","873222","0.0-266.0-0.0","76694274","wem/bandit_single","A3GEL5PWFIK05S","pain","4","","76","L","3","","0","0","1","","0.2746035793","false","229","","0.161449161","main_expt","","0.05387953984","","0.1132309001","","0.2746035793","","","","","",""
"1783","","bandit","305","877030","0.0-267.0-0.0","76694274","wem/bandit_single","A3GEL5PWFIK05S","pain","4","","76","L","3","","0","0","1","","0.282726532","false","230","","0.1413021421","main_expt","","0.03848872117","","0.1450818377","","0.282726532","","","","","",""
"915","","bandit","306","879721","0.0-268.0-0.0","76694274","wem/bandit_single","A3GEL5PWFIK05S","pain","4","","76","L","3","","0","0","1","","0.3472256411","false","231","","0.1745796094","main_expt","","0.04669383004","","0.1077137685","","0.3472256411","","","","","",""
"479","","bandit","307","881976","0.0-269.0-0.0","76694274","wem/bandit_single","A3GEL5PWFIK05S","pain","4","","76","L","3","","0","0","1","","0.3994934702","false","232","","0.1680880834","main_expt","","0.03395804074","","0.06427161289","","0.3994934702","","","","","",""
"1157","","bandit","308","884904","0.0-270.0-0.0","76694274","wem/bandit_single","A3GEL5PWFIK05S","pain","4","","72","H","0","img/none_selected.jpg","0","0","1","","0.213250795","false","233","","0.213250795","main_expt","","0.05150109453","","0.1060089469","","0.4029083043","","","","","",""
"396","","bandit","309","887086","0.0-271.0-0.0","76694274","wem/bandit_single","A3GEL5PWFIK05S","pain","4","","72","H","0","img/none_selected.jpg","0","0","1","","0.221091899","false","234","","0.221091899","main_expt","","0.06099663442","","0.1117154146","","0.4486287737","","","","","",""
"365","","bandit","310","889292","0.0-272.0-0.0","76694274","wem/bandit_single","A3GEL5PWFIK05S","pain","4","","72","H","0","img/none_selected.jpg","0","0","1","","0.2688923835","false","235","","0.2688923835","main_expt","","0.05202127711","","0.1276115887","","0.4561120354","","","","","",""
"365","","bandit","311","891426","0.0-273.0-0.0","76694274","wem/bandit_single","A3GEL5PWFIK05S","pain","4","","72","H","0","img/none_selected.jpg","0","1","0","","0.2323123402","false","236","","0.2323123402","main_expt","","0.07001303924","","0.1786916187","","0.4375102443","","","","","",""
"776","","bandit","312","894246","0.0-274.0-0.0","76694274","wem/bandit_single","A3GEL5PWFIK05S","pain","4","","72","H","0","img/none_selected.jpg","0","0","1","","0.174764536","false","237","","0.174764536","main_expt","","0.07602679398","","0.1896980961","","0.4582573195","","","","","",""
"217","","bandit","313","896231","0.0-275.0-0.0","76694274","wem/bandit_single","A3GEL5PWFIK05S","pain","4","","72","H","0","img/none_selected.jpg","0","1","0","","0.1654919337","false","238","","0.1654919337","main_expt","","0.08775462142","","0.2205101014","","0.4463811869","","","","","",""
"974","","bandit","314","899457","0.0-276.0-0.0","76694274","wem/bandit_single","A3GEL5PWFIK05S","pain","4","","72","H","0","img/none_selected.jpg","0","1","0","","0.2402574844","false","239","","0.2402574844","main_expt","","0.06721086637","","0.2661717939","","0.4507479662","","","","","",""
"2534","","bandit","315","903760","0.0-277.0-0.0","76694274","wem/bandit_single","A3GEL5PWFIK05S","pain","4","","72","H","0","img/none_selected.jpg","0","0","1","","0.2445968751","false","240","","0.2445968751","main_expt","","0.07433064979","","0.1972661282","","0.4504038859","","","","","",""
"526","","bandit","316","906056","0.0-278.0-0.0","76694274","wem/bandit_single","A3GEL5PWFIK05S","pain","4","","72","H","0","img/none_selected.jpg","0","1","0","","0.2708632627","false","241","","0.2708632627","main_expt","","0.08919714094","","0.1868253343","","0.4346931185","","","","","",""
"1427","","bandit","317","909279","0.0-279.0-0.0","76694274","wem/bandit_single","A3GEL5PWFIK05S","pain","4","","72","H","0","img/none_selected.jpg","0","0","1","","0.2047807489","false","242","","0.2047807489","main_expt","","0.06159770715","","0.1649449253","","0.3898892773","","","","","",""
"252","","bandit","318","911300","0.0-280.0-0.0","76694274","wem/bandit_single","A3GEL5PWFIK05S","pain","4","","72","H","0","img/none_selected.jpg","0","0","1","","0.222122474","false","243","","0.222122474","main_expt","","0.05299296545","","0.184368772","","0.4033463229","","","","","",""
"798","","bandit","319","914421","0.0-281.0-0.0","76694274","wem/bandit_single","A3GEL5PWFIK05S","pain","4","","72","H","0","img/none_selected.jpg","0","0","1","","0.2425992204","false","244","","0.2425992204","main_expt","","0.06275569833","","0.2121467569","","0.4096532456","","","","","",""
"1296","","bandit","320","917486","0.0-282.0-0.0","76694274","wem/bandit_single","A3GEL5PWFIK05S","pain","4","","72","H","0","img/none_selected.jpg","0","1","0","","0.2173978931","false","245","","0.2173978931","main_expt","","0.06673215917","","0.1894702338","","0.3779527256","","","","","",""
"477","","bandit","321","919733","0.0-283.0-0.0","76694274","wem/bandit_single","A3GEL5PWFIK05S","pain","4","","72","H","0","img/none_selected.jpg","0","0","1","","0.2218069129","false","246","","0.2218069129","main_expt","","0.06500670021","","0.2018459735","","0.3953318503","","","","","",""
"1280","","bandit","322","922781","0.0-284.0-0.0","76694274","wem/bandit_single","A3GEL5PWFIK05S","pain","4","","72","H","0","img/none_selected.jpg","0","0","1","","0.1888628326","false","247","","0.1888628326","main_expt","","0.07271559664","","0.1986179994","","0.4287890539","","","","","",""
"554","","bandit","323","925333","0.0-285.0-0.0","76694274","wem/bandit_single","A3GEL5PWFIK05S","pain","4","","72","H","0","img/none_selected.jpg","0","0","1","","0.1722509531","false","248","","0.1722509531","main_expt","","0.09654775784","","0.1299779064","","0.4104310255","","","","","",""
"409","","bandit","324","927522","0.0-286.0-0.0","76694274","wem/bandit_single","A3GEL5PWFIK05S","pain","4","","72","H","0","img/none_selected.jpg","0","0","1","","0.2541205998","false","249","","0.2541205998","main_expt","","0.1179039307","","0.1590650881","","0.4116337798","","","","","",""
"1571","","bandit","325","931477","0.0-287.0-0.0","76694274","wem/bandit_single","A3GEL5PWFIK05S","pain","4","","74","J","1","","0","0","1","","0.1265890049","false","250","","0.2664885101","main_expt","","0.1265890049","","0.1213614167","","0.426505214","","","","","",""
"1902","","bandit","326","935148","0.0-288.0-0.0","76694274","wem/bandit_single","A3GEL5PWFIK05S","pain","4","","74","J","1","","0","0","1","","0.1039398773","false","251","","0.2519669898","main_expt","","0.1039398773","","0.1099334476","","0.3949293487","","","","","",""
"445","","bandit","327","937377","0.0-289.0-0.0","76694274","wem/bandit_single","A3GEL5PWFIK05S","pain","4","","74","J","1","","0","0","1","","0.107940897","false","252","","0.2932098873","main_expt","","0.107940897","","0.1087011898","","0.3913077142","","","","","",""
"1437","","bandit","328","940585","0.0-290.0-0.0","76694274","wem/bandit_single","A3GEL5PWFIK05S","pain","4","","74","J","1","","0","0","1","","0.1136461566","false","253","","0.3179249839","main_expt","","0.1136461566","","0.09397011719","","0.3648650894","","","","","",""
"343","","bandit","329","942717","0.0-291.0-0.0","76694274","wem/bandit_single","A3GEL5PWFIK05S","pain","4","","75","K","2","","0","0","1","","0.08474648857","false","254","","0.2908620441","main_expt","","0.1374631792","","0.08474648857","","0.3452883024","","","","","",""
"407","","bandit","330","945188","0.0-292.0-0.0","76694274","wem/bandit_single","A3GEL5PWFIK05S","pain","4","","75","K","2","","0","0","1","","0.1025854271","false","255","","0.3067265453","main_expt","","0.1453945637","","0.1025854271","","0.2943306686","","","","","",""
"849","","bandit","331","947809","0.0-293.0-0.0","76694274","wem/bandit_single","A3GEL5PWFIK05S","pain","4","","75","K","2","","0","0","1","","0.08686152536","false","256","","0.3133222149","main_expt","","0.1543600678","","0.08686152536","","0.3225000795","","","","","",""
"2891","","bandit","332","952727","0.0-294.0-0.0","76694274","wem/bandit_single","A3GEL5PWFIK05S","pain","4","","76","L","3","","0","1","0","","0.3199750271","false","257","","0.3194106209","main_expt","","0.107160473","","0.08667022303","","0.3199750271","","","","","",""
"4533","","bandit","333","959817","0.0-295.0-0.0","76694274","wem/bandit_single","A3GEL5PWFIK05S","pain","4","","76","L","3","","0","0","1","","0.355105101","false","258","","0.35032938","main_expt","","0.0567043194","","0.1158580788","","0.355105101","","","","","",""
"1174","","bandit","334","962761","0.0-296.0-0.0","76694274","wem/bandit_single","A3GEL5PWFIK05S","pain","4","","76","L","3","","0","1","0","","0.3566572827","false","259","","0.3856615787","main_expt","","0.05418204449","","0.08241329339","","0.3566572827","","","","","",""
"2191","","bandit","335","966955","0.0-297.0-0.0","76694274","wem/bandit_single","A3GEL5PWFIK05S","pain","4","","76","L","3","","0","1","0","","0.3492833521","false","260","","0.3977147975","main_expt","","0.0423658587","","0.09346186364","","0.3492833521","","","","","",""
"1024","","bandit","336","969749","0.0-298.0-0.0","76694274","wem/bandit_single","A3GEL5PWFIK05S","pain","4","","76","L","3","","0","0","1","","0.3406934897","false","261","","0.4011116255","main_expt","","0.08097208102","","0.07434745577","","0.3406934897","","","","","",""
"1","","bandit","337","971520","0.0-299.0-0.0","76694274","wem/bandit_single","A3GEL5PWFIK05S","pain","4","","76","L","3","","0","0","1","","0.3604065233","false","262","","0.4149706566","main_expt","","0.05731993864","","0.1177047137","","0.3604065233","","","","","",""
"215","","bandit","338","973512","0.0-300.0-0.0","76694274","wem/bandit_single","A3GEL5PWFIK05S","pain","4","","76","L","3","","0","1","0","","0.3584147688","false","263","","0.4476629791","main_expt","","0.07314079116","","0.09530987449","","0.3584147688","","","","","",""
"3080","","bandit","339","978364","0.0-301.0-0.0","76694274","wem/bandit_single","A3GEL5PWFIK05S","pain","4","","76","L","3","","0","0","1","","0.3723043834","false","264","","0.4640453953","main_expt","","0.08382102311","","0.07595610255","","0.3723043834","","","","","",""
"1433","","bandit","340","981568","0.0-302.0-0.0","76694274","wem/bandit_single","A3GEL5PWFIK05S","pain","4","","76","L","3","","0","1","0","","0.316280577","false","265","","0.4465377191","main_expt","","0.1065624759","","0.08850347459","","0.316280577","","","","","",""
"1426","","bandit","341","984771","0.0-303.0-0.0","76694274","wem/bandit_single","A3GEL5PWFIK05S","pain","4","","76","L","3","","0","0","1","","0.269287162","false","266","","0.4183068553","main_expt","","0.1253885588","","0.1215706641","","0.269287162","","","","","",""
"211","","bandit","342","986755","0.0-304.0-0.0","76694274","wem/bandit_single","A3GEL5PWFIK05S","pain","4","","76","L","3","","0","0","1","","0.2280314931","false","267","","0.4268145795","main_expt","","0.09016252172","","0.1841144129","","0.2280314931","","","","","",""
"1","","bandit","343","988533","0.0-305.0-0.0","76694274","wem/bandit_single","A3GEL5PWFIK05S","pain","4","","76","L","3","","0","0","1","","0.2243604643","false","268","","0.4319202891","main_expt","","0.08700052181","","0.1409141681","","0.2243604643","","","","","",""
"1765","","bandit","344","992070","0.0-306.0-0.0","76694274","wem/bandit_single","A3GEL5PWFIK05S","pain","4","","76","L","3","","0","0","1","","0.2334807581","false","269","","0.4493038861","main_expt","","0.09500676271","","0.1011197226","","0.2334807581","","","","","",""
"2","","bandit","345","994433","0.0-307.0-0.0","76694274","wem/bandit_single","A3GEL5PWFIK05S","pain","4","","72","H","0","img/none_selected.jpg","0","0","1","","0.443059266","false","270","","0.443059266","main_expt","","0.07607499825","","0.118556502","","0.2376518603","","","","","",""
"263","","bandit","346","996465","0.0-308.0-0.0","76694274","wem/bandit_single","A3GEL5PWFIK05S","pain","4","","72","H","0","img/none_selected.jpg","0","1","0","","0.4362671961","false","271","","0.4362671961","main_expt","","0.08946946819","","0.131750931","","0.2139372972","","","","","",""
"446","","bandit","347","998722","0.0-309.0-0.0","76694274","wem/bandit_single","A3GEL5PWFIK05S","pain","4","","72","H","0","img/none_selected.jpg","0","1","0","","0.4452199348","false","272","","0.4452199348","main_expt","","0.108288805","","0.174678733","","0.157688628","","","","","",""
"3048","","bandit","348","1003545","0.0-310.0-0.0","76694274","wem/bandit_single","A3GEL5PWFIK05S","pain","4","","72","H","0","img/none_selected.jpg","0","1","0","","0.454652927","false","273","","0.454652927","main_expt","","0.105491008","","0.1730415972","","0.271098703","","","","","",""
"3393","","bandit","349","1008717","0.0-311.0-0.0","76694274","wem/bandit_single","A3GEL5PWFIK05S","pain","4","","72","H","0","img/none_selected.jpg","0","0","1","","0.4646374989","false","274","","0.4646374989","main_expt","","0.1059149547","","0.1520576313","","0.2778056479","","","","","",""
"521","","bandit","350","1011008","0.0-312.0-0.0","76694274","wem/bandit_single","A3GEL5PWFIK05S","pain","4","","72","H","0","img/none_selected.jpg","0","0","1","","0.4535579815","false","275","","0.4535579815","main_expt","","0.09894283875","","0.1007060326","","0.2698457611","","","","","",""
"876","","bandit","351","1013664","0.0-313.0-0.0","76694274","wem/bandit_single","A3GEL5PWFIK05S","pain","4","","72","H","0","img/none_selected.jpg","0","0","1","","0.4319407295","false","276","","0.4319407295","main_expt","","0.07695295732","","0.08844777519","","0.2774836338","","","","","",""
"226","","bandit","352","1015661","0.0-314.0-0.0","76694274","wem/bandit_single","A3GEL5PWFIK05S","pain","4","","72","H","0","img/none_selected.jpg","0","0","1","","0.4475260374","false","277","","0.4475260374","main_expt","","0.0896712608","","0.1315613084","","0.3222794015","","","","","",""
"314","","bandit","353","1017745","0.0-315.0-0.0","76694274","wem/bandit_single","A3GEL5PWFIK05S","pain","4","","74","J","1","","0","1","0","","0.1343695578","false","278","","0.4553849104","main_expt","","0.1343695578","","0.1508492864","","0.3122447371","","","","","",""
"3243","","bandit","354","1023250","0.0-316.0-0.0","76694274","wem/bandit_single","A3GEL5PWFIK05S","pain","4","","74","J","1","","0","0","1","","0.1106050404","false","279","","0.4621871954","main_expt","","0.1106050404","","0.1181182825","","0.2934764685","","","","","",""
"2956","","bandit","355","1028262","0.0-317.0-0.0","76694274","wem/bandit_single","A3GEL5PWFIK05S","pain","4","","74","J","1","","0","0","1","","0.114105974","false","280","","0.4482597109","main_expt","","0.114105974","","0.1244803533","","0.290984208","","","","","",""
"578","","bandit","356","1030610","0.0-318.0-0.0","76694274","wem/bandit_single","A3GEL5PWFIK05S","pain","4","","74","J","1","","0","0","1","","0.1246337516","false","281","","0.4347423019","main_expt","","0.1246337516","","0.105821284","","0.2974260948","","","","","",""
"1441","","bandit","357","1034446","0.0-319.0-0.0","76694274","wem/bandit_single","A3GEL5PWFIK05S","pain","4","","74","J","1","","0","0","1","","0.079988156","false","282","","0.4583393623","main_expt","","0.079988156","","0.1562468179","","0.2972171025","","","","","",""
"1102","","bandit","358","1037322","0.0-320.0-0.0","76694274","wem/bandit_single","A3GEL5PWFIK05S","pain","4","","75","K","2","","0","0","1","","0.1478322318","false","283","","0.4497532375","main_expt","","0.06901380195","","0.1478322318","","0.2821487798","","","","","",""
"127","","bandit","359","1039249","0.0-321.0-0.0","76694274","wem/bandit_single","A3GEL5PWFIK05S","pain","4","","75","K","2","","0","0","1","","0.1371678423","false","284","","0.4312811421","main_expt","","0.05901051183","","0.1371678423","","0.2739939459","","","","","",""
"242","","bandit","360","1041261","0.0-322.0-0.0","76694274","wem/bandit_single","A3GEL5PWFIK05S","pain","4","","75","K","2","","0","0","1","","0.12762277","false","285","","0.4599346403","main_expt","","0.1126944794","","0.12762277","","0.2251097973","","","","","",""
"1232","","bandit","361","1044285","0.0-323.0-0.0","76694274","wem/bandit_single","A3GEL5PWFIK05S","pain","4","","75","K","2","","0","1","0","","0.1587978561","false","286","","0.4588450488","main_expt","","0.09646131279","","0.1587978561","","0.2124690726","","","","","",""
"152","","bandit","362","1046208","0.0-324.0-0.0","76694274","wem/bandit_single","A3GEL5PWFIK05S","pain","4","","75","K","2","","0","0","1","","0.1262084743","false","287","","0.4684539465","main_expt","","0.0795853072","","0.1262084743","","0.2311163105","","","","","",""
"413","","bandit","363","1048403","0.0-325.0-0.0","76694274","wem/bandit_single","A3GEL5PWFIK05S","pain","4","","75","K","2","","0","0","1","","0.08849331384","false","288","","0.4555823871","main_expt","","0.07210460151","","0.08849331384","","0.2178761709","","","","","",""
"31","","bandit","364","1050206","0.0-326.0-0.0","76694274","wem/bandit_single","A3GEL5PWFIK05S","pain","4","","75","K","2","","0","0","1","","0.1082793638","false","289","","0.4779982095","main_expt","","0.08807043944","","0.1082793638","","0.2656120211","","","","","",""
"227","","bandit","365","1052203","0.0-327.0-0.0","76694274","wem/bandit_single","A3GEL5PWFIK05S","pain","4","","75","K","2","","0","0","1","","0.1591187351","false","290","","0.4806691972","main_expt","","0.09097769709","","0.1591187351","","0.2756957417","","","","","",""
"105","","bandit","366","1054455","0.0-328.0-0.0","76694274","wem/bandit_single","A3GEL5PWFIK05S","pain","4","","76","L","3","","0","1","0","","0.3111580235","false","291","","0.4856322508","main_expt","","0.1486720085","","0.1766493085","","0.3111580235","","","","","",""
"487","","bandit","367","1056722","0.0-329.0-0.0","76694274","wem/bandit_single","A3GEL5PWFIK05S","pain","4","","76","L","3","","0","1","0","","0.3019137931","false","292","","0.4905538215","main_expt","","0.166368556","","0.1303677554","","0.3019137931","","","","","",""
"1746","","bandit","368","1060249","0.0-330.0-0.0","76694274","wem/bandit_single","A3GEL5PWFIK05S","pain","4","","76","L","3","","0","0","1","","0.2930542664","false","293","","0.4915741327","main_expt","","0.1516979355","","0.1553518032","","0.2930542664","","","","","",""
"1732","","bandit","369","1063751","0.0-331.0-0.0","76694274","wem/bandit_single","A3GEL5PWFIK05S","pain","4","","76","L","3","","0","0","1","","0.294566814","false","294","","0.4854109815","main_expt","","0.142642289","","0.1586445557","","0.294566814","","","","","",""
"1702","","bandit","370","1067229","0.0-332.0-0.0","76694274","wem/bandit_single","A3GEL5PWFIK05S","pain","4","","76","L","3","","0","1","0","","0.2590601899","false","295","","0.4737464351","main_expt","","0.1038045902","","0.1474370852","","0.2590601899","","","","","",""
"845","","bandit","371","1069855","0.0-333.0-0.0","76694274","wem/bandit_single","A3GEL5PWFIK05S","pain","4","","76","L","3","","0","0","1","","0.260130188","false","296","","0.4752126994","main_expt","","0.1055366566","","0.1281429101","","0.260130188","","","","","",""
"1272","","bandit","372","1073451","0.0-334.0-0.0","76694274","wem/bandit_single","A3GEL5PWFIK05S","pain","4","","76","L","3","","0","0","1","","0.243487995","false","297","","0.47087989","main_expt","","0.07292146603","","0.1486346553","","0.243487995","","","","","",""
