"rt","responses","trial_type","trial_index","time_elapsed","internal_node_id","subjID","study","MID","cond","drift","key_press","respCharCode","respKey","respChoiceNum","respChoice","gems","bombs","no_reward","GemPrChosen","BombPrChosen","practice","trial_counter","WinPr_0","LosePr_0","trial_label","WinPr_1","LosePr_1","WinPr_2","LosePr_2","WinPr_3","LosePr_3","Q0","Q1","Q2","gender","age","ethnicity"
"2995","{""Q0"":""A2Q1YS118AO2BP""}","survey-text","0","3007","0.0-0.0","77182599","wem/bandit_single","A2Q1YS118AO2BP","pain","2","","","","","","","","","","","","","","","","","","","","","","","","","","",""
"31787","","text","1","35801","0.0-1.0","77182599","wem/bandit_single","A2Q1YS118AO2BP","pain","2","32","","","","","","","","","","","","","","","","","","","","","","","","","",""
"937","","text","2","36744","0.0-2.0","77182599","wem/bandit_single","A2Q1YS118AO2BP","pain","2","32","","","","","","","","","","","","","","","","","","","","","","","","","",""
"1344","","text","3","38091","0.0-3.0","77182599","wem/bandit_single","A2Q1YS118AO2BP","pain","2","32","","","","","","","","","","","","","","","","","","","","","","","","","",""
"921","","text","4","39015","0.0-4.0","77182599","wem/bandit_single","A2Q1YS118AO2BP","pain","2","32","","","","","","","","","","","","","","","","","","","","","","","","","",""
"756","","text","5","39775","0.0-5.0","77182599","wem/bandit_single","A2Q1YS118AO2BP","pain","2","32","","","","","","","","","","","","","","","","","","","","","","","","","",""
"562","","text","6","40341","0.0-6.0","77182599","wem/bandit_single","A2Q1YS118AO2BP","pain","2","32","","","","","","","","","","","","","","","","","","","","","","","","","",""
"667","","text","7","41010","0.0-7.0","77182599","wem/bandit_single","A2Q1YS118AO2BP","pain","2","32","","","","","","","","","","","","","","","","","","","","","","","","","",""
"598","","text","8","41612","0.0-8.0","77182599","wem/bandit_single","A2Q1YS118AO2BP","pain","2","32","","","","","","","","","","","","","","","","","","","","","","","","","",""
"669","","text","9","42284","0.0-9.0","77182599","wem/bandit_single","A2Q1YS118AO2BP","pain","2","32","","","","","","","","","","","","","","","","","","","","","","","","","",""
"975","","text","10","43262","0.0-10.0","77182599","wem/bandit_single","A2Q1YS118AO2BP","pain","2","32","","","","","","","","","","","","","","","","","","","","","","","","","",""
"1559","","text","11","44824","0.0-11.0","77182599","wem/bandit_single","A2Q1YS118AO2BP","pain","2","32","","","","","","","","","","","","","","","","","","","","","","","","","",""
"5971","","bandit","12","52312","0.0-12.0-0.0","77182599","wem/bandit_single","A2Q1YS118AO2BP","pain","2","","74","J","0","img/none_selected_demo.jpg","0","0","1","0","0","true","0","0","0","","","","","","","","","","","","",""
"2587","","bandit","13","56660","0.0-13.0-0.0","77182599","wem/bandit_single","A2Q1YS118AO2BP","pain","2","","75","K","0","img/none_selected_demo.jpg","0","0","1","0","0","true","0","0","0","","","","","","","","","","","","",""
"1137","","text","14","58051","0.0-14.0","77182599","wem/bandit_single","A2Q1YS118AO2BP","pain","2","32","","","","","","","","","","","","","","","","","","","","","","","","","",""
"3019","","text","15","61074","0.0-15.0","77182599","wem/bandit_single","A2Q1YS118AO2BP","pain","2","32","","","","","","","","","","","","","","","","","","","","","","","","","",""
"1606","","text","16","62684","0.0-16.0","77182599","wem/bandit_single","A2Q1YS118AO2BP","pain","2","32","","","","","","","","","","","","","","","","","","","","","","","","","",""
"1563","","text","17","64251","0.0-17.0","77182599","wem/bandit_single","A2Q1YS118AO2BP","pain","2","32","","","","","","","","","","","","","","","","","","","","","","","","","",""
"977","","bandit","18","66736","0.0-18.0-0.0","77182599","wem/bandit_single","A2Q1YS118AO2BP","pain","2","","75","K","1","","0","0","1","0","0.2","true","0","0","0.8","80_20_practice","0","0.2","","","","","","","","","",""
"163","","bandit","19","68658","0.0-18.0-1.0","77182599","wem/bandit_single","A2Q1YS118AO2BP","pain","2","","74","J","0","img/none_selected_demo.jpg","0","1","0","0","0.8","true","0","0","0.8","80_20_practice","0","0.2","","","","","","","","","",""
"785","","bandit","20","71204","0.0-18.0-2.0","77182599","wem/bandit_single","A2Q1YS118AO2BP","pain","2","","74","J","0","img/none_selected_demo.jpg","0","1","0","0","0.8","true","0","0","0.8","80_20_practice","0","0.2","","","","","","","","","",""
"5878","","bandit","21","78839","0.0-18.0-3.0","77182599","wem/bandit_single","A2Q1YS118AO2BP","pain","2","","74","J","0","img/none_selected_demo.jpg","0","1","0","0","0.8","true","0","0","0.8","80_20_practice","0","0.2","","","","","","","","","",""
"971","","bandit","22","81569","0.0-18.0-4.0","77182599","wem/bandit_single","A2Q1YS118AO2BP","pain","2","","74","J","0","img/none_selected_demo.jpg","0","1","0","0","0.8","true","0","0","0.8","80_20_practice","0","0.2","","","","","","","","","",""
"1805","","bandit","23","85137","0.0-18.0-5.0","77182599","wem/bandit_single","A2Q1YS118AO2BP","pain","2","","74","J","0","img/none_selected_demo.jpg","0","1","0","0","0.8","true","0","0","0.8","80_20_practice","0","0.2","","","","","","","","","",""
"1227","","bandit","24","88122","0.0-18.0-6.0","77182599","wem/bandit_single","A2Q1YS118AO2BP","pain","2","","74","J","0","img/none_selected_demo.jpg","0","1","0","0","0.8","true","0","0","0.8","80_20_practice","0","0.2","","","","","","","","","",""
"737","","bandit","25","90617","0.0-18.0-7.0","77182599","wem/bandit_single","A2Q1YS118AO2BP","pain","2","","74","J","0","img/none_selected_demo.jpg","0","1","0","0","0.8","true","0","0","0.8","80_20_practice","0","0.2","","","","","","","","","",""
"276","","bandit","26","92656","0.0-18.0-8.0","77182599","wem/bandit_single","A2Q1YS118AO2BP","pain","2","","74","J","0","img/none_selected_demo.jpg","0","1","0","0","0.8","true","0","0","0.8","80_20_practice","0","0.2","","","","","","","","","",""
"665","","bandit","27","95079","0.0-18.0-9.0","77182599","wem/bandit_single","A2Q1YS118AO2BP","pain","2","","74","J","0","img/none_selected_demo.jpg","0","1","0","0","0.8","true","0","0","0.8","80_20_practice","0","0.2","","","","","","","","","",""
"452","","bandit","28","97289","0.0-18.0-10.0","77182599","wem/bandit_single","A2Q1YS118AO2BP","pain","2","","74","J","0","img/none_selected_demo.jpg","0","1","0","0","0.8","true","0","0","0.8","80_20_practice","0","0.2","","","","","","","","","",""
"82","","bandit","29","99129","0.0-18.0-11.0","77182599","wem/bandit_single","A2Q1YS118AO2BP","pain","2","","74","J","0","img/none_selected_demo.jpg","0","0","1","0","0.8","true","0","0","0.8","80_20_practice","0","0.2","","","","","","","","","",""
"188","","bandit","30","101077","0.0-18.0-12.0","77182599","wem/bandit_single","A2Q1YS118AO2BP","pain","2","","75","K","1","","0","0","1","0","0.2","true","0","0","0.8","80_20_practice","0","0.2","","","","","","","","","",""
"124","","bandit","31","102959","0.0-18.0-13.0","77182599","wem/bandit_single","A2Q1YS118AO2BP","pain","2","","75","K","1","","0","1","0","0","0.2","true","0","0","0.8","80_20_practice","0","0.2","","","","","","","","","",""
"1281","","bandit","32","105999","0.0-18.0-14.0","77182599","wem/bandit_single","A2Q1YS118AO2BP","pain","2","","74","J","0","img/none_selected_demo.jpg","0","0","1","0","0.8","true","0","0","0.8","80_20_practice","0","0.2","","","","","","","","","",""
"1316","","bandit","33","109075","0.0-18.0-15.0","77182599","wem/bandit_single","A2Q1YS118AO2BP","pain","2","","74","J","0","img/none_selected_demo.jpg","0","1","0","0","0.8","true","0","0","0.8","80_20_practice","0","0.2","","","","","","","","","",""
"506","","bandit","34","111340","0.0-18.0-16.0","77182599","wem/bandit_single","A2Q1YS118AO2BP","pain","2","","75","K","1","","0","1","0","0","0.2","true","0","0","0.8","80_20_practice","0","0.2","","","","","","","","","",""
"52","","bandit","35","113154","0.0-18.0-17.0","77182599","wem/bandit_single","A2Q1YS118AO2BP","pain","2","","74","J","0","img/none_selected_demo.jpg","0","1","0","0","0.8","true","0","0","0.8","80_20_practice","0","0.2","","","","","","","","","",""
"273","","bandit","36","115188","0.0-18.0-18.0","77182599","wem/bandit_single","A2Q1YS118AO2BP","pain","2","","74","J","0","img/none_selected_demo.jpg","0","0","1","0","0.8","true","0","0","0.8","80_20_practice","0","0.2","","","","","","","","","",""
"591","","bandit","37","117538","0.0-18.0-19.0","77182599","wem/bandit_single","A2Q1YS118AO2BP","pain","2","","74","J","0","img/none_selected_demo.jpg","0","1","0","0","0.8","true","0","0","0.8","80_20_practice","0","0.2","","","","","","","","","",""
"6270","","text","38","124063","0.0-19.0","77182599","wem/bandit_single","A2Q1YS118AO2BP","pain","2","32","","","","","","","","","","","","","","","","","","","","","","","","","",""
"3104","","bandit","39","128677","0.0-20.0-0.0","77182599","wem/bandit_single","A2Q1YS118AO2BP","pain","2","","74","J","0","img/none_selected_demo.jpg","0","0","1","0","0","true","0","0","0","","0","0","","","","","","","","","",""
"1440","","text","40","130373","0.0-21.0","77182599","wem/bandit_single","A2Q1YS118AO2BP","pain","2","74","","","","","","","","","","","","","","","","","","","","","","","","","",""
"4795","","text","41","135174","0.0-22.0","77182599","wem/bandit_single","A2Q1YS118AO2BP","pain","2","32","","","","","","","","","","","","","","","","","","","","","","","","","",""
"1487","","text","42","136667","0.0-23.0","77182599","wem/bandit_single","A2Q1YS118AO2BP","pain","2","32","","","","","","","","","","","","","","","","","","","","","","","","","",""
"1276","","text","43","137949","0.0-24.0","77182599","wem/bandit_single","A2Q1YS118AO2BP","pain","2","32","","","","","","","","","","","","","","","","","","","","","","","","","",""
"861","","text","44","138815","0.0-25.0","77182599","wem/bandit_single","A2Q1YS118AO2BP","pain","2","32","","","","","","","","","","","","","","","","","","","","","","","","","",""
"4402","","text","45","143222","0.0-26.0","77182599","wem/bandit_single","A2Q1YS118AO2BP","pain","2","32","","","","","","","","","","","","","","","","","","","","","","","","","",""
"8364","","text","46","151591","0.0-27.0","77182599","wem/bandit_single","A2Q1YS118AO2BP","pain","2","32","","","","","","","","","","","","","","","","","","","","","","","","","",""
"615","","text","47","152211","0.0-28.0","77182599","wem/bandit_single","A2Q1YS118AO2BP","pain","2","32","","","","","","","","","","","","","","","","","","","","","","","","","",""
"421","","text","48","152639","0.0-29.0","77182599","wem/bandit_single","A2Q1YS118AO2BP","pain","2","32","","","","","","","","","","","","","","","","","","","","","","","","","",""
"425","","text","49","153070","0.0-30.0","77182599","wem/bandit_single","A2Q1YS118AO2BP","pain","2","32","","","","","","","","","","","","","","","","","","","","","","","","","",""
"2242","","text","50","155316","0.0-31.0","77182599","wem/bandit_single","A2Q1YS118AO2BP","pain","2","32","","","","","","","","","","","","","","","","","","","","","","","","","",""
"618","","bandit","51","157442","0.0-32.0-0.0","77182599","wem/bandit_single","A2Q1YS118AO2BP","pain","2","","72","H","0","img/none_selected.jpg","0","1","0","0","0.8","true","0","0","0.8","full_practice","0","0.2","0","0.6","0","0.2","","","","","",""
"614","","bandit","52","159817","0.0-32.0-1.0","77182599","wem/bandit_single","A2Q1YS118AO2BP","pain","2","","75","K","2","","0","1","0","0","0.6","true","0","0","0.8","full_practice","0","0.2","0","0.6","0","0.2","","","","","",""
"3352","","bandit","53","164934","0.0-32.0-2.0","77182599","wem/bandit_single","A2Q1YS118AO2BP","pain","2","","72","H","0","img/none_selected.jpg","0","1","0","0","0.8","true","0","0","0.8","full_practice","0","0.2","0","0.6","0","0.2","","","","","",""
"2011","","bandit","54","168703","0.0-32.0-3.0","77182599","wem/bandit_single","A2Q1YS118AO2BP","pain","2","","72","H","0","img/none_selected.jpg","0","1","0","0","0.8","true","0","0","0.8","full_practice","0","0.2","0","0.6","0","0.2","","","","","",""
"84","","bandit","55","170545","0.0-32.0-4.0","77182599","wem/bandit_single","A2Q1YS118AO2BP","pain","2","","75","K","2","","0","1","0","0","0.6","true","0","0","0.8","full_practice","0","0.2","0","0.6","0","0.2","","","","","",""
"144","","bandit","56","172449","0.0-32.0-5.0","77182599","wem/bandit_single","A2Q1YS118AO2BP","pain","2","","74","J","1","","0","1","0","0","0.2","true","0","0","0.8","full_practice","0","0.2","0","0.6","0","0.2","","","","","",""
"776","","bandit","57","174988","0.0-32.0-6.0","77182599","wem/bandit_single","A2Q1YS118AO2BP","pain","2","","72","H","0","img/none_selected.jpg","0","1","0","0","0.8","true","0","0","0.8","full_practice","0","0.2","0","0.6","0","0.2","","","","","",""
"93","","bandit","58","176840","0.0-32.0-7.0","77182599","wem/bandit_single","A2Q1YS118AO2BP","pain","2","","74","J","1","","0","1","0","0","0.2","true","0","0","0.8","full_practice","0","0.2","0","0.6","0","0.2","","","","","",""
"265","","bandit","59","178865","0.0-32.0-8.0","77182599","wem/bandit_single","A2Q1YS118AO2BP","pain","2","","75","K","2","","0","0","1","0","0.6","true","0","0","0.8","full_practice","0","0.2","0","0.6","0","0.2","","","","","",""
"704","","bandit","60","181329","0.0-32.0-9.0","77182599","wem/bandit_single","A2Q1YS118AO2BP","pain","2","","72","H","0","img/none_selected.jpg","0","1","0","0","0.8","true","0","0","0.8","full_practice","0","0.2","0","0.6","0","0.2","","","","","",""
"1104","","bandit","61","184197","0.0-32.0-10.0","77182599","wem/bandit_single","A2Q1YS118AO2BP","pain","2","","76","L","3","","0","0","1","0","0.2","true","0","0","0.8","full_practice","0","0.2","0","0.6","0","0.2","","","","","",""
"628","","bandit","62","186587","0.0-32.0-11.0","77182599","wem/bandit_single","A2Q1YS118AO2BP","pain","2","","74","J","1","","0","0","1","0","0.2","true","0","0","0.8","full_practice","0","0.2","0","0.6","0","0.2","","","","","",""
"95","","bandit","63","188441","0.0-32.0-12.0","77182599","wem/bandit_single","A2Q1YS118AO2BP","pain","2","","75","K","2","","0","1","0","0","0.6","true","0","0","0.8","full_practice","0","0.2","0","0.6","0","0.2","","","","","",""
"273","","bandit","64","190475","0.0-32.0-13.0","77182599","wem/bandit_single","A2Q1YS118AO2BP","pain","2","","72","H","0","img/none_selected.jpg","0","0","1","0","0.8","true","0","0","0.8","full_practice","0","0.2","0","0.6","0","0.2","","","","","",""
"278","","bandit","65","192516","0.0-32.0-14.0","77182599","wem/bandit_single","A2Q1YS118AO2BP","pain","2","","76","L","3","","0","0","1","0","0.2","true","0","0","0.8","full_practice","0","0.2","0","0.6","0","0.2","","","","","",""
"250","","bandit","66","194529","0.0-32.0-15.0","77182599","wem/bandit_single","A2Q1YS118AO2BP","pain","2","","72","H","0","img/none_selected.jpg","0","1","0","0","0.8","true","0","0","0.8","full_practice","0","0.2","0","0.6","0","0.2","","","","","",""
"110","","bandit","67","196400","0.0-32.0-16.0","77182599","wem/bandit_single","A2Q1YS118AO2BP","pain","2","","74","J","1","","0","0","1","0","0.2","true","0","0","0.8","full_practice","0","0.2","0","0.6","0","0.2","","","","","",""
"61","","bandit","68","198222","0.0-32.0-17.0","77182599","wem/bandit_single","A2Q1YS118AO2BP","pain","2","","72","H","0","img/none_selected.jpg","0","1","0","0","0.8","true","0","0","0.8","full_practice","0","0.2","0","0.6","0","0.2","","","","","",""
"507","","bandit","69","200490","0.0-32.0-18.0","77182599","wem/bandit_single","A2Q1YS118AO2BP","pain","2","","76","L","3","","0","0","1","0","0.2","true","0","0","0.8","full_practice","0","0.2","0","0.6","0","0.2","","","","","",""
"677","","bandit","70","202929","0.0-32.0-19.0","77182599","wem/bandit_single","A2Q1YS118AO2BP","pain","2","","72","H","0","img/none_selected.jpg","0","0","1","0","0.8","true","0","0","0.8","full_practice","0","0.2","0","0.6","0","0.2","","","","","",""
"1000","","text","71","204202","0.0-33.0","77182599","wem/bandit_single","A2Q1YS118AO2BP","pain","2","32","","","","","","","","","","","","","","","","","","","","","","","","","",""
"1690","","text","72","206900","0.0-34.0","77182599","wem/bandit_single","A2Q1YS118AO2BP","pain","2","32","","","","","","","","","","","","","","","","","","","","","","","","","",""
"2676","","text","73","209583","0.0-35.0","77182599","wem/bandit_single","A2Q1YS118AO2BP","pain","2","32","","","","","","","","","","","","","","","","","","","","","","","","","",""
"461","","text","74","210047","0.0-36.0","77182599","wem/bandit_single","A2Q1YS118AO2BP","pain","2","32","","","","","","","","","","","","","","","","","","","","","","","","","",""
"425","","text","75","210476","0.0-37.0","77182599","wem/bandit_single","A2Q1YS118AO2BP","pain","2","32","","","","","","","","","","","","","","","","","","","","","","","","","",""
"1056","","bandit","76","213044","0.0-38.0-0.0","77182599","wem/bandit_single","A2Q1YS118AO2BP","pain","2","","74","J","1","","0","0","1","","0.1473353724","false","1","","0.03692567881","main_expt","","0.1473353724","","0.1196507759","","0.1047922924","","","","","",""
"1229","","bandit","77","216036","0.0-39.0-0.0","77182599","wem/bandit_single","A2Q1YS118AO2BP","pain","2","","74","J","1","","0","0","1","","0.1471364572","false","2","","0.0535834513","main_expt","","0.1471364572","","0.1434551849","","0.09232691068","","","","","",""
"886","","bandit","78","218684","0.0-40.0-0.0","77182599","wem/bandit_single","A2Q1YS118AO2BP","pain","2","","75","K","2","","0","0","1","","0.1966750378","false","3","","0.06455495551","main_expt","","0.1792173289","","0.1966750378","","0.07878604621","","","","","",""
"586","","bandit","79","221033","0.0-41.0-0.0","77182599","wem/bandit_single","A2Q1YS118AO2BP","pain","2","","72","H","0","img/none_selected.jpg","0","0","1","","0.1075220519","false","4","","0.1075220519","main_expt","","0.2089457512","","0.1731728381","","0.06180226224","","","","","",""
"814","","bandit","80","223610","0.0-42.0-0.0","77182599","wem/bandit_single","A2Q1YS118AO2BP","pain","2","","72","H","0","img/none_selected.jpg","0","0","1","","0.1459974634","false","5","","0.1459974634","main_expt","","0.2627176439","","0.151671232","","0.05657605877","","","","","",""
"987","","bandit","81","226359","0.0-43.0-0.0","77182599","wem/bandit_single","A2Q1YS118AO2BP","pain","2","","75","K","2","","0","0","1","","0.2201434377","false","6","","0.1119865757","main_expt","","0.2052823447","","0.2201434377","","0.03926223851","","","","","",""
"337","","bandit","82","228457","0.0-44.0-0.0","77182599","wem/bandit_single","A2Q1YS118AO2BP","pain","2","","74","J","1","","0","0","1","","0.2424381104","false","7","","0.1135710889","main_expt","","0.2424381104","","0.1924323999","","0.02952185798","","","","","",""
"237","","bandit","83","230459","0.0-45.0-0.0","77182599","wem/bandit_single","A2Q1YS118AO2BP","pain","2","","72","H","0","img/none_selected.jpg","0","0","1","","0.148696524","false","8","","0.148696524","main_expt","","0.2324683495","","0.187431757","","0.01847757052","","","","","",""
"838","","bandit","84","233059","0.0-46.0-0.0","77182599","wem/bandit_single","A2Q1YS118AO2BP","pain","2","","72","H","0","img/none_selected.jpg","0","0","1","","0.1181121295","false","9","","0.1181121295","main_expt","","0.2440295668","","0.197470847","","0.02695314055","","","","","",""
"728","","bandit","85","235554","0.0-47.0-0.0","77182599","wem/bandit_single","A2Q1YS118AO2BP","pain","2","","74","J","1","","0","0","1","","0.2465422232","false","10","","0.1082266346","main_expt","","0.2465422232","","0.2298270047","","0.02234311218","","","","","",""
"357","","bandit","86","237674","0.0-48.0-0.0","77182599","wem/bandit_single","A2Q1YS118AO2BP","pain","2","","76","L","3","","0","0","1","","0.04960883058","false","11","","0.1102162287","main_expt","","0.1529972956","","0.2124937163","","0.04960883058","","","","","",""
"452","","bandit","87","239887","0.0-49.0-0.0","77182599","wem/bandit_single","A2Q1YS118AO2BP","pain","2","","74","J","1","","0","0","1","","0.1827224572","false","12","","0.1420736562","main_expt","","0.1827224572","","0.2043121782","","0.06086541187","","","","","",""
"462","","bandit","88","242109","0.0-50.0-0.0","77182599","wem/bandit_single","A2Q1YS118AO2BP","pain","2","","75","K","2","","0","0","1","","0.2122729008","false","13","","0.1582971975","main_expt","","0.1973099221","","0.2122729008","","0.06603274732","","","","","",""
"112","","bandit","89","243987","0.0-51.0-0.0","77182599","wem/bandit_single","A2Q1YS118AO2BP","pain","2","","75","K","2","","0","0","1","","0.1748916548","false","14","","0.1278364912","main_expt","","0.2002936143","","0.1748916548","","0.06952645267","","","","","",""
"41","","bandit","90","245791","0.0-52.0-0.0","77182599","wem/bandit_single","A2Q1YS118AO2BP","pain","2","","76","L","3","","0","0","1","","0.06705093019","false","15","","0.1389591295","main_expt","","0.2100222876","","0.1598041939","","0.06705093019","","","","","",""
"371","","bandit","91","247928","0.0-53.0-0.0","77182599","wem/bandit_single","A2Q1YS118AO2BP","pain","2","","75","K","2","","0","0","1","","0.1496559895","false","16","","0.1087507618","main_expt","","0.192095419","","0.1496559895","","0.08739136862","","","","","",""
"12","","bandit","92","249705","0.0-54.0-0.0","77182599","wem/bandit_single","A2Q1YS118AO2BP","pain","2","","72","H","0","img/none_selected.jpg","0","0","1","","0.1591778588","false","17","","0.1591778588","main_expt","","0.2057363858","","0.1855105105","","0.0633177824","","","","","",""
"1299","","bandit","93","252767","0.0-55.0-0.0","77182599","wem/bandit_single","A2Q1YS118AO2BP","pain","2","","72","H","0","img/none_selected.jpg","0","0","1","","0.1612769879","false","18","","0.1612769879","main_expt","","0.2142317849","","0.180786103","","0.05969087175","","","","","",""
"335","","bandit","94","254864","0.0-56.0-0.0","77182599","wem/bandit_single","A2Q1YS118AO2BP","pain","2","","75","K","2","","0","0","1","","0.1867551017","false","19","","0.1706614454","main_expt","","0.2416868574","","0.1867551017","","0.08316546351","","","","","",""
"674","","bandit","95","257300","0.0-57.0-0.0","77182599","wem/bandit_single","A2Q1YS118AO2BP","pain","2","","72","H","0","img/none_selected.jpg","0","0","1","","0.2173206475","false","20","","0.2173206475","main_expt","","0.2556662882","","0.2414580321","","0.08506169859","","","","","",""
"192","","bandit","96","259254","0.0-58.0-0.0","77182599","wem/bandit_single","A2Q1YS118AO2BP","pain","2","","76","L","3","","0","0","1","","0.08337624199","false","21","","0.2297715145","main_expt","","0.2484624222","","0.2552731096","","0.08337624199","","","","","",""
"154","","bandit","97","261170","0.0-59.0-0.0","77182599","wem/bandit_single","A2Q1YS118AO2BP","pain","2","","72","H","0","img/none_selected.jpg","0","1","0","","0.2893552095","false","22","","0.2893552095","main_expt","","0.3180013331","","0.2706059063","","0.09400888178","","","","","",""
"124","","bandit","98","263058","0.0-60.0-0.0","77182599","wem/bandit_single","A2Q1YS118AO2BP","pain","2","","75","K","2","","0","0","1","","0.2240124609","false","23","","0.1756353462","main_expt","","0.3018869565","","0.2240124609","","0.08373077729","","","","","",""
"539","","bandit","99","265360","0.0-61.0-0.0","77182599","wem/bandit_single","A2Q1YS118AO2BP","pain","2","","72","H","0","img/none_selected.jpg","0","0","1","","0.144307289","false","24","","0.144307289","main_expt","","0.3479913718","","0.2337623096","","0.07394888686","","","","","",""
"1472","","bandit","100","268596","0.0-62.0-0.0","77182599","wem/bandit_single","A2Q1YS118AO2BP","pain","2","","74","J","1","","0","1","0","","0.3851600672","false","25","","0.1103761204","main_expt","","0.3851600672","","0.1992837424","","0.1177231478","","","","","",""
"291","","bandit","101","270652","0.0-63.0-0.0","77182599","wem/bandit_single","A2Q1YS118AO2BP","pain","2","","74","J","1","","0","0","1","","0.3771699284","false","26","","0.09313295331","main_expt","","0.3771699284","","0.2273902023","","0.1137187285","","","","","",""
"897","","bandit","102","273312","0.0-64.0-0.0","77182599","wem/bandit_single","A2Q1YS118AO2BP","pain","2","","72","H","0","img/none_selected.jpg","0","1","0","","0.07841862492","false","27","","0.07841862492","main_expt","","0.3284072512","","0.2020281611","","0.1380279251","","","","","",""
"114","","bandit","103","275188","0.0-65.0-0.0","77182599","wem/bandit_single","A2Q1YS118AO2BP","pain","2","","75","K","2","","0","1","0","","0.2121805601","false","28","","0.0635621653","main_expt","","0.3708797381","","0.2121805601","","0.1926536066","","","","","",""
"3792","","bandit","104","280746","0.0-66.0-0.0","77182599","wem/bandit_single","A2Q1YS118AO2BP","pain","2","","72","H","0","img/none_selected.jpg","0","0","1","","0.04349452081","false","29","","0.04349452081","main_expt","","0.3630760189","","0.1986823058","","0.1919064193","","","","","",""
"1062","","bandit","105","283572","0.0-67.0-0.0","77182599","wem/bandit_single","A2Q1YS118AO2BP","pain","2","","75","K","2","","0","1","0","","0.2674628916","false","30","","0.06175929786","main_expt","","0.3414786107","","0.2674628916","","0.1767437005","","","","","",""
"316","","bandit","106","285652","0.0-68.0-0.0","77182599","wem/bandit_single","A2Q1YS118AO2BP","pain","2","","75","K","2","","0","0","1","","0.2862820789","false","31","","0.06380111671","main_expt","","0.3536929226","","0.2862820789","","0.2417082081","","","","","",""
"674","","bandit","107","288090","0.0-69.0-0.0","77182599","wem/bandit_single","A2Q1YS118AO2BP","pain","2","","74","J","1","","0","1","0","","0.3238646006","false","32","","0.08507033619","main_expt","","0.3238646006","","0.2895619367","","0.2312742115","","","","","",""
"1501","","bandit","108","291356","0.0-70.0-0.0","77182599","wem/bandit_single","A2Q1YS118AO2BP","pain","2","","72","H","0","img/none_selected.jpg","0","0","1","","0.1242974044","false","33","","0.1242974044","main_expt","","0.3018803865","","0.312502841","","0.2247834387","","","","","",""
"940","","bandit","109","294061","0.0-71.0-0.0","77182599","wem/bandit_single","A2Q1YS118AO2BP","pain","2","","76","L","3","","0","0","1","","0.1192543008","false","34","","0.158311101","main_expt","","0.2551449341","","0.2830864838","","0.1192543008","","","","","",""
"1482","","bandit","110","297307","0.0-72.0-0.0","77182599","wem/bandit_single","A2Q1YS118AO2BP","pain","2","","74","J","1","","0","0","1","","0.3200580053","false","35","","0.1293969191","main_expt","","0.3200580053","","0.2489219385","","0.1336327135","","","","","",""
"35","","bandit","111","299104","0.0-73.0-0.0","77182599","wem/bandit_single","A2Q1YS118AO2BP","pain","2","","72","H","0","img/none_selected.jpg","0","1","0","","0.1800853883","false","36","","0.1800853883","main_expt","","0.3241899647","","0.2090346537","","0.09851205292","","","","","",""
"300","","bandit","112","301170","0.0-74.0-0.0","77182599","wem/bandit_single","A2Q1YS118AO2BP","pain","2","","76","L","3","","0","0","1","","0.05943694951","false","37","","0.1025448258","main_expt","","0.3029113802","","0.210385238","","0.05943694951","","","","","",""
"391","","bandit","113","303326","0.0-75.0-0.0","77182599","wem/bandit_single","A2Q1YS118AO2BP","pain","2","","72","H","0","img/none_selected.jpg","0","0","1","","0.1604021245","false","38","","0.1604021245","main_expt","","0.2958592888","","0.162227856","","0.06217728149","","","","","",""
"113","","bandit","114","305204","0.0-76.0-0.0","77182599","wem/bandit_single","A2Q1YS118AO2BP","pain","2","","72","H","0","img/none_selected.jpg","0","1","0","","0.1336531769","false","39","","0.1336531769","main_expt","","0.2941945884","","0.1444893634","","0.08902833973","","","","","",""
"736","","bandit","115","307706","0.0-77.0-0.0","77182599","wem/bandit_single","A2Q1YS118AO2BP","pain","2","","75","K","2","","0","0","1","","0.1340169349","false","40","","0.1356889635","main_expt","","0.2784490849","","0.1340169349","","0.1098655825","","","","","",""
"102","","bandit","116","309574","0.0-78.0-0.0","77182599","wem/bandit_single","A2Q1YS118AO2BP","pain","2","","72","H","0","img/none_selected.jpg","0","0","1","","0.1434276379","false","41","","0.1434276379","main_expt","","0.2943099773","","0.1019114547","","0.125718056","","","","","",""
"92","","bandit","117","311429","0.0-79.0-0.0","77182599","wem/bandit_single","A2Q1YS118AO2BP","pain","2","","72","H","0","img/none_selected.jpg","0","0","1","","0.1432973755","false","42","","0.1432973755","main_expt","","0.2502187242","","0.07379386716","","0.07668278466","","","","","",""
"402","","bandit","118","313595","0.0-80.0-0.0","77182599","wem/bandit_single","A2Q1YS118AO2BP","pain","2","","72","H","0","img/none_selected.jpg","0","0","1","","0.1605884153","false","43","","0.1605884153","main_expt","","0.2691097515","","0.08186566242","","0.08403116819","","","","","",""
"125","","bandit","119","315484","0.0-81.0-0.0","77182599","wem/bandit_single","A2Q1YS118AO2BP","pain","2","","75","K","2","","0","0","1","","0.08692603594","false","44","","0.1396132557","main_expt","","0.2601206974","","0.08692603594","","0.08258467284","","","","","",""
"1163","","bandit","120","318412","0.0-82.0-0.0","77182599","wem/bandit_single","A2Q1YS118AO2BP","pain","2","","76","L","3","","0","0","1","","0.07253936928","false","45","","0.2250933593","main_expt","","0.3222012474","","0.1212470101","","0.07253936928","","","","","",""
"151","","bandit","121","320328","0.0-83.0-0.0","77182599","wem/bandit_single","A2Q1YS118AO2BP","pain","2","","76","L","3","","0","0","1","","0.05374479905","false","46","","0.1826421925","main_expt","","0.3060845752","","0.134661007","","0.05374479905","","","","","",""
"334","","bandit","122","322426","0.0-84.0-0.0","77182599","wem/bandit_single","A2Q1YS118AO2BP","pain","2","","75","K","2","","0","0","1","","0.1377890551","false","47","","0.1706758886","main_expt","","0.290950603","","0.1377890551","","0.06764850751","","","","","",""
"787","","bandit","123","324977","0.0-85.0-0.0","77182599","wem/bandit_single","A2Q1YS118AO2BP","pain","2","","74","J","1","","0","0","1","","0.329307254","false","48","","0.1686178854","main_expt","","0.329307254","","0.1325860966","","0.05656727153","","","","","",""
"180","","bandit","124","326922","0.0-86.0-0.0","77182599","wem/bandit_single","A2Q1YS118AO2BP","pain","2","","74","J","1","","0","0","1","","0.405044281","false","49","","0.1822379713","main_expt","","0.405044281","","0.1231750139","","0.08131597157","","","","","",""
"1162","","bandit","125","329852","0.0-87.0-0.0","77182599","wem/bandit_single","A2Q1YS118AO2BP","pain","2","","76","L","3","","0","0","1","","0.08274267654","false","50","","0.2513484478","main_expt","","0.4121919591","","0.1565964086","","0.08274267654","","","","","",""
"137","","bandit","126","331753","0.0-88.0-0.0","77182599","wem/bandit_single","A2Q1YS118AO2BP","pain","2","","74","J","1","","0","0","1","","0.4271607293","false","51","","0.2812942615","main_expt","","0.4271607293","","0.1464659706","","0.1154896937","","","","","",""
"873","","bandit","127","334393","0.0-89.0-0.0","77182599","wem/bandit_single","A2Q1YS118AO2BP","pain","2","","72","H","0","img/none_selected.jpg","0","0","1","","0.2224049931","false","52","","0.2224049931","main_expt","","0.4249516559","","0.1196909414","","0.07649260985","","","","","",""
"568","","bandit","128","336728","0.0-90.0-0.0","77182599","wem/bandit_single","A2Q1YS118AO2BP","pain","2","","75","K","2","","0","0","1","","0.1578713891","false","53","","0.2135714686","main_expt","","0.414238899","","0.1578713891","","0.06211708307","","","","","",""
"1127","","bandit","129","339622","0.0-91.0-0.0","77182599","wem/bandit_single","A2Q1YS118AO2BP","pain","2","","74","J","1","","0","0","1","","0.4404827494","false","54","","0.2471494284","main_expt","","0.4404827494","","0.1420893662","","0.05122165179","","","","","",""
"680","","bandit","130","342068","0.0-92.0-0.0","77182599","wem/bandit_single","A2Q1YS118AO2BP","pain","2","","75","K","2","","0","0","1","","0.1255118638","false","55","","0.26732004","main_expt","","0.4258944343","","0.1255118638","","0.05779626682","","","","","",""
"90","","bandit","131","343926","0.0-93.0-0.0","77182599","wem/bandit_single","A2Q1YS118AO2BP","pain","2","","74","J","1","","0","0","1","","0.4058732664","false","56","","0.258853447","main_expt","","0.4058732664","","0.1040792381","","0.06578325953","","","","","",""
"31","","bandit","132","345727","0.0-94.0-0.0","77182599","wem/bandit_single","A2Q1YS118AO2BP","pain","2","","72","H","0","img/none_selected.jpg","0","0","1","","0.247757255","false","57","","0.247757255","main_expt","","0.4269212616","","0.1058118143","","0.07487929626","","","","","",""
"919","","bandit","133","348412","0.0-95.0-0.0","77182599","wem/bandit_single","A2Q1YS118AO2BP","pain","2","","75","K","2","","0","1","0","","0.08107820888","false","58","","0.2380046022","main_expt","","0.4120073189","","0.08107820888","","0.05601765109","","","","","",""
"493","","bandit","134","350670","0.0-96.0-0.0","77182599","wem/bandit_single","A2Q1YS118AO2BP","pain","2","","72","H","0","img/none_selected.jpg","0","0","1","","0.273239949","false","59","","0.273239949","main_expt","","0.367464959","","0.115954585","","0.07158824907","","","","","",""
"4123","","bandit","135","356560","0.0-97.0-0.0","77182599","wem/bandit_single","A2Q1YS118AO2BP","pain","2","","74","J","1","","0","0","1","","0.3113576115","false","60","","0.314936794","main_expt","","0.3113576115","","0.190529156","","0.1021813758","","","","","",""
"674","","bandit","136","359001","0.0-98.0-0.0","77182599","wem/bandit_single","A2Q1YS118AO2BP","pain","2","","75","K","2","","0","0","1","","0.2024767933","false","61","","0.3361315769","main_expt","","0.3217665369","","0.2024767933","","0.1422244628","","","","","",""
"2156","","bandit","137","362924","0.0-99.0-0.0","77182599","wem/bandit_single","A2Q1YS118AO2BP","pain","2","","72","H","0","img/none_selected.jpg","0","1","0","","0.3012470308","false","62","","0.3012470308","main_expt","","0.3396020841","","0.1478811465","","0.1543762338","","","","","",""
"3969","","bandit","138","368660","0.0-100.0-0.0","77182599","wem/bandit_single","A2Q1YS118AO2BP","pain","2","","75","K","2","","0","0","1","","0.1472080331","false","63","","0.3035933772","main_expt","","0.3326008901","","0.1472080331","","0.1957871903","","","","","",""
"1821","","bandit","139","372248","0.0-101.0-0.0","77182599","wem/bandit_single","A2Q1YS118AO2BP","pain","2","","72","H","0","img/none_selected.jpg","0","0","1","","0.3061864711","false","64","","0.3061864711","main_expt","","0.2759567044","","0.1523556625","","0.1998827037","","","","","",""
"116","","bandit","140","374134","0.0-102.0-0.0","77182599","wem/bandit_single","A2Q1YS118AO2BP","pain","2","","74","J","1","","0","1","0","","0.330340259","false","65","","0.2795045379","main_expt","","0.330340259","","0.1640586258","","0.2229124218","","","","","",""
"1242","","bandit","141","377144","0.0-103.0-0.0","77182599","wem/bandit_single","A2Q1YS118AO2BP","pain","2","","72","H","0","img/none_selected.jpg","0","0","1","","0.2624990872","false","66","","0.2624990872","main_expt","","0.394496842","","0.1559289375","","0.2821528041","","","","","",""
"119","","bandit","142","379031","0.0-104.0-0.0","77182599","wem/bandit_single","A2Q1YS118AO2BP","pain","2","","75","K","2","","0","0","1","","0.09042099393","false","67","","0.2316809648","main_expt","","0.3780229448","","0.09042099393","","0.2228434199","","","","","",""
"22","","bandit","143","380819","0.0-105.0-0.0","77182599","wem/bandit_single","A2Q1YS118AO2BP","pain","2","","74","J","1","","0","0","1","","0.313258317","false","68","","0.2266776066","main_expt","","0.313258317","","0.08874767337","","0.2039549584","","","","","",""
"638","","bandit","144","383225","0.0-106.0-0.0","77182599","wem/bandit_single","A2Q1YS118AO2BP","pain","2","","76","L","3","","0","1","0","","0.1998164138","false","69","","0.1734363374","main_expt","","0.3466590849","","0.09103688118","","0.1998164138","","","","","",""
"1812","","bandit","145","386803","0.0-107.0-0.0","77182599","wem/bandit_single","A2Q1YS118AO2BP","pain","2","","74","J","1","","0","0","1","","0.3389702644","false","70","","0.1469163378","main_expt","","0.3389702644","","0.139461016","","0.1936545157","","","","","",""
"2389","","bandit","146","390962","0.0-108.0-0.0","77182599","wem/bandit_single","A2Q1YS118AO2BP","pain","2","","74","J","1","","0","1","0","","0.3037518088","false","71","","0.1903103683","main_expt","","0.3037518088","","0.1269809057","","0.1875420319","","","","","",""
"975","","bandit","147","393705","0.0-109.0-0.0","77182599","wem/bandit_single","A2Q1YS118AO2BP","pain","2","","74","J","1","","0","1","0","","0.3007282465","false","72","","0.2364630875","main_expt","","0.3007282465","","0.1541032278","","0.2275961541","","","","","",""
"1365","","bandit","148","396838","0.0-110.0-0.0","77182599","wem/bandit_single","A2Q1YS118AO2BP","pain","2","","74","J","1","","0","0","1","","0.2796446257","false","73","","0.2715971604","main_expt","","0.2796446257","","0.1618198783","","0.2485431464","","","","","",""
"469","","bandit","149","399075","0.0-111.0-0.0","77182599","wem/bandit_single","A2Q1YS118AO2BP","pain","2","","75","K","2","","0","0","1","","0.1428156761","false","74","","0.2716254876","main_expt","","0.2729876577","","0.1428156761","","0.2394527842","","","","","",""
"273","","bandit","150","401114","0.0-112.0-0.0","77182599","wem/bandit_single","A2Q1YS118AO2BP","pain","2","","75","K","2","","0","0","1","","0.1312504708","false","75","","0.2998540279","main_expt","","0.2067723694","","0.1312504708","","0.2074684787","","","","","",""
"1339","","bandit","151","404219","0.0-113.0-0.0","77182599","wem/bandit_single","A2Q1YS118AO2BP","pain","2","","74","J","1","","0","0","1","","0.2130899639","false","76","","0.3195890579","main_expt","","0.2130899639","","0.1002429729","","0.178133335","","","","","",""
"248","","bandit","152","406234","0.0-114.0-0.0","77182599","wem/bandit_single","A2Q1YS118AO2BP","pain","2","","72","H","0","img/none_selected.jpg","0","0","1","","0.2856322382","false","77","","0.2856322382","main_expt","","0.2109525889","","0.07543037954","","0.1788248706","","","","","",""
"2163","","bandit","153","410164","0.0-115.0-0.0","77182599","wem/bandit_single","A2Q1YS118AO2BP","pain","2","","72","H","0","img/none_selected.jpg","0","0","1","","0.2919105172","false","78","","0.2919105172","main_expt","","0.1884332626","","0.1153668935","","0.1530293784","","","","","",""
"1124","","bandit","154","413056","0.0-116.0-0.0","77182599","wem/bandit_single","A2Q1YS118AO2BP","pain","2","","74","J","1","","0","0","1","","0.1883433777","false","79","","0.2567181874","main_expt","","0.1883433777","","0.07716777456","","0.1593806387","","","","","",""
"800","","bandit","155","415623","0.0-117.0-0.0","77182599","wem/bandit_single","A2Q1YS118AO2BP","pain","2","","72","H","0","img/none_selected.jpg","0","1","0","","0.3200023444","false","80","","0.3200023444","main_expt","","0.1998795799","","0.08058819474","","0.1428411119","","","","","",""
"1292","","bandit","156","418681","0.0-118.0-0.0","77182599","wem/bandit_single","A2Q1YS118AO2BP","pain","2","","72","H","0","img/none_selected.jpg","0","0","1","","0.3117755618","false","81","","0.3117755618","main_expt","","0.1651756375","","0.09856946308","","0.1982686668","","","","","",""
"206","","bandit","157","420655","0.0-119.0-0.0","77182599","wem/bandit_single","A2Q1YS118AO2BP","pain","2","","75","K","2","","0","0","1","","0.1000946235","false","82","","0.3379160562","main_expt","","0.2235829688","","0.1000946235","","0.2291501313","","","","","",""
"125","","bandit","158","422546","0.0-120.0-0.0","77182599","wem/bandit_single","A2Q1YS118AO2BP","pain","2","","72","H","0","img/none_selected.jpg","0","0","1","","0.3620865136","false","83","","0.3620865136","main_expt","","0.2456561592","","0.06687408093","","0.2259362275","","","","","",""
"448","","bandit","159","424762","0.0-121.0-0.0","77182599","wem/bandit_single","A2Q1YS118AO2BP","pain","2","","74","J","1","","0","1","0","","0.2790354554","false","84","","0.3904685548","main_expt","","0.2790354554","","0.06463964557","","0.1733031115","","","","","",""
"325","","bandit","160","426854","0.0-122.0-0.0","77182599","wem/bandit_single","A2Q1YS118AO2BP","pain","2","","72","H","0","img/none_selected.jpg","0","1","0","","0.4201611698","false","85","","0.4201611698","main_expt","","0.2389339959","","0.09044174456","","0.1577379057","","","","","",""
"114","","bandit","161","428738","0.0-123.0-0.0","77182599","wem/bandit_single","A2Q1YS118AO2BP","pain","2","","75","K","2","","0","0","1","","0.07242924321","false","86","","0.4544588035","main_expt","","0.2905830411","","0.07242924321","","0.1646880331","","","","","",""
"372","","bandit","162","430877","0.0-124.0-0.0","77182599","wem/bandit_single","A2Q1YS118AO2BP","pain","2","","72","H","0","img/none_selected.jpg","0","1","0","","0.4444110865","false","87","","0.4444110865","main_expt","","0.3336128518","","0.06356931104","","0.157008097","","","","","",""
"716","","bandit","163","433359","0.0-125.0-0.0","77182599","wem/bandit_single","A2Q1YS118AO2BP","pain","2","","76","L","3","","0","0","1","","0.14663069","false","88","","0.4276611285","main_expt","","0.3720796031","","0.08819972964","","0.14663069","","","","","",""
"217","","bandit","164","435345","0.0-126.0-0.0","77182599","wem/bandit_single","A2Q1YS118AO2BP","pain","2","","74","J","1","","0","0","1","","0.3383028484","false","89","","0.395063318","main_expt","","0.3383028484","","0.09388884115","","0.1510377787","","","","","",""
"176","","bandit","165","437292","0.0-127.0-0.0","77182599","wem/bandit_single","A2Q1YS118AO2BP","pain","2","","72","H","0","img/none_selected.jpg","0","0","1","","0.3790569413","false","90","","0.3790569413","main_expt","","0.3550100304","","0.1265583984","","0.1600185234","","","","","",""
"183","","bandit","166","439244","0.0-128.0-0.0","77182599","wem/bandit_single","A2Q1YS118AO2BP","pain","2","","75","K","2","","0","0","1","","0.09433033469","false","91","","0.3763017738","main_expt","","0.4198742783","","0.09433033469","","0.1618321768","","","","","",""
"148","","bandit","167","441160","0.0-129.0-0.0","77182599","wem/bandit_single","A2Q1YS118AO2BP","pain","2","","76","L","3","","0","0","1","","0.1408839615","false","92","","0.3829045729","main_expt","","0.4522920775","","0.05111462501","","0.1408839615","","","","","",""
"591","","bandit","168","443521","0.0-130.0-0.0","77182599","wem/bandit_single","A2Q1YS118AO2BP","pain","2","","72","H","0","img/none_selected.jpg","0","0","1","","0.4155552038","false","93","","0.4155552038","main_expt","","0.4572096334","","0.05378689714","","0.1675332925","","","","","",""
"589","","bandit","169","445880","0.0-131.0-0.0","77182599","wem/bandit_single","A2Q1YS118AO2BP","pain","2","","75","K","2","","0","0","1","","0.04385487208","false","94","","0.3964247486","main_expt","","0.457248447","","0.04385487208","","0.2154783406","","","","","",""
"319","","bandit","170","447969","0.0-132.0-0.0","77182599","wem/bandit_single","A2Q1YS118AO2BP","pain","2","","74","J","1","","0","1","0","","0.4284600246","false","95","","0.4028729744","main_expt","","0.4284600246","","0.02374316345","","0.2434825378","","","","","",""
"490","","bandit","171","450229","0.0-133.0-0.0","77182599","wem/bandit_single","A2Q1YS118AO2BP","pain","2","","72","H","0","img/none_selected.jpg","0","1","0","","0.3937220057","false","96","","0.3937220057","main_expt","","0.4213934208","","0.01119532444","","0.300751002","","","","","",""
"95","","bandit","172","452091","0.0-134.0-0.0","77182599","wem/bandit_single","A2Q1YS118AO2BP","pain","2","","75","K","2","","0","0","1","","0.01205949719","false","97","","0.3951408858","main_expt","","0.4093218277","","0.01205949719","","0.2390268827","","","","","",""
"560","","bandit","173","454419","0.0-135.0-0.0","77182599","wem/bandit_single","A2Q1YS118AO2BP","pain","2","","75","K","2","","0","0","1","","0.02530753644","false","98","","0.3872505806","main_expt","","0.4011771953","","0.02530753644","","0.1872158766","","","","","",""
"586","","bandit","174","456775","0.0-136.0-0.0","77182599","wem/bandit_single","A2Q1YS118AO2BP","pain","2","","74","J","1","","0","1","0","","0.4319140629","false","99","","0.3237376228","main_expt","","0.4319140629","","0.02318317113","","0.2281726053","","","","","",""
"93","","bandit","175","458637","0.0-137.0-0.0","77182599","wem/bandit_single","A2Q1YS118AO2BP","pain","2","","76","L","3","","0","1","0","","0.2322026393","false","100","","0.3840854176","main_expt","","0.4388591553","","0.01577819671","","0.2322026393","","","","","",""
"94","","bandit","176","460500","0.0-138.0-0.0","77182599","wem/bandit_single","A2Q1YS118AO2BP","pain","2","","72","H","0","img/none_selected.jpg","0","1","0","","0.4043087267","false","101","","0.4043087267","main_expt","","0.4405661836","","0.03767304301","","0.2675158553","","","","","",""
"2177","","bandit","177","464447","0.0-139.0-0.0","77182599","wem/bandit_single","A2Q1YS118AO2BP","pain","2","","72","H","0","img/none_selected.jpg","0","1","0","","0.423372456","false","102","","0.423372456","main_expt","","0.4155134761","","0.03003558128","","0.2334450153","","","","","",""
"713","","bandit","178","466933","0.0-140.0-0.0","77182599","wem/bandit_single","A2Q1YS118AO2BP","pain","2","","75","K","2","","0","0","1","","0.04748945294","false","103","","0.4305794097","main_expt","","0.4079284656","","0.04748945294","","0.2546104349","","","","","",""
"1362","","bandit","179","470064","0.0-141.0-0.0","77182599","wem/bandit_single","A2Q1YS118AO2BP","pain","2","","75","K","2","","0","0","1","","0.06674284653","false","104","","0.4515631957","main_expt","","0.3827156199","","0.06674284653","","0.2657782481","","","","","",""
"828","","bandit","180","472662","0.0-142.0-0.0","77182599","wem/bandit_single","A2Q1YS118AO2BP","pain","2","","76","L","3","","0","0","1","","0.2397797145","false","105","","0.454723383","main_expt","","0.3892206975","","0.0806059128","","0.2397797145","","","","","",""
"1167","","bandit","181","475601","0.0-143.0-0.0","77182599","wem/bandit_single","A2Q1YS118AO2BP","pain","2","","72","H","0","img/none_selected.jpg","0","0","1","","0.4487898282","false","106","","0.4487898282","main_expt","","0.3499671591","","0.1147522423","","0.1744994936","","","","","",""
"752","","bandit","182","478124","0.0-144.0-0.0","77182599","wem/bandit_single","A2Q1YS118AO2BP","pain","2","","74","J","1","","0","0","1","","0.3378870415","false","107","","0.4300484018","main_expt","","0.3378870415","","0.1225979079","","0.2004436591","","","","","",""
"880","","bandit","183","480771","0.0-145.0-0.0","77182599","wem/bandit_single","A2Q1YS118AO2BP","pain","2","","75","K","2","","0","0","1","","0.1808232933","false","108","","0.4056187414","main_expt","","0.3206855754","","0.1808232933","","0.1781349215","","","","","",""
"1091","","bandit","184","483633","0.0-146.0-0.0","77182599","wem/bandit_single","A2Q1YS118AO2BP","pain","2","","74","J","1","","0","0","1","","0.3412252333","false","109","","0.4145536126","main_expt","","0.3412252333","","0.2004688742","","0.1603989886","","","","","",""
"138","","bandit","185","485540","0.0-147.0-0.0","77182599","wem/bandit_single","A2Q1YS118AO2BP","pain","2","","76","L","3","","0","0","1","","0.1300992081","false","110","","0.3897928763","main_expt","","0.3650365033","","0.2261403934","","0.1300992081","","","","","",""
"1138","","bandit","186","488448","0.0-148.0-0.0","77182599","wem/bandit_single","A2Q1YS118AO2BP","pain","2","","72","H","0","img/none_selected.jpg","0","0","1","","0.4150540561","false","111","","0.4150540561","main_expt","","0.341048274","","0.1612973213","","0.1740321776","","","","","",""
"843","","bandit","187","491063","0.0-149.0-0.0","77182599","wem/bandit_single","A2Q1YS118AO2BP","pain","2","","75","K","2","","0","0","1","","0.1655724556","false","112","","0.4394636757","main_expt","","0.3254027875","","0.1655724556","","0.2444477537","","","","","",""
"33","","bandit","188","492866","0.0-150.0-0.0","77182599","wem/bandit_single","A2Q1YS118AO2BP","pain","2","","76","L","3","","0","0","1","","0.2195244909","false","113","","0.4301961846","main_expt","","0.308059901","","0.1319876284","","0.2195244909","","","","","",""
"243","","bandit","189","494879","0.0-151.0-0.0","77182599","wem/bandit_single","A2Q1YS118AO2BP","pain","2","","72","H","0","img/none_selected.jpg","0","1","0","","0.4497687286","false","114","","0.4497687286","main_expt","","0.3238695313","","0.1147934267","","0.2719971232","","","","","",""
"1243","","bandit","190","497893","0.0-152.0-0.0","77182599","wem/bandit_single","A2Q1YS118AO2BP","pain","2","","75","K","2","","0","0","1","","0.1301750396","false","115","","0.4448888627","main_expt","","0.3315084933","","0.1301750396","","0.2447677414","","","","","",""
"317","","bandit","191","499982","0.0-153.0-0.0","77182599","wem/bandit_single","A2Q1YS118AO2BP","pain","2","","74","J","1","","0","0","1","","0.3234657333","false","116","","0.3905844751","main_expt","","0.3234657333","","0.130185029","","0.2296513069","","","","","",""
"401","","bandit","192","502154","0.0-154.0-0.0","77182599","wem/bandit_single","A2Q1YS118AO2BP","pain","2","","76","L","3","","0","0","1","","0.2151266314","false","117","","0.424359093","main_expt","","0.300593156","","0.1548944576","","0.2151266314","","","","","",""
"453","","bandit","193","504378","0.0-155.0-0.0","77182599","wem/bandit_single","A2Q1YS118AO2BP","pain","2","","72","H","0","img/none_selected.jpg","0","0","1","","0.4121010571","false","118","","0.4121010571","main_expt","","0.3585138177","","0.172903741","","0.1311834018","","","","","",""
"242","","bandit","194","506391","0.0-156.0-0.0","77182599","wem/bandit_single","A2Q1YS118AO2BP","pain","2","","76","L","3","","0","0","1","","0.1190099868","false","119","","0.4117558181","main_expt","","0.3062020697","","0.1707570171","","0.1190099868","","","","","",""
"288","","bandit","195","508448","0.0-157.0-0.0","77182599","wem/bandit_single","A2Q1YS118AO2BP","pain","2","","75","K","2","","0","1","0","","0.1870802187","false","120","","0.4275669698","main_expt","","0.3312553157","","0.1870802187","","0.1117686876","","","","","",""
"85","","bandit","196","510304","0.0-158.0-0.0","77182599","wem/bandit_single","A2Q1YS118AO2BP","pain","2","","74","J","1","","0","1","0","","0.3892509988","false","121","","0.4428986123","main_expt","","0.3892509988","","0.1870161021","","0.1415869423","","","","","",""
"748","","bandit","197","512821","0.0-159.0-0.0","77182599","wem/bandit_single","A2Q1YS118AO2BP","pain","2","","74","J","1","","0","1","0","","0.4330036483","false","122","","0.4376246318","main_expt","","0.4330036483","","0.1926804843","","0.1398412585","","","","","",""
"1087","","bandit","198","515678","0.0-160.0-0.0","77182599","wem/bandit_single","A2Q1YS118AO2BP","pain","2","","74","J","1","","0","0","1","","0.4555957022","false","123","","0.4153394585","main_expt","","0.4555957022","","0.2057615037","","0.1163210087","","","","","",""
"534","","bandit","199","517985","0.0-161.0-0.0","77182599","wem/bandit_single","A2Q1YS118AO2BP","pain","2","","76","L","3","","0","0","1","","0.07344578178","false","124","","0.4203389285","main_expt","","0.4565029776","","0.2639565913","","0.07344578178","","","","","",""
"1858","","bandit","200","521614","0.0-162.0-0.0","77182599","wem/bandit_single","A2Q1YS118AO2BP","pain","2","","72","H","0","img/none_selected.jpg","0","0","1","","0.3710029205","false","125","","0.3710029205","main_expt","","0.4511527373","","0.3672341475","","0.08752025541","","","","","",""
"971","","bandit","201","524357","0.0-163.0-0.0","77182599","wem/bandit_single","A2Q1YS118AO2BP","pain","2","","76","L","3","","0","0","1","","0.1064058914","false","126","","0.3465273485","main_expt","","0.4426171603","","0.3606148775","","0.1064058914","","","","","",""
"425","","bandit","202","526552","0.0-164.0-0.0","77182599","wem/bandit_single","A2Q1YS118AO2BP","pain","2","","75","K","2","","0","0","1","","0.4079700646","false","127","","0.4106613481","main_expt","","0.4259104728","","0.4079700646","","0.1103525866","","","","","",""
"905","","bandit","203","529226","0.0-165.0-0.0","77182599","wem/bandit_single","A2Q1YS118AO2BP","pain","2","","76","L","3","","0","0","1","","0.1060480298","false","128","","0.4377707947","main_expt","","0.4543754413","","0.4204919645","","0.1060480298","","","","","",""
"976","","bandit","204","531975","0.0-166.0-0.0","77182599","wem/bandit_single","A2Q1YS118AO2BP","pain","2","","72","H","0","img/none_selected.jpg","0","0","1","","0.4481781661","false","129","","0.4481781661","main_expt","","0.4587533269","","0.4040923387","","0.1332603285","","","","","",""
"420","","bandit","205","534169","0.0-167.0-0.0","77182599","wem/bandit_single","A2Q1YS118AO2BP","pain","2","","74","J","1","","0","0","1","","0.4618517855","false","130","","0.4301237728","main_expt","","0.4618517855","","0.3906791758","","0.09182468565","","","","","",""
"836","","bandit","206","536776","0.0-168.0-0.0","77182599","wem/bandit_single","A2Q1YS118AO2BP","pain","2","","72","H","0","img/none_selected.jpg","0","1","0","","0.4457858875","false","131","","0.4457858875","main_expt","","0.4622878414","","0.380553204","","0.09388333002","","","","","",""
"958","","bandit","207","539504","0.0-169.0-0.0","77182599","wem/bandit_single","A2Q1YS118AO2BP","pain","2","","75","K","2","","0","0","1","","0.4000467043","false","132","","0.4732894157","main_expt","","0.4624711794","","0.4000467043","","0.07277513685","","","","","",""
"62","","bandit","208","541338","0.0-170.0-0.0","77182599","wem/bandit_single","A2Q1YS118AO2BP","pain","2","","74","J","1","","0","0","1","","0.4794526202","false","133","","0.4607838047","main_expt","","0.4794526202","","0.3929100345","","0.1108266248","","","","","",""
"67","","bandit","209","543179","0.0-171.0-0.0","77182599","wem/bandit_single","A2Q1YS118AO2BP","pain","2","","76","L","3","","0","1","0","","0.1466671782","false","134","","0.4663808264","main_expt","","0.481632873","","0.4009617203","","0.1466671782","","","","","",""
"1650","","bandit","210","546602","0.0-172.0-0.0","77182599","wem/bandit_single","A2Q1YS118AO2BP","pain","2","","72","H","0","img/none_selected.jpg","0","1","0","","0.4625615306","false","135","","0.4625615306","main_expt","","0.4667599148","","0.3859426802","","0.1625995743","","","","","",""
"289","","bandit","211","548661","0.0-173.0-0.0","77182599","wem/bandit_single","A2Q1YS118AO2BP","pain","2","","75","K","2","","0","1","0","","0.4089350186","false","136","","0.4629143089","main_expt","","0.4468402508","","0.4089350186","","0.1555673637","","","","","",""
"385","","bandit","212","550817","0.0-174.0-0.0","77182599","wem/bandit_single","A2Q1YS118AO2BP","pain","2","","74","J","1","","0","0","1","","0.4331537256","false","137","","0.4644074349","main_expt","","0.4331537256","","0.4009707033","","0.1395554881","","","","","",""
"724","","bandit","213","553315","0.0-175.0-0.0","77182599","wem/bandit_single","A2Q1YS118AO2BP","pain","2","","76","L","3","","0","0","1","","0.1387442451","false","138","","0.4741213624","main_expt","","0.4578477473","","0.4116224971","","0.1387442451","","","","","",""
"45","","bandit","214","555130","0.0-176.0-0.0","77182599","wem/bandit_single","A2Q1YS118AO2BP","pain","2","","75","K","2","","0","1","0","","0.4129411324","false","139","","0.4736492243","main_expt","","0.464919911","","0.4129411324","","0.1693780048","","","","","",""
"75","","bandit","215","556979","0.0-177.0-0.0","77182599","wem/bandit_single","A2Q1YS118AO2BP","pain","2","","72","H","0","img/none_selected.jpg","0","0","1","","0.4752570035","false","140","","0.4752570035","main_expt","","0.4614371154","","0.4494235083","","0.1753437518","","","","","",""
"501","","bandit","216","559254","0.0-178.0-0.0","77182599","wem/bandit_single","A2Q1YS118AO2BP","pain","2","","75","K","2","","0","1","0","","0.4453484197","false","141","","0.4857055712","main_expt","","0.4747872093","","0.4453484197","","0.2288512635","","","","","",""
"159","","bandit","217","561186","0.0-179.0-0.0","77182599","wem/bandit_single","A2Q1YS118AO2BP","pain","2","","72","H","0","img/none_selected.jpg","0","0","1","","0.4792724089","false","142","","0.4792724089","main_expt","","0.4513335087","","0.4604546146","","0.2579513082","","","","","",""
"468","","bandit","218","563427","0.0-180.0-0.0","77182599","wem/bandit_single","A2Q1YS118AO2BP","pain","2","","74","J","1","","0","1","0","","0.4198830698","false","143","","0.48057755","main_expt","","0.4198830698","","0.4826245684","","0.21432658","","","","","",""
"508","","bandit","219","565706","0.0-181.0-0.0","77182599","wem/bandit_single","A2Q1YS118AO2BP","pain","2","","76","L","3","","0","1","0","","0.1938021535","false","144","","0.4777600445","main_expt","","0.3673231636","","0.4890981767","","0.1938021535","","","","","",""
"530","","bandit","220","568008","0.0-182.0-0.0","77182599","wem/bandit_single","A2Q1YS118AO2BP","pain","2","","74","J","1","","0","1","0","","0.3772368795","false","145","","0.4735071841","main_expt","","0.3772368795","","0.4680822138","","0.206497324","","","","","",""
"418","","bandit","221","570199","0.0-183.0-0.0","77182599","wem/bandit_single","A2Q1YS118AO2BP","pain","2","","74","J","1","","0","0","1","","0.3767069828","false","146","","0.4598241197","main_expt","","0.3767069828","","0.4660155258","","0.1857351915","","","","","",""
"1328","","bandit","222","573299","0.0-184.0-0.0","77182599","wem/bandit_single","A2Q1YS118AO2BP","pain","2","","74","J","1","","0","1","0","","0.4039806626","false","147","","0.4279993213","main_expt","","0.4039806626","","0.4723880167","","0.1046475439","","","","","",""
"1048","","bandit","223","576121","0.0-185.0-0.0","77182599","wem/bandit_single","A2Q1YS118AO2BP","pain","2","","72","H","0","img/none_selected.jpg","0","1","0","","0.4422782314","false","148","","0.4422782314","main_expt","","0.4178396587","","0.4692947112","","0.1098111678","","","","","",""
"177","","bandit","224","578069","0.0-186.0-0.0","77182599","wem/bandit_single","A2Q1YS118AO2BP","pain","2","","75","K","2","","0","1","0","","0.4702562614","false","149","","0.4514785706","main_expt","","0.3932004216","","0.4702562614","","0.1221971929","","","","","",""
"715","","bandit","225","580555","0.0-187.0-0.0","77182599","wem/bandit_single","A2Q1YS118AO2BP","pain","2","","74","J","1","","0","1","0","","0.4103897693","false","150","","0.4189864991","main_expt","","0.4103897693","","0.4714094479","","0.1354034315","","","","","",""
"694","","bandit","226","583021","0.0-188.0-0.0","77182599","wem/bandit_single","A2Q1YS118AO2BP","pain","2","","72","H","0","img/none_selected.jpg","0","0","1","","0.4389233528","false","151","","0.4389233528","main_expt","","0.4122179041","","0.4761401221","","0.1041822367","","","","","",""
"646","","bandit","227","585439","0.0-189.0-0.0","77182599","wem/bandit_single","A2Q1YS118AO2BP","pain","2","","75","K","2","","0","1","0","","0.4697737123","false","152","","0.4244236929","main_expt","","0.3952463752","","0.4697737123","","0.09038071171","","","","","",""
"104","","bandit","228","587318","0.0-190.0-0.0","77182599","wem/bandit_single","A2Q1YS118AO2BP","pain","2","","72","H","0","img/none_selected.jpg","0","0","1","","0.4476471014","false","153","","0.4476471014","main_expt","","0.3877384472","","0.446753433","","0.08460578514","","","","","",""
"720","","bandit","229","589808","0.0-191.0-0.0","77182599","wem/bandit_single","A2Q1YS118AO2BP","pain","2","","75","K","2","","0","1","0","","0.4588815304","false","154","","0.4505336387","main_expt","","0.3551427127","","0.4588815304","","0.06957086972","","","","","",""
"143","","bandit","230","591723","0.0-192.0-0.0","77182599","wem/bandit_single","A2Q1YS118AO2BP","pain","2","","74","J","1","","0","0","1","","0.3027898514","false","155","","0.466992112","main_expt","","0.3027898514","","0.4483664475","","0.07570805595","","","","","",""
"97","","bandit","231","593594","0.0-193.0-0.0","77182599","wem/bandit_single","A2Q1YS118AO2BP","pain","2","","74","J","1","","0","1","0","","0.3245978035","false","156","","0.4383448919","main_expt","","0.3245978035","","0.4383670719","","0.1010055374","","","","","",""
"28","","bandit","232","595394","0.0-194.0-0.0","77182599","wem/bandit_single","A2Q1YS118AO2BP","pain","2","","72","H","0","img/none_selected.jpg","0","0","1","","0.4181306447","false","157","","0.4181306447","main_expt","","0.3293821827","","0.42990192","","0.09959580587","","","","","",""
"179","","bandit","233","597345","0.0-195.0-0.0","77182599","wem/bandit_single","A2Q1YS118AO2BP","pain","2","","75","K","2","","0","0","1","","0.4112902825","false","158","","0.4322591637","main_expt","","0.3053991167","","0.4112902825","","0.09130540219","","","","","",""
"1140","","bandit","234","600258","0.0-196.0-0.0","77182599","wem/bandit_single","A2Q1YS118AO2BP","pain","2","","72","H","0","img/none_selected.jpg","0","1","0","","0.4129829621","false","159","","0.4129829621","main_expt","","0.3475565739","","0.4085113589","","0.07080299429","","","","","",""
"940","","bandit","235","602975","0.0-197.0-0.0","77182599","wem/bandit_single","A2Q1YS118AO2BP","pain","2","","75","K","2","","0","1","0","","0.4079314082","false","160","","0.4094933958","main_expt","","0.327393219","","0.4079314082","","0.05017383151","","","","","",""
"161","","bandit","236","604910","0.0-198.0-0.0","77182599","wem/bandit_single","A2Q1YS118AO2BP","pain","2","","72","H","0","img/none_selected.jpg","0","1","0","","0.404058003","false","161","","0.404058003","main_expt","","0.303429729","","0.3631501835","","0.03820476969","","","","","",""
"436","","bandit","237","607121","0.0-199.0-0.0","77182599","wem/bandit_single","A2Q1YS118AO2BP","pain","2","","75","K","2","","0","0","1","","0.3470346279","false","162","","0.3846726044","main_expt","","0.3079210788","","0.3470346279","","0.02512507724","","","","","",""
"60","","bandit","238","608955","0.0-200.0-0.0","77182599","wem/bandit_single","A2Q1YS118AO2BP","pain","2","","72","H","0","img/none_selected.jpg","0","0","1","","0.4016559577","false","163","","0.4016559577","main_expt","","0.3004483846","","0.372656257","","0.03932379445","","","","","",""
"74","","bandit","239","610801","0.0-201.0-0.0","77182599","wem/bandit_single","A2Q1YS118AO2BP","pain","2","","75","K","2","","0","0","1","","0.3802753243","false","164","","0.3566256613","main_expt","","0.2886014424","","0.3802753243","","0.01829840099","","","","","",""
"899","","bandit","240","613474","0.0-202.0-0.0","77182599","wem/bandit_single","A2Q1YS118AO2BP","pain","2","","76","L","3","","0","1","0","","0.02415252971","false","165","","0.3509524146","main_expt","","0.2088325088","","0.3881672334","","0.02415252971","","","","","",""
"2010","","bandit","241","617257","0.0-203.0-0.0","77182599","wem/bandit_single","A2Q1YS118AO2BP","pain","2","","72","H","0","img/none_selected.jpg","0","1","0","","0.2773632025","false","166","","0.2773632025","main_expt","","0.2160195985","","0.359536632","","0.02185778449","","","","","",""
"1012","","bandit","242","620045","0.0-204.0-0.0","77182599","wem/bandit_single","A2Q1YS118AO2BP","pain","2","","74","J","1","","0","0","1","","0.1836534764","false","167","","0.3022689801","main_expt","","0.1836534764","","0.3693034809","","0.02761124673","","","","","",""
"329","","bandit","243","622146","0.0-205.0-0.0","77182599","wem/bandit_single","A2Q1YS118AO2BP","pain","2","","75","K","2","","0","0","1","","0.3449050916","false","168","","0.2937690027","main_expt","","0.1701024481","","0.3449050916","","0.02160611799","","","","","",""
"422","","bandit","244","624344","0.0-206.0-0.0","77182599","wem/bandit_single","A2Q1YS118AO2BP","pain","2","","75","K","2","","0","1","0","","0.3515710367","false","169","","0.2488586406","main_expt","","0.1896079261","","0.3515710367","","0.02113437328","","","","","",""
"336","","bandit","245","626454","0.0-207.0-0.0","77182599","wem/bandit_single","A2Q1YS118AO2BP","pain","2","","75","K","2","","0","0","1","","0.3233833909","false","170","","0.2112819205","main_expt","","0.2377789273","","0.3233833909","","0.01292956957","","","","","",""
"248","","bandit","246","628477","0.0-208.0-0.0","77182599","wem/bandit_single","A2Q1YS118AO2BP","pain","2","","76","L","3","","0","0","1","","0.01989811998","false","171","","0.2217900108","main_expt","","0.2640247014","","0.2468086364","","0.01989811998","","","","","",""
"459","","bandit","247","630708","0.0-209.0-0.0","77182599","wem/bandit_single","A2Q1YS118AO2BP","pain","2","","74","J","1","","0","1","0","","0.2055846389","false","172","","0.2387596097","main_expt","","0.2055846389","","0.3408906282","","0.0296351857","","","","","",""
"105","","bandit","248","632588","0.0-210.0-0.0","77182599","wem/bandit_single","A2Q1YS118AO2BP","pain","2","","72","H","0","img/none_selected.jpg","0","0","1","","0.2602125502","false","173","","0.2602125502","main_expt","","0.2438181894","","0.3252944763","","0.03540771295","","","","","",""
"94","","bandit","249","634457","0.0-211.0-0.0","77182599","wem/bandit_single","A2Q1YS118AO2BP","pain","2","","75","K","2","","0","1","0","","0.3200904142","false","174","","0.2202846771","main_expt","","0.2733147352","","0.3200904142","","0.03725130304","","","","","",""
"537","","bandit","250","636772","0.0-212.0-0.0","77182599","wem/bandit_single","A2Q1YS118AO2BP","pain","2","","75","K","2","","0","0","1","","0.3622659173","false","175","","0.233285157","main_expt","","0.2767671147","","0.3622659173","","0.03242602151","","","","","",""
"203","","bandit","251","638748","0.0-213.0-0.0","77182599","wem/bandit_single","A2Q1YS118AO2BP","pain","2","","72","H","0","img/none_selected.jpg","0","0","1","","0.2264555061","false","176","","0.2264555061","main_expt","","0.2195478827","","0.2937007374","","0.04697917163","","","","","",""
"169","","bandit","252","640692","0.0-214.0-0.0","77182599","wem/bandit_single","A2Q1YS118AO2BP","pain","2","","75","K","2","","0","0","1","","0.2513366018","false","177","","0.241841845","main_expt","","0.1515864758","","0.2513366018","","0.04124559051","","","","","",""
"67","","bandit","253","642535","0.0-215.0-0.0","77182599","wem/bandit_single","A2Q1YS118AO2BP","pain","2","","76","L","3","","0","0","1","","0.06205026603","false","178","","0.2423953475","main_expt","","0.1618037694","","0.3159509921","","0.06205026603","","","","","",""
"410","","bandit","254","644722","0.0-216.0-0.0","77182599","wem/bandit_single","A2Q1YS118AO2BP","pain","2","","75","K","2","","0","0","1","","0.2899582247","false","179","","0.2523089652","main_expt","","0.1653326191","","0.2899582247","","0.08412795639","","","","","",""
"152","","bandit","255","646648","0.0-217.0-0.0","77182599","wem/bandit_single","A2Q1YS118AO2BP","pain","2","","74","J","1","","0","0","1","","0.1751853148","false","180","","0.2223981335","main_expt","","0.1751853148","","0.3371390753","","0.1304099397","","","","","",""
"0","","bandit","256","648424","0.0-218.0-0.0","77182599","wem/bandit_single","A2Q1YS118AO2BP","pain","2","","75","K","2","","0","0","1","","0.3365963609","false","181","","0.2319473409","main_expt","","0.211978586","","0.3365963609","","0.1801801058","","","","","",""
"1009","","bandit","257","651207","0.0-219.0-0.0","77182599","wem/bandit_single","A2Q1YS118AO2BP","pain","2","","75","K","2","","0","0","1","","0.2643366398","false","182","","0.2338578761","main_expt","","0.2323199139","","0.2643366398","","0.1951504204","","","","","",""
"742","","bandit","258","653725","0.0-220.0-0.0","77182599","wem/bandit_single","A2Q1YS118AO2BP","pain","2","","74","J","1","","0","1","0","","0.2252803731","false","183","","0.265472663","main_expt","","0.2252803731","","0.2464000872","","0.2330781564","","","","","",""
"329","","bandit","259","655828","0.0-221.0-0.0","77182599","wem/bandit_single","A2Q1YS118AO2BP","pain","2","","75","K","2","","0","1","0","","0.3039071009","false","184","","0.2826161147","main_expt","","0.1614269484","","0.3039071009","","0.2711395555","","","","","",""
"604","","bandit","260","658208","0.0-222.0-0.0","77182599","wem/bandit_single","A2Q1YS118AO2BP","pain","2","","75","K","2","","0","1","0","","0.3100879913","false","185","","0.2542525597","main_expt","","0.1636939604","","0.3100879913","","0.2182249031","","","","","",""
"250","","bandit","261","660232","0.0-223.0-0.0","77182599","wem/bandit_single","A2Q1YS118AO2BP","pain","2","","75","K","2","","0","0","1","","0.28505789","false","186","","0.260460085","main_expt","","0.1744134641","","0.28505789","","0.2609412602","","","","","",""
"601","","bandit","262","662613","0.0-224.0-0.0","77182599","wem/bandit_single","A2Q1YS118AO2BP","pain","2","","75","K","2","","0","1","0","","0.2698122055","false","187","","0.2119714508","main_expt","","0.1955069844","","0.2698122055","","0.2242136054","","","","","",""
"754","","bandit","263","665142","0.0-225.0-0.0","77182599","wem/bandit_single","A2Q1YS118AO2BP","pain","2","","75","K","2","","0","1","0","","0.2270240414","false","188","","0.1887053186","main_expt","","0.2289740151","","0.2270240414","","0.2404864381","","","","","",""
"1121","","bandit","264","668041","0.0-226.0-0.0","77182599","wem/bandit_single","A2Q1YS118AO2BP","pain","2","","72","H","0","img/none_selected.jpg","0","1","0","","0.1944753942","false","189","","0.1944753942","main_expt","","0.2495887903","","0.2182158859","","0.2177927796","","","","","",""
"429","","bandit","265","670245","0.0-227.0-0.0","77182599","wem/bandit_single","A2Q1YS118AO2BP","pain","2","","76","L","3","","0","0","1","","0.2445379922","false","190","","0.2163673671","main_expt","","0.2815424982","","0.2445882628","","0.2445379922","","","","","",""
"96","","bandit","266","672118","0.0-228.0-0.0","77182599","wem/bandit_single","A2Q1YS118AO2BP","pain","2","","76","L","3","","0","0","1","","0.2910265903","false","191","","0.2584180811","main_expt","","0.2401402076","","0.2733302752","","0.2910265903","","","","","",""
"47","","bandit","267","673939","0.0-229.0-0.0","77182599","wem/bandit_single","A2Q1YS118AO2BP","pain","2","","76","L","3","","0","0","1","","0.3095983682","false","192","","0.2555063139","main_expt","","0.2510809658","","0.2776932955","","0.3095983682","","","","","",""
"627","","bandit","268","676344","0.0-230.0-0.0","77182599","wem/bandit_single","A2Q1YS118AO2BP","pain","2","","72","H","0","img/none_selected.jpg","0","1","0","","0.2694863875","false","193","","0.2694863875","main_expt","","0.2875405407","","0.3335190616","","0.3217156539","","","","","",""
"414","","bandit","269","678533","0.0-231.0-0.0","77182599","wem/bandit_single","A2Q1YS118AO2BP","pain","2","","74","J","1","","0","0","1","","0.2183543786","false","194","","0.2894821148","main_expt","","0.2183543786","","0.3308991278","","0.278878796","","","","","",""
"89","","bandit","270","680397","0.0-232.0-0.0","77182599","wem/bandit_single","A2Q1YS118AO2BP","pain","2","","75","K","2","","0","0","1","","0.3676749275","false","195","","0.3028339589","main_expt","","0.2626349305","","0.3676749275","","0.2738334973","","","","","",""
"1107","","bandit","271","683281","0.0-233.0-0.0","77182599","wem/bandit_single","A2Q1YS118AO2BP","pain","2","","76","L","3","","0","0","1","","0.2494818112","false","196","","0.3051171059","main_expt","","0.2046446137","","0.3523241719","","0.2494818112","","","","","",""
"1070","","bandit","272","686128","0.0-234.0-0.0","77182599","wem/bandit_single","A2Q1YS118AO2BP","pain","2","","72","H","0","img/none_selected.jpg","0","0","1","","0.2901305303","false","197","","0.2901305303","main_expt","","0.2122082762","","0.3874168703","","0.2620473779","","","","","",""
"64","","bandit","273","687968","0.0-235.0-0.0","77182599","wem/bandit_single","A2Q1YS118AO2BP","pain","2","","74","J","1","","0","0","1","","0.1962120249","false","198","","0.2403600488","main_expt","","0.1962120249","","0.4072223947","","0.3153682745","","","","","",""
"61","","bandit","274","689804","0.0-236.0-0.0","77182599","wem/bandit_single","A2Q1YS118AO2BP","pain","2","","74","J","1","","0","1","0","","0.1840541487","false","199","","0.2034733728","main_expt","","0.1840541487","","0.4284861426","","0.2424407548","","","","","",""
"764","","bandit","275","692342","0.0-237.0-0.0","77182599","wem/bandit_single","A2Q1YS118AO2BP","pain","2","","75","K","2","","0","0","1","","0.4181746593","false","200","","0.2193557146","main_expt","","0.1575563837","","0.4181746593","","0.2692586032","","","","","",""
"441","","bandit","276","694563","0.0-238.0-0.0","77182599","wem/bandit_single","A2Q1YS118AO2BP","pain","2","","76","L","3","","0","0","1","","0.2605377594","false","201","","0.2412650678","main_expt","","0.138860739","","0.4134190678","","0.2605377594","","","","","",""
"885","","bandit","277","697225","0.0-239.0-0.0","77182599","wem/bandit_single","A2Q1YS118AO2BP","pain","2","","72","H","0","img/none_selected.jpg","0","0","1","","0.2106041824","false","202","","0.2106041824","main_expt","","0.1216759056","","0.4255663607","","0.2372211354","","","","","",""
"1775","","bandit","278","700776","0.0-240.0-0.0","77182599","wem/bandit_single","A2Q1YS118AO2BP","pain","2","","74","J","1","","0","0","1","","0.1085797693","false","203","","0.2182463191","main_expt","","0.1085797693","","0.4267176133","","0.20896917","","","","","",""
"2334","","bandit","279","704886","0.0-241.0-0.0","77182599","wem/bandit_single","A2Q1YS118AO2BP","pain","2","","72","H","0","img/none_selected.jpg","0","1","0","","0.2060997213","false","204","","0.2060997213","main_expt","","0.08750272662","","0.460819217","","0.2277156902","","","","","",""
"329","","bandit","280","706991","0.0-242.0-0.0","77182599","wem/bandit_single","A2Q1YS118AO2BP","pain","2","","74","J","1","","0","0","1","","0.1119911725","false","205","","0.2179237498","main_expt","","0.1119911725","","0.4797370756","","0.2096017385","","","","","",""
"1005","","bandit","281","709772","0.0-243.0-0.0","77182599","wem/bandit_single","A2Q1YS118AO2BP","pain","2","","72","H","0","img/none_selected.jpg","0","0","1","","0.194566176","false","206","","0.194566176","main_expt","","0.105166696","","0.4850202511","","0.2293009918","","","","","",""
"475","","bandit","282","712024","0.0-244.0-0.0","77182599","wem/bandit_single","A2Q1YS118AO2BP","pain","2","","75","K","2","","0","0","1","","0.4588339162","false","207","","0.2540459421","main_expt","","0.07428909222","","0.4588339162","","0.2613461541","","","","","",""
"506","","bandit","283","714304","0.0-245.0-0.0","77182599","wem/bandit_single","A2Q1YS118AO2BP","pain","2","","72","H","0","img/none_selected.jpg","0","0","1","","0.2165425212","false","208","","0.2165425212","main_expt","","0.08415887516","","0.4704498371","","0.2921374763","","","","","",""
"1110","","bandit","284","717191","0.0-246.0-0.0","77182599","wem/bandit_single","A2Q1YS118AO2BP","pain","2","","75","K","2","","0","0","1","","0.4498430745","false","209","","0.1808740619","main_expt","","0.05558253146","","0.4498430745","","0.2679345114","","","","","",""
"1100","","bandit","285","720067","0.0-247.0-0.0","77182599","wem/bandit_single","A2Q1YS118AO2BP","pain","2","","72","H","0","img/none_selected.jpg","0","0","1","","0.2298827717","false","210","","0.2298827717","main_expt","","0.04914985493","","0.4463117693","","0.2356021564","","","","","",""
"251","","bandit","286","722094","0.0-248.0-0.0","77182599","wem/bandit_single","A2Q1YS118AO2BP","pain","2","","75","K","2","","0","1","0","","0.422163821","false","211","","0.2533880575","main_expt","","0.03798033643","","0.422163821","","0.2152320876","","","","","",""
"721","","bandit","287","724590","0.0-249.0-0.0","77182599","wem/bandit_single","A2Q1YS118AO2BP","pain","2","","72","H","0","img/none_selected.jpg","0","0","1","","0.2771241442","false","212","","0.2771241442","main_expt","","0.03974322714","","0.3852039581","","0.2216595069","","","","","",""
"1788","","bandit","288","728155","0.0-250.0-0.0","77182599","wem/bandit_single","A2Q1YS118AO2BP","pain","2","","72","H","0","img/none_selected.jpg","0","0","1","","0.3010302337","false","213","","0.3010302337","main_expt","","0.02384455773","","0.3822954745","","0.2150176613","","","","","",""
"354","","bandit","289","730285","0.0-251.0-0.0","77182599","wem/bandit_single","A2Q1YS118AO2BP","pain","2","","74","J","1","","0","0","1","","0.03216660231","false","214","","0.3409008015","main_expt","","0.03216660231","","0.3608549874","","0.1772129937","","","","","",""
"346","","bandit","290","732410","0.0-252.0-0.0","77182599","wem/bandit_single","A2Q1YS118AO2BP","pain","2","","74","J","1","","0","0","1","","0.03095464101","false","215","","0.3227810677","main_expt","","0.03095464101","","0.3621739951","","0.1584975441","","","","","",""
"1163","","bandit","291","735353","0.0-253.0-0.0","77182599","wem/bandit_single","A2Q1YS118AO2BP","pain","2","","75","K","2","","0","1","0","","0.3733564142","false","216","","0.3636386285","main_expt","","0.04011500866","","0.3733564142","","0.1256434713","","","","","",""
"2013","","bandit","292","739135","0.0-254.0-0.0","77182599","wem/bandit_single","A2Q1YS118AO2BP","pain","2","","76","L","3","","0","0","1","","0.1601534085","false","217","","0.3649758886","main_expt","","0.02351309264","","0.3856473275","","0.1601534085","","","","","",""
"345","","bandit","293","741257","0.0-255.0-0.0","77182599","wem/bandit_single","A2Q1YS118AO2BP","pain","2","","74","J","1","","0","0","1","","0.01650540734","false","218","","0.3641131336","main_expt","","0.01650540734","","0.3645608201","","0.1514518834","","","","","",""
"2274","","bandit","294","745311","0.0-256.0-0.0","77182599","wem/bandit_single","A2Q1YS118AO2BP","pain","2","","74","J","1","","0","0","1","","0.03577324375","false","219","","0.341156599","main_expt","","0.03577324375","","0.3851453746","","0.2415223947","","","","","",""
"589","","bandit","295","747679","0.0-257.0-0.0","77182599","wem/bandit_single","A2Q1YS118AO2BP","pain","2","","74","J","1","","0","0","1","","0.03655385126","false","220","","0.266049218","main_expt","","0.03655385126","","0.4075423229","","0.2248182851","","","","","",""
"707","","bandit","296","750166","0.0-258.0-0.0","77182599","wem/bandit_single","A2Q1YS118AO2BP","pain","2","","74","J","1","","0","0","1","","0.03282050992","false","221","","0.2359154628","main_expt","","0.03282050992","","0.4083347012","","0.2588925836","","","","","",""
"1176","","bandit","297","753120","0.0-259.0-0.0","77182599","wem/bandit_single","A2Q1YS118AO2BP","pain","2","","76","L","3","","0","0","1","","0.2025188389","false","222","","0.2640726019","main_expt","","0.02558717114","","0.4083223781","","0.2025188389","","","","","",""
"772","","bandit","298","755671","0.0-260.0-0.0","77182599","wem/bandit_single","A2Q1YS118AO2BP","pain","2","","72","H","0","img/none_selected.jpg","0","0","1","","0.1860418506","false","223","","0.1860418506","main_expt","","0.04788205671","","0.4240474742","","0.1609755914","","","","","",""
"843","","bandit","299","758292","0.0-261.0-0.0","77182599","wem/bandit_single","A2Q1YS118AO2BP","pain","2","","75","K","2","","0","0","1","","0.4346876605","false","224","","0.151875944","main_expt","","0.05498715651","","0.4346876605","","0.2316748255","","","","","",""
"828","","bandit","300","760897","0.0-262.0-0.0","77182599","wem/bandit_single","A2Q1YS118AO2BP","pain","2","","72","H","0","img/none_selected.jpg","0","0","1","","0.1209973656","false","225","","0.1209973656","main_expt","","0.056476577","","0.4541072866","","0.1605893144","","","","","",""
"100","","bandit","301","762774","0.0-263.0-0.0","77182599","wem/bandit_single","A2Q1YS118AO2BP","pain","2","","72","H","0","img/none_selected.jpg","0","0","1","","0.1503457952","false","226","","0.1503457952","main_expt","","0.06361054401","","0.4239515892","","0.1389366963","","","","","",""
"130","","bandit","302","764684","0.0-264.0-0.0","77182599","wem/bandit_single","A2Q1YS118AO2BP","pain","2","","75","K","2","","0","0","1","","0.4122914309","false","227","","0.1784166707","main_expt","","0.03819722012","","0.4122914309","","0.09987042713","","","","","",""
"256","","bandit","303","766717","0.0-265.0-0.0","77182599","wem/bandit_single","A2Q1YS118AO2BP","pain","2","","75","K","2","","0","0","1","","0.4022765074","false","228","","0.1729157366","main_expt","","0.03706892342","","0.4022765074","","0.1511988136","","","","","",""
"287","","bandit","304","768781","0.0-266.0-0.0","77182599","wem/bandit_single","A2Q1YS118AO2BP","pain","2","","72","H","0","img/none_selected.jpg","0","0","1","","0.2035050609","false","229","","0.2035050609","main_expt","","0.05619366589","","0.3991813765","","0.1165125066","","","","","",""
"578","","bandit","305","771138","0.0-267.0-0.0","77182599","wem/bandit_single","A2Q1YS118AO2BP","pain","2","","75","K","2","","0","0","1","","0.3771825363","false","230","","0.1677195288","main_expt","","0.02398835026","","0.3771825363","","0.09058018373","","","","","",""
"851","","bandit","306","773766","0.0-268.0-0.0","77182599","wem/bandit_single","A2Q1YS118AO2BP","pain","2","","72","H","0","img/none_selected.jpg","0","0","1","","0.1568417205","false","231","","0.1568417205","main_expt","","0.01087418165","","0.4081115595","","0.1254599363","","","","","",""
"1347","","bandit","307","776893","0.0-269.0-0.0","77182599","wem/bandit_single","A2Q1YS118AO2BP","pain","2","","72","H","0","img/none_selected.jpg","0","0","1","","0.1733774055","false","232","","0.1733774055","main_expt","","0.005667282796","","0.4227202023","","0.09699218641","","","","","",""
"146","","bandit","308","778818","0.0-270.0-0.0","77182599","wem/bandit_single","A2Q1YS118AO2BP","pain","2","","75","K","2","","0","0","1","","0.4267606383","false","233","","0.2318808439","main_expt","","0.00711790457","","0.4267606383","","0.07122003092","","","","","",""
"210","","bandit","309","780807","0.0-271.0-0.0","77182599","wem/bandit_single","A2Q1YS118AO2BP","pain","2","","74","J","1","","0","0","1","","0.01087448681","false","234","","0.2728484722","main_expt","","0.01087448681","","0.4076790224","","0.07078025717","","","","","",""
"818","","bandit","310","783405","0.0-272.0-0.0","77182599","wem/bandit_single","A2Q1YS118AO2BP","pain","2","","75","K","2","","0","0","1","","0.3750136452","false","235","","0.230842538","main_expt","","0.008183852991","","0.3750136452","","0.04546889639","","","","","",""
"195","","bandit","311","785380","0.0-273.0-0.0","77182599","wem/bandit_single","A2Q1YS118AO2BP","pain","2","","74","J","1","","0","0","1","","0.00957014591","false","236","","0.2565969246","main_expt","","0.00957014591","","0.3579900966","","0.07949547843","","","","","",""
"379","","bandit","312","787540","0.0-274.0-0.0","77182599","wem/bandit_single","A2Q1YS118AO2BP","pain","2","","72","H","0","img/none_selected.jpg","0","0","1","","0.2661079812","false","237","","0.2661079812","main_expt","","0.02345003211","","0.3685919787","","0.06498208703","","","","","",""
"245","","bandit","313","789563","0.0-275.0-0.0","77182599","wem/bandit_single","A2Q1YS118AO2BP","pain","2","","75","K","2","","0","0","1","","0.3220789964","false","238","","0.3192940022","main_expt","","0.02056264696","","0.3220789964","","0.07283675032","","","","","",""
"74","","bandit","314","791417","0.0-276.0-0.0","77182599","wem/bandit_single","A2Q1YS118AO2BP","pain","2","","74","J","1","","0","0","1","","0.02436326326","false","239","","0.3150738333","main_expt","","0.02436326326","","0.3059519391","","0.08723568047","","","","","",""
"372","","bandit","315","793568","0.0-277.0-0.0","77182599","wem/bandit_single","A2Q1YS118AO2BP","pain","2","","76","L","3","","0","0","1","","0.06404566497","false","240","","0.3008600842","main_expt","","0.0242835944","","0.3168560559","","0.06404566497","","","","","",""
"311","","bandit","316","795659","0.0-278.0-0.0","77182599","wem/bandit_single","A2Q1YS118AO2BP","pain","2","","74","J","1","","0","0","1","","0.02652021178","false","241","","0.2677087501","main_expt","","0.02652021178","","0.269391424","","0.05187051438","","","","","",""
"110","","bandit","317","797546","0.0-279.0-0.0","77182599","wem/bandit_single","A2Q1YS118AO2BP","pain","2","","75","K","2","","0","0","1","","0.2061132751","false","242","","0.2645585527","main_expt","","0.0264543433","","0.2061132751","","0.04056120823","","","","","",""
"401","","bandit","318","799734","0.0-280.0-0.0","77182599","wem/bandit_single","A2Q1YS118AO2BP","pain","2","","72","H","0","img/none_selected.jpg","0","0","1","","0.2793098336","false","243","","0.2793098336","main_expt","","0.02176476481","","0.1996760118","","0.02806248696","","","","","",""
"872","","bandit","319","802386","0.0-281.0-0.0","77182599","wem/bandit_single","A2Q1YS118AO2BP","pain","2","","74","J","1","","0","0","1","","0.01301534777","false","244","","0.285685864","main_expt","","0.01301534777","","0.1719334629","","0.04063524207","","","","","",""
"445","","bandit","320","804608","0.0-282.0-0.0","77182599","wem/bandit_single","A2Q1YS118AO2BP","pain","2","","76","L","3","","0","0","1","","0.03258124644","false","245","","0.2792363563","main_expt","","0.02332936253","","0.2264626889","","0.03258124644","","","","","",""
"197","","bandit","321","806581","0.0-283.0-0.0","77182599","wem/bandit_single","A2Q1YS118AO2BP","pain","2","","74","J","1","","0","0","1","","0.02379131239","false","246","","0.2721020884","main_expt","","0.02379131239","","0.2097999869","","0.034431304","","","","","",""
"120","","bandit","322","808479","0.0-284.0-0.0","77182599","wem/bandit_single","A2Q1YS118AO2BP","pain","2","","72","H","0","img/none_selected.jpg","0","1","0","","0.2784836582","false","247","","0.2784836582","main_expt","","0.02988301985","","0.2190078117","","0.0335896152","","","","","",""
"147","","bandit","323","810407","0.0-285.0-0.0","77182599","wem/bandit_single","A2Q1YS118AO2BP","pain","2","","75","K","2","","0","1","0","","0.214739415","false","248","","0.2155360038","main_expt","","0.04121629219","","0.214739415","","0.0373608022","","","","","",""
"13","","bandit","324","812201","0.0-286.0-0.0","77182599","wem/bandit_single","A2Q1YS118AO2BP","pain","2","","76","L","3","","0","1","0","","0.04629433077","false","249","","0.2182269439","main_expt","","0.03081548873","","0.2361668487","","0.04629433077","","","","","",""
"849","","bandit","325","814829","0.0-287.0-0.0","77182599","wem/bandit_single","A2Q1YS118AO2BP","pain","2","","74","J","1","","0","0","1","","0.02831669856","false","250","","0.2794373206","main_expt","","0.02831669856","","0.2730147117","","0.04794370872","","","","","",""
"71","","bandit","326","816680","0.0-288.0-0.0","77182599","wem/bandit_single","A2Q1YS118AO2BP","pain","2","","75","K","2","","0","0","1","","0.2591269664","false","251","","0.2925698281","main_expt","","0.02600870455","","0.2591269664","","0.06568157066","","","","","",""
"51","","bandit","327","818513","0.0-289.0-0.0","77182599","wem/bandit_single","A2Q1YS118AO2BP","pain","2","","72","H","0","img/none_selected.jpg","0","0","1","","0.2727886948","false","252","","0.2727886948","main_expt","","0.02705961599","","0.3091321407","","0.07567030371","","","","","",""
"926","","bandit","328","821219","0.0-290.0-0.0","77182599","wem/bandit_single","A2Q1YS118AO2BP","pain","2","","72","H","0","img/none_selected.jpg","0","0","1","","0.2470803404","false","253","","0.2470803404","main_expt","","0.01805963102","","0.2284010385","","0.06628052114","","","","","",""
"1307","","bandit","329","824309","0.0-291.0-0.0","77182599","wem/bandit_single","A2Q1YS118AO2BP","pain","2","","75","K","2","","0","1","0","","0.2452739286","false","254","","0.3366881304","main_expt","","0.01631706542","","0.2452739286","","0.08321976201","","","","","",""
"805","","bandit","330","826895","0.0-292.0-0.0","77182599","wem/bandit_single","A2Q1YS118AO2BP","pain","2","","72","H","0","img/none_selected.jpg","0","0","1","","0.3781216995","false","255","","0.3781216995","main_expt","","0.01966147099","","0.2769296881","","0.1379446817","","","","","",""
"605","","bandit","331","829281","0.0-293.0-0.0","77182599","wem/bandit_single","A2Q1YS118AO2BP","pain","2","","76","L","3","","0","0","1","","0.1104053019","false","256","","0.3565974786","main_expt","","0.02801527349","","0.222598086","","0.1104053019","","","","","",""
"596","","bandit","332","831659","0.0-294.0-0.0","77182599","wem/bandit_single","A2Q1YS118AO2BP","pain","2","","74","J","1","","0","0","1","","0.02393064904","false","257","","0.3668333327","main_expt","","0.02393064904","","0.2497605863","","0.110095483","","","","","",""
"674","","bandit","333","834114","0.0-295.0-0.0","77182599","wem/bandit_single","A2Q1YS118AO2BP","pain","2","","75","K","2","","0","0","1","","0.248028097","false","258","","0.3978392262","main_expt","","0.01715644076","","0.248028097","","0.09250214804","","","","","",""
"76","","bandit","334","835973","0.0-296.0-0.0","77182599","wem/bandit_single","A2Q1YS118AO2BP","pain","2","","74","J","1","","0","0","1","","0.01812234738","false","259","","0.3892622443","main_expt","","0.01812234738","","0.210079309","","0.1288972452","","","","","",""
"37","","bandit","335","837794","0.0-297.0-0.0","77182599","wem/bandit_single","A2Q1YS118AO2BP","pain","2","","72","H","0","img/none_selected.jpg","0","1","0","","0.3787635018","false","260","","0.3787635018","main_expt","","0.01699252537","","0.1785868889","","0.127844668","","","","","",""
"345","","bandit","336","839919","0.0-298.0-0.0","77182599","wem/bandit_single","A2Q1YS118AO2BP","pain","2","","74","J","1","","0","0","1","","0.02027773674","false","261","","0.4151771386","main_expt","","0.02027773674","","0.1855690742","","0.1408125104","","","","","",""
"867","","bandit","337","842564","0.0-299.0-0.0","77182599","wem/bandit_single","A2Q1YS118AO2BP","pain","2","","74","J","1","","0","0","1","","0.008159173947","false","262","","0.4184001904","main_expt","","0.008159173947","","0.2454672077","","0.1423762304","","","","","",""
"133","","bandit","338","844479","0.0-300.0-0.0","77182599","wem/bandit_single","A2Q1YS118AO2BP","pain","2","","75","K","2","","0","0","1","","0.2423041147","false","263","","0.4397427278","main_expt","","0.00730364875","","0.2423041147","","0.1237094287","","","","","",""
"506","","bandit","339","846762","0.0-301.0-0.0","77182599","wem/bandit_single","A2Q1YS118AO2BP","pain","2","","74","J","1","","0","0","1","","0.008891010149","false","264","","0.4308816061","main_expt","","0.008891010149","","0.2771483686","","0.1110826985","","","","","",""
"1018","","bandit","340","849561","0.0-302.0-0.0","77182599","wem/bandit_single","A2Q1YS118AO2BP","pain","2","","72","H","0","img/none_selected.jpg","0","1","0","","0.4310956018","false","265","","0.4310956018","main_expt","","0.009434589262","","0.2066329382","","0.09816719149","","","","","",""
"917","","bandit","341","852251","0.0-303.0-0.0","77182599","wem/bandit_single","A2Q1YS118AO2BP","pain","2","","72","H","0","img/none_selected.jpg","0","1","0","","0.4462346174","false","266","","0.4462346174","main_expt","","0.009503255165","","0.1954640054","","0.1313615454","","","","","",""
"658","","bandit","342","854685","0.0-304.0-0.0","77182599","wem/bandit_single","A2Q1YS118AO2BP","pain","2","","76","L","3","","0","0","1","","0.1039649444","false","267","","0.4649068607","main_expt","","0.01294763698","","0.132533774","","0.1039649444","","","","","",""
"111","","bandit","343","856577","0.0-305.0-0.0","77182599","wem/bandit_single","A2Q1YS118AO2BP","pain","2","","74","J","1","","0","0","1","","0.01002763249","false","268","","0.4499385749","main_expt","","0.01002763249","","0.1212355483","","0.0758663636","","","","","",""
"226","","bandit","344","858587","0.0-306.0-0.0","77182599","wem/bandit_single","A2Q1YS118AO2BP","pain","2","","72","H","0","img/none_selected.jpg","0","0","1","","0.4702815535","false","269","","0.4702815535","main_expt","","0.009339874814","","0.1363236216","","0.08641939852","","","","","",""
"134","","bandit","345","860502","0.0-307.0-0.0","77182599","wem/bandit_single","A2Q1YS118AO2BP","pain","2","","75","K","2","","0","0","1","","0.1061923246","false","270","","0.4738293899","main_expt","","0.0101894737","","0.1061923246","","0.08694739741","","","","","",""
"247","","bandit","346","862531","0.0-308.0-0.0","77182599","wem/bandit_single","A2Q1YS118AO2BP","pain","2","","74","J","1","","0","0","1","","0.0101062795","false","271","","0.4552130477","main_expt","","0.0101062795","","0.09682021381","","0.07507278363","","","","","",""
"952","","bandit","347","865265","0.0-309.0-0.0","77182599","wem/bandit_single","A2Q1YS118AO2BP","pain","2","","72","H","0","img/none_selected.jpg","0","0","1","","0.4571227508","false","272","","0.4571227508","main_expt","","0.009276773287","","0.0728164368","","0.09002305832","","","","","",""
"543","","bandit","348","867589","0.0-310.0-0.0","77182599","wem/bandit_single","A2Q1YS118AO2BP","pain","2","","72","H","0","img/none_selected.jpg","0","1","0","","0.4262778794","false","273","","0.4262778794","main_expt","","0.0113492324","","0.1026255411","","0.07941117108","","","","","",""
"569","","bandit","349","869924","0.0-311.0-0.0","77182599","wem/bandit_single","A2Q1YS118AO2BP","pain","2","","75","K","2","","0","0","1","","0.08683802548","false","274","","0.4017895895","main_expt","","0.005483919941","","0.08683802548","","0.09301171309","","","","","",""
"408","","bandit","350","872111","0.0-312.0-0.0","77182599","wem/bandit_single","A2Q1YS118AO2BP","pain","2","","72","H","0","img/none_selected.jpg","0","0","1","","0.4017548056","false","275","","0.4017548056","main_expt","","0.00462874381","","0.08250982893","","0.1012072593","","","","","",""
"696","","bandit","351","874589","0.0-313.0-0.0","77182599","wem/bandit_single","A2Q1YS118AO2BP","pain","2","","76","L","3","","0","0","1","","0.1230964009","false","276","","0.4072561249","main_expt","","0.009610611089","","0.06031930624","","0.1230964009","","","","","",""
"724","","bandit","352","877096","0.0-314.0-0.0","77182599","wem/bandit_single","A2Q1YS118AO2BP","pain","2","","74","J","1","","0","0","1","","0.01319252808","false","277","","0.3248287115","main_expt","","0.01319252808","","0.07169075363","","0.1320105939","","","","","",""
"620","","bandit","353","879497","0.0-315.0-0.0","77182599","wem/bandit_single","A2Q1YS118AO2BP","pain","2","","75","K","2","","0","0","1","","0.119525529","false","278","","0.2954662343","main_expt","","0.008560453299","","0.119525529","","0.100271112","","","","","",""
"113","","bandit","354","881391","0.0-316.0-0.0","77182599","wem/bandit_single","A2Q1YS118AO2BP","pain","2","","72","H","0","img/none_selected.jpg","0","0","1","","0.3430788315","false","279","","0.3430788315","main_expt","","0.02270234009","","0.05136608794","","0.0752783975","","","","","",""
"580","","bandit","355","883752","0.0-317.0-0.0","77182599","wem/bandit_single","A2Q1YS118AO2BP","pain","2","","76","L","3","","0","1","0","","0.04609407158","false","280","","0.298888987","main_expt","","0.01842994591","","0.06692305053","","0.04609407158","","","","","",""
"907","","bandit","356","886441","0.0-318.0-0.0","77182599","wem/bandit_single","A2Q1YS118AO2BP","pain","2","","74","J","1","","0","0","1","","0.01750385803","false","281","","0.317374049","main_expt","","0.01750385803","","0.08594942048","","0.05874754036","","","","","",""
"1021","","bandit","357","889245","0.0-319.0-0.0","77182599","wem/bandit_single","A2Q1YS118AO2BP","pain","2","","72","H","0","img/none_selected.jpg","0","0","1","","0.2905756231","false","282","","0.2905756231","main_expt","","0.01075771148","","0.08562343316","","0.05911354127","","","","","",""
"218","","bandit","358","891243","0.0-320.0-0.0","77182599","wem/bandit_single","A2Q1YS118AO2BP","pain","2","","75","K","2","","0","0","1","","0.06507866554","false","283","","0.335540713","main_expt","","0.009487342711","","0.06507866554","","0.0444902615","","","","","",""
"849","","bandit","359","893874","0.0-321.0-0.0","77182599","wem/bandit_single","A2Q1YS118AO2BP","pain","2","","75","K","2","","0","0","1","","0.05738126215","false","284","","0.3569674754","main_expt","","0.01035814212","","0.05738126215","","0.03666520406","","","","","",""
"1070","","bandit","360","896727","0.0-322.0-0.0","77182599","wem/bandit_single","A2Q1YS118AO2BP","pain","2","","74","J","1","","0","0","1","","0.01056818013","false","285","","0.4068019922","main_expt","","0.01056818013","","0.06337296056","","0.02451873239","","","","","",""
"445","","bandit","361","898955","0.0-323.0-0.0","77182599","wem/bandit_single","A2Q1YS118AO2BP","pain","2","","74","J","1","","0","0","1","","0.007821227136","false","286","","0.432978486","main_expt","","0.007821227136","","0.04649068967","","0.02877547985","","","","","",""
"131","","bandit","362","900871","0.0-324.0-0.0","77182599","wem/bandit_single","A2Q1YS118AO2BP","pain","2","","76","L","3","","0","0","1","","0.03331393821","false","287","","0.4213006965","main_expt","","0.01039042452","","0.04946639224","","0.03331393821","","","","","",""
"164","","bandit","363","902817","0.0-325.0-0.0","77182599","wem/bandit_single","A2Q1YS118AO2BP","pain","2","","74","J","1","","0","0","1","","0.02141961277","false","288","","0.4094413186","main_expt","","0.02141961277","","0.03962947871","","0.02363643209","","","","","",""
"794","","bandit","364","905391","0.0-326.0-0.0","77182599","wem/bandit_single","A2Q1YS118AO2BP","pain","2","","76","L","3","","0","0","1","","0.0366455232","false","289","","0.3731302572","main_expt","","0.02062414181","","0.05295486238","","0.0366455232","","","","","",""
"684","","bandit","365","907862","0.0-327.0-0.0","77182599","wem/bandit_single","A2Q1YS118AO2BP","pain","2","","74","J","1","","0","0","1","","0.01411690602","false","290","","0.4076032329","main_expt","","0.01411690602","","0.06311332932","","0.04887184979","","","","","",""
"554","","bandit","366","910198","0.0-328.0-0.0","77182599","wem/bandit_single","A2Q1YS118AO2BP","pain","2","","76","L","3","","0","0","1","","0.03783642248","false","291","","0.4134699565","main_expt","","0.03188260643","","0.07741633782","","0.03783642248","","","","","",""
"501","","bandit","367","912480","0.0-329.0-0.0","77182599","wem/bandit_single","A2Q1YS118AO2BP","pain","2","","76","L","3","","0","0","1","","0.07820299584","false","292","","0.3827884258","main_expt","","0.03429620073","","0.09064252153","","0.07820299584","","","","","",""
"803","","bandit","368","915066","0.0-330.0-0.0","77182599","wem/bandit_single","A2Q1YS118AO2BP","pain","2","","72","H","0","img/none_selected.jpg","0","0","1","","0.4162015812","false","293","","0.4162015812","main_expt","","0.030392347","","0.07659126906","","0.07060894185","","","","","",""
"342","","bandit","369","917175","0.0-331.0-0.0","77182599","wem/bandit_single","A2Q1YS118AO2BP","pain","2","","75","K","2","","0","0","1","","0.08042624432","false","294","","0.447674372","main_expt","","0.04782046051","","0.08042624432","","0.1051632986","","","","","",""
"289","","bandit","370","919248","0.0-332.0-0.0","77182599","wem/bandit_single","A2Q1YS118AO2BP","pain","2","","74","J","1","","0","0","1","","0.06309063339","false","295","","0.4402126752","main_expt","","0.06309063339","","0.1216640212","","0.06624019153","","","","","",""
"793","","bandit","371","921826","0.0-333.0-0.0","77182599","wem/bandit_single","A2Q1YS118AO2BP","pain","2","","72","H","0","img/none_selected.jpg","0","0","1","","0.4378891161","false","296","","0.4378891161","main_expt","","0.09511663338","","0.1058257345","","0.07088700909","","","","","",""