"rt","responses","trial_type","trial_index","time_elapsed","internal_node_id","subjID","study","MID","cond","drift","key_press","respCharCode","respKey","respChoiceNum","respChoice","gems","bombs","no_reward","GemPrChosen","BombPrChosen","practice","trial_counter","WinPr_0","LosePr_0","trial_label","WinPr_1","LosePr_1","WinPr_2","LosePr_2","WinPr_3","LosePr_3","Q0","Q1","Q2","gender","age","ethnicity"
"23531","{""Q0"":""A2WO6TR132TISV""}","survey-text","0","23539","0.0-0.0","78802959","wem/bandit_single","A2WO6TR132TISV","gain","2","","","","","","","","","","","","","","","","","","","","","","","","","","",""
"1939","","text","1","26485","0.0-1.0","78802959","wem/bandit_single","A2WO6TR132TISV","gain","2","32","","","","","","","","","","","","","","","","","","","","","","","","","",""
"5618","","text","2","32107","0.0-2.0","78802959","wem/bandit_single","A2WO6TR132TISV","gain","2","32","","","","","","","","","","","","","","","","","","","","","","","","","",""
"22019","","text","3","54131","0.0-3.0","78802959","wem/bandit_single","A2WO6TR132TISV","gain","2","32","","","","","","","","","","","","","","","","","","","","","","","","","",""
"13589","","text","4","67723","0.0-4.0","78802959","wem/bandit_single","A2WO6TR132TISV","gain","2","32","","","","","","","","","","","","","","","","","","","","","","","","","",""
"13155","","text","5","80882","0.0-5.0","78802959","wem/bandit_single","A2WO6TR132TISV","gain","2","32","","","","","","","","","","","","","","","","","","","","","","","","","",""
"5109","","text","6","85994","0.0-6.0","78802959","wem/bandit_single","A2WO6TR132TISV","gain","2","32","","","","","","","","","","","","","","","","","","","","","","","","","",""
"4309","","text","7","90307","0.0-7.0","78802959","wem/bandit_single","A2WO6TR132TISV","gain","2","32","","","","","","","","","","","","","","","","","","","","","","","","","",""
"4580","","text","8","94890","0.0-8.0","78802959","wem/bandit_single","A2WO6TR132TISV","gain","2","32","","","","","","","","","","","","","","","","","","","","","","","","","",""
"1964","","text","9","96858","0.0-9.0","78802959","wem/bandit_single","A2WO6TR132TISV","gain","2","32","","","","","","","","","","","","","","","","","","","","","","","","","",""
"6001","","text","10","102863","0.0-10.0","78802959","wem/bandit_single","A2WO6TR132TISV","gain","2","32","","","","","","","","","","","","","","","","","","","","","","","","","",""
"2841","","text","11","105706","0.0-11.0","78802959","wem/bandit_single","A2WO6TR132TISV","gain","2","32","","","","","","","","","","","","","","","","","","","","","","","","","",""
"1359","","bandit","12","108580","0.0-12.0-0.0","78802959","wem/bandit_single","A2WO6TR132TISV","gain","2","","74","J","0","img/none_selected_demo.jpg","0","0","1","0","0","true","0","0","0","","","","","","","","","","","","",""
"972","","bandit","13","111314","0.0-13.0-0.0","78802959","wem/bandit_single","A2WO6TR132TISV","gain","2","","75","K","0","img/none_selected_demo.jpg","0","0","1","0","0","true","0","0","0","","","","","","","","","","","","",""
"3310","","text","14","114879","0.0-14.0","78802959","wem/bandit_single","A2WO6TR132TISV","gain","2","32","","","","","","","","","","","","","","","","","","","","","","","","","",""
"1521","","text","15","116403","0.0-15.0","78802959","wem/bandit_single","A2WO6TR132TISV","gain","2","32","","","","","","","","","","","","","","","","","","","","","","","","","",""
"2715","","text","16","119122","0.0-16.0","78802959","wem/bandit_single","A2WO6TR132TISV","gain","2","32","","","","","","","","","","","","","","","","","","","","","","","","","",""
"3154","","text","17","122278","0.0-17.0","78802959","wem/bandit_single","A2WO6TR132TISV","gain","2","32","","","","","","","","","","","","","","","","","","","","","","","","","",""
"2681","","bandit","18","126468","0.0-18.0-0.0","78802959","wem/bandit_single","A2WO6TR132TISV","gain","2","","75","K","1","","0","0","1","0.2","0","true","0","0.8","0","80_20_practice","0.2","0","","","","","","","","","",""
"857","","bandit","19","129085","0.0-18.0-1.0","78802959","wem/bandit_single","A2WO6TR132TISV","gain","2","","74","J","0","img/none_selected_demo.jpg","1","0","0","0.8","0","true","0","0.8","0","80_20_practice","0.2","0","","","","","","","","","",""
"1922","","bandit","20","132768","0.0-18.0-2.0","78802959","wem/bandit_single","A2WO6TR132TISV","gain","2","","74","J","0","img/none_selected_demo.jpg","0","0","1","0.8","0","true","0","0.8","0","80_20_practice","0.2","0","","","","","","","","","",""
"117","","bandit","21","134645","0.0-18.0-3.0","78802959","wem/bandit_single","A2WO6TR132TISV","gain","2","","75","K","1","","1","0","0","0.2","0","true","0","0.8","0","80_20_practice","0.2","0","","","","","","","","","",""
"376","","bandit","22","136782","0.0-18.0-4.0","78802959","wem/bandit_single","A2WO6TR132TISV","gain","2","","74","J","0","img/none_selected_demo.jpg","1","0","0","0.8","0","true","0","0.8","0","80_20_practice","0.2","0","","","","","","","","","",""
"832","","bandit","23","139374","0.0-18.0-5.0","78802959","wem/bandit_single","A2WO6TR132TISV","gain","2","","75","K","1","","0","0","1","0.2","0","true","0","0.8","0","80_20_practice","0.2","0","","","","","","","","","",""
"220","","bandit","24","141353","0.0-18.0-6.0","78802959","wem/bandit_single","A2WO6TR132TISV","gain","2","","74","J","0","img/none_selected_demo.jpg","1","0","0","0.8","0","true","0","0.8","0","80_20_practice","0.2","0","","","","","","","","","",""
"1622","","bandit","25","144735","0.0-18.0-7.0","78802959","wem/bandit_single","A2WO6TR132TISV","gain","2","","74","J","0","img/none_selected_demo.jpg","1","0","0","0.8","0","true","0","0.8","0","80_20_practice","0.2","0","","","","","","","","","",""
"932","","bandit","26","147430","0.0-18.0-8.0","78802959","wem/bandit_single","A2WO6TR132TISV","gain","2","","74","J","0","img/none_selected_demo.jpg","1","0","0","0.8","0","true","0","0.8","0","80_20_practice","0.2","0","","","","","","","","","",""
"179","","bandit","27","149368","0.0-18.0-9.0","78802959","wem/bandit_single","A2WO6TR132TISV","gain","2","","74","J","0","img/none_selected_demo.jpg","1","0","0","0.8","0","true","0","0.8","0","80_20_practice","0.2","0","","","","","","","","","",""
"903","","bandit","28","152029","0.0-18.0-10.0","78802959","wem/bandit_single","A2WO6TR132TISV","gain","2","","74","J","0","img/none_selected_demo.jpg","0","0","1","0.8","0","true","0","0.8","0","80_20_practice","0.2","0","","","","","","","","","",""
"428","","bandit","29","154217","0.0-18.0-11.0","78802959","wem/bandit_single","A2WO6TR132TISV","gain","2","","75","K","1","","0","0","1","0.2","0","true","0","0.8","0","80_20_practice","0.2","0","","","","","","","","","",""
"24","","bandit","30","156002","0.0-18.0-12.0","78802959","wem/bandit_single","A2WO6TR132TISV","gain","2","","74","J","0","img/none_selected_demo.jpg","1","0","0","0.8","0","true","0","0.8","0","80_20_practice","0.2","0","","","","","","","","","",""
"104","","bandit","31","157866","0.0-18.0-13.0","78802959","wem/bandit_single","A2WO6TR132TISV","gain","2","","74","J","0","img/none_selected_demo.jpg","0","0","1","0.8","0","true","0","0.8","0","80_20_practice","0.2","0","","","","","","","","","",""
"2","","bandit","32","159636","0.0-18.0-14.0","78802959","wem/bandit_single","A2WO6TR132TISV","gain","2","","75","K","1","","0","0","1","0.2","0","true","0","0.8","0","80_20_practice","0.2","0","","","","","","","","","",""
"1053","","bandit","33","162449","0.0-18.0-15.0","78802959","wem/bandit_single","A2WO6TR132TISV","gain","2","","74","J","0","img/none_selected_demo.jpg","0","0","1","0.8","0","true","0","0.8","0","80_20_practice","0.2","0","","","","","","","","","",""
"4124","","bandit","34","168336","0.0-18.0-16.0","78802959","wem/bandit_single","A2WO6TR132TISV","gain","2","","74","J","0","img/none_selected_demo.jpg","1","0","0","0.8","0","true","0","0.8","0","80_20_practice","0.2","0","","","","","","","","","",""
"74","","bandit","35","170169","0.0-18.0-17.0","78802959","wem/bandit_single","A2WO6TR132TISV","gain","2","","74","J","0","img/none_selected_demo.jpg","1","0","0","0.8","0","true","0","0.8","0","80_20_practice","0.2","0","","","","","","","","","",""
"1124","","bandit","36","173053","0.0-18.0-18.0","78802959","wem/bandit_single","A2WO6TR132TISV","gain","2","","74","J","0","img/none_selected_demo.jpg","1","0","0","0.8","0","true","0","0.8","0","80_20_practice","0.2","0","","","","","","","","","",""
"2976","","bandit","37","177790","0.0-18.0-19.0","78802959","wem/bandit_single","A2WO6TR132TISV","gain","2","","75","K","1","","0","0","1","0.2","0","true","0","0.8","0","80_20_practice","0.2","0","","","","","","","","","",""
"5633","","text","38","183679","0.0-19.0","78802959","wem/bandit_single","A2WO6TR132TISV","gain","2","32","","","","","","","","","","","","","","","","","","","","","","","","","",""
"2209","","bandit","39","187398","0.0-20.0-0.0","78802959","wem/bandit_single","A2WO6TR132TISV","gain","2","","74","J","0","img/none_selected_demo.jpg","0","0","1","0","0","true","0","0","0","","0","0","","","","","","","","","",""
"5612","","text","40","193265","0.0-21.0","78802959","wem/bandit_single","A2WO6TR132TISV","gain","2","32","","","","","","","","","","","","","","","","","","","","","","","","","",""
"4049","","text","41","197318","0.0-22.0","78802959","wem/bandit_single","A2WO6TR132TISV","gain","2","32","","","","","","","","","","","","","","","","","","","","","","","","","",""
"7092","","text","42","204415","0.0-23.0","78802959","wem/bandit_single","A2WO6TR132TISV","gain","2","32","","","","","","","","","","","","","","","","","","","","","","","","","",""
"4591","","text","43","209010","0.0-24.0","78802959","wem/bandit_single","A2WO6TR132TISV","gain","2","32","","","","","","","","","","","","","","","","","","","","","","","","","",""
"9244","","text","44","218259","0.0-25.0","78802959","wem/bandit_single","A2WO6TR132TISV","gain","2","32","","","","","","","","","","","","","","","","","","","","","","","","","",""
"3711","","text","45","221974","0.0-26.0","78802959","wem/bandit_single","A2WO6TR132TISV","gain","2","32","","","","","","","","","","","","","","","","","","","","","","","","","",""
"3639","","text","46","225618","0.0-27.0","78802959","wem/bandit_single","A2WO6TR132TISV","gain","2","32","","","","","","","","","","","","","","","","","","","","","","","","","",""
"4243","","text","47","229867","0.0-28.0","78802959","wem/bandit_single","A2WO6TR132TISV","gain","2","32","","","","","","","","","","","","","","","","","","","","","","","","","",""
"7708","","text","48","237578","0.0-29.0","78802959","wem/bandit_single","A2WO6TR132TISV","gain","2","32","","","","","","","","","","","","","","","","","","","","","","","","","",""
"2256","","text","49","239838","0.0-30.0","78802959","wem/bandit_single","A2WO6TR132TISV","gain","2","32","","","","","","","","","","","","","","","","","","","","","","","","","",""
"4712","","text","50","244554","0.0-31.0","78802959","wem/bandit_single","A2WO6TR132TISV","gain","2","32","","","","","","","","","","","","","","","","","","","","","","","","","",""
"502","","bandit","51","246565","0.0-32.0-0.0","78802959","wem/bandit_single","A2WO6TR132TISV","gain","2","","72","H","0","img/none_selected.jpg","1","0","0","0.8","0","true","0","0.8","0","full_practice","0.2","0","0.6","0","0.2","0","","","","","",""
"264","","bandit","52","248588","0.0-32.0-1.0","78802959","wem/bandit_single","A2WO6TR132TISV","gain","2","","72","H","0","img/none_selected.jpg","1","0","0","0.8","0","true","0","0.8","0","full_practice","0.2","0","0.6","0","0.2","0","","","","","",""
"59","","bandit","53","250409","0.0-32.0-2.0","78802959","wem/bandit_single","A2WO6TR132TISV","gain","2","","72","H","0","img/none_selected.jpg","1","0","0","0.8","0","true","0","0.8","0","full_practice","0.2","0","0.6","0","0.2","0","","","","","",""
"19","","bandit","54","252189","0.0-32.0-3.0","78802959","wem/bandit_single","A2WO6TR132TISV","gain","2","","74","J","1","","0","0","1","0.2","0","true","0","0.8","0","full_practice","0.2","0","0.6","0","0.2","0","","","","","",""
"855","","bandit","55","254805","0.0-32.0-4.0","78802959","wem/bandit_single","A2WO6TR132TISV","gain","2","","74","J","1","","0","0","1","0.2","0","true","0","0.8","0","full_practice","0.2","0","0.6","0","0.2","0","","","","","",""
"619","","bandit","56","257185","0.0-32.0-5.0","78802959","wem/bandit_single","A2WO6TR132TISV","gain","2","","75","K","2","","1","0","0","0.6","0","true","0","0.8","0","full_practice","0.2","0","0.6","0","0.2","0","","","","","",""
"526","","bandit","57","259471","0.0-32.0-6.0","78802959","wem/bandit_single","A2WO6TR132TISV","gain","2","","76","L","3","","0","0","1","0.2","0","true","0","0.8","0","full_practice","0.2","0","0.6","0","0.2","0","","","","","",""
"737","","bandit","58","261970","0.0-32.0-7.0","78802959","wem/bandit_single","A2WO6TR132TISV","gain","2","","76","L","3","","0","0","1","0.2","0","true","0","0.8","0","full_practice","0.2","0","0.6","0","0.2","0","","","","","",""
"64","","bandit","59","263796","0.0-32.0-8.0","78802959","wem/bandit_single","A2WO6TR132TISV","gain","2","","76","L","3","","0","0","1","0.2","0","true","0","0.8","0","full_practice","0.2","0","0.6","0","0.2","0","","","","","",""
"145","","bandit","60","265702","0.0-32.0-9.0","78802959","wem/bandit_single","A2WO6TR132TISV","gain","2","","75","K","2","","1","0","0","0.6","0","true","0","0.8","0","full_practice","0.2","0","0.6","0","0.2","0","","","","","",""
"534","","bandit","61","268003","0.0-32.0-10.0","78802959","wem/bandit_single","A2WO6TR132TISV","gain","2","","75","K","2","","1","0","0","0.6","0","true","0","0.8","0","full_practice","0.2","0","0.6","0","0.2","0","","","","","",""
"725","","bandit","62","270488","0.0-32.0-11.0","78802959","wem/bandit_single","A2WO6TR132TISV","gain","2","","74","J","1","","1","0","0","0.2","0","true","0","0.8","0","full_practice","0.2","0","0.6","0","0.2","0","","","","","",""
"357","","bandit","63","272606","0.0-32.0-12.0","78802959","wem/bandit_single","A2WO6TR132TISV","gain","2","","72","H","0","img/none_selected.jpg","1","0","0","0.8","0","true","0","0.8","0","full_practice","0.2","0","0.6","0","0.2","0","","","","","",""
"56","","bandit","64","274424","0.0-32.0-13.0","78802959","wem/bandit_single","A2WO6TR132TISV","gain","2","","72","H","0","img/none_selected.jpg","1","0","0","0.8","0","true","0","0.8","0","full_practice","0.2","0","0.6","0","0.2","0","","","","","",""
"41","","bandit","65","276226","0.0-32.0-14.0","78802959","wem/bandit_single","A2WO6TR132TISV","gain","2","","72","H","0","img/none_selected.jpg","0","0","1","0.8","0","true","0","0.8","0","full_practice","0.2","0","0.6","0","0.2","0","","","","","",""
"11","","bandit","66","277999","0.0-32.0-15.0","78802959","wem/bandit_single","A2WO6TR132TISV","gain","2","","72","H","0","img/none_selected.jpg","0","0","1","0.8","0","true","0","0.8","0","full_practice","0.2","0","0.6","0","0.2","0","","","","","",""
"446","","bandit","67","280205","0.0-32.0-16.0","78802959","wem/bandit_single","A2WO6TR132TISV","gain","2","","74","J","1","","0","0","1","0.2","0","true","0","0.8","0","full_practice","0.2","0","0.6","0","0.2","0","","","","","",""
"488","","bandit","68","282455","0.0-32.0-17.0","78802959","wem/bandit_single","A2WO6TR132TISV","gain","2","","75","K","2","","1","0","0","0.6","0","true","0","0.8","0","full_practice","0.2","0","0.6","0","0.2","0","","","","","",""
"3","","bandit","69","284219","0.0-32.0-18.0","78802959","wem/bandit_single","A2WO6TR132TISV","gain","2","","75","K","2","","0","0","1","0.6","0","true","0","0.8","0","full_practice","0.2","0","0.6","0","0.2","0","","","","","",""
"95","","bandit","70","286076","0.0-32.0-19.0","78802959","wem/bandit_single","A2WO6TR132TISV","gain","2","","76","L","3","","0","0","1","0.2","0","true","0","0.8","0","full_practice","0.2","0","0.6","0","0.2","0","","","","","",""
"4182","","text","71","290522","0.0-33.0","78802959","wem/bandit_single","A2WO6TR132TISV","gain","2","32","","","","","","","","","","","","","","","","","","","","","","","","","",""
"11372","","text","72","302902","0.0-34.0","78802959","wem/bandit_single","A2WO6TR132TISV","gain","2","32","","","","","","","","","","","","","","","","","","","","","","","","","",""
"6647","","text","73","309555","0.0-35.0","78802959","wem/bandit_single","A2WO6TR132TISV","gain","2","32","","","","","","","","","","","","","","","","","","","","","","","","","",""
"5303","","text","74","314863","0.0-36.0","78802959","wem/bandit_single","A2WO6TR132TISV","gain","2","32","","","","","","","","","","","","","","","","","","","","","","","","","",""
"5546","","text","75","320415","0.0-37.0","78802959","wem/bandit_single","A2WO6TR132TISV","gain","2","32","","","","","","","","","","","","","","","","","","","","","","","","","",""
"843","","bandit","76","322769","0.0-38.0-0.0","78802959","wem/bandit_single","A2WO6TR132TISV","gain","2","","72","H","0","img/none_selected.jpg","1","0","0","0.1196507759","","false","1","0.1196507759","","main_expt","0.1473353724","","0.1047922924","","0.03692567881","","","","","","",""
"912","","bandit","77","325444","0.0-39.0-0.0","78802959","wem/bandit_single","A2WO6TR132TISV","gain","2","","72","H","0","img/none_selected.jpg","0","0","1","0.1434551849","","false","2","0.1434551849","","main_expt","0.1471364572","","0.09232691068","","0.0535834513","","","","","","",""
"247","","bandit","78","327452","0.0-40.0-0.0","78802959","wem/bandit_single","A2WO6TR132TISV","gain","2","","72","H","0","img/none_selected.jpg","0","0","1","0.1966750378","","false","3","0.1966750378","","main_expt","0.1792173289","","0.07878604621","","0.06455495551","","","","","","",""
"474","","bandit","79","329687","0.0-41.0-0.0","78802959","wem/bandit_single","A2WO6TR132TISV","gain","2","","74","J","1","","0","0","1","0.2089457512","","false","4","0.1731728381","","main_expt","0.2089457512","","0.06180226224","","0.1075220519","","","","","","",""
"210","","bandit","80","331662","0.0-42.0-0.0","78802959","wem/bandit_single","A2WO6TR132TISV","gain","2","","75","K","2","","0","0","1","0.05657605877","","false","5","0.151671232","","main_expt","0.2627176439","","0.05657605877","","0.1459974634","","","","","","",""
"475","","bandit","81","333899","0.0-43.0-0.0","78802959","wem/bandit_single","A2WO6TR132TISV","gain","2","","76","L","3","","0","0","1","0.1119865757","","false","6","0.2201434377","","main_expt","0.2052823447","","0.03926223851","","0.1119865757","","","","","","",""
"52","","bandit","82","335713","0.0-44.0-0.0","78802959","wem/bandit_single","A2WO6TR132TISV","gain","2","","76","L","3","","0","0","1","0.1135710889","","false","7","0.1924323999","","main_expt","0.2424381104","","0.02952185798","","0.1135710889","","","","","","",""
"25","","bandit","83","337500","0.0-45.0-0.0","78802959","wem/bandit_single","A2WO6TR132TISV","gain","2","","75","K","2","","0","0","1","0.01847757052","","false","8","0.187431757","","main_expt","0.2324683495","","0.01847757052","","0.148696524","","","","","","",""
"322","","bandit","84","339585","0.0-46.0-0.0","78802959","wem/bandit_single","A2WO6TR132TISV","gain","2","","74","J","1","","0","0","1","0.2440295668","","false","9","0.197470847","","main_expt","0.2440295668","","0.02695314055","","0.1181121295","","","","","","",""
"294","","bandit","85","341641","0.0-47.0-0.0","78802959","wem/bandit_single","A2WO6TR132TISV","gain","2","","72","H","0","img/none_selected.jpg","0","0","1","0.2298270047","","false","10","0.2298270047","","main_expt","0.2465422232","","0.02234311218","","0.1082266346","","","","","","",""
"2","","bandit","86","343408","0.0-48.0-0.0","78802959","wem/bandit_single","A2WO6TR132TISV","gain","2","","72","H","0","img/none_selected.jpg","1","0","0","0.2124937163","","false","11","0.2124937163","","main_expt","0.1529972956","","0.04960883058","","0.1102162287","","","","","","",""
"10","","bandit","87","345183","0.0-49.0-0.0","78802959","wem/bandit_single","A2WO6TR132TISV","gain","2","","72","H","0","img/none_selected.jpg","0","0","1","0.2043121782","","false","12","0.2043121782","","main_expt","0.1827224572","","0.06086541187","","0.1420736562","","","","","","",""
"463","","bandit","88","347407","0.0-50.0-0.0","78802959","wem/bandit_single","A2WO6TR132TISV","gain","2","","72","H","0","img/none_selected.jpg","1","0","0","0.2122729008","","false","13","0.2122729008","","main_expt","0.1973099221","","0.06603274732","","0.1582971975","","","","","","",""
"179","","bandit","89","349347","0.0-51.0-0.0","78802959","wem/bandit_single","A2WO6TR132TISV","gain","2","","72","H","0","img/none_selected.jpg","0","0","1","0.1748916548","","false","14","0.1748916548","","main_expt","0.2002936143","","0.06952645267","","0.1278364912","","","","","","",""
"34","","bandit","90","351143","0.0-52.0-0.0","78802959","wem/bandit_single","A2WO6TR132TISV","gain","2","","72","H","0","img/none_selected.jpg","0","0","1","0.1598041939","","false","15","0.1598041939","","main_expt","0.2100222876","","0.06705093019","","0.1389591295","","","","","","",""
"50","","bandit","91","352957","0.0-53.0-0.0","78802959","wem/bandit_single","A2WO6TR132TISV","gain","2","","74","J","1","","0","0","1","0.192095419","","false","16","0.1496559895","","main_expt","0.192095419","","0.08739136862","","0.1087507618","","","","","","",""
"1","","bandit","92","354720","0.0-54.0-0.0","78802959","wem/bandit_single","A2WO6TR132TISV","gain","2","","74","J","1","","0","0","1","0.2057363858","","false","17","0.1855105105","","main_expt","0.2057363858","","0.0633177824","","0.1591778588","","","","","","",""
"155","","bandit","93","356637","0.0-55.0-0.0","78802959","wem/bandit_single","A2WO6TR132TISV","gain","2","","75","K","2","","0","0","1","0.05969087175","","false","18","0.180786103","","main_expt","0.2142317849","","0.05969087175","","0.1612769879","","","","","","",""
"5","","bandit","94","358405","0.0-56.0-0.0","78802959","wem/bandit_single","A2WO6TR132TISV","gain","2","","75","K","2","","0","0","1","0.08316546351","","false","19","0.1867551017","","main_expt","0.2416868574","","0.08316546351","","0.1706614454","","","","","","",""
"11","","bandit","95","360181","0.0-57.0-0.0","78802959","wem/bandit_single","A2WO6TR132TISV","gain","2","","75","K","2","","0","0","1","0.08506169859","","false","20","0.2414580321","","main_expt","0.2556662882","","0.08506169859","","0.2173206475","","","","","","",""
"3","","bandit","96","361946","0.0-58.0-0.0","78802959","wem/bandit_single","A2WO6TR132TISV","gain","2","","76","L","3","","0","0","1","0.2297715145","","false","21","0.2552731096","","main_expt","0.2484624222","","0.08337624199","","0.2297715145","","","","","","",""
"1","","bandit","97","363709","0.0-59.0-0.0","78802959","wem/bandit_single","A2WO6TR132TISV","gain","2","","76","L","3","","1","0","0","0.2893552095","","false","22","0.2706059063","","main_expt","0.3180013331","","0.09400888178","","0.2893552095","","","","","","",""
"83","","bandit","98","365555","0.0-60.0-0.0","78802959","wem/bandit_single","A2WO6TR132TISV","gain","2","","76","L","3","","0","0","1","0.1756353462","","false","23","0.2240124609","","main_expt","0.3018869565","","0.08373077729","","0.1756353462","","","","","","",""
"609","","bandit","99","367927","0.0-61.0-0.0","78802959","wem/bandit_single","A2WO6TR132TISV","gain","2","","76","L","3","","0","0","1","0.144307289","","false","24","0.2337623096","","main_expt","0.3479913718","","0.07394888686","","0.144307289","","","","","","",""
"148","","bandit","100","369837","0.0-62.0-0.0","78802959","wem/bandit_single","A2WO6TR132TISV","gain","2","","72","H","0","img/none_selected.jpg","1","0","0","0.1992837424","","false","25","0.1992837424","","main_expt","0.3851600672","","0.1177231478","","0.1103761204","","","","","","",""
"97","","bandit","101","371696","0.0-63.0-0.0","78802959","wem/bandit_single","A2WO6TR132TISV","gain","2","","72","H","0","img/none_selected.jpg","0","0","1","0.2273902023","","false","26","0.2273902023","","main_expt","0.3771699284","","0.1137187285","","0.09313295331","","","","","","",""
"72","","bandit","102","373531","0.0-64.0-0.0","78802959","wem/bandit_single","A2WO6TR132TISV","gain","2","","72","H","0","img/none_selected.jpg","0","0","1","0.2020281611","","false","27","0.2020281611","","main_expt","0.3284072512","","0.1380279251","","0.07841862492","","","","","","",""
"30","","bandit","103","375324","0.0-65.0-0.0","78802959","wem/bandit_single","A2WO6TR132TISV","gain","2","","72","H","0","img/none_selected.jpg","1","0","0","0.2121805601","","false","28","0.2121805601","","main_expt","0.3708797381","","0.1926536066","","0.0635621653","","","","","","",""
"841","","bandit","104","377927","0.0-66.0-0.0","78802959","wem/bandit_single","A2WO6TR132TISV","gain","2","","72","H","0","img/none_selected.jpg","0","0","1","0.1986823058","","false","29","0.1986823058","","main_expt","0.3630760189","","0.1919064193","","0.04349452081","","","","","","",""
"203","","bandit","105","379893","0.0-67.0-0.0","78802959","wem/bandit_single","A2WO6TR132TISV","gain","2","","72","H","0","img/none_selected.jpg","1","0","0","0.2674628916","","false","30","0.2674628916","","main_expt","0.3414786107","","0.1767437005","","0.06175929786","","","","","","",""
"87","","bandit","106","381742","0.0-68.0-0.0","78802959","wem/bandit_single","A2WO6TR132TISV","gain","2","","72","H","0","img/none_selected.jpg","0","0","1","0.2862820789","","false","31","0.2862820789","","main_expt","0.3536929226","","0.2417082081","","0.06380111671","","","","","","",""
"217","","bandit","107","383720","0.0-69.0-0.0","78802959","wem/bandit_single","A2WO6TR132TISV","gain","2","","74","J","1","","0","0","1","0.3238646006","","false","32","0.2895619367","","main_expt","0.3238646006","","0.2312742115","","0.08507033619","","","","","","",""
"514","","bandit","108","386000","0.0-70.0-0.0","78802959","wem/bandit_single","A2WO6TR132TISV","gain","2","","74","J","1","","1","0","0","0.3018803865","","false","33","0.312502841","","main_expt","0.3018803865","","0.2247834387","","0.1242974044","","","","","","",""
"70","","bandit","109","387831","0.0-71.0-0.0","78802959","wem/bandit_single","A2WO6TR132TISV","gain","2","","74","J","1","","0","0","1","0.2551449341","","false","34","0.2830864838","","main_expt","0.2551449341","","0.1192543008","","0.158311101","","","","","","",""
"502","","bandit","110","390095","0.0-72.0-0.0","78802959","wem/bandit_single","A2WO6TR132TISV","gain","2","","74","J","1","","0","0","1","0.3200580053","","false","35","0.2489219385","","main_expt","0.3200580053","","0.1336327135","","0.1293969191","","","","","","",""
"403","","bandit","111","392262","0.0-73.0-0.0","78802959","wem/bandit_single","A2WO6TR132TISV","gain","2","","75","K","2","","0","0","1","0.09851205292","","false","36","0.2090346537","","main_expt","0.3241899647","","0.09851205292","","0.1800853883","","","","","","",""
"43","","bandit","112","394065","0.0-74.0-0.0","78802959","wem/bandit_single","A2WO6TR132TISV","gain","2","","75","K","2","","0","0","1","0.05943694951","","false","37","0.210385238","","main_expt","0.3029113802","","0.05943694951","","0.1025448258","","","","","","",""
"558","","bandit","113","396388","0.0-75.0-0.0","78802959","wem/bandit_single","A2WO6TR132TISV","gain","2","","75","K","2","","0","0","1","0.06217728149","","false","38","0.162227856","","main_expt","0.2958592888","","0.06217728149","","0.1604021245","","","","","","",""
"88","","bandit","114","398239","0.0-76.0-0.0","78802959","wem/bandit_single","A2WO6TR132TISV","gain","2","","76","L","3","","1","0","0","0.1336531769","","false","39","0.1444893634","","main_expt","0.2941945884","","0.08902833973","","0.1336531769","","","","","","",""
"194","","bandit","115","400191","0.0-77.0-0.0","78802959","wem/bandit_single","A2WO6TR132TISV","gain","2","","72","H","0","img/none_selected.jpg","0","0","1","0.1340169349","","false","40","0.1340169349","","main_expt","0.2784490849","","0.1098655825","","0.1356889635","","","","","","",""
"214","","bandit","116","402168","0.0-78.0-0.0","78802959","wem/bandit_single","A2WO6TR132TISV","gain","2","","76","L","3","","0","0","1","0.1434276379","","false","41","0.1019114547","","main_expt","0.2943099773","","0.125718056","","0.1434276379","","","","","","",""
"112","","bandit","117","404043","0.0-79.0-0.0","78802959","wem/bandit_single","A2WO6TR132TISV","gain","2","","72","H","0","img/none_selected.jpg","0","0","1","0.07379386716","","false","42","0.07379386716","","main_expt","0.2502187242","","0.07668278466","","0.1432973755","","","","","","",""
"9","","bandit","118","405816","0.0-80.0-0.0","78802959","wem/bandit_single","A2WO6TR132TISV","gain","2","","76","L","3","","0","0","1","0.1605884153","","false","43","0.08186566242","","main_expt","0.2691097515","","0.08403116819","","0.1605884153","","","","","","",""
"162","","bandit","119","407743","0.0-81.0-0.0","78802959","wem/bandit_single","A2WO6TR132TISV","gain","2","","76","L","3","","0","0","1","0.1396132557","","false","44","0.08692603594","","main_expt","0.2601206974","","0.08258467284","","0.1396132557","","","","","","",""
"121","","bandit","120","409627","0.0-82.0-0.0","78802959","wem/bandit_single","A2WO6TR132TISV","gain","2","","76","L","3","","1","0","0","0.2250933593","","false","45","0.1212470101","","main_expt","0.3222012474","","0.07253936928","","0.2250933593","","","","","","",""
"517","","bandit","121","411907","0.0-83.0-0.0","78802959","wem/bandit_single","A2WO6TR132TISV","gain","2","","76","L","3","","0","0","1","0.1826421925","","false","46","0.134661007","","main_expt","0.3060845752","","0.05374479905","","0.1826421925","","","","","","",""
"53","","bandit","122","413723","0.0-84.0-0.0","78802959","wem/bandit_single","A2WO6TR132TISV","gain","2","","75","K","2","","0","0","1","0.06764850751","","false","47","0.1377890551","","main_expt","0.290950603","","0.06764850751","","0.1706758886","","","","","","",""
"84","","bandit","123","415571","0.0-85.0-0.0","78802959","wem/bandit_single","A2WO6TR132TISV","gain","2","","75","K","2","","1","0","0","0.05656727153","","false","48","0.1325860966","","main_expt","0.329307254","","0.05656727153","","0.1686178854","","","","","","",""
"60","","bandit","124","417395","0.0-86.0-0.0","78802959","wem/bandit_single","A2WO6TR132TISV","gain","2","","75","K","2","","0","0","1","0.08131597157","","false","49","0.1231750139","","main_expt","0.405044281","","0.08131597157","","0.1822379713","","","","","","",""
"24","","bandit","125","419184","0.0-87.0-0.0","78802959","wem/bandit_single","A2WO6TR132TISV","gain","2","","74","J","1","","1","0","0","0.4121919591","","false","50","0.1565964086","","main_expt","0.4121919591","","0.08274267654","","0.2513484478","","","","","","",""
"12","","bandit","126","420960","0.0-88.0-0.0","78802959","wem/bandit_single","A2WO6TR132TISV","gain","2","","75","K","2","","0","0","1","0.1154896937","","false","51","0.1464659706","","main_expt","0.4271607293","","0.1154896937","","0.2812942615","","","","","","",""
"399","","bandit","127","423123","0.0-89.0-0.0","78802959","wem/bandit_single","A2WO6TR132TISV","gain","2","","74","J","1","","0","0","1","0.4249516559","","false","52","0.1196909414","","main_expt","0.4249516559","","0.07649260985","","0.2224049931","","","","","","",""
"456","","bandit","128","425344","0.0-90.0-0.0","78802959","wem/bandit_single","A2WO6TR132TISV","gain","2","","72","H","0","img/none_selected.jpg","0","0","1","0.1578713891","","false","53","0.1578713891","","main_expt","0.414238899","","0.06211708307","","0.2135714686","","","","","","",""
"23","","bandit","129","427130","0.0-91.0-0.0","78802959","wem/bandit_single","A2WO6TR132TISV","gain","2","","76","L","3","","1","0","0","0.2471494284","","false","54","0.1420893662","","main_expt","0.4404827494","","0.05122165179","","0.2471494284","","","","","","",""
"64","","bandit","130","428959","0.0-92.0-0.0","78802959","wem/bandit_single","A2WO6TR132TISV","gain","2","","74","J","1","","0","0","1","0.4258944343","","false","55","0.1255118638","","main_expt","0.4258944343","","0.05779626682","","0.26732004","","","","","","",""
"198","","bandit","131","430923","0.0-93.0-0.0","78802959","wem/bandit_single","A2WO6TR132TISV","gain","2","","75","K","2","","0","0","1","0.06578325953","","false","56","0.1040792381","","main_expt","0.4058732664","","0.06578325953","","0.258853447","","","","","","",""
"382","","bandit","132","433071","0.0-94.0-0.0","78802959","wem/bandit_single","A2WO6TR132TISV","gain","2","","76","L","3","","0","0","1","0.247757255","","false","57","0.1058118143","","main_expt","0.4269212616","","0.07487929626","","0.247757255","","","","","","",""
"13","","bandit","133","434847","0.0-95.0-0.0","78802959","wem/bandit_single","A2WO6TR132TISV","gain","2","","74","J","1","","1","0","0","0.4120073189","","false","58","0.08107820888","","main_expt","0.4120073189","","0.05601765109","","0.2380046022","","","","","","",""
"94","","bandit","134","436703","0.0-96.0-0.0","78802959","wem/bandit_single","A2WO6TR132TISV","gain","2","","74","J","1","","0","0","1","0.367464959","","false","59","0.115954585","","main_expt","0.367464959","","0.07158824907","","0.273239949","","","","","","",""
"39","","bandit","135","438506","0.0-97.0-0.0","78802959","wem/bandit_single","A2WO6TR132TISV","gain","2","","74","J","1","","0","0","1","0.3113576115","","false","60","0.190529156","","main_expt","0.3113576115","","0.1021813758","","0.314936794","","","","","","",""
"453","","bandit","136","440723","0.0-98.0-0.0","78802959","wem/bandit_single","A2WO6TR132TISV","gain","2","","74","J","1","","0","0","1","0.3217665369","","false","61","0.2024767933","","main_expt","0.3217665369","","0.1422244628","","0.3361315769","","","","","","",""
"62","","bandit","137","442551","0.0-99.0-0.0","78802959","wem/bandit_single","A2WO6TR132TISV","gain","2","","75","K","2","","0","0","1","0.1543762338","","false","62","0.1478811465","","main_expt","0.3396020841","","0.1543762338","","0.3012470308","","","","","","",""
"512","","bandit","138","444828","0.0-100.0-0.0","78802959","wem/bandit_single","A2WO6TR132TISV","gain","2","","76","L","3","","0","0","1","0.3035933772","","false","63","0.1472080331","","main_expt","0.3326008901","","0.1957871903","","0.3035933772","","","","","","",""
"379","","bandit","139","446973","0.0-101.0-0.0","78802959","wem/bandit_single","A2WO6TR132TISV","gain","2","","72","H","0","img/none_selected.jpg","0","0","1","0.1523556625","","false","64","0.1523556625","","main_expt","0.2759567044","","0.1998827037","","0.3061864711","","","","","","",""
"360","","bandit","140","449100","0.0-102.0-0.0","78802959","wem/bandit_single","A2WO6TR132TISV","gain","2","","72","H","0","img/none_selected.jpg","0","0","1","0.1640586258","","false","65","0.1640586258","","main_expt","0.330340259","","0.2229124218","","0.2795045379","","","","","","",""
"49","","bandit","141","450914","0.0-103.0-0.0","78802959","wem/bandit_single","A2WO6TR132TISV","gain","2","","72","H","0","img/none_selected.jpg","0","0","1","0.1559289375","","false","66","0.1559289375","","main_expt","0.394496842","","0.2821528041","","0.2624990872","","","","","","",""
"317","","bandit","142","452995","0.0-104.0-0.0","78802959","wem/bandit_single","A2WO6TR132TISV","gain","2","","74","J","1","","0","0","1","0.3780229448","","false","67","0.09042099393","","main_expt","0.3780229448","","0.2228434199","","0.2316809648","","","","","","",""
"205","","bandit","143","454968","0.0-105.0-0.0","78802959","wem/bandit_single","A2WO6TR132TISV","gain","2","","74","J","1","","0","0","1","0.313258317","","false","68","0.08874767337","","main_expt","0.313258317","","0.2039549584","","0.2266776066","","","","","","",""
"87","","bandit","144","456819","0.0-106.0-0.0","78802959","wem/bandit_single","A2WO6TR132TISV","gain","2","","74","J","1","","0","0","1","0.3466590849","","false","69","0.09103688118","","main_expt","0.3466590849","","0.1998164138","","0.1734363374","","","","","","",""
"583","","bandit","145","459168","0.0-107.0-0.0","78802959","wem/bandit_single","A2WO6TR132TISV","gain","2","","74","J","1","","1","0","0","0.3389702644","","false","70","0.139461016","","main_expt","0.3389702644","","0.1936545157","","0.1469163378","","","","","","",""
"6","","bandit","146","460941","0.0-108.0-0.0","78802959","wem/bandit_single","A2WO6TR132TISV","gain","2","","75","K","2","","0","0","1","0.1875420319","","false","71","0.1269809057","","main_expt","0.3037518088","","0.1875420319","","0.1903103683","","","","","","",""
"145","","bandit","147","462852","0.0-109.0-0.0","78802959","wem/bandit_single","A2WO6TR132TISV","gain","2","","76","L","3","","1","0","0","0.2364630875","","false","72","0.1541032278","","main_expt","0.3007282465","","0.2275961541","","0.2364630875","","","","","","",""
"53","","bandit","148","464672","0.0-110.0-0.0","78802959","wem/bandit_single","A2WO6TR132TISV","gain","2","","76","L","3","","0","0","1","0.2715971604","","false","73","0.1618198783","","main_expt","0.2796446257","","0.2485431464","","0.2715971604","","","","","","",""
"11","","bandit","149","466448","0.0-111.0-0.0","78802959","wem/bandit_single","A2WO6TR132TISV","gain","2","","76","L","3","","0","0","1","0.2716254876","","false","74","0.1428156761","","main_expt","0.2729876577","","0.2394527842","","0.2716254876","","","","","","",""
"245","","bandit","150","468459","0.0-112.0-0.0","78802959","wem/bandit_single","A2WO6TR132TISV","gain","2","","76","L","3","","0","0","1","0.2998540279","","false","75","0.1312504708","","main_expt","0.2067723694","","0.2074684787","","0.2998540279","","","","","","",""
"165","","bandit","151","470388","0.0-113.0-0.0","78802959","wem/bandit_single","A2WO6TR132TISV","gain","2","","76","L","3","","0","0","1","0.3195890579","","false","76","0.1002429729","","main_expt","0.2130899639","","0.178133335","","0.3195890579","","","","","","",""
"541","","bandit","152","472696","0.0-114.0-0.0","78802959","wem/bandit_single","A2WO6TR132TISV","gain","2","","76","L","3","","1","0","0","0.2856322382","","false","77","0.07543037954","","main_expt","0.2109525889","","0.1788248706","","0.2856322382","","","","","","",""
"456","","bandit","153","474916","0.0-115.0-0.0","78802959","wem/bandit_single","A2WO6TR132TISV","gain","2","","76","L","3","","1","0","0","0.2919105172","","false","78","0.1153668935","","main_expt","0.1884332626","","0.1530293784","","0.2919105172","","","","","","",""
"58","","bandit","154","476739","0.0-116.0-0.0","78802959","wem/bandit_single","A2WO6TR132TISV","gain","2","","76","L","3","","0","0","1","0.2567181874","","false","79","0.07716777456","","main_expt","0.1883433777","","0.1593806387","","0.2567181874","","","","","","",""
"63","","bandit","155","478566","0.0-117.0-0.0","78802959","wem/bandit_single","A2WO6TR132TISV","gain","2","","75","K","2","","0","0","1","0.1428411119","","false","80","0.08058819474","","main_expt","0.1998795799","","0.1428411119","","0.3200023444","","","","","","",""
"16","","bandit","156","480346","0.0-118.0-0.0","78802959","wem/bandit_single","A2WO6TR132TISV","gain","2","","74","J","1","","0","0","1","0.1651756375","","false","81","0.09856946308","","main_expt","0.1651756375","","0.1982686668","","0.3117755618","","","","","","",""
"452","","bandit","157","482565","0.0-119.0-0.0","78802959","wem/bandit_single","A2WO6TR132TISV","gain","2","","74","J","1","","0","0","1","0.2235829688","","false","82","0.1000946235","","main_expt","0.2235829688","","0.2291501313","","0.3379160562","","","","","","",""
"266","","bandit","158","484596","0.0-120.0-0.0","78802959","wem/bandit_single","A2WO6TR132TISV","gain","2","","74","J","1","","0","0","1","0.2456561592","","false","83","0.06687408093","","main_expt","0.2456561592","","0.2259362275","","0.3620865136","","","","","","",""
"395","","bandit","159","486755","0.0-121.0-0.0","78802959","wem/bandit_single","A2WO6TR132TISV","gain","2","","72","H","0","img/none_selected.jpg","0","0","1","0.06463964557","","false","84","0.06463964557","","main_expt","0.2790354554","","0.1733031115","","0.3904685548","","","","","","",""
"87","","bandit","160","488607","0.0-122.0-0.0","78802959","wem/bandit_single","A2WO6TR132TISV","gain","2","","72","H","0","img/none_selected.jpg","0","0","1","0.09044174456","","false","85","0.09044174456","","main_expt","0.2389339959","","0.1577379057","","0.4201611698","","","","","","",""
"1157","","bandit","161","491527","0.0-123.0-0.0","78802959","wem/bandit_single","A2WO6TR132TISV","gain","2","","72","H","0","img/none_selected.jpg","0","0","1","0.07242924321","","false","86","0.07242924321","","main_expt","0.2905830411","","0.1646880331","","0.4544588035","","","","","","",""
"39","","bandit","162","493333","0.0-124.0-0.0","78802959","wem/bandit_single","A2WO6TR132TISV","gain","2","","72","H","0","img/none_selected.jpg","0","0","1","0.06356931104","","false","87","0.06356931104","","main_expt","0.3336128518","","0.157008097","","0.4444110865","","","","","","",""
"469","","bandit","163","495567","0.0-125.0-0.0","78802959","wem/bandit_single","A2WO6TR132TISV","gain","2","","72","H","0","img/none_selected.jpg","0","0","1","0.08819972964","","false","88","0.08819972964","","main_expt","0.3720796031","","0.14663069","","0.4276611285","","","","","","",""
"92","","bandit","164","497425","0.0-126.0-0.0","78802959","wem/bandit_single","A2WO6TR132TISV","gain","2","","74","J","1","","0","0","1","0.3383028484","","false","89","0.09388884115","","main_expt","0.3383028484","","0.1510377787","","0.395063318","","","","","","",""
"402","","bandit","165","499594","0.0-127.0-0.0","78802959","wem/bandit_single","A2WO6TR132TISV","gain","2","","75","K","2","","1","0","0","0.1600185234","","false","90","0.1265583984","","main_expt","0.3550100304","","0.1600185234","","0.3790569413","","","","","","",""
"77","","bandit","166","501436","0.0-128.0-0.0","78802959","wem/bandit_single","A2WO6TR132TISV","gain","2","","76","L","3","","1","0","0","0.3763017738","","false","91","0.09433033469","","main_expt","0.4198742783","","0.1618321768","","0.3763017738","","","","","","",""
"271","","bandit","167","503473","0.0-129.0-0.0","78802959","wem/bandit_single","A2WO6TR132TISV","gain","2","","75","K","2","","0","0","1","0.1408839615","","false","92","0.05111462501","","main_expt","0.4522920775","","0.1408839615","","0.3829045729","","","","","","",""
"6","","bandit","168","505244","0.0-130.0-0.0","78802959","wem/bandit_single","A2WO6TR132TISV","gain","2","","76","L","3","","0","0","1","0.4155552038","","false","93","0.05378689714","","main_expt","0.4572096334","","0.1675332925","","0.4155552038","","","","","","",""
"390","","bandit","169","507400","0.0-131.0-0.0","78802959","wem/bandit_single","A2WO6TR132TISV","gain","2","","74","J","1","","1","0","0","0.457248447","","false","94","0.04385487208","","main_expt","0.457248447","","0.2154783406","","0.3964247486","","","","","","",""
"287","","bandit","170","509451","0.0-132.0-0.0","78802959","wem/bandit_single","A2WO6TR132TISV","gain","2","","74","J","1","","0","0","1","0.4284600246","","false","95","0.02374316345","","main_expt","0.4284600246","","0.2434825378","","0.4028729744","","","","","","",""
"198","","bandit","171","511416","0.0-133.0-0.0","78802959","wem/bandit_single","A2WO6TR132TISV","gain","2","","72","H","0","img/none_selected.jpg","0","0","1","0.01119532444","","false","96","0.01119532444","","main_expt","0.4213934208","","0.300751002","","0.3937220057","","","","","","",""
"378","","bandit","172","513560","0.0-134.0-0.0","78802959","wem/bandit_single","A2WO6TR132TISV","gain","2","","75","K","2","","0","0","1","0.2390268827","","false","97","0.01205949719","","main_expt","0.4093218277","","0.2390268827","","0.3951408858","","","","","","",""
"122","","bandit","173","515447","0.0-135.0-0.0","78802959","wem/bandit_single","A2WO6TR132TISV","gain","2","","76","L","3","","0","0","1","0.3872505806","","false","98","0.02530753644","","main_expt","0.4011771953","","0.1872158766","","0.3872505806","","","","","","",""
"119","","bandit","174","517332","0.0-136.0-0.0","78802959","wem/bandit_single","A2WO6TR132TISV","gain","2","","75","K","2","","0","0","1","0.2281726053","","false","99","0.02318317113","","main_expt","0.4319140629","","0.2281726053","","0.3237376228","","","","","","",""
"54","","bandit","175","519153","0.0-137.0-0.0","78802959","wem/bandit_single","A2WO6TR132TISV","gain","2","","74","J","1","","1","0","0","0.4388591553","","false","100","0.01577819671","","main_expt","0.4388591553","","0.2322026393","","0.3840854176","","","","","","",""
"123","","bandit","176","521043","0.0-138.0-0.0","78802959","wem/bandit_single","A2WO6TR132TISV","gain","2","","72","H","0","img/none_selected.jpg","0","0","1","0.03767304301","","false","101","0.03767304301","","main_expt","0.4405661836","","0.2675158553","","0.4043087267","","","","","","",""
"761","","bandit","177","523569","0.0-139.0-0.0","78802959","wem/bandit_single","A2WO6TR132TISV","gain","2","","74","J","1","","0","0","1","0.4155134761","","false","102","0.03003558128","","main_expt","0.4155134761","","0.2334450153","","0.423372456","","","","","","",""
"125","","bandit","178","525459","0.0-140.0-0.0","78802959","wem/bandit_single","A2WO6TR132TISV","gain","2","","75","K","2","","0","0","1","0.2546104349","","false","103","0.04748945294","","main_expt","0.4079284656","","0.2546104349","","0.4305794097","","","","","","",""
"26","","bandit","179","527252","0.0-141.0-0.0","78802959","wem/bandit_single","A2WO6TR132TISV","gain","2","","76","L","3","","1","0","0","0.4515631957","","false","104","0.06674284653","","main_expt","0.3827156199","","0.2657782481","","0.4515631957","","","","","","",""
"386","","bandit","180","529404","0.0-142.0-0.0","78802959","wem/bandit_single","A2WO6TR132TISV","gain","2","","72","H","0","img/none_selected.jpg","0","0","1","0.0806059128","","false","105","0.0806059128","","main_expt","0.3892206975","","0.2397797145","","0.454723383","","","","","","",""
"1554","","bandit","181","532725","0.0-143.0-0.0","78802959","wem/bandit_single","A2WO6TR132TISV","gain","2","","74","J","1","","0","0","1","0.3499671591","","false","106","0.1147522423","","main_expt","0.3499671591","","0.1744994936","","0.4487898282","","","","","","",""
"776","","bandit","182","535268","0.0-144.0-0.0","78802959","wem/bandit_single","A2WO6TR132TISV","gain","2","","76","L","3","","0","0","1","0.4300484018","","false","107","0.1225979079","","main_expt","0.3378870415","","0.2004436591","","0.4300484018","","","","","","",""
"136","","bandit","183","537167","0.0-145.0-0.0","78802959","wem/bandit_single","A2WO6TR132TISV","gain","2","","75","K","2","","1","0","0","0.1781349215","","false","108","0.1808232933","","main_expt","0.3206855754","","0.1781349215","","0.4056187414","","","","","","",""
"101","","bandit","184","539038","0.0-146.0-0.0","78802959","wem/bandit_single","A2WO6TR132TISV","gain","2","","74","J","1","","0","0","1","0.3412252333","","false","109","0.2004688742","","main_expt","0.3412252333","","0.1603989886","","0.4145536126","","","","","","",""
"1","","bandit","185","540805","0.0-147.0-0.0","78802959","wem/bandit_single","A2WO6TR132TISV","gain","2","","75","K","2","","0","0","1","0.1300992081","","false","110","0.2261403934","","main_expt","0.3650365033","","0.1300992081","","0.3897928763","","","","","","",""
"194","","bandit","186","542764","0.0-148.0-0.0","78802959","wem/bandit_single","A2WO6TR132TISV","gain","2","","76","L","3","","0","0","1","0.4150540561","","false","111","0.1612973213","","main_expt","0.341048274","","0.1740321776","","0.4150540561","","","","","","",""
"216","","bandit","187","544748","0.0-149.0-0.0","78802959","wem/bandit_single","A2WO6TR132TISV","gain","2","","75","K","2","","0","0","1","0.2444477537","","false","112","0.1655724556","","main_expt","0.3254027875","","0.2444477537","","0.4394636757","","","","","","",""
"73","","bandit","188","546588","0.0-150.0-0.0","78802959","wem/bandit_single","A2WO6TR132TISV","gain","2","","74","J","1","","0","0","1","0.308059901","","false","113","0.1319876284","","main_expt","0.308059901","","0.2195244909","","0.4301961846","","","","","","",""
"12","","bandit","189","548365","0.0-151.0-0.0","78802959","wem/bandit_single","A2WO6TR132TISV","gain","2","","72","H","0","img/none_selected.jpg","0","0","1","0.1147934267","","false","114","0.1147934267","","main_expt","0.3238695313","","0.2719971232","","0.4497687286","","","","","","",""
"549","","bandit","190","550679","0.0-152.0-0.0","78802959","wem/bandit_single","A2WO6TR132TISV","gain","2","","74","J","1","","0","0","1","0.3315084933","","false","115","0.1301750396","","main_expt","0.3315084933","","0.2447677414","","0.4448888627","","","","","","",""
"901","","bandit","191","553347","0.0-153.0-0.0","78802959","wem/bandit_single","A2WO6TR132TISV","gain","2","","75","K","2","","1","0","0","0.2296513069","","false","116","0.130185029","","main_expt","0.3234657333","","0.2296513069","","0.3905844751","","","","","","",""
"228","","bandit","192","555341","0.0-154.0-0.0","78802959","wem/bandit_single","A2WO6TR132TISV","gain","2","","76","L","3","","1","0","0","0.424359093","","false","117","0.1548944576","","main_expt","0.300593156","","0.2151266314","","0.424359093","","","","","","",""
"435","","bandit","193","557544","0.0-155.0-0.0","78802959","wem/bandit_single","A2WO6TR132TISV","gain","2","","75","K","2","","0","0","1","0.1311834018","","false","118","0.172903741","","main_expt","0.3585138177","","0.1311834018","","0.4121010571","","","","","","",""
"23","","bandit","194","559336","0.0-156.0-0.0","78802959","wem/bandit_single","A2WO6TR132TISV","gain","2","","76","L","3","","1","0","0","0.4117558181","","false","119","0.1707570171","","main_expt","0.3062020697","","0.1190099868","","0.4117558181","","","","","","",""
"223","","bandit","195","561328","0.0-157.0-0.0","78802959","wem/bandit_single","A2WO6TR132TISV","gain","2","","76","L","3","","0","0","1","0.4275669698","","false","120","0.1870802187","","main_expt","0.3312553157","","0.1117686876","","0.4275669698","","","","","","",""
"2604","","bandit","196","565701","0.0-158.0-0.0","78802959","wem/bandit_single","A2WO6TR132TISV","gain","2","","72","H","0","img/none_selected.jpg","0","0","1","0.1870161021","","false","121","0.1870161021","","main_expt","0.3892509988","","0.1415869423","","0.4428986123","","","","","","",""
"21","","bandit","197","567491","0.0-159.0-0.0","78802959","wem/bandit_single","A2WO6TR132TISV","gain","2","","72","H","0","img/none_selected.jpg","0","0","1","0.1926804843","","false","122","0.1926804843","","main_expt","0.4330036483","","0.1398412585","","0.4376246318","","","","","","",""
"89","","bandit","198","569348","0.0-160.0-0.0","78802959","wem/bandit_single","A2WO6TR132TISV","gain","2","","72","H","0","img/none_selected.jpg","0","0","1","0.2057615037","","false","123","0.2057615037","","main_expt","0.4555957022","","0.1163210087","","0.4153394585","","","","","","",""
"361","","bandit","199","571477","0.0-161.0-0.0","78802959","wem/bandit_single","A2WO6TR132TISV","gain","2","","74","J","1","","0","0","1","0.4565029776","","false","124","0.2639565913","","main_expt","0.4565029776","","0.07344578178","","0.4203389285","","","","","","",""
"1","","bandit","200","573244","0.0-162.0-0.0","78802959","wem/bandit_single","A2WO6TR132TISV","gain","2","","75","K","2","","0","0","1","0.08752025541","","false","125","0.3672341475","","main_expt","0.4511527373","","0.08752025541","","0.3710029205","","","","","","",""
"6813","","bandit","201","581825","0.0-163.0-0.0","78802959","wem/bandit_single","A2WO6TR132TISV","gain","2","","75","K","2","","0","0","1","0.1064058914","","false","126","0.3606148775","","main_expt","0.4426171603","","0.1064058914","","0.3465273485","","","","","","",""
"3588","","bandit","202","587179","0.0-164.0-0.0","78802959","wem/bandit_single","A2WO6TR132TISV","gain","2","","75","K","2","","0","0","1","0.1103525866","","false","127","0.4079700646","","main_expt","0.4259104728","","0.1103525866","","0.4106613481","","","","","","",""
"4250","","bandit","203","593196","0.0-165.0-0.0","78802959","wem/bandit_single","A2WO6TR132TISV","gain","2","","75","K","2","","1","0","0","0.1060480298","","false","128","0.4204919645","","main_expt","0.4543754413","","0.1060480298","","0.4377707947","","","","","","",""
"5255","","bandit","204","600219","0.0-166.0-0.0","78802959","wem/bandit_single","A2WO6TR132TISV","gain","2","","75","K","2","","1","0","0","0.1332603285","","false","129","0.4040923387","","main_expt","0.4587533269","","0.1332603285","","0.4481781661","","","","","","",""
"892","","bandit","205","602872","0.0-167.0-0.0","78802959","wem/bandit_single","A2WO6TR132TISV","gain","2","","72","H","0","img/none_selected.jpg","0","0","1","0.3906791758","","false","130","0.3906791758","","main_expt","0.4618517855","","0.09182468565","","0.4301237728","","","","","","",""
"151","","bandit","206","604789","0.0-168.0-0.0","78802959","wem/bandit_single","A2WO6TR132TISV","gain","2","","74","J","1","","1","0","0","0.4622878414","","false","131","0.380553204","","main_expt","0.4622878414","","0.09388333002","","0.4457858875","","","","","","",""
"167","","bandit","207","606724","0.0-169.0-0.0","78802959","wem/bandit_single","A2WO6TR132TISV","gain","2","","75","K","2","","0","0","1","0.07277513685","","false","132","0.4000467043","","main_expt","0.4624711794","","0.07277513685","","0.4732894157","","","","","","",""
"464","","bandit","208","608956","0.0-170.0-0.0","78802959","wem/bandit_single","A2WO6TR132TISV","gain","2","","76","L","3","","1","0","0","0.4607838047","","false","133","0.3929100345","","main_expt","0.4794526202","","0.1108266248","","0.4607838047","","","","","","",""
"112","","bandit","209","610836","0.0-171.0-0.0","78802959","wem/bandit_single","A2WO6TR132TISV","gain","2","","74","J","1","","0","0","1","0.481632873","","false","134","0.4009617203","","main_expt","0.481632873","","0.1466671782","","0.4663808264","","","","","","",""
"477","","bandit","210","613080","0.0-172.0-0.0","78802959","wem/bandit_single","A2WO6TR132TISV","gain","2","","76","L","3","","1","0","0","0.4625615306","","false","135","0.3859426802","","main_expt","0.4667599148","","0.1625995743","","0.4625615306","","","","","","",""
"161","","bandit","211","615010","0.0-173.0-0.0","78802959","wem/bandit_single","A2WO6TR132TISV","gain","2","","76","L","3","","1","0","0","0.4629143089","","false","136","0.4089350186","","main_expt","0.4468402508","","0.1555673637","","0.4629143089","","","","","","",""
"74","","bandit","212","616852","0.0-174.0-0.0","78802959","wem/bandit_single","A2WO6TR132TISV","gain","2","","76","L","3","","0","0","1","0.4644074349","","false","137","0.4009707033","","main_expt","0.4331537256","","0.1395554881","","0.4644074349","","","","","","",""
"23","","bandit","213","618643","0.0-175.0-0.0","78802959","wem/bandit_single","A2WO6TR132TISV","gain","2","","74","J","1","","0","0","1","0.4578477473","","false","138","0.4116224971","","main_expt","0.4578477473","","0.1387442451","","0.4741213624","","","","","","",""
"133","","bandit","214","620543","0.0-176.0-0.0","78802959","wem/bandit_single","A2WO6TR132TISV","gain","2","","75","K","2","","1","0","0","0.1693780048","","false","139","0.4129411324","","main_expt","0.464919911","","0.1693780048","","0.4736492243","","","","","","",""
"78","","bandit","215","622388","0.0-177.0-0.0","78802959","wem/bandit_single","A2WO6TR132TISV","gain","2","","75","K","2","","1","0","0","0.1753437518","","false","140","0.4494235083","","main_expt","0.4614371154","","0.1753437518","","0.4752570035","","","","","","",""
"320","","bandit","216","624476","0.0-178.0-0.0","78802959","wem/bandit_single","A2WO6TR132TISV","gain","2","","75","K","2","","0","0","1","0.2288512635","","false","141","0.4453484197","","main_expt","0.4747872093","","0.2288512635","","0.4857055712","","","","","","",""
"4","","bandit","217","626249","0.0-179.0-0.0","78802959","wem/bandit_single","A2WO6TR132TISV","gain","2","","75","K","2","","0","0","1","0.2579513082","","false","142","0.4604546146","","main_expt","0.4513335087","","0.2579513082","","0.4792724089","","","","","","",""
"534","","bandit","218","628544","0.0-180.0-0.0","78802959","wem/bandit_single","A2WO6TR132TISV","gain","2","","75","K","2","","0","0","1","0.21432658","","false","143","0.4826245684","","main_expt","0.4198830698","","0.21432658","","0.48057755","","","","","","",""
"0","","bandit","219","630313","0.0-181.0-0.0","78802959","wem/bandit_single","A2WO6TR132TISV","gain","2","","72","H","0","img/none_selected.jpg","0","0","1","0.4890981767","","false","144","0.4890981767","","main_expt","0.3673231636","","0.1938021535","","0.4777600445","","","","","","",""
"55","","bandit","220","632136","0.0-182.0-0.0","78802959","wem/bandit_single","A2WO6TR132TISV","gain","2","","74","J","1","","1","0","0","0.3772368795","","false","145","0.4680822138","","main_expt","0.3772368795","","0.206497324","","0.4735071841","","","","","","",""
"39","","bandit","221","633944","0.0-183.0-0.0","78802959","wem/bandit_single","A2WO6TR132TISV","gain","2","","76","L","3","","0","0","1","0.4598241197","","false","146","0.4660155258","","main_expt","0.3767069828","","0.1857351915","","0.4598241197","","","","","","",""
"280","","bandit","222","635993","0.0-184.0-0.0","78802959","wem/bandit_single","A2WO6TR132TISV","gain","2","","74","J","1","","0","0","1","0.4039806626","","false","147","0.4723880167","","main_expt","0.4039806626","","0.1046475439","","0.4279993213","","","","","","",""
"906","","bandit","223","638665","0.0-185.0-0.0","78802959","wem/bandit_single","A2WO6TR132TISV","gain","2","","74","J","1","","1","0","0","0.4178396587","","false","148","0.4692947112","","main_expt","0.4178396587","","0.1098111678","","0.4422782314","","","","","","",""
"4565","","bandit","224","645000","0.0-186.0-0.0","78802959","wem/bandit_single","A2WO6TR132TISV","gain","2","","74","J","1","","1","0","0","0.3932004216","","false","149","0.4702562614","","main_expt","0.3932004216","","0.1221971929","","0.4514785706","","","","","","",""
"18","","bandit","225","646785","0.0-187.0-0.0","78802959","wem/bandit_single","A2WO6TR132TISV","gain","2","","75","K","2","","0","0","1","0.1354034315","","false","150","0.4714094479","","main_expt","0.4103897693","","0.1354034315","","0.4189864991","","","","","","",""
"591","","bandit","226","649145","0.0-188.0-0.0","78802959","wem/bandit_single","A2WO6TR132TISV","gain","2","","76","L","3","","0","0","1","0.4389233528","","false","151","0.4761401221","","main_expt","0.4122179041","","0.1041822367","","0.4389233528","","","","","","",""
"3318","","bandit","227","654231","0.0-189.0-0.0","78802959","wem/bandit_single","A2WO6TR132TISV","gain","2","","76","L","3","","0","0","1","0.4244236929","","false","152","0.4697737123","","main_expt","0.3952463752","","0.09038071171","","0.4244236929","","","","","","",""
"1470","","bandit","228","657464","0.0-190.0-0.0","78802959","wem/bandit_single","A2WO6TR132TISV","gain","2","","76","L","3","","1","0","0","0.4476471014","","false","153","0.446753433","","main_expt","0.3877384472","","0.08460578514","","0.4476471014","","","","","","",""
"4080","","bandit","229","663313","0.0-191.0-0.0","78802959","wem/bandit_single","A2WO6TR132TISV","gain","2","","75","K","2","","1","0","0","0.06957086972","","false","154","0.4588815304","","main_expt","0.3551427127","","0.06957086972","","0.4505336387","","","","","","",""
"1934","","bandit","230","667015","0.0-192.0-0.0","78802959","wem/bandit_single","A2WO6TR132TISV","gain","2","","75","K","2","","0","0","1","0.07570805595","","false","155","0.4483664475","","main_expt","0.3027898514","","0.07570805595","","0.466992112","","","","","","",""
"1004","","bandit","231","669789","0.0-193.0-0.0","78802959","wem/bandit_single","A2WO6TR132TISV","gain","2","","75","K","2","","0","0","1","0.1010055374","","false","156","0.4383670719","","main_expt","0.3245978035","","0.1010055374","","0.4383448919","","","","","","",""
"441","","bandit","232","672000","0.0-194.0-0.0","78802959","wem/bandit_single","A2WO6TR132TISV","gain","2","","74","J","1","","1","0","0","0.3293821827","","false","157","0.42990192","","main_expt","0.3293821827","","0.09959580587","","0.4181306447","","","","","","",""
"1622","","bandit","233","675389","0.0-195.0-0.0","78802959","wem/bandit_single","A2WO6TR132TISV","gain","2","","74","J","1","","1","0","0","0.3053991167","","false","158","0.4112902825","","main_expt","0.3053991167","","0.09130540219","","0.4322591637","","","","","","",""
"30","","bandit","234","677187","0.0-196.0-0.0","78802959","wem/bandit_single","A2WO6TR132TISV","gain","2","","74","J","1","","0","0","1","0.3475565739","","false","159","0.4085113589","","main_expt","0.3475565739","","0.07080299429","","0.4129829621","","","","","","",""
"32","","bandit","235","678988","0.0-197.0-0.0","78802959","wem/bandit_single","A2WO6TR132TISV","gain","2","","76","L","3","","1","0","0","0.4094933958","","false","160","0.4079314082","","main_expt","0.327393219","","0.05017383151","","0.4094933958","","","","","","",""
"246","","bandit","236","681005","0.0-198.0-0.0","78802959","wem/bandit_single","A2WO6TR132TISV","gain","2","","76","L","3","","1","0","0","0.404058003","","false","161","0.3631501835","","main_expt","0.303429729","","0.03820476969","","0.404058003","","","","","","",""
"59","","bandit","237","682832","0.0-199.0-0.0","78802959","wem/bandit_single","A2WO6TR132TISV","gain","2","","76","L","3","","0","0","1","0.3846726044","","false","162","0.3470346279","","main_expt","0.3079210788","","0.02512507724","","0.3846726044","","","","","","",""
"355","","bandit","238","684956","0.0-200.0-0.0","78802959","wem/bandit_single","A2WO6TR132TISV","gain","2","","75","K","2","","0","0","1","0.03932379445","","false","163","0.372656257","","main_expt","0.3004483846","","0.03932379445","","0.4016559577","","","","","","",""
"67","","bandit","239","686792","0.0-201.0-0.0","78802959","wem/bandit_single","A2WO6TR132TISV","gain","2","","74","J","1","","1","0","0","0.2886014424","","false","164","0.3802753243","","main_expt","0.2886014424","","0.01829840099","","0.3566256613","","","","","","",""
"176","","bandit","240","688742","0.0-202.0-0.0","78802959","wem/bandit_single","A2WO6TR132TISV","gain","2","","74","J","1","","1","0","0","0.2088325088","","false","165","0.3881672334","","main_expt","0.2088325088","","0.02415252971","","0.3509524146","","","","","","",""
"566","","bandit","241","691076","0.0-203.0-0.0","78802959","wem/bandit_single","A2WO6TR132TISV","gain","2","","74","J","1","","0","0","1","0.2160195985","","false","166","0.359536632","","main_expt","0.2160195985","","0.02185778449","","0.2773632025","","","","","","",""
"3426","","bandit","242","696272","0.0-204.0-0.0","78802959","wem/bandit_single","A2WO6TR132TISV","gain","2","","75","K","2","","0","0","1","0.02761124673","","false","167","0.3693034809","","main_expt","0.1836534764","","0.02761124673","","0.3022689801","","","","","","",""
"1710","","bandit","243","699745","0.0-205.0-0.0","78802959","wem/bandit_single","A2WO6TR132TISV","gain","2","","75","K","2","","0","0","1","0.02160611799","","false","168","0.3449050916","","main_expt","0.1701024481","","0.02160611799","","0.2937690027","","","","","","",""
"366","","bandit","244","701881","0.0-206.0-0.0","78802959","wem/bandit_single","A2WO6TR132TISV","gain","2","","75","K","2","","0","0","1","0.02113437328","","false","169","0.3515710367","","main_expt","0.1896079261","","0.02113437328","","0.2488586406","","","","","","",""
"690","","bandit","245","704340","0.0-207.0-0.0","78802959","wem/bandit_single","A2WO6TR132TISV","gain","2","","75","K","2","","0","0","1","0.01292956957","","false","170","0.3233833909","","main_expt","0.2377789273","","0.01292956957","","0.2112819205","","","","","","",""
"4864","","bandit","246","710974","0.0-208.0-0.0","78802959","wem/bandit_single","A2WO6TR132TISV","gain","2","","75","K","2","","0","0","1","0.01989811998","","false","171","0.2468086364","","main_expt","0.2640247014","","0.01989811998","","0.2217900108","","","","","","",""
"29","","bandit","247","712775","0.0-209.0-0.0","78802959","wem/bandit_single","A2WO6TR132TISV","gain","2","","75","K","2","","0","0","1","0.0296351857","","false","172","0.3408906282","","main_expt","0.2055846389","","0.0296351857","","0.2387596097","","","","","","",""
"2611","","bandit","248","717156","0.0-210.0-0.0","78802959","wem/bandit_single","A2WO6TR132TISV","gain","2","","76","L","3","","1","0","0","0.2602125502","","false","173","0.3252944763","","main_expt","0.2438181894","","0.03540771295","","0.2602125502","","","","","","",""
"570","","bandit","249","719496","0.0-211.0-0.0","78802959","wem/bandit_single","A2WO6TR132TISV","gain","2","","75","K","2","","0","0","1","0.03725130304","","false","174","0.3200904142","","main_expt","0.2733147352","","0.03725130304","","0.2202846771","","","","","","",""
"1743","","bandit","250","723008","0.0-212.0-0.0","78802959","wem/bandit_single","A2WO6TR132TISV","gain","2","","76","L","3","","0","0","1","0.233285157","","false","175","0.3622659173","","main_expt","0.2767671147","","0.03242602151","","0.233285157","","","","","","",""
"6058","","bandit","251","730834","0.0-213.0-0.0","78802959","wem/bandit_single","A2WO6TR132TISV","gain","2","","75","K","2","","0","0","1","0.04697917163","","false","176","0.2937007374","","main_expt","0.2195478827","","0.04697917163","","0.2264555061","","","","","","",""
"23","","bandit","252","732626","0.0-214.0-0.0","78802959","wem/bandit_single","A2WO6TR132TISV","gain","2","","75","K","2","","0","0","1","0.04124559051","","false","177","0.2513366018","","main_expt","0.1515864758","","0.04124559051","","0.241841845","","","","","","",""
"1171","","bandit","253","735566","0.0-215.0-0.0","78802959","wem/bandit_single","A2WO6TR132TISV","gain","2","","76","L","3","","0","0","1","0.2423953475","","false","178","0.3159509921","","main_expt","0.1618037694","","0.06205026603","","0.2423953475","","","","","","",""
"1101","","bandit","254","738435","0.0-216.0-0.0","78802959","wem/bandit_single","A2WO6TR132TISV","gain","2","","75","K","2","","0","0","1","0.08412795639","","false","179","0.2899582247","","main_expt","0.1653326191","","0.08412795639","","0.2523089652","","","","","","",""
"93","","bandit","255","740291","0.0-217.0-0.0","78802959","wem/bandit_single","A2WO6TR132TISV","gain","2","","74","J","1","","1","0","0","0.1751853148","","false","180","0.3371390753","","main_expt","0.1751853148","","0.1304099397","","0.2223981335","","","","","","",""
"65","","bandit","256","742127","0.0-218.0-0.0","78802959","wem/bandit_single","A2WO6TR132TISV","gain","2","","74","J","1","","0","0","1","0.211978586","","false","181","0.3365963609","","main_expt","0.211978586","","0.1801801058","","0.2319473409","","","","","","",""
"12","","bandit","257","743906","0.0-219.0-0.0","78802959","wem/bandit_single","A2WO6TR132TISV","gain","2","","72","H","0","img/none_selected.jpg","0","0","1","0.2643366398","","false","182","0.2643366398","","main_expt","0.2323199139","","0.1951504204","","0.2338578761","","","","","","",""
"292","","bandit","258","745971","0.0-220.0-0.0","78802959","wem/bandit_single","A2WO6TR132TISV","gain","2","","72","H","0","img/none_selected.jpg","1","0","0","0.2464000872","","false","183","0.2464000872","","main_expt","0.2252803731","","0.2330781564","","0.265472663","","","","","","",""
"52","","bandit","259","747793","0.0-221.0-0.0","78802959","wem/bandit_single","A2WO6TR132TISV","gain","2","","72","H","0","img/none_selected.jpg","1","0","0","0.3039071009","","false","184","0.3039071009","","main_expt","0.1614269484","","0.2711395555","","0.2826161147","","","","","","",""
"9","","bandit","260","749572","0.0-222.0-0.0","78802959","wem/bandit_single","A2WO6TR132TISV","gain","2","","72","H","0","img/none_selected.jpg","0","0","1","0.3100879913","","false","185","0.3100879913","","main_expt","0.1636939604","","0.2182249031","","0.2542525597","","","","","","",""
"269","","bandit","261","751610","0.0-223.0-0.0","78802959","wem/bandit_single","A2WO6TR132TISV","gain","2","","72","H","0","img/none_selected.jpg","0","0","1","0.28505789","","false","186","0.28505789","","main_expt","0.1744134641","","0.2609412602","","0.260460085","","","","","","",""
"571","","bandit","262","753951","0.0-224.0-0.0","78802959","wem/bandit_single","A2WO6TR132TISV","gain","2","","72","H","0","img/none_selected.jpg","0","0","1","0.2698122055","","false","187","0.2698122055","","main_expt","0.1955069844","","0.2242136054","","0.2119714508","","","","","","",""
"443","","bandit","263","756164","0.0-225.0-0.0","78802959","wem/bandit_single","A2WO6TR132TISV","gain","2","","72","H","0","img/none_selected.jpg","1","0","0","0.2270240414","","false","188","0.2270240414","","main_expt","0.2289740151","","0.2404864381","","0.1887053186","","","","","","",""
"35","","bandit","264","757968","0.0-226.0-0.0","78802959","wem/bandit_single","A2WO6TR132TISV","gain","2","","72","H","0","img/none_selected.jpg","0","0","1","0.2182158859","","false","189","0.2182158859","","main_expt","0.2495887903","","0.2177927796","","0.1944753942","","","","","","",""
"614","","bandit","265","760344","0.0-227.0-0.0","78802959","wem/bandit_single","A2WO6TR132TISV","gain","2","","72","H","0","img/none_selected.jpg","0","0","1","0.2445882628","","false","190","0.2445882628","","main_expt","0.2815424982","","0.2445379922","","0.2163673671","","","","","","",""
"476","","bandit","266","762591","0.0-228.0-0.0","78802959","wem/bandit_single","A2WO6TR132TISV","gain","2","","76","L","3","","1","0","0","0.2584180811","","false","191","0.2733302752","","main_expt","0.2401402076","","0.2910265903","","0.2584180811","","","","","","",""
"438","","bandit","267","764798","0.0-229.0-0.0","78802959","wem/bandit_single","A2WO6TR132TISV","gain","2","","76","L","3","","0","0","1","0.2555063139","","false","192","0.2776932955","","main_expt","0.2510809658","","0.3095983682","","0.2555063139","","","","","","",""
"31","","bandit","268","766598","0.0-230.0-0.0","78802959","wem/bandit_single","A2WO6TR132TISV","gain","2","","75","K","2","","1","0","0","0.3217156539","","false","193","0.3335190616","","main_expt","0.2875405407","","0.3217156539","","0.2694863875","","","","","","",""
"86","","bandit","269","768454","0.0-231.0-0.0","78802959","wem/bandit_single","A2WO6TR132TISV","gain","2","","74","J","1","","0","0","1","0.2183543786","","false","194","0.3308991278","","main_expt","0.2183543786","","0.278878796","","0.2894821148","","","","","","",""
"486","","bandit","270","770711","0.0-232.0-0.0","78802959","wem/bandit_single","A2WO6TR132TISV","gain","2","","75","K","2","","1","0","0","0.2738334973","","false","195","0.3676749275","","main_expt","0.2626349305","","0.2738334973","","0.3028339589","","","","","","",""
"70","","bandit","271","772552","0.0-233.0-0.0","78802959","wem/bandit_single","A2WO6TR132TISV","gain","2","","75","K","2","","0","0","1","0.2494818112","","false","196","0.3523241719","","main_expt","0.2046446137","","0.2494818112","","0.3051171059","","","","","","",""
"348","","bandit","272","774672","0.0-234.0-0.0","78802959","wem/bandit_single","A2WO6TR132TISV","gain","2","","76","L","3","","0","0","1","0.2901305303","","false","197","0.3874168703","","main_expt","0.2122082762","","0.2620473779","","0.2901305303","","","","","","",""
"42","","bandit","273","776485","0.0-235.0-0.0","78802959","wem/bandit_single","A2WO6TR132TISV","gain","2","","72","H","0","img/none_selected.jpg","1","0","0","0.4072223947","","false","198","0.4072223947","","main_expt","0.1962120249","","0.3153682745","","0.2403600488","","","","","","",""
"85","","bandit","274","778341","0.0-236.0-0.0","78802959","wem/bandit_single","A2WO6TR132TISV","gain","2","","74","J","1","","1","0","0","0.1840541487","","false","199","0.4284861426","","main_expt","0.1840541487","","0.2424407548","","0.2034733728","","","","","","",""
"7","","bandit","275","780119","0.0-237.0-0.0","78802959","wem/bandit_single","A2WO6TR132TISV","gain","2","","74","J","1","","0","0","1","0.1575563837","","false","200","0.4181746593","","main_expt","0.1575563837","","0.2692586032","","0.2193557146","","","","","","",""
"401","","bandit","276","782290","0.0-238.0-0.0","78802959","wem/bandit_single","A2WO6TR132TISV","gain","2","","75","K","2","","0","0","1","0.2605377594","","false","201","0.4134190678","","main_expt","0.138860739","","0.2605377594","","0.2412650678","","","","","","",""
"339","","bandit","277","784391","0.0-239.0-0.0","78802959","wem/bandit_single","A2WO6TR132TISV","gain","2","","72","H","0","img/none_selected.jpg","1","0","0","0.4255663607","","false","202","0.4255663607","","main_expt","0.1216759056","","0.2372211354","","0.2106041824","","","","","","",""
"327","","bandit","278","786487","0.0-240.0-0.0","78802959","wem/bandit_single","A2WO6TR132TISV","gain","2","","75","K","2","","0","0","1","0.20896917","","false","203","0.4267176133","","main_expt","0.1085797693","","0.20896917","","0.2182463191","","","","","","",""
"426","","bandit","279","788682","0.0-241.0-0.0","78802959","wem/bandit_single","A2WO6TR132TISV","gain","2","","72","H","0","img/none_selected.jpg","0","0","1","0.460819217","","false","204","0.460819217","","main_expt","0.08750272662","","0.2277156902","","0.2060997213","","","","","","",""
"674","","bandit","280","791126","0.0-242.0-0.0","78802959","wem/bandit_single","A2WO6TR132TISV","gain","2","","74","J","1","","1","0","0","0.1119911725","","false","205","0.4797370756","","main_expt","0.1119911725","","0.2096017385","","0.2179237498","","","","","","",""
"8042","","bandit","281","800938","0.0-243.0-0.0","78802959","wem/bandit_single","A2WO6TR132TISV","gain","2","","74","J","1","","0","0","1","0.105166696","","false","206","0.4850202511","","main_expt","0.105166696","","0.2293009918","","0.194566176","","","","","","",""
"154","","bandit","282","802865","0.0-244.0-0.0","78802959","wem/bandit_single","A2WO6TR132TISV","gain","2","","72","H","0","img/none_selected.jpg","1","0","0","0.4588339162","","false","207","0.4588339162","","main_expt","0.07428909222","","0.2613461541","","0.2540459421","","","","","","",""
"116","","bandit","283","804753","0.0-245.0-0.0","78802959","wem/bandit_single","A2WO6TR132TISV","gain","2","","72","H","0","img/none_selected.jpg","0","0","1","0.4704498371","","false","208","0.4704498371","","main_expt","0.08415887516","","0.2921374763","","0.2165425212","","","","","","",""
"202","","bandit","284","806724","0.0-246.0-0.0","78802959","wem/bandit_single","A2WO6TR132TISV","gain","2","","72","H","0","img/none_selected.jpg","0","0","1","0.4498430745","","false","209","0.4498430745","","main_expt","0.05558253146","","0.2679345114","","0.1808740619","","","","","","",""
"125","","bandit","285","808620","0.0-247.0-0.0","78802959","wem/bandit_single","A2WO6TR132TISV","gain","2","","76","L","3","","1","0","0","0.2298827717","","false","210","0.4463117693","","main_expt","0.04914985493","","0.2356021564","","0.2298827717","","","","","","",""
"74","","bandit","286","810464","0.0-248.0-0.0","78802959","wem/bandit_single","A2WO6TR132TISV","gain","2","","76","L","3","","0","0","1","0.2533880575","","false","211","0.422163821","","main_expt","0.03798033643","","0.2152320876","","0.2533880575","","","","","","",""
"87","","bandit","287","812321","0.0-249.0-0.0","78802959","wem/bandit_single","A2WO6TR132TISV","gain","2","","76","L","3","","0","0","1","0.2771241442","","false","212","0.3852039581","","main_expt","0.03974322714","","0.2216595069","","0.2771241442","","","","","","",""
"362","","bandit","288","814452","0.0-250.0-0.0","78802959","wem/bandit_single","A2WO6TR132TISV","gain","2","","76","L","3","","0","0","1","0.3010302337","","false","213","0.3822954745","","main_expt","0.02384455773","","0.2150176613","","0.3010302337","","","","","","",""
"142","","bandit","289","816366","0.0-251.0-0.0","78802959","wem/bandit_single","A2WO6TR132TISV","gain","2","","75","K","2","","1","0","0","0.1772129937","","false","214","0.3608549874","","main_expt","0.03216660231","","0.1772129937","","0.3409008015","","","","","","",""
"289","","bandit","290","818427","0.0-252.0-0.0","78802959","wem/bandit_single","A2WO6TR132TISV","gain","2","","75","K","2","","0","0","1","0.1584975441","","false","215","0.3621739951","","main_expt","0.03095464101","","0.1584975441","","0.3227810677","","","","","","",""
"130","","bandit","291","820328","0.0-253.0-0.0","78802959","wem/bandit_single","A2WO6TR132TISV","gain","2","","72","H","0","img/none_selected.jpg","0","0","1","0.3733564142","","false","216","0.3733564142","","main_expt","0.04011500866","","0.1256434713","","0.3636386285","","","","","","",""
"303","","bandit","292","822402","0.0-254.0-0.0","78802959","wem/bandit_single","A2WO6TR132TISV","gain","2","","74","J","1","","0","0","1","0.02351309264","","false","217","0.3856473275","","main_expt","0.02351309264","","0.1601534085","","0.3649758886","","","","","","",""
"303","","bandit","293","824478","0.0-255.0-0.0","78802959","wem/bandit_single","A2WO6TR132TISV","gain","2","","74","J","1","","0","0","1","0.01650540734","","false","218","0.3645608201","","main_expt","0.01650540734","","0.1514518834","","0.3641131336","","","","","","",""
"426","","bandit","294","826674","0.0-256.0-0.0","78802959","wem/bandit_single","A2WO6TR132TISV","gain","2","","74","J","1","","0","0","1","0.03577324375","","false","219","0.3851453746","","main_expt","0.03577324375","","0.2415223947","","0.341156599","","","","","","",""
"4033","","bandit","295","832479","0.0-257.0-0.0","78802959","wem/bandit_single","A2WO6TR132TISV","gain","2","","74","J","1","","0","0","1","0.03655385126","","false","220","0.4075423229","","main_expt","0.03655385126","","0.2248182851","","0.266049218","","","","","","",""
"98","","bandit","296","834347","0.0-258.0-0.0","78802959","wem/bandit_single","A2WO6TR132TISV","gain","2","","74","J","1","","0","0","1","0.03282050992","","false","221","0.4083347012","","main_expt","0.03282050992","","0.2588925836","","0.2359154628","","","","","","",""
"205","","bandit","297","836321","0.0-259.0-0.0","78802959","wem/bandit_single","A2WO6TR132TISV","gain","2","","75","K","2","","0","0","1","0.2025188389","","false","222","0.4083223781","","main_expt","0.02558717114","","0.2025188389","","0.2640726019","","","","","","",""
"55","","bandit","298","838146","0.0-260.0-0.0","78802959","wem/bandit_single","A2WO6TR132TISV","gain","2","","76","L","3","","0","0","1","0.1860418506","","false","223","0.4240474742","","main_expt","0.04788205671","","0.1609755914","","0.1860418506","","","","","","",""
"764","","bandit","299","840682","0.0-261.0-0.0","78802959","wem/bandit_single","A2WO6TR132TISV","gain","2","","72","H","0","img/none_selected.jpg","1","0","0","0.4346876605","","false","224","0.4346876605","","main_expt","0.05498715651","","0.2316748255","","0.151875944","","","","","","",""
"135","","bandit","300","842588","0.0-262.0-0.0","78802959","wem/bandit_single","A2WO6TR132TISV","gain","2","","72","H","0","img/none_selected.jpg","1","0","0","0.4541072866","","false","225","0.4541072866","","main_expt","0.056476577","","0.1605893144","","0.1209973656","","","","","","",""
"101","","bandit","301","844464","0.0-263.0-0.0","78802959","wem/bandit_single","A2WO6TR132TISV","gain","2","","75","K","2","","0","0","1","0.1389366963","","false","226","0.4239515892","","main_expt","0.06361054401","","0.1389366963","","0.1503457952","","","","","","",""
"124","","bandit","302","846360","0.0-264.0-0.0","78802959","wem/bandit_single","A2WO6TR132TISV","gain","2","","74","J","1","","0","0","1","0.03819722012","","false","227","0.4122914309","","main_expt","0.03819722012","","0.09987042713","","0.1784166707","","","","","","",""
"305","","bandit","303","848434","0.0-265.0-0.0","78802959","wem/bandit_single","A2WO6TR132TISV","gain","2","","76","L","3","","0","0","1","0.1729157366","","false","228","0.4022765074","","main_expt","0.03706892342","","0.1511988136","","0.1729157366","","","","","","",""
"64","","bandit","304","850271","0.0-266.0-0.0","78802959","wem/bandit_single","A2WO6TR132TISV","gain","2","","75","K","2","","0","0","1","0.1165125066","","false","229","0.3991813765","","main_expt","0.05619366589","","0.1165125066","","0.2035050609","","","","","","",""
"65","","bandit","305","852107","0.0-267.0-0.0","78802959","wem/bandit_single","A2WO6TR132TISV","gain","2","","74","J","1","","0","0","1","0.02398835026","","false","230","0.3771825363","","main_expt","0.02398835026","","0.09058018373","","0.1677195288","","","","","","",""
"121","","bandit","306","854001","0.0-268.0-0.0","78802959","wem/bandit_single","A2WO6TR132TISV","gain","2","","72","H","0","img/none_selected.jpg","0","0","1","0.4081115595","","false","231","0.4081115595","","main_expt","0.01087418165","","0.1254599363","","0.1568417205","","","","","","",""
"414","","bandit","307","856187","0.0-269.0-0.0","78802959","wem/bandit_single","A2WO6TR132TISV","gain","2","","74","J","1","","0","0","1","0.005667282796","","false","232","0.4227202023","","main_expt","0.005667282796","","0.09699218641","","0.1733774055","","","","","","",""
"274","","bandit","308","858234","0.0-270.0-0.0","78802959","wem/bandit_single","A2WO6TR132TISV","gain","2","","75","K","2","","0","0","1","0.07122003092","","false","233","0.4267606383","","main_expt","0.00711790457","","0.07122003092","","0.2318808439","","","","","","",""
"43","","bandit","309","860042","0.0-271.0-0.0","78802959","wem/bandit_single","A2WO6TR132TISV","gain","2","","75","K","2","","0","0","1","0.07078025717","","false","234","0.4076790224","","main_expt","0.01087448681","","0.07078025717","","0.2728484722","","","","","","",""
"455","","bandit","310","862270","0.0-272.0-0.0","78802959","wem/bandit_single","A2WO6TR132TISV","gain","2","","75","K","2","","0","0","1","0.04546889639","","false","235","0.3750136452","","main_expt","0.008183852991","","0.04546889639","","0.230842538","","","","","","",""
"206","","bandit","311","864247","0.0-273.0-0.0","78802959","wem/bandit_single","A2WO6TR132TISV","gain","2","","76","L","3","","0","0","1","0.2565969246","","false","236","0.3579900966","","main_expt","0.00957014591","","0.07949547843","","0.2565969246","","","","","","",""
"593","","bandit","312","866612","0.0-274.0-0.0","78802959","wem/bandit_single","A2WO6TR132TISV","gain","2","","75","K","2","","0","0","1","0.06498208703","","false","237","0.3685919787","","main_expt","0.02345003211","","0.06498208703","","0.2661079812","","","","","","",""
"399","","bandit","313","868782","0.0-275.0-0.0","78802959","wem/bandit_single","A2WO6TR132TISV","gain","2","","72","H","0","img/none_selected.jpg","0","0","1","0.3220789964","","false","238","0.3220789964","","main_expt","0.02056264696","","0.07283675032","","0.3192940022","","","","","","",""
"85","","bandit","314","870640","0.0-276.0-0.0","78802959","wem/bandit_single","A2WO6TR132TISV","gain","2","","74","J","1","","0","0","1","0.02436326326","","false","239","0.3059519391","","main_expt","0.02436326326","","0.08723568047","","0.3150738333","","","","","","",""
"155","","bandit","315","872566","0.0-277.0-0.0","78802959","wem/bandit_single","A2WO6TR132TISV","gain","2","","76","L","3","","0","0","1","0.3008600842","","false","240","0.3168560559","","main_expt","0.0242835944","","0.06404566497","","0.3008600842","","","","","","",""
"37","","bandit","316","874375","0.0-278.0-0.0","78802959","wem/bandit_single","A2WO6TR132TISV","gain","2","","76","L","3","","0","0","1","0.2677087501","","false","241","0.269391424","","main_expt","0.02652021178","","0.05187051438","","0.2677087501","","","","","","",""
"23","","bandit","317","876170","0.0-279.0-0.0","78802959","wem/bandit_single","A2WO6TR132TISV","gain","2","","75","K","2","","0","0","1","0.04056120823","","false","242","0.2061132751","","main_expt","0.0264543433","","0.04056120823","","0.2645585527","","","","","","",""
"127","","bandit","318","878071","0.0-280.0-0.0","78802959","wem/bandit_single","A2WO6TR132TISV","gain","2","","75","K","2","","0","0","1","0.02806248696","","false","243","0.1996760118","","main_expt","0.02176476481","","0.02806248696","","0.2793098336","","","","","","",""
"29","","bandit","319","879871","0.0-281.0-0.0","78802959","wem/bandit_single","A2WO6TR132TISV","gain","2","","74","J","1","","0","0","1","0.01301534777","","false","244","0.1719334629","","main_expt","0.01301534777","","0.04063524207","","0.285685864","","","","","","",""
"323","","bandit","320","881967","0.0-282.0-0.0","78802959","wem/bandit_single","A2WO6TR132TISV","gain","2","","72","H","0","img/none_selected.jpg","0","0","1","0.2264626889","","false","245","0.2264626889","","main_expt","0.02332936253","","0.03258124644","","0.2792363563","","","","","","",""
"45","","bandit","321","883784","0.0-283.0-0.0","78802959","wem/bandit_single","A2WO6TR132TISV","gain","2","","72","H","0","img/none_selected.jpg","0","0","1","0.2097999869","","false","246","0.2097999869","","main_expt","0.02379131239","","0.034431304","","0.2721020884","","","","","","",""
"324","","bandit","322","885880","0.0-284.0-0.0","78802959","wem/bandit_single","A2WO6TR132TISV","gain","2","","74","J","1","","0","0","1","0.02988301985","","false","247","0.2190078117","","main_expt","0.02988301985","","0.0335896152","","0.2784836582","","","","","","",""
"57","","bandit","323","887709","0.0-285.0-0.0","78802959","wem/bandit_single","A2WO6TR132TISV","gain","2","","75","K","2","","0","0","1","0.0373608022","","false","248","0.214739415","","main_expt","0.04121629219","","0.0373608022","","0.2155360038","","","","","","",""
"63","","bandit","324","889546","0.0-286.0-0.0","78802959","wem/bandit_single","A2WO6TR132TISV","gain","2","","75","K","2","","0","0","1","0.04629433077","","false","249","0.2361668487","","main_expt","0.03081548873","","0.04629433077","","0.2182269439","","","","","","",""
"31","","bandit","325","891351","0.0-287.0-0.0","78802959","wem/bandit_single","A2WO6TR132TISV","gain","2","","76","L","3","","0","0","1","0.2794373206","","false","250","0.2730147117","","main_expt","0.02831669856","","0.04794370872","","0.2794373206","","","","","","",""
"50","","bandit","326","893174","0.0-288.0-0.0","78802959","wem/bandit_single","A2WO6TR132TISV","gain","2","","76","L","3","","0","0","1","0.2925698281","","false","251","0.2591269664","","main_expt","0.02600870455","","0.06568157066","","0.2925698281","","","","","","",""
"2276","","bandit","327","897224","0.0-289.0-0.0","78802959","wem/bandit_single","A2WO6TR132TISV","gain","2","","76","L","3","","1","0","0","0.2727886948","","false","252","0.3091321407","","main_expt","0.02705961599","","0.07567030371","","0.2727886948","","","","","","",""
"1633","","bandit","328","900631","0.0-290.0-0.0","78802959","wem/bandit_single","A2WO6TR132TISV","gain","2","","75","K","2","","0","0","1","0.06628052114","","false","253","0.2284010385","","main_expt","0.01805963102","","0.06628052114","","0.2470803404","","","","","","",""
"62","","bandit","329","902466","0.0-291.0-0.0","78802959","wem/bandit_single","A2WO6TR132TISV","gain","2","","76","L","3","","0","0","1","0.3366881304","","false","254","0.2452739286","","main_expt","0.01631706542","","0.08321976201","","0.3366881304","","","","","","",""
"1552","","bandit","330","905783","0.0-292.0-0.0","78802959","wem/bandit_single","A2WO6TR132TISV","gain","2","","76","L","3","","0","0","1","0.3781216995","","false","255","0.2769296881","","main_expt","0.01966147099","","0.1379446817","","0.3781216995","","","","","","",""
"1918","","bandit","331","909476","0.0-293.0-0.0","78802959","wem/bandit_single","A2WO6TR132TISV","gain","2","","76","L","3","","0","0","1","0.3565974786","","false","256","0.222598086","","main_expt","0.02801527349","","0.1104053019","","0.3565974786","","","","","","",""
"446","","bandit","332","911695","0.0-294.0-0.0","78802959","wem/bandit_single","A2WO6TR132TISV","gain","2","","75","K","2","","0","0","1","0.110095483","","false","257","0.2497605863","","main_expt","0.02393064904","","0.110095483","","0.3668333327","","","","","","",""
"4257","","bandit","333","917726","0.0-295.0-0.0","78802959","wem/bandit_single","A2WO6TR132TISV","gain","2","","75","K","2","","0","0","1","0.09250214804","","false","258","0.248028097","","main_expt","0.01715644076","","0.09250214804","","0.3978392262","","","","","","",""
"1963","","bandit","334","921465","0.0-296.0-0.0","78802959","wem/bandit_single","A2WO6TR132TISV","gain","2","","74","J","1","","0","0","1","0.01812234738","","false","259","0.210079309","","main_expt","0.01812234738","","0.1288972452","","0.3892622443","","","","","","",""
"1056","","bandit","335","924294","0.0-297.0-0.0","78802959","wem/bandit_single","A2WO6TR132TISV","gain","2","","75","K","2","","1","0","0","0.127844668","","false","260","0.1785868889","","main_expt","0.01699252537","","0.127844668","","0.3787635018","","","","","","",""
"1674","","bandit","336","927741","0.0-298.0-0.0","78802959","wem/bandit_single","A2WO6TR132TISV","gain","2","","76","L","3","","0","0","1","0.4151771386","","false","261","0.1855690742","","main_expt","0.02027773674","","0.1408125104","","0.4151771386","","","","","","",""
"3799","","bandit","337","933315","0.0-299.0-0.0","78802959","wem/bandit_single","A2WO6TR132TISV","gain","2","","75","K","2","","0","0","1","0.1423762304","","false","262","0.2454672077","","main_expt","0.008159173947","","0.1423762304","","0.4184001904","","","","","","",""
"3345","","bandit","338","938433","0.0-300.0-0.0","78802959","wem/bandit_single","A2WO6TR132TISV","gain","2","","76","L","3","","0","0","1","0.4397427278","","false","263","0.2423041147","","main_expt","0.00730364875","","0.1237094287","","0.4397427278","","","","","","",""
"4842","","bandit","339","945050","0.0-301.0-0.0","78802959","wem/bandit_single","A2WO6TR132TISV","gain","2","","76","L","3","","0","0","1","0.4308816061","","false","264","0.2771483686","","main_expt","0.008891010149","","0.1110826985","","0.4308816061","","","","","","",""
"4201","","bandit","340","951025","0.0-302.0-0.0","78802959","wem/bandit_single","A2WO6TR132TISV","gain","2","","76","L","3","","0","0","1","0.4310956018","","false","265","0.2066329382","","main_expt","0.009434589262","","0.09816719149","","0.4310956018","","","","","","",""
"1267","","bandit","341","954066","0.0-303.0-0.0","78802959","wem/bandit_single","A2WO6TR132TISV","gain","2","","75","K","2","","0","0","1","0.1313615454","","false","266","0.1954640054","","main_expt","0.009503255165","","0.1313615454","","0.4462346174","","","","","","",""
"1922","","bandit","342","957760","0.0-304.0-0.0","78802959","wem/bandit_single","A2WO6TR132TISV","gain","2","","75","K","2","","0","0","1","0.1039649444","","false","267","0.132533774","","main_expt","0.01294763698","","0.1039649444","","0.4649068607","","","","","","",""
"10441","","bandit","343","969978","0.0-305.0-0.0","78802959","wem/bandit_single","A2WO6TR132TISV","gain","2","","75","K","2","","0","0","1","0.0758663636","","false","268","0.1212355483","","main_expt","0.01002763249","","0.0758663636","","0.4499385749","","","","","","",""
"5047","","bandit","344","976798","0.0-306.0-0.0","78802959","wem/bandit_single","A2WO6TR132TISV","gain","2","","75","K","2","","0","0","1","0.08641939852","","false","269","0.1363236216","","main_expt","0.009339874814","","0.08641939852","","0.4702815535","","","","","","",""
"1939","","bandit","345","980510","0.0-307.0-0.0","78802959","wem/bandit_single","A2WO6TR132TISV","gain","2","","74","J","1","","0","0","1","0.0101894737","","false","270","0.1061923246","","main_expt","0.0101894737","","0.08694739741","","0.4738293899","","","","","","",""
"3168","","bandit","346","985452","0.0-308.0-0.0","78802959","wem/bandit_single","A2WO6TR132TISV","gain","2","","75","K","2","","0","0","1","0.07507278363","","false","271","0.09682021381","","main_expt","0.0101062795","","0.07507278363","","0.4552130477","","","","","","",""
"2722","","bandit","347","989946","0.0-309.0-0.0","78802959","wem/bandit_single","A2WO6TR132TISV","gain","2","","76","L","3","","1","0","0","0.4571227508","","false","272","0.0728164368","","main_expt","0.009276773287","","0.09002305832","","0.4571227508","","","","","","",""
"2325","","bandit","348","994044","0.0-310.0-0.0","78802959","wem/bandit_single","A2WO6TR132TISV","gain","2","","76","L","3","","1","0","0","0.4262778794","","false","273","0.1026255411","","main_expt","0.0113492324","","0.07941117108","","0.4262778794","","","","","","",""
"600","","bandit","349","996419","0.0-311.0-0.0","78802959","wem/bandit_single","A2WO6TR132TISV","gain","2","","75","K","2","","0","0","1","0.09301171309","","false","274","0.08683802548","","main_expt","0.005483919941","","0.09301171309","","0.4017895895","","","","","","",""
"1799","","bandit","350","999996","0.0-312.0-0.0","78802959","wem/bandit_single","A2WO6TR132TISV","gain","2","","74","J","1","","0","0","1","0.00462874381","","false","275","0.08250982893","","main_expt","0.00462874381","","0.1012072593","","0.4017548056","","","","","","",""
"1035","","bandit","351","1002804","0.0-313.0-0.0","78802959","wem/bandit_single","A2WO6TR132TISV","gain","2","","75","K","2","","0","0","1","0.1230964009","","false","276","0.06031930624","","main_expt","0.009610611089","","0.1230964009","","0.4072561249","","","","","","",""
"1220","","bandit","352","1005798","0.0-314.0-0.0","78802959","wem/bandit_single","A2WO6TR132TISV","gain","2","","76","L","3","","1","0","0","0.3248287115","","false","277","0.07169075363","","main_expt","0.01319252808","","0.1320105939","","0.3248287115","","","","","","",""
"12476","","bandit","353","1020048","0.0-315.0-0.0","78802959","wem/bandit_single","A2WO6TR132TISV","gain","2","","75","K","2","","1","0","0","0.100271112","","false","278","0.119525529","","main_expt","0.008560453299","","0.100271112","","0.2954662343","","","","","","",""
"1121","","bandit","354","1022944","0.0-316.0-0.0","78802959","wem/bandit_single","A2WO6TR132TISV","gain","2","","75","K","2","","0","0","1","0.0752783975","","false","279","0.05136608794","","main_expt","0.02270234009","","0.0752783975","","0.3430788315","","","","","","",""
"4969","","bandit","355","1029687","0.0-317.0-0.0","78802959","wem/bandit_single","A2WO6TR132TISV","gain","2","","75","K","2","","0","0","1","0.04609407158","","false","280","0.06692305053","","main_expt","0.01842994591","","0.04609407158","","0.298888987","","","","","","",""
"3038","","bandit","356","1034500","0.0-318.0-0.0","78802959","wem/bandit_single","A2WO6TR132TISV","gain","2","","74","J","1","","0","0","1","0.01750385803","","false","281","0.08594942048","","main_expt","0.01750385803","","0.05874754036","","0.317374049","","","","","","",""
"976","","bandit","357","1037251","0.0-319.0-0.0","78802959","wem/bandit_single","A2WO6TR132TISV","gain","2","","74","J","1","","0","0","1","0.01075771148","","false","282","0.08562343316","","main_expt","0.01075771148","","0.05911354127","","0.2905756231","","","","","","",""
"1114","","bandit","358","1040140","0.0-320.0-0.0","78802959","wem/bandit_single","A2WO6TR132TISV","gain","2","","76","L","3","","1","0","0","0.335540713","","false","283","0.06507866554","","main_expt","0.009487342711","","0.0444902615","","0.335540713","","","","","","",""
"282","","bandit","359","1042199","0.0-321.0-0.0","78802959","wem/bandit_single","A2WO6TR132TISV","gain","2","","76","L","3","","1","0","0","0.3569674754","","false","284","0.05738126215","","main_expt","0.01035814212","","0.03666520406","","0.3569674754","","","","","","",""
"1082","","bandit","360","1045059","0.0-322.0-0.0","78802959","wem/bandit_single","A2WO6TR132TISV","gain","2","","75","K","2","","0","0","1","0.02451873239","","false","285","0.06337296056","","main_expt","0.01056818013","","0.02451873239","","0.4068019922","","","","","","",""
"985","","bandit","361","1047818","0.0-323.0-0.0","78802959","wem/bandit_single","A2WO6TR132TISV","gain","2","","75","K","2","","0","0","1","0.02877547985","","false","286","0.04649068967","","main_expt","0.007821227136","","0.02877547985","","0.432978486","","","","","","",""
"1313","","bandit","362","1050907","0.0-324.0-0.0","78802959","wem/bandit_single","A2WO6TR132TISV","gain","2","","74","J","1","","0","0","1","0.01039042452","","false","287","0.04946639224","","main_expt","0.01039042452","","0.03331393821","","0.4213006965","","","","","","",""
"306","","bandit","363","1052988","0.0-325.0-0.0","78802959","wem/bandit_single","A2WO6TR132TISV","gain","2","","75","K","2","","0","0","1","0.02363643209","","false","288","0.03962947871","","main_expt","0.02141961277","","0.02363643209","","0.4094413186","","","","","","",""
"658","","bandit","364","1055420","0.0-326.0-0.0","78802959","wem/bandit_single","A2WO6TR132TISV","gain","2","","75","K","2","","1","0","0","0.0366455232","","false","289","0.05295486238","","main_expt","0.02062414181","","0.0366455232","","0.3731302572","","","","","","",""
"1564","","bandit","365","1058759","0.0-327.0-0.0","78802959","wem/bandit_single","A2WO6TR132TISV","gain","2","","75","K","2","","0","0","1","0.04887184979","","false","290","0.06311332932","","main_expt","0.01411690602","","0.04887184979","","0.4076032329","","","","","","",""
"318","","bandit","366","1060850","0.0-328.0-0.0","78802959","wem/bandit_single","A2WO6TR132TISV","gain","2","","74","J","1","","0","0","1","0.03188260643","","false","291","0.07741633782","","main_expt","0.03188260643","","0.03783642248","","0.4134699565","","","","","","",""
"1726","","bandit","367","1064351","0.0-329.0-0.0","78802959","wem/bandit_single","A2WO6TR132TISV","gain","2","","75","K","2","","0","0","1","0.07820299584","","false","292","0.09064252153","","main_expt","0.03429620073","","0.07820299584","","0.3827884258","","","","","","",""
"965","","bandit","368","1067092","0.0-330.0-0.0","78802959","wem/bandit_single","A2WO6TR132TISV","gain","2","","76","L","3","","0","0","1","0.4162015812","","false","293","0.07659126906","","main_expt","0.030392347","","0.07060894185","","0.4162015812","","","","","","",""
"1163","","bandit","369","1070019","0.0-331.0-0.0","78802959","wem/bandit_single","A2WO6TR132TISV","gain","2","","75","K","2","","0","0","1","0.1051632986","","false","294","0.08042624432","","main_expt","0.04782046051","","0.1051632986","","0.447674372","","","","","","",""
"1446","","bandit","370","1073239","0.0-332.0-0.0","78802959","wem/bandit_single","A2WO6TR132TISV","gain","2","","74","J","1","","0","0","1","0.06309063339","","false","295","0.1216640212","","main_expt","0.06309063339","","0.06624019153","","0.4402126752","","","","","","",""
"780","","bandit","371","1075795","0.0-333.0-0.0","78802959","wem/bandit_single","A2WO6TR132TISV","gain","2","","75","K","2","","0","0","1","0.07088700909","","false","296","0.1058257345","","main_expt","0.09511663338","","0.07088700909","","0.4378891161","","","","","","",""
"1833","","bandit","372","1079403","0.0-334.0-0.0","78802959","wem/bandit_single","A2WO6TR132TISV","gain","2","","72","H","0","img/none_selected.jpg","0","0","1","0.1101311263","","false","297","0.1101311263","","main_expt","0.07325770628","","0.0529580871","","0.468153315","","","","","","",""
"1567","","bandit","373","1082748","0.0-335.0-0.0","78802959","wem/bandit_single","A2WO6TR132TISV","gain","2","","74","J","1","","1","0","0","0.06352452747","","false","298","0.1117004815","","main_expt","0.06352452747","","0.04256970448","","0.4538992283","","","","","","",""
