"rt","responses","trial_type","trial_index","time_elapsed","internal_node_id","subjID","study","MID","cond","drift","key_press","respCharCode","respKey","respChoiceNum","respChoice","gems","bombs","no_reward","GemPrChosen","BombPrChosen","practice","trial_counter","WinPr_0","LosePr_0","trial_label","WinPr_1","LosePr_1","WinPr_2","LosePr_2","WinPr_3","LosePr_3","Q0","Q1","Q2","gender","age","ethnicity"
"16366","{""Q0"":""7893628""}","survey-text","0","16370","0.0-0.0","79270934","wem/bandit_single","AC4LBMA5QJJ1I","pain","1","","","","","","","","","","","","","","","","","","","","","","","","","","",""
"2355","","text","1","19728","0.0-1.0","79270934","wem/bandit_single","AC4LBMA5QJJ1I","pain","1","32","","","","","","","","","","","","","","","","","","","","","","","","","",""
"2124","","text","2","21853","0.0-2.0","79270934","wem/bandit_single","AC4LBMA5QJJ1I","pain","1","32","","","","","","","","","","","","","","","","","","","","","","","","","",""
"4683","","text","3","26537","0.0-3.0","79270934","wem/bandit_single","AC4LBMA5QJJ1I","pain","1","32","","","","","","","","","","","","","","","","","","","","","","","","","",""
"4529","","text","4","31067","0.0-4.0","79270934","wem/bandit_single","AC4LBMA5QJJ1I","pain","1","32","","","","","","","","","","","","","","","","","","","","","","","","","",""
"5537","","text","5","36605","0.0-5.0","79270934","wem/bandit_single","AC4LBMA5QJJ1I","pain","1","32","","","","","","","","","","","","","","","","","","","","","","","","","",""
"7592","","text","6","44198","0.0-6.0","79270934","wem/bandit_single","AC4LBMA5QJJ1I","pain","1","32","","","","","","","","","","","","","","","","","","","","","","","","","",""
"3100","","text","7","47298","0.0-7.0","79270934","wem/bandit_single","AC4LBMA5QJJ1I","pain","1","32","","","","","","","","","","","","","","","","","","","","","","","","","",""
"2436","","text","8","49735","0.0-8.0","79270934","wem/bandit_single","AC4LBMA5QJJ1I","pain","1","32","","","","","","","","","","","","","","","","","","","","","","","","","",""
"1003","","text","9","50739","0.0-9.0","79270934","wem/bandit_single","AC4LBMA5QJJ1I","pain","1","32","","","","","","","","","","","","","","","","","","","","","","","","","",""
"1568","","text","10","52308","0.0-10.0","79270934","wem/bandit_single","AC4LBMA5QJJ1I","pain","1","32","","","","","","","","","","","","","","","","","","","","","","","","","",""
"660","","text","11","52969","0.0-11.0","79270934","wem/bandit_single","AC4LBMA5QJJ1I","pain","1","32","","","","","","","","","","","","","","","","","","","","","","","","","",""
"431","","bandit","12","54922","0.0-12.0-0.0","79270934","wem/bandit_single","AC4LBMA5QJJ1I","pain","1","","74","J","0","img/none_selected_demo.jpg","0","0","1","0","0","true","0","0","0","","","","","","","","","","","","",""
"776","","bandit","13","57480","0.0-13.0-0.0","79270934","wem/bandit_single","AC4LBMA5QJJ1I","pain","1","","75","K","0","img/none_selected_demo.jpg","0","0","1","0","0","true","0","0","0","","","","","","","","","","","","",""
"1871","","text","14","59610","0.0-14.0","79270934","wem/bandit_single","AC4LBMA5QJJ1I","pain","1","32","","","","","","","","","","","","","","","","","","","","","","","","","",""
"1064","","text","15","60675","0.0-15.0","79270934","wem/bandit_single","AC4LBMA5QJJ1I","pain","1","32","","","","","","","","","","","","","","","","","","","","","","","","","",""
"2083","","text","16","62760","0.0-16.0","79270934","wem/bandit_single","AC4LBMA5QJJ1I","pain","1","32","","","","","","","","","","","","","","","","","","","","","","","","","",""
"1266","","text","17","64027","0.0-17.0","79270934","wem/bandit_single","AC4LBMA5QJJ1I","pain","1","32","","","","","","","","","","","","","","","","","","","","","","","","","",""
"461","","bandit","18","66000","0.0-18.0-0.0","79270934","wem/bandit_single","AC4LBMA5QJJ1I","pain","1","","74","J","0","img/none_selected_demo.jpg","0","1","0","0","0.8","true","0","0","0.8","80_20_practice","0","0.2","","","","","","","","","",""
"87","","bandit","19","67856","0.0-18.0-1.0","79270934","wem/bandit_single","AC4LBMA5QJJ1I","pain","1","","74","J","0","img/none_selected_demo.jpg","0","1","0","0","0.8","true","0","0","0.8","80_20_practice","0","0.2","","","","","","","","","",""
"140","","bandit","20","69778","0.0-18.0-2.0","79270934","wem/bandit_single","AC4LBMA5QJJ1I","pain","1","","74","J","0","img/none_selected_demo.jpg","0","1","0","0","0.8","true","0","0","0.8","80_20_practice","0","0.2","","","","","","","","","",""
"447","","bandit","21","71999","0.0-18.0-3.0","79270934","wem/bandit_single","AC4LBMA5QJJ1I","pain","1","","74","J","0","img/none_selected_demo.jpg","0","1","0","0","0.8","true","0","0","0.8","80_20_practice","0","0.2","","","","","","","","","",""
"870","","bandit","22","74630","0.0-18.0-4.0","79270934","wem/bandit_single","AC4LBMA5QJJ1I","pain","1","","74","J","0","img/none_selected_demo.jpg","0","1","0","0","0.8","true","0","0","0.8","80_20_practice","0","0.2","","","","","","","","","",""
"111","","bandit","23","76503","0.0-18.0-5.0","79270934","wem/bandit_single","AC4LBMA5QJJ1I","pain","1","","74","J","0","img/none_selected_demo.jpg","0","0","1","0","0.8","true","0","0","0.8","80_20_practice","0","0.2","","","","","","","","","",""
"849","","bandit","24","79125","0.0-18.0-6.0","79270934","wem/bandit_single","AC4LBMA5QJJ1I","pain","1","","74","J","0","img/none_selected_demo.jpg","0","1","0","0","0.8","true","0","0","0.8","80_20_practice","0","0.2","","","","","","","","","",""
"682","","bandit","25","81581","0.0-18.0-7.0","79270934","wem/bandit_single","AC4LBMA5QJJ1I","pain","1","","74","J","0","img/none_selected_demo.jpg","0","1","0","0","0.8","true","0","0","0.8","80_20_practice","0","0.2","","","","","","","","","",""
"1978","","bandit","26","85340","0.0-18.0-8.0","79270934","wem/bandit_single","AC4LBMA5QJJ1I","pain","1","","74","J","0","img/none_selected_demo.jpg","0","1","0","0","0.8","true","0","0","0.8","80_20_practice","0","0.2","","","","","","","","","",""
"160","","bandit","27","87263","0.0-18.0-9.0","79270934","wem/bandit_single","AC4LBMA5QJJ1I","pain","1","","74","J","0","img/none_selected_demo.jpg","0","1","0","0","0.8","true","0","0","0.8","80_20_practice","0","0.2","","","","","","","","","",""
"1244","","bandit","28","90278","0.0-18.0-10.0","79270934","wem/bandit_single","AC4LBMA5QJJ1I","pain","1","","74","J","0","img/none_selected_demo.jpg","0","1","0","0","0.8","true","0","0","0.8","80_20_practice","0","0.2","","","","","","","","","",""
"397","","bandit","29","92436","0.0-18.0-11.0","79270934","wem/bandit_single","AC4LBMA5QJJ1I","pain","1","","74","J","0","img/none_selected_demo.jpg","0","1","0","0","0.8","true","0","0","0.8","80_20_practice","0","0.2","","","","","","","","","",""
"1762","","bandit","30","95958","0.0-18.0-12.0","79270934","wem/bandit_single","AC4LBMA5QJJ1I","pain","1","","74","J","0","img/none_selected_demo.jpg","0","1","0","0","0.8","true","0","0","0.8","80_20_practice","0","0.2","","","","","","","","","",""
"822","","bandit","31","98564","0.0-18.0-13.0","79270934","wem/bandit_single","AC4LBMA5QJJ1I","pain","1","","74","J","0","img/none_selected_demo.jpg","0","1","0","0","0.8","true","0","0","0.8","80_20_practice","0","0.2","","","","","","","","","",""
"418","","bandit","32","100739","0.0-18.0-14.0","79270934","wem/bandit_single","AC4LBMA5QJJ1I","pain","1","","74","J","0","img/none_selected_demo.jpg","0","1","0","0","0.8","true","0","0","0.8","80_20_practice","0","0.2","","","","","","","","","",""
"348","","bandit","33","102858","0.0-18.0-15.0","79270934","wem/bandit_single","AC4LBMA5QJJ1I","pain","1","","74","J","0","img/none_selected_demo.jpg","0","1","0","0","0.8","true","0","0","0.8","80_20_practice","0","0.2","","","","","","","","","",""
"306","","bandit","34","104926","0.0-18.0-16.0","79270934","wem/bandit_single","AC4LBMA5QJJ1I","pain","1","","74","J","0","img/none_selected_demo.jpg","0","1","0","0","0.8","true","0","0","0.8","80_20_practice","0","0.2","","","","","","","","","",""
"362","","bandit","35","107077","0.0-18.0-17.0","79270934","wem/bandit_single","AC4LBMA5QJJ1I","pain","1","","74","J","0","img/none_selected_demo.jpg","0","1","0","0","0.8","true","0","0","0.8","80_20_practice","0","0.2","","","","","","","","","",""
"349","","bandit","36","109185","0.0-18.0-18.0","79270934","wem/bandit_single","AC4LBMA5QJJ1I","pain","1","","74","J","0","img/none_selected_demo.jpg","0","1","0","0","0.8","true","0","0","0.8","80_20_practice","0","0.2","","","","","","","","","",""
"333","","bandit","37","111273","0.0-18.0-19.0","79270934","wem/bandit_single","AC4LBMA5QJJ1I","pain","1","","74","J","0","img/none_selected_demo.jpg","0","1","0","0","0.8","true","0","0","0.8","80_20_practice","0","0.2","","","","","","","","","",""
"3702","","text","38","115227","0.0-19.0","79270934","wem/bandit_single","AC4LBMA5QJJ1I","pain","1","32","","","","","","","","","","","","","","","","","","","","","","","","","",""
"1000","","bandit","39","117735","0.0-20.0-0.0","79270934","wem/bandit_single","AC4LBMA5QJJ1I","pain","1","","74","J","0","img/none_selected_demo.jpg","0","0","1","0","0","true","0","0","0","","0","0","","","","","","","","","",""
"2497","","text","40","120484","0.0-21.0","79270934","wem/bandit_single","AC4LBMA5QJJ1I","pain","1","32","","","","","","","","","","","","","","","","","","","","","","","","","",""
"2778","","text","41","123263","0.0-22.0","79270934","wem/bandit_single","AC4LBMA5QJJ1I","pain","1","32","","","","","","","","","","","","","","","","","","","","","","","","","",""
"751","","text","42","124015","0.0-23.0","79270934","wem/bandit_single","AC4LBMA5QJJ1I","pain","1","32","","","","","","","","","","","","","","","","","","","","","","","","","",""
"1468","","text","43","125484","0.0-24.0","79270934","wem/bandit_single","AC4LBMA5QJJ1I","pain","1","32","","","","","","","","","","","","","","","","","","","","","","","","","",""
"5292","","text","44","130778","0.0-25.0","79270934","wem/bandit_single","AC4LBMA5QJJ1I","pain","1","32","","","","","","","","","","","","","","","","","","","","","","","","","",""
"2167","","text","45","132946","0.0-26.0","79270934","wem/bandit_single","AC4LBMA5QJJ1I","pain","1","32","","","","","","","","","","","","","","","","","","","","","","","","","",""
"1743","","text","46","134690","0.0-27.0","79270934","wem/bandit_single","AC4LBMA5QJJ1I","pain","1","32","","","","","","","","","","","","","","","","","","","","","","","","","",""
"1213","","text","47","135903","0.0-28.0","79270934","wem/bandit_single","AC4LBMA5QJJ1I","pain","1","32","","","","","","","","","","","","","","","","","","","","","","","","","",""
"3727","","text","48","139632","0.0-29.0","79270934","wem/bandit_single","AC4LBMA5QJJ1I","pain","1","32","","","","","","","","","","","","","","","","","","","","","","","","","",""
"1122","","text","49","140755","0.0-30.0","79270934","wem/bandit_single","AC4LBMA5QJJ1I","pain","1","32","","","","","","","","","","","","","","","","","","","","","","","","","",""
"1916","","text","50","142673","0.0-31.0","79270934","wem/bandit_single","AC4LBMA5QJJ1I","pain","1","32","","","","","","","","","","","","","","","","","","","","","","","","","",""
"1329","","bandit","51","145515","0.0-32.0-0.0","79270934","wem/bandit_single","AC4LBMA5QJJ1I","pain","1","","72","H","0","img/none_selected.jpg","0","1","0","0","0.8","true","0","0","0.8","full_practice","0","0.2","0","0.6","0","0.2","","","","","",""
"85","","bandit","52","147356","0.0-32.0-1.0","79270934","wem/bandit_single","AC4LBMA5QJJ1I","pain","1","","72","H","0","img/none_selected.jpg","0","1","0","0","0.8","true","0","0","0.8","full_practice","0","0.2","0","0.6","0","0.2","","","","","",""
"164","","bandit","53","149280","0.0-32.0-2.0","79270934","wem/bandit_single","AC4LBMA5QJJ1I","pain","1","","72","H","0","img/none_selected.jpg","0","1","0","0","0.8","true","0","0","0.8","full_practice","0","0.2","0","0.6","0","0.2","","","","","",""
"441","","bandit","54","151484","0.0-32.0-3.0","79270934","wem/bandit_single","AC4LBMA5QJJ1I","pain","1","","72","H","0","img/none_selected.jpg","0","1","0","0","0.8","true","0","0","0.8","full_practice","0","0.2","0","0.6","0","0.2","","","","","",""
"159","","bandit","55","153408","0.0-32.0-4.0","79270934","wem/bandit_single","AC4LBMA5QJJ1I","pain","1","","72","H","0","img/none_selected.jpg","0","1","0","0","0.8","true","0","0","0.8","full_practice","0","0.2","0","0.6","0","0.2","","","","","",""
"225","","bandit","56","155403","0.0-32.0-5.0","79270934","wem/bandit_single","AC4LBMA5QJJ1I","pain","1","","72","H","0","img/none_selected.jpg","0","1","0","0","0.8","true","0","0","0.8","full_practice","0","0.2","0","0.6","0","0.2","","","","","",""
"75","","bandit","57","157240","0.0-32.0-6.0","79270934","wem/bandit_single","AC4LBMA5QJJ1I","pain","1","","72","H","0","img/none_selected.jpg","0","1","0","0","0.8","true","0","0","0.8","full_practice","0","0.2","0","0.6","0","0.2","","","","","",""
"204","","bandit","58","159201","0.0-32.0-7.0","79270934","wem/bandit_single","AC4LBMA5QJJ1I","pain","1","","72","H","0","img/none_selected.jpg","0","1","0","0","0.8","true","0","0","0.8","full_practice","0","0.2","0","0.6","0","0.2","","","","","",""
"61","","bandit","59","161019","0.0-32.0-8.0","79270934","wem/bandit_single","AC4LBMA5QJJ1I","pain","1","","72","H","0","img/none_selected.jpg","0","1","0","0","0.8","true","0","0","0.8","full_practice","0","0.2","0","0.6","0","0.2","","","","","",""
"1562","","bandit","60","164370","0.0-32.0-9.0","79270934","wem/bandit_single","AC4LBMA5QJJ1I","pain","1","","72","H","0","img/none_selected.jpg","0","1","0","0","0.8","true","0","0","0.8","full_practice","0","0.2","0","0.6","0","0.2","","","","","",""
"244","","bandit","61","166395","0.0-32.0-10.0","79270934","wem/bandit_single","AC4LBMA5QJJ1I","pain","1","","72","H","0","img/none_selected.jpg","0","1","0","0","0.8","true","0","0","0.8","full_practice","0","0.2","0","0.6","0","0.2","","","","","",""
"143","","bandit","62","168312","0.0-32.0-11.0","79270934","wem/bandit_single","AC4LBMA5QJJ1I","pain","1","","72","H","0","img/none_selected.jpg","0","1","0","0","0.8","true","0","0","0.8","full_practice","0","0.2","0","0.6","0","0.2","","","","","",""
"1640","","bandit","63","171718","0.0-32.0-12.0","79270934","wem/bandit_single","AC4LBMA5QJJ1I","pain","1","","72","H","0","img/none_selected.jpg","0","1","0","0","0.8","true","0","0","0.8","full_practice","0","0.2","0","0.6","0","0.2","","","","","",""
"449","","bandit","64","173939","0.0-32.0-13.0","79270934","wem/bandit_single","AC4LBMA5QJJ1I","pain","1","","72","H","0","img/none_selected.jpg","0","0","1","0","0.8","true","0","0","0.8","full_practice","0","0.2","0","0.6","0","0.2","","","","","",""
"731","","bandit","65","176442","0.0-32.0-14.0","79270934","wem/bandit_single","AC4LBMA5QJJ1I","pain","1","","72","H","0","img/none_selected.jpg","0","1","0","0","0.8","true","0","0","0.8","full_practice","0","0.2","0","0.6","0","0.2","","","","","",""
"123","","bandit","66","178339","0.0-32.0-15.0","79270934","wem/bandit_single","AC4LBMA5QJJ1I","pain","1","","72","H","0","img/none_selected.jpg","0","1","0","0","0.8","true","0","0","0.8","full_practice","0","0.2","0","0.6","0","0.2","","","","","",""
"84","","bandit","67","180210","0.0-32.0-16.0","79270934","wem/bandit_single","AC4LBMA5QJJ1I","pain","1","","72","H","0","img/none_selected.jpg","0","1","0","0","0.8","true","0","0","0.8","full_practice","0","0.2","0","0.6","0","0.2","","","","","",""
"50","","bandit","68","182016","0.0-32.0-17.0","79270934","wem/bandit_single","AC4LBMA5QJJ1I","pain","1","","72","H","0","img/none_selected.jpg","0","1","0","0","0.8","true","0","0","0.8","full_practice","0","0.2","0","0.6","0","0.2","","","","","",""
"91","","bandit","69","183863","0.0-32.0-18.0","79270934","wem/bandit_single","AC4LBMA5QJJ1I","pain","1","","72","H","0","img/none_selected.jpg","0","1","0","0","0.8","true","0","0","0.8","full_practice","0","0.2","0","0.6","0","0.2","","","","","",""
"67","","bandit","70","185703","0.0-32.0-19.0","79270934","wem/bandit_single","AC4LBMA5QJJ1I","pain","1","","72","H","0","img/none_selected.jpg","0","1","0","0","0.8","true","0","0","0.8","full_practice","0","0.2","0","0.6","0","0.2","","","","","",""
"3056","","text","71","189013","0.0-33.0","79270934","wem/bandit_single","AC4LBMA5QJJ1I","pain","1","32","","","","","","","","","","","","","","","","","","","","","","","","","",""
"9005","","text","72","199021","0.0-34.0","79270934","wem/bandit_single","AC4LBMA5QJJ1I","pain","1","32","","","","","","","","","","","","","","","","","","","","","","","","","",""
"4565","","text","73","203587","0.0-35.0","79270934","wem/bandit_single","AC4LBMA5QJJ1I","pain","1","32","","","","","","","","","","","","","","","","","","","","","","","","","",""
"5112","","text","74","208701","0.0-36.0","79270934","wem/bandit_single","AC4LBMA5QJJ1I","pain","1","32","","","","","","","","","","","","","","","","","","","","","","","","","",""
"2471","","text","75","211174","0.0-37.0","79270934","wem/bandit_single","AC4LBMA5QJJ1I","pain","1","32","","","","","","","","","","","","","","","","","","","","","","","","","",""
"795","","bandit","76","213496","0.0-38.0-0.0","79270934","wem/bandit_single","AC4LBMA5QJJ1I","pain","1","","74","J","1","","0","0","1","","0.433486002","false","1","","0.04371116513","main_expt","","0.433486002","","0.1079408374","","0.1765468105","","","","","",""
"59","","bandit","77","215315","0.0-39.0-0.0","79270934","wem/bandit_single","AC4LBMA5QJJ1I","pain","1","","76","L","3","","0","0","1","","0.1569258514","false","2","","0.0204546363","main_expt","","0.4446307222","","0.1605706499","","0.1569258514","","","","","",""
"54","","bandit","78","217133","0.0-40.0-0.0","79270934","wem/bandit_single","AC4LBMA5QJJ1I","pain","1","","72","H","0","img/none_selected.jpg","0","0","1","","0.02109221713","false","3","","0.02109221713","main_expt","","0.4522438858","","0.1829447669","","0.1639246388","","","","","",""
"79","","bandit","79","218969","0.0-41.0-0.0","79270934","wem/bandit_single","AC4LBMA5QJJ1I","pain","1","","75","K","2","","0","0","1","","0.1756642407","false","4","","0.04448829896","main_expt","","0.4330109471","","0.1756642407","","0.2130332657","","","","","",""
"40","","bandit","80","220773","0.0-42.0-0.0","79270934","wem/bandit_single","AC4LBMA5QJJ1I","pain","1","","75","K","2","","0","0","1","","0.1349544936","false","5","","0.03824555068","main_expt","","0.4678508314","","0.1349544936","","0.1939577492","","","","","",""
"91","","bandit","81","222640","0.0-43.0-0.0","79270934","wem/bandit_single","AC4LBMA5QJJ1I","pain","1","","74","J","1","","0","1","0","","0.4644602632","false","6","","0.03028715703","main_expt","","0.4644602632","","0.1356037804","","0.2419857306","","","","","",""
"50","","bandit","82","224463","0.0-44.0-0.0","79270934","wem/bandit_single","AC4LBMA5QJJ1I","pain","1","","74","J","1","","0","1","0","","0.4575746565","false","7","","0.0280090558","main_expt","","0.4575746565","","0.1731738011","","0.2437977828","","","","","",""
"41","","bandit","83","226265","0.0-45.0-0.0","79270934","wem/bandit_single","AC4LBMA5QJJ1I","pain","1","","74","J","1","","0","1","0","","0.4508833002","false","8","","0.01994926529","main_expt","","0.4508833002","","0.1697830552","","0.2910779813","","","","","",""
"245","","bandit","84","228283","0.0-46.0-0.0","79270934","wem/bandit_single","AC4LBMA5QJJ1I","pain","1","","74","J","1","","0","0","1","","0.446295775","false","9","","0.02255652904","main_expt","","0.446295775","","0.1792782501","","0.3043628405","","","","","",""
"11","","bandit","85","230052","0.0-47.0-0.0","79270934","wem/bandit_single","AC4LBMA5QJJ1I","pain","1","","72","H","0","img/none_selected.jpg","0","0","1","","0.02794315976","false","10","","0.02794315976","main_expt","","0.4564580261","","0.1705688187","","0.3568141906","","","","","",""
"63","","bandit","86","231898","0.0-48.0-0.0","79270934","wem/bandit_single","AC4LBMA5QJJ1I","pain","1","","76","L","3","","0","1","0","","0.3439843329","false","11","","0.02289966844","main_expt","","0.4233437492","","0.1974022207","","0.3439843329","","","","","",""
"38","","bandit","87","233720","0.0-49.0-0.0","79270934","wem/bandit_single","AC4LBMA5QJJ1I","pain","1","","76","L","3","","0","0","1","","0.2959247237","false","12","","0.01510656417","main_expt","","0.4129107721","","0.1753487428","","0.2959247237","","","","","",""
"877","","bandit","88","236380","0.0-50.0-0.0","79270934","wem/bandit_single","AC4LBMA5QJJ1I","pain","1","","76","L","3","","0","0","1","","0.2711511111","false","13","","0.01475809492","main_expt","","0.4188058581","","0.1858973774","","0.2711511111","","","","","",""
"458","","bandit","89","238611","0.0-51.0-0.0","79270934","wem/bandit_single","AC4LBMA5QJJ1I","pain","1","","75","K","2","","0","0","1","","0.1873997244","false","14","","0.00909265887","main_expt","","0.4542155744","","0.1873997244","","0.2351285692","","","","","",""
"45","","bandit","90","240422","0.0-52.0-0.0","79270934","wem/bandit_single","AC4LBMA5QJJ1I","pain","1","","72","H","0","img/none_selected.jpg","0","0","1","","0.004683339805","false","15","","0.004683339805","main_expt","","0.4436127815","","0.2079034381","","0.3299180318","","","","","",""
"55","","bandit","91","242253","0.0-53.0-0.0","79270934","wem/bandit_single","AC4LBMA5QJJ1I","pain","1","","74","J","1","","0","0","1","","0.4255220112","false","16","","0.007493295572","main_expt","","0.4255220112","","0.2116662278","","0.3382291528","","","","","",""
"59","","bandit","92","244078","0.0-54.0-0.0","79270934","wem/bandit_single","AC4LBMA5QJJ1I","pain","1","","76","L","3","","0","0","1","","0.3890963744","false","17","","0.009835384986","main_expt","","0.4221090449","","0.2460799228","","0.3890963744","","","","","",""
"50","","bandit","93","245890","0.0-55.0-0.0","79270934","wem/bandit_single","AC4LBMA5QJJ1I","pain","1","","75","K","2","","0","0","1","","0.2725156425","false","18","","0.01282838009","main_expt","","0.4157246332","","0.2725156425","","0.3102907615","","","","","",""
"51","","bandit","94","247720","0.0-56.0-0.0","79270934","wem/bandit_single","AC4LBMA5QJJ1I","pain","1","","75","K","2","","0","1","0","","0.319312936","false","19","","0.03935122736","main_expt","","0.4000612909","","0.319312936","","0.2734902963","","","","","",""
"122","","bandit","95","249635","0.0-57.0-0.0","79270934","wem/bandit_single","AC4LBMA5QJJ1I","pain","1","","75","K","2","","0","0","1","","0.3449168397","false","20","","0.03712672215","main_expt","","0.4116546581","","0.3449168397","","0.2157414593","","","","","",""
"154","","bandit","96","251548","0.0-58.0-0.0","79270934","wem/bandit_single","AC4LBMA5QJJ1I","pain","1","","75","K","2","","0","0","1","","0.2668327531","false","21","","0.02631596187","main_expt","","0.4276829816","","0.2668327531","","0.2148325275","","","","","",""
"289","","bandit","97","253591","0.0-59.0-0.0","79270934","wem/bandit_single","AC4LBMA5QJJ1I","pain","1","","74","J","1","","0","0","1","","0.3861543943","false","22","","0.0338100911","main_expt","","0.3861543943","","0.2786929748","","0.1819582271","","","","","",""
"45","","bandit","98","255403","0.0-60.0-0.0","79270934","wem/bandit_single","AC4LBMA5QJJ1I","pain","1","","74","J","1","","0","1","0","","0.3815006395","false","23","","0.06132921526","main_expt","","0.3815006395","","0.2012253143","","0.1776669961","","","","","",""
"499","","bandit","99","257663","0.0-61.0-0.0","79270934","wem/bandit_single","AC4LBMA5QJJ1I","pain","1","","74","J","1","","0","1","0","","0.4063144844","false","24","","0.06546003458","main_expt","","0.4063144844","","0.1363446769","","0.2595803745","","","","","",""
"405","","bandit","100","259842","0.0-62.0-0.0","79270934","wem/bandit_single","AC4LBMA5QJJ1I","pain","1","","74","J","1","","0","1","0","","0.3218764758","false","25","","0.08327489459","main_expt","","0.3218764758","","0.1395957504","","0.2184946748","","","","","",""
"474","","bandit","101","262079","0.0-63.0-0.0","79270934","wem/bandit_single","AC4LBMA5QJJ1I","pain","1","","74","J","1","","0","1","0","","0.3190898414","false","26","","0.06117167893","main_expt","","0.3190898414","","0.1095431569","","0.2382025465","","","","","",""
"302","","bandit","102","264141","0.0-64.0-0.0","79270934","wem/bandit_single","AC4LBMA5QJJ1I","pain","1","","74","J","1","","0","0","1","","0.361309168","false","27","","0.03494965278","main_expt","","0.361309168","","0.1290148999","","0.2249508913","","","","","",""
"194","","bandit","103","266102","0.0-65.0-0.0","79270934","wem/bandit_single","AC4LBMA5QJJ1I","pain","1","","72","H","0","img/none_selected.jpg","0","0","1","","0.02964638986","false","28","","0.02964638986","main_expt","","0.3247985582","","0.09304199486","","0.2388683754","","","","","",""
"568","","bandit","104","268453","0.0-66.0-0.0","79270934","wem/bandit_single","AC4LBMA5QJJ1I","pain","1","","72","H","0","img/none_selected.jpg","0","0","1","","0.03498116837","false","29","","0.03498116837","main_expt","","0.3358989687","","0.1042487788","","0.238121012","","","","","",""
"196","","bandit","105","270409","0.0-67.0-0.0","79270934","wem/bandit_single","AC4LBMA5QJJ1I","pain","1","","76","L","3","","0","0","1","","0.2995264376","false","30","","0.04244048525","main_expt","","0.3833706669","","0.1177759499","","0.2995264376","","","","","",""
"369","","bandit","106","272546","0.0-68.0-0.0","79270934","wem/bandit_single","AC4LBMA5QJJ1I","pain","1","","76","L","3","","0","0","1","","0.2738636663","false","31","","0.06152315655","main_expt","","0.365606812","","0.1177925617","","0.2738636663","","","","","",""
"70","","bandit","107","274399","0.0-69.0-0.0","79270934","wem/bandit_single","AC4LBMA5QJJ1I","pain","1","","75","K","2","","0","0","1","","0.08495919706","false","32","","0.04890303061","main_expt","","0.3376656117","","0.08495919706","","0.3185168498","","","","","",""
"72","","bandit","108","276237","0.0-70.0-0.0","79270934","wem/bandit_single","AC4LBMA5QJJ1I","pain","1","","75","K","2","","0","0","1","","0.09918690981","false","33","","0.06913310411","main_expt","","0.3632929272","","0.09918690981","","0.3160257618","","","","","",""
"81","","bandit","109","278101","0.0-71.0-0.0","79270934","wem/bandit_single","AC4LBMA5QJJ1I","pain","1","","76","L","3","","0","0","1","","0.3411570355","false","34","","0.07311713639","main_expt","","0.4008603673","","0.1267106232","","0.3411570355","","","","","",""
"153","","bandit","110","280026","0.0-72.0-0.0","79270934","wem/bandit_single","AC4LBMA5QJJ1I","pain","1","","76","L","3","","0","0","1","","0.3190481916","false","35","","0.08374615962","main_expt","","0.4024879816","","0.1076928618","","0.3190481916","","","","","",""
"111","","bandit","111","281902","0.0-73.0-0.0","79270934","wem/bandit_single","AC4LBMA5QJJ1I","pain","1","","72","H","0","img/none_selected.jpg","0","0","1","","0.08182693844","false","36","","0.08182693844","main_expt","","0.3740303516","","0.1298816773","","0.3264142162","","","","","",""
"17","","bandit","112","283691","0.0-74.0-0.0","79270934","wem/bandit_single","AC4LBMA5QJJ1I","pain","1","","72","H","0","img/none_selected.jpg","0","0","1","","0.1343371601","false","37","","0.1343371601","main_expt","","0.3728306432","","0.1459487567","","0.3198880486","","","","","",""
"116","","bandit","113","285577","0.0-75.0-0.0","79270934","wem/bandit_single","AC4LBMA5QJJ1I","pain","1","","74","J","1","","0","1","0","","0.3805434418","false","38","","0.155986589","main_expt","","0.3805434418","","0.1339045699","","0.3683112265","","","","","",""
"131","","bandit","114","287465","0.0-76.0-0.0","79270934","wem/bandit_single","AC4LBMA5QJJ1I","pain","1","","74","J","1","","0","0","1","","0.3969568822","false","39","","0.1477757124","main_expt","","0.3969568822","","0.1345127174","","0.3427238384","","","","","",""
"141","","bandit","115","289361","0.0-77.0-0.0","79270934","wem/bandit_single","AC4LBMA5QJJ1I","pain","1","","74","J","1","","0","1","0","","0.3988554294","false","40","","0.1673850924","main_expt","","0.3988554294","","0.1283460502","","0.3218453083","","","","","",""
"284","","bandit","116","291411","0.0-78.0-0.0","79270934","wem/bandit_single","AC4LBMA5QJJ1I","pain","1","","74","J","1","","0","0","1","","0.4510691137","false","41","","0.1798739011","main_expt","","0.4510691137","","0.120913883","","0.3085515908","","","","","",""
"33","","bandit","117","293209","0.0-79.0-0.0","79270934","wem/bandit_single","AC4LBMA5QJJ1I","pain","1","","74","J","1","","0","1","0","","0.4575220824","false","42","","0.1559165864","main_expt","","0.4575220824","","0.1045942129","","0.3072415044","","","","","",""
"149","","bandit","118","295142","0.0-80.0-0.0","79270934","wem/bandit_single","AC4LBMA5QJJ1I","pain","1","","74","J","1","","0","1","0","","0.4425049573","false","43","","0.1058033922","main_expt","","0.4425049573","","0.09432917568","","0.272500382","","","","","",""
"165","","bandit","119","297076","0.0-81.0-0.0","79270934","wem/bandit_single","AC4LBMA5QJJ1I","pain","1","","74","J","1","","0","0","1","","0.4232077065","false","44","","0.08489334424","main_expt","","0.4232077065","","0.07221407183","","0.2865836788","","","","","",""
"5","","bandit","120","298858","0.0-82.0-0.0","79270934","wem/bandit_single","AC4LBMA5QJJ1I","pain","1","","74","J","1","","0","0","1","","0.4098430077","false","45","","0.05905190464","main_expt","","0.4098430077","","0.05666738762","","0.2991622886","","","","","",""
"225","","bandit","121","300840","0.0-83.0-0.0","79270934","wem/bandit_single","AC4LBMA5QJJ1I","pain","1","","74","J","1","","0","1","0","","0.4038708701","false","46","","0.06331323714","main_expt","","0.4038708701","","0.03432969329","","0.2531917612","","","","","",""
"406","","bandit","122","303017","0.0-84.0-0.0","79270934","wem/bandit_single","AC4LBMA5QJJ1I","pain","1","","74","J","1","","0","0","1","","0.4162646915","false","47","","0.05657329797","main_expt","","0.4162646915","","0.03955917442","","0.174020607","","","","","",""
"372","","bandit","123","305147","0.0-85.0-0.0","79270934","wem/bandit_single","AC4LBMA5QJJ1I","pain","1","","74","J","1","","0","0","1","","0.4188900116","false","48","","0.04718629669","main_expt","","0.4188900116","","0.02792503423","","0.1890064997","","","","","",""
"69","","bandit","124","306983","0.0-86.0-0.0","79270934","wem/bandit_single","AC4LBMA5QJJ1I","pain","1","","74","J","1","","0","1","0","","0.4566014176","false","49","","0.03289244517","main_expt","","0.4566014176","","0.03726959289","","0.218442061","","","","","",""
"508","","bandit","125","309265","0.0-87.0-0.0","79270934","wem/bandit_single","AC4LBMA5QJJ1I","pain","1","","74","J","1","","0","1","0","","0.4447058567","false","50","","0.03266450512","main_expt","","0.4447058567","","0.03358305353","","0.1635183119","","","","","",""
"235","","bandit","126","311268","0.0-88.0-0.0","79270934","wem/bandit_single","AC4LBMA5QJJ1I","pain","1","","74","J","1","","0","0","1","","0.4304926469","false","51","","0.03026904774","main_expt","","0.4304926469","","0.03344521258","","0.1366577914","","","","","",""
"156","","bandit","127","313181","0.0-89.0-0.0","79270934","wem/bandit_single","AC4LBMA5QJJ1I","pain","1","","74","J","1","","0","0","1","","0.4221781581","false","52","","0.03251993274","main_expt","","0.4221781581","","0.04269272659","","0.1797398031","","","","","",""
"32","","bandit","128","314975","0.0-90.0-0.0","79270934","wem/bandit_single","AC4LBMA5QJJ1I","pain","1","","74","J","1","","0","0","1","","0.3687481665","false","53","","0.03960602941","main_expt","","0.3687481665","","0.023815337","","0.2893410322","","","","","",""
"700","","bandit","129","317436","0.0-91.0-0.0","79270934","wem/bandit_single","AC4LBMA5QJJ1I","pain","1","","74","J","1","","0","0","1","","0.3458934235","false","54","","0.05707063203","main_expt","","0.3458934235","","0.02455785224","","0.2985665456","","","","","",""
"123","","bandit","130","319342","0.0-92.0-0.0","79270934","wem/bandit_single","AC4LBMA5QJJ1I","pain","1","","76","L","3","","0","0","1","","0.3336948264","false","55","","0.04044117434","main_expt","","0.4042580408","","0.03998391886","","0.3336948264","","","","","",""
"53","","bandit","131","321173","0.0-93.0-0.0","79270934","wem/bandit_single","AC4LBMA5QJJ1I","pain","1","","76","L","3","","0","0","1","","0.282194417","false","56","","0.05627119328","main_expt","","0.4471112694","","0.06538112884","","0.282194417","","","","","",""
"137","","bandit","132","323066","0.0-94.0-0.0","79270934","wem/bandit_single","AC4LBMA5QJJ1I","pain","1","","72","H","0","img/none_selected.jpg","0","0","1","","0.06172895681","false","57","","0.06172895681","main_expt","","0.4640351361","","0.08662171517","","0.3239389597","","","","","",""
"284","","bandit","133","325131","0.0-95.0-0.0","79270934","wem/bandit_single","AC4LBMA5QJJ1I","pain","1","","72","H","0","img/none_selected.jpg","0","1","0","","0.0708730922","false","58","","0.0708730922","main_expt","","0.4654795878","","0.08191290536","","0.3114288274","","","","","",""
"260","","bandit","134","327167","0.0-96.0-0.0","79270934","wem/bandit_single","AC4LBMA5QJJ1I","pain","1","","72","H","0","img/none_selected.jpg","0","0","1","","0.06307994893","false","59","","0.06307994893","main_expt","","0.477644797","","0.06359390603","","0.3090129124","","","","","",""
"130","","bandit","135","329058","0.0-97.0-0.0","79270934","wem/bandit_single","AC4LBMA5QJJ1I","pain","1","","72","H","0","img/none_selected.jpg","0","0","1","","0.06865221942","false","60","","0.06865221942","main_expt","","0.4637057102","","0.1113565871","","0.3273240357","","","","","",""
"44","","bandit","136","330865","0.0-98.0-0.0","79270934","wem/bandit_single","AC4LBMA5QJJ1I","pain","1","","72","H","0","img/none_selected.jpg","0","0","1","","0.04710261487","false","61","","0.04710261487","main_expt","","0.4575353452","","0.1224908949","","0.333760802","","","","","",""
"168","","bandit","137","332794","0.0-99.0-0.0","79270934","wem/bandit_single","AC4LBMA5QJJ1I","pain","1","","75","K","2","","0","0","1","","0.1011510181","false","62","","0.04180279512","main_expt","","0.4511824808","","0.1011510181","","0.3721083552","","","","","",""
"44","","bandit","138","334604","0.0-100.0-0.0","79270934","wem/bandit_single","AC4LBMA5QJJ1I","pain","1","","75","K","2","","0","0","1","","0.1241823521","false","63","","0.04669584184","main_expt","","0.4522744543","","0.1241823521","","0.3366911892","","","","","",""
"230","","bandit","139","336608","0.0-101.0-0.0","79270934","wem/bandit_single","AC4LBMA5QJJ1I","pain","1","","74","J","1","","0","1","0","","0.4534383651","false","64","","0.04699929359","main_expt","","0.4534383651","","0.1277445844","","0.352845708","","","","","",""
"237","","bandit","140","338616","0.0-102.0-0.0","79270934","wem/bandit_single","AC4LBMA5QJJ1I","pain","1","","74","J","1","","0","0","1","","0.4578128414","false","65","","0.06422912444","main_expt","","0.4578128414","","0.1594820305","","0.3797865956","","","","","",""
"42","","bandit","141","340424","0.0-103.0-0.0","79270934","wem/bandit_single","AC4LBMA5QJJ1I","pain","1","","72","H","0","img/none_selected.jpg","0","0","1","","0.09107067683","false","66","","0.09107067683","main_expt","","0.4675149648","","0.1902728197","","0.3776123686","","","","","",""
"673","","bandit","142","342863","0.0-104.0-0.0","79270934","wem/bandit_single","AC4LBMA5QJJ1I","pain","1","","74","J","1","","0","0","1","","0.4801185054","false","67","","0.1295134299","main_expt","","0.4801185054","","0.1915604568","","0.3520302909","","","","","",""
"0","","bandit","143","344645","0.0-105.0-0.0","79270934","wem/bandit_single","AC4LBMA5QJJ1I","pain","1","","74","J","1","","0","1","0","","0.4853911876","false","68","","0.1501953896","main_expt","","0.4853911876","","0.2292904293","","0.3563070861","","","","","",""
"262","","bandit","144","346663","0.0-106.0-0.0","79270934","wem/bandit_single","AC4LBMA5QJJ1I","pain","1","","74","J","1","","0","0","1","","0.45952887","false","69","","0.2120393587","main_expt","","0.45952887","","0.2982444272","","0.3773129781","","","","","",""
"136","","bandit","145","348578","0.0-107.0-0.0","79270934","wem/bandit_single","AC4LBMA5QJJ1I","pain","1","","74","J","1","","0","0","1","","0.4519788387","false","70","","0.2046372205","main_expt","","0.4519788387","","0.2038928517","","0.3620092878","","","","","",""
"183","","bandit","146","350546","0.0-108.0-0.0","79270934","wem/bandit_single","AC4LBMA5QJJ1I","pain","1","","74","J","1","","0","1","0","","0.4644284496","false","71","","0.1711657315","main_expt","","0.4644284496","","0.2470144531","","0.3689610789","","","","","",""
"144","","bandit","147","352460","0.0-109.0-0.0","79270934","wem/bandit_single","AC4LBMA5QJJ1I","pain","1","","74","J","1","","0","1","0","","0.4275080271","false","72","","0.1804367846","main_expt","","0.4275080271","","0.2339224101","","0.335535794","","","","","",""
"286","","bandit","148","354526","0.0-110.0-0.0","79270934","wem/bandit_single","AC4LBMA5QJJ1I","pain","1","","74","J","1","","0","1","0","","0.4333248441","false","73","","0.1582310148","main_expt","","0.4333248441","","0.198403553","","0.3669127126","","","","","",""
"385","","bandit","149","356695","0.0-111.0-0.0","79270934","wem/bandit_single","AC4LBMA5QJJ1I","pain","1","","74","J","1","","0","0","1","","0.4272577829","false","74","","0.1300952354","main_expt","","0.4272577829","","0.2162510441","","0.3360165716","","","","","",""
"77","","bandit","150","358538","0.0-112.0-0.0","79270934","wem/bandit_single","AC4LBMA5QJJ1I","pain","1","","74","J","1","","0","0","1","","0.353629049","false","75","","0.1414689969","main_expt","","0.353629049","","0.2467290531","","0.3379177146","","","","","",""
"183","","bandit","151","360497","0.0-113.0-0.0","79270934","wem/bandit_single","AC4LBMA5QJJ1I","pain","1","","74","J","1","","0","1","0","","0.3526453175","false","76","","0.1315789974","main_expt","","0.3526453175","","0.2199510863","","0.3489784935","","","","","",""
"158","","bandit","152","362423","0.0-114.0-0.0","79270934","wem/bandit_single","AC4LBMA5QJJ1I","pain","1","","74","J","1","","0","0","1","","0.397337216","false","77","","0.1054244057","main_expt","","0.397337216","","0.1600424727","","0.2843927136","","","","","",""
"242","","bandit","153","364421","0.0-115.0-0.0","79270934","wem/bandit_single","AC4LBMA5QJJ1I","pain","1","","74","J","1","","0","1","0","","0.3747850168","false","78","","0.1028875903","main_expt","","0.3747850168","","0.1366877547","","0.2585585406","","","","","",""
"149","","bandit","154","366328","0.0-116.0-0.0","79270934","wem/bandit_single","AC4LBMA5QJJ1I","pain","1","","74","J","1","","0","0","1","","0.3500135026","false","79","","0.1010795136","main_expt","","0.3500135026","","0.1608027171","","0.2211992803","","","","","",""
"114","","bandit","155","368228","0.0-117.0-0.0","79270934","wem/bandit_single","AC4LBMA5QJJ1I","pain","1","","74","J","1","","0","1","0","","0.3362224365","false","80","","0.09661145037","main_expt","","0.3362224365","","0.2004121585","","0.1670678668","","","","","",""
"847","","bandit","156","370855","0.0-118.0-0.0","79270934","wem/bandit_single","AC4LBMA5QJJ1I","pain","1","","74","J","1","","0","1","0","","0.3626400229","false","81","","0.06079528701","main_expt","","0.3626400229","","0.2100463009","","0.1536487801","","","","","",""
"496","","bandit","157","373127","0.0-119.0-0.0","79270934","wem/bandit_single","AC4LBMA5QJJ1I","pain","1","","74","J","1","","0","1","0","","0.3433004166","false","82","","0.0561923849","main_expt","","0.3433004166","","0.2313995655","","0.164055667","","","","","",""
"71","","bandit","158","374968","0.0-120.0-0.0","79270934","wem/bandit_single","AC4LBMA5QJJ1I","pain","1","","74","J","1","","0","0","1","","0.3564809269","false","83","","0.05471979201","main_expt","","0.3564809269","","0.1805974068","","0.1795096781","","","","","",""
"924","","bandit","159","377668","0.0-121.0-0.0","79270934","wem/bandit_single","AC4LBMA5QJJ1I","pain","1","","74","J","1","","0","1","0","","0.3403656385","false","84","","0.04961315052","main_expt","","0.3403656385","","0.1351257884","","0.1568762326","","","","","",""
"1391","","bandit","160","380825","0.0-122.0-0.0","79270934","wem/bandit_single","AC4LBMA5QJJ1I","pain","1","","74","J","1","","0","0","1","","0.3009252634","false","85","","0.05195310968","main_expt","","0.3009252634","","0.1372280885","","0.1857208284","","","","","",""
"2026","","bandit","161","384623","0.0-123.0-0.0","79270934","wem/bandit_single","AC4LBMA5QJJ1I","pain","1","","74","J","1","","0","1","0","","0.3067316121","false","86","","0.05385113756","main_expt","","0.3067316121","","0.1685840628","","0.2180329602","","","","","",""
"539","","bandit","162","386917","0.0-124.0-0.0","79270934","wem/bandit_single","AC4LBMA5QJJ1I","pain","1","","74","J","1","","0","0","1","","0.3073916088","false","87","","0.08202519069","main_expt","","0.3073916088","","0.1654340797","","0.1893737279","","","","","",""
"1339","","bandit","163","390021","0.0-125.0-0.0","79270934","wem/bandit_single","AC4LBMA5QJJ1I","pain","1","","74","J","1","","0","0","1","","0.301504441","false","88","","0.04873944257","main_expt","","0.301504441","","0.1870328522","","0.2309201776","","","","","",""
"96","","bandit","164","391883","0.0-126.0-0.0","79270934","wem/bandit_single","AC4LBMA5QJJ1I","pain","1","","74","J","1","","0","1","0","","0.3324072184","false","89","","0.05553778571","main_expt","","0.3324072184","","0.1786415591","","0.2368651839","","","","","",""
"751","","bandit","165","394403","0.0-127.0-0.0","79270934","wem/bandit_single","AC4LBMA5QJJ1I","pain","1","","74","J","1","","0","0","1","","0.3245139686","false","90","","0.04980790846","main_expt","","0.3245139686","","0.2293974223","","0.2459093935","","","","","",""
"128","","bandit","166","396298","0.0-128.0-0.0","79270934","wem/bandit_single","AC4LBMA5QJJ1I","pain","1","","74","J","1","","0","0","1","","0.3310751299","false","91","","0.05804880768","main_expt","","0.3310751299","","0.2407797963","","0.2371609774","","","","","",""
"294","","bandit","167","398373","0.0-129.0-0.0","79270934","wem/bandit_single","AC4LBMA5QJJ1I","pain","1","","74","J","1","","0","0","1","","0.3717444616","false","92","","0.0614883172","main_expt","","0.3717444616","","0.2337544695","","0.260478489","","","","","",""
"405","","bandit","168","400549","0.0-130.0-0.0","79270934","wem/bandit_single","AC4LBMA5QJJ1I","pain","1","","74","J","1","","0","1","0","","0.3846532122","false","93","","0.0764333552","main_expt","","0.3846532122","","0.2589688886","","0.2595992258","","","","","",""
"266","","bandit","169","402583","0.0-131.0-0.0","79270934","wem/bandit_single","AC4LBMA5QJJ1I","pain","1","","74","J","1","","0","0","1","","0.4017211595","false","94","","0.1280824273","main_expt","","0.4017211595","","0.2699529923","","0.206568391","","","","","",""
"373","","bandit","170","404720","0.0-132.0-0.0","79270934","wem/bandit_single","AC4LBMA5QJJ1I","pain","1","","74","J","1","","0","1","0","","0.3736639641","false","95","","0.1191245721","main_expt","","0.3736639641","","0.2626559999","","0.1846794781","","","","","",""
"550","","bandit","171","407041","0.0-133.0-0.0","79270934","wem/bandit_single","AC4LBMA5QJJ1I","pain","1","","74","J","1","","0","0","1","","0.3220453652","false","96","","0.08526153109","main_expt","","0.3220453652","","0.2196428224","","0.2484851932","","","","","",""
"215","","bandit","172","409031","0.0-134.0-0.0","79270934","wem/bandit_single","AC4LBMA5QJJ1I","pain","1","","74","J","1","","0","0","1","","0.2964534367","false","97","","0.0775518538","main_expt","","0.2964534367","","0.1922289922","","0.198145661","","","","","",""
"124","","bandit","173","410922","0.0-135.0-0.0","79270934","wem/bandit_single","AC4LBMA5QJJ1I","pain","1","","74","J","1","","0","0","1","","0.3388366936","false","98","","0.08824897118","main_expt","","0.3388366936","","0.2328023708","","0.1738253929","","","","","",""
"64","","bandit","174","412761","0.0-136.0-0.0","79270934","wem/bandit_single","AC4LBMA5QJJ1I","pain","1","","72","H","0","img/none_selected.jpg","0","0","1","","0.08912321317","false","99","","0.08912321317","main_expt","","0.4233536788","","0.2606341713","","0.1261523865","","","","","",""
"140","","bandit","175","414681","0.0-137.0-0.0","79270934","wem/bandit_single","AC4LBMA5QJJ1I","pain","1","","72","H","0","img/none_selected.jpg","0","0","1","","0.1217067293","false","100","","0.1217067293","main_expt","","0.3799029244","","0.310387162","","0.1368684177","","","","","",""
"76","","bandit","176","416515","0.0-138.0-0.0","79270934","wem/bandit_single","AC4LBMA5QJJ1I","pain","1","","76","L","3","","0","0","1","","0.1262970555","false","101","","0.08537200695","main_expt","","0.3644029447","","0.3802628165","","0.1262970555","","","","","",""
"104","","bandit","177","418401","0.0-139.0-0.0","79270934","wem/bandit_single","AC4LBMA5QJJ1I","pain","1","","75","K","2","","0","0","1","","0.4133848668","false","102","","0.09606980913","main_expt","","0.3414838768","","0.4133848668","","0.1022564356","","","","","",""
"121","","bandit","178","420297","0.0-140.0-0.0","79270934","wem/bandit_single","AC4LBMA5QJJ1I","pain","1","","75","K","2","","0","0","1","","0.4352089555","false","103","","0.09968925047","main_expt","","0.3691073091","","0.4352089555","","0.07046703442","","","","","",""
"183","","bandit","179","422248","0.0-141.0-0.0","79270934","wem/bandit_single","AC4LBMA5QJJ1I","pain","1","","76","L","3","","0","0","1","","0.08582175226","false","104","","0.1070137741","main_expt","","0.3386210986","","0.4248252031","","0.08582175226","","","","","",""
"101","","bandit","180","424109","0.0-142.0-0.0","79270934","wem/bandit_single","AC4LBMA5QJJ1I","pain","1","","74","J","1","","0","1","0","","0.3517858304","false","105","","0.1086060941","main_expt","","0.3517858304","","0.4382512542","","0.08910626196","","","","","",""
"314","","bandit","181","426213","0.0-143.0-0.0","79270934","wem/bandit_single","AC4LBMA5QJJ1I","pain","1","","74","J","1","","0","1","0","","0.4016578568","false","106","","0.1006724549","main_expt","","0.4016578568","","0.4551412652","","0.09380004764","","","","","",""
"400","","bandit","182","428375","0.0-144.0-0.0","79270934","wem/bandit_single","AC4LBMA5QJJ1I","pain","1","","74","J","1","","0","0","1","","0.3951748439","false","107","","0.07769839914","main_expt","","0.3951748439","","0.4481373055","","0.08916311959","","","","","",""
"96","","bandit","183","430248","0.0-145.0-0.0","79270934","wem/bandit_single","AC4LBMA5QJJ1I","pain","1","","74","J","1","","0","0","1","","0.3933810371","false","108","","0.09470950607","main_expt","","0.3933810371","","0.4611843773","","0.1635033392","","","","","",""
"186","","bandit","184","432203","0.0-146.0-0.0","79270934","wem/bandit_single","AC4LBMA5QJJ1I","pain","1","","74","J","1","","0","0","1","","0.3961603237","false","109","","0.1117426234","main_expt","","0.3961603237","","0.416280782","","0.1923408453","","","","","",""
"57","","bandit","185","434035","0.0-147.0-0.0","79270934","wem/bandit_single","AC4LBMA5QJJ1I","pain","1","","72","H","0","img/none_selected.jpg","0","0","1","","0.1190643529","false","110","","0.1190643529","main_expt","","0.3933476799","","0.3959176693","","0.1668397223","","","","","",""
"54","","bandit","186","435863","0.0-148.0-0.0","79270934","wem/bandit_single","AC4LBMA5QJJ1I","pain","1","","72","H","0","img/none_selected.jpg","0","0","1","","0.1605091549","false","111","","0.1605091549","main_expt","","0.3953313537","","0.3881072513","","0.1254506171","","","","","",""
"235","","bandit","187","437871","0.0-149.0-0.0","79270934","wem/bandit_single","AC4LBMA5QJJ1I","pain","1","","74","J","1","","0","1","0","","0.3398422341","false","112","","0.1531505469","main_expt","","0.3398422341","","0.3430735849","","0.1596839241","","","","","",""
"451","","bandit","188","440091","0.0-150.0-0.0","79270934","wem/bandit_single","AC4LBMA5QJJ1I","pain","1","","74","J","1","","0","0","1","","0.375538402","false","113","","0.1796188848","main_expt","","0.375538402","","0.3036143476","","0.1986187203","","","","","",""
"164","","bandit","189","442018","0.0-151.0-0.0","79270934","wem/bandit_single","AC4LBMA5QJJ1I","pain","1","","74","J","1","","0","0","1","","0.3629483147","false","114","","0.1820080726","main_expt","","0.3629483147","","0.3581708668","","0.2334514198","","","","","",""
"192","","bandit","190","443985","0.0-152.0-0.0","79270934","wem/bandit_single","AC4LBMA5QJJ1I","pain","1","","75","K","2","","0","0","1","","0.2948471219","false","115","","0.2050936175","main_expt","","0.2969550108","","0.2948471219","","0.1892672839","","","","","",""
"113","","bandit","191","445854","0.0-153.0-0.0","79270934","wem/bandit_single","AC4LBMA5QJJ1I","pain","1","","75","K","2","","0","0","1","","0.2711132382","false","116","","0.2071503316","main_expt","","0.260261953","","0.2711132382","","0.1507180646","","","","","",""
"89","","bandit","192","447718","0.0-154.0-0.0","79270934","wem/bandit_single","AC4LBMA5QJJ1I","pain","1","","76","L","3","","0","0","1","","0.1830546279","false","117","","0.2359882763","main_expt","","0.2626326191","","0.3124997295","","0.1830546279","","","","","",""
"490","","bandit","193","449992","0.0-155.0-0.0","79270934","wem/bandit_single","AC4LBMA5QJJ1I","pain","1","","76","L","3","","0","0","1","","0.1415506149","false","118","","0.2388261631","main_expt","","0.2933310536","","0.3888019654","","0.1415506149","","","","","",""
"26","","bandit","194","451784","0.0-156.0-0.0","79270934","wem/bandit_single","AC4LBMA5QJJ1I","pain","1","","74","J","1","","0","0","1","","0.2469992957","false","119","","0.2470137322","main_expt","","0.2469992957","","0.3695751837","","0.1814909568","","","","","",""
"8","","bandit","195","453550","0.0-157.0-0.0","79270934","wem/bandit_single","AC4LBMA5QJJ1I","pain","1","","72","H","0","img/none_selected.jpg","0","0","1","","0.209676098","false","120","","0.209676098","main_expt","","0.2186909282","","0.3471196364","","0.1900691043","","","","","",""
"54","","bandit","196","455375","0.0-158.0-0.0","79270934","wem/bandit_single","AC4LBMA5QJJ1I","pain","1","","72","H","0","img/none_selected.jpg","0","0","1","","0.2058519679","false","121","","0.2058519679","main_expt","","0.1915374776","","0.3164400491","","0.2002257321","","","","","",""
"1","","bandit","197","457156","0.0-159.0-0.0","79270934","wem/bandit_single","AC4LBMA5QJJ1I","pain","1","","74","J","1","","0","1","0","","0.1666700693","false","122","","0.1409467191","main_expt","","0.1666700693","","0.3565888941","","0.2000360786","","","","","",""
"70","","bandit","198","459016","0.0-160.0-0.0","79270934","wem/bandit_single","AC4LBMA5QJJ1I","pain","1","","74","J","1","","0","0","1","","0.1779758636","false","123","","0.08785727187","main_expt","","0.1779758636","","0.3293983066","","0.1656706666","","","","","",""
"515","","bandit","199","461306","0.0-161.0-0.0","79270934","wem/bandit_single","AC4LBMA5QJJ1I","pain","1","","74","J","1","","0","0","1","","0.2483730269","false","124","","0.1153756664","main_expt","","0.2483730269","","0.3202360925","","0.2433115295","","","","","",""
"3120","","bandit","200","466183","0.0-162.0-0.0","79270934","wem/bandit_single","AC4LBMA5QJJ1I","pain","1","","74","J","1","","0","0","1","","0.2274485556","false","125","","0.1211147435","main_expt","","0.2274485556","","0.3478690395","","0.1810024247","","","","","",""
"417","","bandit","201","468368","0.0-163.0-0.0","79270934","wem/bandit_single","AC4LBMA5QJJ1I","pain","1","","74","J","1","","0","0","1","","0.2506805994","false","126","","0.1434737457","main_expt","","0.2506805994","","0.3312811416","","0.2138299762","","","","","",""
"289","","bandit","202","470419","0.0-164.0-0.0","79270934","wem/bandit_single","AC4LBMA5QJJ1I","pain","1","","74","J","1","","0","0","1","","0.2520497492","false","127","","0.1970801631","main_expt","","0.2520497492","","0.2641060438","","0.1993304114","","","","","",""
"135","","bandit","203","472329","0.0-165.0-0.0","79270934","wem/bandit_single","AC4LBMA5QJJ1I","pain","1","","74","J","1","","0","1","0","","0.1948091286","false","128","","0.2891253811","main_expt","","0.1948091286","","0.2239657692","","0.2602773644","","","","","",""
"2581","","bandit","204","476668","0.0-166.0-0.0","79270934","wem/bandit_single","AC4LBMA5QJJ1I","pain","1","","74","J","1","","0","0","1","","0.1749799719","false","129","","0.2389970352","main_expt","","0.1749799719","","0.2243581634","","0.2960784606","","","","","",""
"365","","bandit","205","478797","0.0-167.0-0.0","79270934","wem/bandit_single","AC4LBMA5QJJ1I","pain","1","","74","J","1","","0","1","0","","0.1950546205","false","130","","0.2613596901","main_expt","","0.1950546205","","0.2215765871","","0.2720271615","","","","","",""
"14","","bandit","206","480581","0.0-168.0-0.0","79270934","wem/bandit_single","AC4LBMA5QJJ1I","pain","1","","74","J","1","","0","0","1","","0.2501377387","false","131","","0.2254289723","main_expt","","0.2501377387","","0.1796651873","","0.2403459828","","","","","",""
"251","","bandit","207","482612","0.0-169.0-0.0","79270934","wem/bandit_single","AC4LBMA5QJJ1I","pain","1","","74","J","1","","0","1","0","","0.2275015869","false","132","","0.2759434303","main_expt","","0.2275015869","","0.1946412172","","0.2261584059","","","","","",""
"473","","bandit","208","484841","0.0-170.0-0.0","79270934","wem/bandit_single","AC4LBMA5QJJ1I","pain","1","","74","J","1","","0","0","1","","0.1961271051","false","133","","0.3153186182","main_expt","","0.1961271051","","0.2390261597","","0.225512635","","","","","",""
"124","","bandit","209","486736","0.0-171.0-0.0","79270934","wem/bandit_single","AC4LBMA5QJJ1I","pain","1","","74","J","1","","0","1","0","","0.2508816485","false","134","","0.2950667763","main_expt","","0.2508816485","","0.227958871","","0.2119287539","","","","","",""
"196","","bandit","210","488694","0.0-172.0-0.0","79270934","wem/bandit_single","AC4LBMA5QJJ1I","pain","1","","74","J","1","","0","0","1","","0.3394706536","false","135","","0.3307223606","main_expt","","0.3394706536","","0.2312014448","","0.1980603764","","","","","",""
"451","","bandit","211","490902","0.0-173.0-0.0","79270934","wem/bandit_single","AC4LBMA5QJJ1I","pain","1","","74","J","1","","0","1","0","","0.2837829406","false","136","","0.3298223854","main_expt","","0.2837829406","","0.27599984","","0.2325476757","","","","","",""
"371","","bandit","212","493047","0.0-174.0-0.0","79270934","wem/bandit_single","AC4LBMA5QJJ1I","pain","1","","74","J","1","","0","0","1","","0.3024244849","false","137","","0.3330531331","main_expt","","0.3024244849","","0.2313694212","","0.2334264213","","","","","",""
"120","","bandit","213","494937","0.0-175.0-0.0","79270934","wem/bandit_single","AC4LBMA5QJJ1I","pain","1","","74","J","1","","0","0","1","","0.3473265679","false","138","","0.292929501","main_expt","","0.3473265679","","0.1816115857","","0.3107735177","","","","","",""
"1180","","bandit","214","497888","0.0-176.0-0.0","79270934","wem/bandit_single","AC4LBMA5QJJ1I","pain","1","","74","J","1","","0","0","1","","0.2828336224","false","139","","0.2849421758","main_expt","","0.2828336224","","0.1658496667","","0.3374098654","","","","","",""
"768","","bandit","215","500423","0.0-177.0-0.0","79270934","wem/bandit_single","AC4LBMA5QJJ1I","pain","1","","74","J","1","","0","0","1","","0.3238397914","false","140","","0.3149573531","main_expt","","0.3238397914","","0.1644365985","","0.3401298673","","","","","",""
"146","","bandit","216","502339","0.0-178.0-0.0","79270934","wem/bandit_single","AC4LBMA5QJJ1I","pain","1","","74","J","1","","0","0","1","","0.3490905252","false","141","","0.2937847178","main_expt","","0.3490905252","","0.16055167","","0.363539884","","","","","",""
"255","","bandit","217","504375","0.0-179.0-0.0","79270934","wem/bandit_single","AC4LBMA5QJJ1I","pain","1","","74","J","1","","0","1","0","","0.337853111","false","142","","0.2695919138","main_expt","","0.337853111","","0.1426499966","","0.3207651517","","","","","",""
"708","","bandit","218","506847","0.0-180.0-0.0","79270934","wem/bandit_single","AC4LBMA5QJJ1I","pain","1","","74","J","1","","0","1","0","","0.3475703167","false","143","","0.206179854","main_expt","","0.3475703167","","0.1133276474","","0.2976941359","","","","","",""
"390","","bandit","219","508999","0.0-181.0-0.0","79270934","wem/bandit_single","AC4LBMA5QJJ1I","pain","1","","74","J","1","","0","1","0","","0.3809945211","false","144","","0.2123329462","main_expt","","0.3809945211","","0.1351054788","","0.2405576463","","","","","",""
"487","","bandit","220","511259","0.0-182.0-0.0","79270934","wem/bandit_single","AC4LBMA5QJJ1I","pain","1","","74","J","1","","0","1","0","","0.3842622547","false","145","","0.2144195617","main_expt","","0.3842622547","","0.1703546958","","0.2513929943","","","","","",""
"40","","bandit","221","513060","0.0-183.0-0.0","79270934","wem/bandit_single","AC4LBMA5QJJ1I","pain","1","","74","J","1","","0","1","0","","0.4068715463","false","146","","0.2264269311","main_expt","","0.4068715463","","0.1382352341","","0.2665850657","","","","","",""
"61","","bandit","222","514903","0.0-184.0-0.0","79270934","wem/bandit_single","AC4LBMA5QJJ1I","pain","1","","74","J","1","","0","1","0","","0.3690267696","false","147","","0.2458089499","main_expt","","0.3690267696","","0.1111211324","","0.2742171136","","","","","",""
"955","","bandit","223","517634","0.0-185.0-0.0","79270934","wem/bandit_single","AC4LBMA5QJJ1I","pain","1","","74","J","1","","0","0","1","","0.3999465919","false","148","","0.2581131455","main_expt","","0.3999465919","","0.1046256567","","0.2504516377","","","","","",""
"104","","bandit","224","519515","0.0-186.0-0.0","79270934","wem/bandit_single","AC4LBMA5QJJ1I","pain","1","","74","J","1","","0","1","0","","0.3823047489","false","149","","0.2055420423","main_expt","","0.3823047489","","0.09450025474","","0.2749888299","","","","","",""
"81","","bandit","225","521372","0.0-187.0-0.0","79270934","wem/bandit_single","AC4LBMA5QJJ1I","pain","1","","74","J","1","","0","1","0","","0.3970301866","false","150","","0.2196547661","main_expt","","0.3970301866","","0.08682851814","","0.2199302859","","","","","",""
"284","","bandit","226","523423","0.0-188.0-0.0","79270934","wem/bandit_single","AC4LBMA5QJJ1I","pain","1","","74","J","1","","0","1","0","","0.4141828336","false","151","","0.2311854424","main_expt","","0.4141828336","","0.0775356828","","0.228921305","","","","","",""
"33","","bandit","227","525221","0.0-189.0-0.0","79270934","wem/bandit_single","AC4LBMA5QJJ1I","pain","1","","74","J","1","","0","0","1","","0.4233092002","false","152","","0.2692750042","main_expt","","0.4233092002","","0.08719832593","","0.1858313389","","","","","",""
"57498","","bandit","228","584515","0.0-190.0-0.0","79270934","wem/bandit_single","AC4LBMA5QJJ1I","pain","1","","74","J","1","","0","0","1","","0.3961827626","false","153","","0.3209664266","main_expt","","0.3961827626","","0.06950392785","","0.2253380596","","","","","",""
"71","","bandit","229","586355","0.0-191.0-0.0","79270934","wem/bandit_single","AC4LBMA5QJJ1I","pain","1","","74","J","1","","0","0","1","","0.4023640633","false","154","","0.2633096479","main_expt","","0.4023640633","","0.09734883616","","0.1787374968","","","","","",""
"22744","","bandit","230","610874","0.0-192.0-0.0","79270934","wem/bandit_single","AC4LBMA5QJJ1I","pain","1","","74","J","1","","0","0","1","","0.3927422998","false","155","","0.2611493198","main_expt","","0.3927422998","","0.1078867986","","0.1026625787","","","","","",""
"44","","bandit","231","612691","0.0-193.0-0.0","79270934","wem/bandit_single","AC4LBMA5QJJ1I","pain","1","","74","J","1","","0","1","0","","0.3696188161","false","156","","0.2556392324","main_expt","","0.3696188161","","0.09294383108","","0.1201393653","","","","","",""
"8728","","bandit","232","623188","0.0-194.0-0.0","79270934","wem/bandit_single","AC4LBMA5QJJ1I","pain","1","","74","J","1","","0","0","1","","0.3562863837","false","157","","0.2237912435","main_expt","","0.3562863837","","0.1344904143","","0.1601810659","","","","","",""
"187","","bandit","233","625157","0.0-195.0-0.0","79270934","wem/bandit_single","AC4LBMA5QJJ1I","pain","1","","74","J","1","","0","0","1","","0.3891013447","false","158","","0.2269937079","main_expt","","0.3891013447","","0.1682501471","","0.2178666355","","","","","",""
"0","","bandit","234","626920","0.0-196.0-0.0","79270934","wem/bandit_single","AC4LBMA5QJJ1I","pain","1","","74","J","1","","0","0","1","","0.3771509201","false","159","","0.2244600926","main_expt","","0.3771509201","","0.1859978291","","0.2088119712","","","","","",""
"7877","","bandit","235","636579","0.0-197.0-0.0","79270934","wem/bandit_single","AC4LBMA5QJJ1I","pain","1","","74","J","1","","0","1","0","","0.3677966378","false","160","","0.231654425","main_expt","","0.3677966378","","0.1169857497","","0.2853399033","","","","","",""
"9458","","bandit","236","647816","0.0-198.0-0.0","79270934","wem/bandit_single","AC4LBMA5QJJ1I","pain","1","","74","J","1","","0","0","1","","0.3691576932","false","161","","0.2415747561","main_expt","","0.3691576932","","0.1131976547","","0.2755093387","","","","","",""
"4125","","bandit","237","653726","0.0-199.0-0.0","79270934","wem/bandit_single","AC4LBMA5QJJ1I","pain","1","","74","J","1","","0","0","1","","0.3102253273","false","162","","0.1807921844","main_expt","","0.3102253273","","0.1560378341","","0.2706635439","","","","","",""
"117","","bandit","238","655630","0.0-200.0-0.0","79270934","wem/bandit_single","AC4LBMA5QJJ1I","pain","1","","74","J","1","","0","1","0","","0.3361037566","false","163","","0.1986212186","main_expt","","0.3361037566","","0.1200759877","","0.2856851073","","","","","",""
"2833","","bandit","239","660241","0.0-201.0-0.0","79270934","wem/bandit_single","AC4LBMA5QJJ1I","pain","1","","74","J","1","","0","0","1","","0.3097300036","false","164","","0.1799022971","main_expt","","0.3097300036","","0.1198838954","","0.3188827228","","","","","",""
"16","","bandit","240","662012","0.0-202.0-0.0","79270934","wem/bandit_single","AC4LBMA5QJJ1I","pain","1","","74","J","1","","0","0","1","","0.3234169084","false","165","","0.2610149466","main_expt","","0.3234169084","","0.1397308529","","0.3258940933","","","","","",""
"15700","","bandit","241","679484","0.0-203.0-0.0","79270934","wem/bandit_single","AC4LBMA5QJJ1I","pain","1","","74","J","1","","0","1","0","","0.3201458278","false","166","","0.2673729835","main_expt","","0.3201458278","","0.1506282743","","0.3525092479","","","","","",""
"362","","bandit","242","681623","0.0-204.0-0.0","79270934","wem/bandit_single","AC4LBMA5QJJ1I","pain","1","","74","J","1","","0","1","0","","0.366643239","false","167","","0.169486101","main_expt","","0.366643239","","0.1407574557","","0.3919017073","","","","","",""
"394","","bandit","243","683791","0.0-205.0-0.0","79270934","wem/bandit_single","AC4LBMA5QJJ1I","pain","1","","74","J","1","","0","1","0","","0.3877512758","false","168","","0.1997030364","main_expt","","0.3877512758","","0.1217255528","","0.3855955566","","","","","",""
"1191","","bandit","244","686767","0.0-206.0-0.0","79270934","wem/bandit_single","AC4LBMA5QJJ1I","pain","1","","74","J","1","","0","1","0","","0.3733196812","false","169","","0.2391799942","main_expt","","0.3733196812","","0.118108524","","0.3882436634","","","","","",""
"369","","bandit","245","688898","0.0-207.0-0.0","79270934","wem/bandit_single","AC4LBMA5QJJ1I","pain","1","","74","J","1","","0","1","0","","0.3616719183","false","170","","0.2239577552","main_expt","","0.3616719183","","0.0750780909","","0.4096789578","","","","","",""
"497","","bandit","246","691168","0.0-208.0-0.0","79270934","wem/bandit_single","AC4LBMA5QJJ1I","pain","1","","74","J","1","","0","0","1","","0.3222484871","false","171","","0.2175962327","main_expt","","0.3222484871","","0.07048665386","","0.4326257363","","","","","",""
"275","","bandit","247","693204","0.0-209.0-0.0","79270934","wem/bandit_single","AC4LBMA5QJJ1I","pain","1","","74","J","1","","0","0","1","","0.2849842628","false","172","","0.2061205584","main_expt","","0.2849842628","","0.09439478605","","0.4381189537","","","","","",""
"90","","bandit","248","695050","0.0-210.0-0.0","79270934","wem/bandit_single","AC4LBMA5QJJ1I","pain","1","","72","H","0","img/none_selected.jpg","0","0","1","","0.1787022686","false","173","","0.1787022686","main_expt","","0.2896949147","","0.05932603211","","0.3823577146","","","","","",""
"107","","bandit","249","696936","0.0-211.0-0.0","79270934","wem/bandit_single","AC4LBMA5QJJ1I","pain","1","","74","J","1","","0","0","1","","0.260829927","false","174","","0.1782801474","main_expt","","0.260829927","","0.1019229976","","0.4155511425","","","","","",""
"90","","bandit","250","698786","0.0-212.0-0.0","79270934","wem/bandit_single","AC4LBMA5QJJ1I","pain","1","","74","J","1","","0","1","0","","0.1608433896","false","175","","0.1723114597","main_expt","","0.1608433896","","0.1270031357","","0.4391025654","","","","","",""
"1124","","bandit","251","701690","0.0-213.0-0.0","79270934","wem/bandit_single","AC4LBMA5QJJ1I","pain","1","","74","J","1","","0","0","1","","0.1924323662","false","176","","0.1714247165","main_expt","","0.1924323662","","0.1519507126","","0.4654332747","","","","","",""
"92","","bandit","252","703550","0.0-214.0-0.0","79270934","wem/bandit_single","AC4LBMA5QJJ1I","pain","1","","74","J","1","","0","0","1","","0.1942299772","false","177","","0.2003569552","main_expt","","0.1942299772","","0.2645819263","","0.4862166952","","","","","",""
"360","","bandit","253","705674","0.0-215.0-0.0","79270934","wem/bandit_single","AC4LBMA5QJJ1I","pain","1","","74","J","1","","0","0","1","","0.2266891382","false","178","","0.1848954505","main_expt","","0.2266891382","","0.2497033982","","0.4878504479","","","","","",""
"243","","bandit","254","707695","0.0-216.0-0.0","79270934","wem/bandit_single","AC4LBMA5QJJ1I","pain","1","","72","H","0","img/none_selected.jpg","0","0","1","","0.120488448","false","179","","0.120488448","main_expt","","0.193755509","","0.2464833147","","0.4925433574","","","","","",""
"347","","bandit","255","709830","0.0-217.0-0.0","79270934","wem/bandit_single","AC4LBMA5QJJ1I","pain","1","","72","H","0","img/none_selected.jpg","0","0","1","","0.09518531587","false","180","","0.09518531587","main_expt","","0.2143300014","","0.191435525","","0.4863546804","","","","","",""
"132","","bandit","256","711729","0.0-218.0-0.0","79270934","wem/bandit_single","AC4LBMA5QJJ1I","pain","1","","74","J","1","","0","0","1","","0.1996101457","false","181","","0.1110105533","main_expt","","0.1996101457","","0.2095150634","","0.4898831258","","","","","",""
"202","","bandit","257","713706","0.0-219.0-0.0","79270934","wem/bandit_single","AC4LBMA5QJJ1I","pain","1","","75","K","2","","0","0","1","","0.2238619417","false","182","","0.1321710188","main_expt","","0.220362663","","0.2238619417","","0.4702328405","","","","","",""
"207","","bandit","258","715678","0.0-220.0-0.0","79270934","wem/bandit_single","AC4LBMA5QJJ1I","pain","1","","75","K","2","","0","0","1","","0.172430875","false","183","","0.07205074818","main_expt","","0.2087999581","","0.172430875","","0.4443650637","","","","","",""
"170","","bandit","259","717628","0.0-221.0-0.0","79270934","wem/bandit_single","AC4LBMA5QJJ1I","pain","1","","76","L","3","","0","1","0","","0.4395551327","false","184","","0.08140980564","main_expt","","0.2693368533","","0.1537152065","","0.4395551327","","","","","",""
"94","","bandit","260","719501","0.0-222.0-0.0","79270934","wem/bandit_single","AC4LBMA5QJJ1I","pain","1","","76","L","3","","0","1","0","","0.427498872","false","185","","0.07005875891","main_expt","","0.3177788722","","0.1089078126","","0.427498872","","","","","",""
"306","","bandit","261","721583","0.0-223.0-0.0","79270934","wem/bandit_single","AC4LBMA5QJJ1I","pain","1","","76","L","3","","0","0","1","","0.4126395781","false","186","","0.04712836877","main_expt","","0.3093747324","","0.1150542287","","0.4126395781","","","","","",""
"87","","bandit","262","723428","0.0-224.0-0.0","79270934","wem/bandit_single","AC4LBMA5QJJ1I","pain","1","","76","L","3","","0","1","0","","0.4059631444","false","187","","0.07097221374","main_expt","","0.3361469263","","0.07877539194","","0.4059631444","","","","","",""
"251","","bandit","263","725438","0.0-225.0-0.0","79270934","wem/bandit_single","AC4LBMA5QJJ1I","pain","1","","76","L","3","","0","0","1","","0.4007853126","false","188","","0.04255461481","main_expt","","0.3096611705","","0.06234325246","","0.4007853126","","","","","",""
"383","","bandit","264","727590","0.0-226.0-0.0","79270934","wem/bandit_single","AC4LBMA5QJJ1I","pain","1","","76","L","3","","0","0","1","","0.4208201059","false","189","","0.03834091028","main_expt","","0.298651231","","0.07748383332","","0.4208201059","","","","","",""
"247","","bandit","265","729612","0.0-227.0-0.0","79270934","wem/bandit_single","AC4LBMA5QJJ1I","pain","1","","74","J","1","","0","1","0","","0.3361123746","false","190","","0.03101500858","main_expt","","0.3361123746","","0.08864116925","","0.4249824956","","","","","",""
"114","","bandit","266","731504","0.0-228.0-0.0","79270934","wem/bandit_single","AC4LBMA5QJJ1I","pain","1","","74","J","1","","0","0","1","","0.3529126189","false","191","","0.05137759752","main_expt","","0.3529126189","","0.1114019665","","0.4519194686","","","","","",""
"22","","bandit","267","733295","0.0-229.0-0.0","79270934","wem/bandit_single","AC4LBMA5QJJ1I","pain","1","","76","L","3","","0","1","0","","0.449072141","false","192","","0.05101019331","main_expt","","0.3806900048","","0.0944181321","","0.449072141","","","","","",""
"111","","bandit","268","735174","0.0-230.0-0.0","79270934","wem/bandit_single","AC4LBMA5QJJ1I","pain","1","","76","L","3","","0","1","0","","0.4069092802","false","193","","0.0408087357","main_expt","","0.3191299148","","0.09015445577","","0.4069092802","","","","","",""
"165","","bandit","269","737118","0.0-231.0-0.0","79270934","wem/bandit_single","AC4LBMA5QJJ1I","pain","1","","76","L","3","","0","1","0","","0.399300076","false","194","","0.04787233925","main_expt","","0.3350705725","","0.09569888082","","0.399300076","","","","","",""
"33","","bandit","270","738916","0.0-232.0-0.0","79270934","wem/bandit_single","AC4LBMA5QJJ1I","pain","1","","76","L","3","","0","1","0","","0.4028519225","false","195","","0.07297342555","main_expt","","0.3579412151","","0.1521563302","","0.4028519225","","","","","",""
"945","","bandit","271","741657","0.0-233.0-0.0","79270934","wem/bandit_single","AC4LBMA5QJJ1I","pain","1","","76","L","3","","0","1","0","","0.3708283831","false","196","","0.1090796252","main_expt","","0.4135102269","","0.1612876033","","0.3708283831","","","","","",""
"2962","","bandit","272","746379","0.0-234.0-0.0","79270934","wem/bandit_single","AC4LBMA5QJJ1I","pain","1","","76","L","3","","0","0","1","","0.3992028251","false","197","","0.1141593934","main_expt","","0.4368922102","","0.1818980103","","0.3992028251","","","","","",""
"232","","bandit","273","748388","0.0-235.0-0.0","79270934","wem/bandit_single","AC4LBMA5QJJ1I","pain","1","","76","L","3","","0","1","0","","0.3662313723","false","198","","0.1247063377","main_expt","","0.4329908538","","0.1426991491","","0.3662313723","","","","","",""
"9137","","bandit","274","759303","0.0-236.0-0.0","79270934","wem/bandit_single","AC4LBMA5QJJ1I","pain","1","","76","L","3","","0","0","1","","0.3667285709","false","199","","0.1324590526","main_expt","","0.4458308372","","0.1339470975","","0.3667285709","","","","","",""
"371","","bandit","275","761455","0.0-237.0-0.0","79270934","wem/bandit_single","AC4LBMA5QJJ1I","pain","1","","76","L","3","","0","0","1","","0.365396467","false","200","","0.1062358191","main_expt","","0.4535445428","","0.1615481579","","0.365396467","","","","","",""
"46","","bandit","276","763291","0.0-238.0-0.0","79270934","wem/bandit_single","AC4LBMA5QJJ1I","pain","1","","74","J","1","","0","0","1","","0.4258040833","false","201","","0.1027729413","main_expt","","0.4258040833","","0.1889616495","","0.3413602931","","","","","",""
"38","","bandit","277","765095","0.0-239.0-0.0","79270934","wem/bandit_single","AC4LBMA5QJJ1I","pain","1","","76","L","3","","0","0","1","","0.3655369163","false","202","","0.09207086273","main_expt","","0.413157784","","0.2043886565","","0.3655369163","","","","","",""
"68","","bandit","278","766940","0.0-240.0-0.0","79270934","wem/bandit_single","AC4LBMA5QJJ1I","pain","1","","76","L","3","","0","0","1","","0.3301706169","false","203","","0.1409949376","main_expt","","0.358983575","","0.2274570119","","0.3301706169","","","","","",""
"93","","bandit","279","768798","0.0-241.0-0.0","79270934","wem/bandit_single","AC4LBMA5QJJ1I","pain","1","","76","L","3","","0","0","1","","0.3305557625","false","204","","0.2067441942","main_expt","","0.3354839288","","0.1795680912","","0.3305557625","","","","","",""
"130","","bandit","280","770687","0.0-242.0-0.0","79270934","wem/bandit_single","AC4LBMA5QJJ1I","pain","1","","76","L","3","","0","0","1","","0.3332543728","false","205","","0.2171549514","main_expt","","0.3814446138","","0.1823506393","","0.3332543728","","","","","",""
"271","","bandit","281","772721","0.0-243.0-0.0","79270934","wem/bandit_single","AC4LBMA5QJJ1I","pain","1","","76","L","3","","0","0","1","","0.270761893","false","206","","0.1399251859","main_expt","","0.4069937863","","0.1401809595","","0.270761893","","","","","",""
"77","","bandit","282","774567","0.0-244.0-0.0","79270934","wem/bandit_single","AC4LBMA5QJJ1I","pain","1","","76","L","3","","0","0","1","","0.2595670132","false","207","","0.1700254018","main_expt","","0.4261201247","","0.1651993972","","0.2595670132","","","","","",""
"122","","bandit","283","776470","0.0-245.0-0.0","79270934","wem/bandit_single","AC4LBMA5QJJ1I","pain","1","","74","J","1","","0","0","1","","0.4105702951","false","208","","0.1831619311","main_expt","","0.4105702951","","0.1803987852","","0.2772442529","","","","","",""
"342","","bandit","284","778586","0.0-246.0-0.0","79270934","wem/bandit_single","AC4LBMA5QJJ1I","pain","1","","75","K","2","","0","0","1","","0.1470434113","false","209","","0.151215806","main_expt","","0.402481318","","0.1470434113","","0.2654441326","","","","","",""
"40","","bandit","285","780384","0.0-247.0-0.0","79270934","wem/bandit_single","AC4LBMA5QJJ1I","pain","1","","75","K","2","","0","0","1","","0.1375860563","false","210","","0.1841878728","main_expt","","0.4378094136","","0.1375860563","","0.2475709295","","","","","",""
"75","","bandit","286","782218","0.0-248.0-0.0","79270934","wem/bandit_single","AC4LBMA5QJJ1I","pain","1","","72","H","0","img/none_selected.jpg","0","1","0","","0.190591144","false","211","","0.190591144","main_expt","","0.4174257438","","0.1181257803","","0.1836637302","","","","","",""
"0","","bandit","287","783981","0.0-249.0-0.0","79270934","wem/bandit_single","AC4LBMA5QJJ1I","pain","1","","72","H","0","img/none_selected.jpg","0","0","1","","0.2024219406","false","212","","0.2024219406","main_expt","","0.4235695044","","0.1284194295","","0.2018671691","","","","","",""
"749","","bandit","288","786497","0.0-250.0-0.0","79270934","wem/bandit_single","AC4LBMA5QJJ1I","pain","1","","72","H","0","img/none_selected.jpg","0","0","1","","0.1985525674","false","213","","0.1985525674","main_expt","","0.4112054282","","0.1088774305","","0.1807811906","","","","","",""
"11","","bandit","289","788281","0.0-251.0-0.0","79270934","wem/bandit_single","AC4LBMA5QJJ1I","pain","1","","76","L","3","","0","0","1","","0.2432807767","false","214","","0.1940352924","main_expt","","0.3986702209","","0.07230623063","","0.2432807767","","","","","",""
"24","","bandit","290","790062","0.0-252.0-0.0","79270934","wem/bandit_single","AC4LBMA5QJJ1I","pain","1","","74","J","1","","0","0","1","","0.4379561577","false","215","","0.1155678072","main_expt","","0.4379561577","","0.07963887701","","0.2167976264","","","","","",""
"17","","bandit","291","791851","0.0-253.0-0.0","79270934","wem/bandit_single","AC4LBMA5QJJ1I","pain","1","","72","H","0","img/none_selected.jpg","0","0","1","","0.08288275022","false","216","","0.08288275022","main_expt","","0.425003275","","0.0792987172","","0.2963745884","","","","","",""
"121","","bandit","292","793731","0.0-254.0-0.0","79270934","wem/bandit_single","AC4LBMA5QJJ1I","pain","1","","72","H","0","img/none_selected.jpg","0","0","1","","0.1108164962","false","217","","0.1108164962","main_expt","","0.4398514333","","0.07576557353","","0.2704200786","","","","","",""
"181","","bandit","293","795669","0.0-255.0-0.0","79270934","wem/bandit_single","AC4LBMA5QJJ1I","pain","1","","72","H","0","img/none_selected.jpg","0","1","0","","0.1166222362","false","218","","0.1166222362","main_expt","","0.4307107256","","0.05946619603","","0.2057322541","","","","","",""
"80","","bandit","294","797546","0.0-256.0-0.0","79270934","wem/bandit_single","AC4LBMA5QJJ1I","pain","1","","72","H","0","img/none_selected.jpg","0","1","0","","0.1441412427","false","219","","0.1441412427","main_expt","","0.4236121262","","0.07419684477","","0.2143414454","","","","","",""
"105","","bandit","295","799437","0.0-257.0-0.0","79270934","wem/bandit_single","AC4LBMA5QJJ1I","pain","1","","72","H","0","img/none_selected.jpg","0","0","1","","0.1460318591","false","220","","0.1460318591","main_expt","","0.4020148519","","0.09297922461","","0.1630835619","","","","","",""
"66","","bandit","296","801269","0.0-258.0-0.0","79270934","wem/bandit_single","AC4LBMA5QJJ1I","pain","1","","72","H","0","img/none_selected.jpg","0","0","1","","0.1068666799","false","221","","0.1068666799","main_expt","","0.4073181559","","0.1429286242","","0.1536312793","","","","","",""
"396","","bandit","297","803439","0.0-259.0-0.0","79270934","wem/bandit_single","AC4LBMA5QJJ1I","pain","1","","72","H","0","img/none_selected.jpg","0","0","1","","0.1101844092","false","222","","0.1101844092","main_expt","","0.3651123295","","0.1708286753","","0.2214617817","","","","","",""
"59","","bandit","298","805275","0.0-260.0-0.0","79270934","wem/bandit_single","AC4LBMA5QJJ1I","pain","1","","72","H","0","img/none_selected.jpg","0","0","1","","0.0707480467","false","223","","0.0707480467","main_expt","","0.3836441325","","0.1461267001","","0.2273662723","","","","","",""
"27","","bandit","299","807070","0.0-261.0-0.0","79270934","wem/bandit_single","AC4LBMA5QJJ1I","pain","1","","76","L","3","","0","0","1","","0.1894352557","false","224","","0.06117493494","main_expt","","0.3982756155","","0.144808321","","0.1894352557","","","","","",""
"232","","bandit","300","809072","0.0-262.0-0.0","79270934","wem/bandit_single","AC4LBMA5QJJ1I","pain","1","","74","J","1","","0","0","1","","0.3942448394","false","225","","0.0615688762","main_expt","","0.3942448394","","0.1890777341","","0.1292085382","","","","","",""
"156","","bandit","301","810991","0.0-263.0-0.0","79270934","wem/bandit_single","AC4LBMA5QJJ1I","pain","1","","75","K","2","","0","0","1","","0.1442837472","false","226","","0.05052633559","main_expt","","0.4169515918","","0.1442837472","","0.1530858041","","","","","",""
"7","","bandit","302","812782","0.0-264.0-0.0","79270934","wem/bandit_single","AC4LBMA5QJJ1I","pain","1","","72","H","0","img/none_selected.jpg","0","0","1","","0.05726050712","false","227","","0.05726050712","main_expt","","0.4204191544","","0.1425852804","","0.1593334253","","","","","",""
"186","","bandit","303","814753","0.0-265.0-0.0","79270934","wem/bandit_single","AC4LBMA5QJJ1I","pain","1","","72","H","0","img/none_selected.jpg","0","0","1","","0.0758768547","false","228","","0.0758768547","main_expt","","0.4091886","","0.1116716659","","0.1247523642","","","","","",""
"302","","bandit","304","816816","0.0-266.0-0.0","79270934","wem/bandit_single","AC4LBMA5QJJ1I","pain","1","","76","L","3","","0","0","1","","0.1463700977","false","229","","0.07022353505","main_expt","","0.407276644","","0.1206121499","","0.1463700977","","","","","",""
"40","","bandit","305","818616","0.0-267.0-0.0","79270934","wem/bandit_single","AC4LBMA5QJJ1I","pain","1","","74","J","1","","0","0","1","","0.4254558538","false","230","","0.06577032649","main_expt","","0.4254558538","","0.1168532629","","0.1402324221","","","","","",""
"434","","bandit","306","820817","0.0-268.0-0.0","79270934","wem/bandit_single","AC4LBMA5QJJ1I","pain","1","","72","H","0","img/none_selected.jpg","0","0","1","","0.06313303242","false","231","","0.06313303242","main_expt","","0.4259586803","","0.0916199044","","0.1914784592","","","","","",""
"37","","bandit","307","822630","0.0-269.0-0.0","79270934","wem/bandit_single","AC4LBMA5QJJ1I","pain","1","","72","H","0","img/none_selected.jpg","0","0","1","","0.05490827263","false","232","","0.05490827263","main_expt","","0.4429649496","","0.09573807812","","0.1507361932","","","","","",""
"210","","bandit","308","824618","0.0-270.0-0.0","79270934","wem/bandit_single","AC4LBMA5QJJ1I","pain","1","","74","J","1","","0","1","0","","0.4456598826","false","233","","0.04200611561","main_expt","","0.4456598826","","0.1246926578","","0.1902650793","","","","","",""
"76","","bandit","309","826484","0.0-271.0-0.0","79270934","wem/bandit_single","AC4LBMA5QJJ1I","pain","1","","74","J","1","","0","0","1","","0.4504169918","false","234","","0.0550058871","main_expt","","0.4504169918","","0.122457211","","0.2663902881","","","","","",""
"57","","bandit","310","828321","0.0-272.0-0.0","79270934","wem/bandit_single","AC4LBMA5QJJ1I","pain","1","","75","K","2","","0","0","1","","0.1561374187","false","235","","0.06273227262","main_expt","","0.4255816076","","0.1561374187","","0.257874652","","","","","",""
"30","","bandit","311","830116","0.0-273.0-0.0","79270934","wem/bandit_single","AC4LBMA5QJJ1I","pain","1","","75","K","2","","0","0","1","","0.1726763947","false","236","","0.09869136657","main_expt","","0.4262424011","","0.1726763947","","0.2134416149","","","","","",""
"92","","bandit","312","831975","0.0-274.0-0.0","79270934","wem/bandit_single","AC4LBMA5QJJ1I","pain","1","","76","L","3","","0","0","1","","0.1655180868","false","237","","0.06464195797","main_expt","","0.4314914545","","0.163453789","","0.1655180868","","","","","",""
"111","","bandit","313","833866","0.0-275.0-0.0","79270934","wem/bandit_single","AC4LBMA5QJJ1I","pain","1","","72","H","0","img/none_selected.jpg","0","0","1","","0.1092425733","false","238","","0.1092425733","main_expt","","0.4580147213","","0.1511244057","","0.1528926348","","","","","",""
"93","","bandit","314","835737","0.0-276.0-0.0","79270934","wem/bandit_single","AC4LBMA5QJJ1I","pain","1","","74","J","1","","0","1","0","","0.4437162142","false","239","","0.08920017271","main_expt","","0.4437162142","","0.1170855371","","0.1594670864","","","","","",""
"147","","bandit","315","837650","0.0-277.0-0.0","79270934","wem/bandit_single","AC4LBMA5QJJ1I","pain","1","","74","J","1","","0","0","1","","0.4423909474","false","240","","0.138477068","main_expt","","0.4423909474","","0.1281478965","","0.104293197","","","","","",""
"43","","bandit","316","839486","0.0-278.0-0.0","79270934","wem/bandit_single","AC4LBMA5QJJ1I","pain","1","","74","J","1","","0","0","1","","0.4542424264","false","241","","0.1249513709","main_expt","","0.4542424264","","0.1579661802","","0.07968297136","","","","","",""
"7","","bandit","317","841250","0.0-279.0-0.0","79270934","wem/bandit_single","AC4LBMA5QJJ1I","pain","1","","74","J","1","","0","1","0","","0.4659063812","false","242","","0.09754639251","main_expt","","0.4659063812","","0.1345462726","","0.07079416442","","","","","",""
"21","","bandit","318","843033","0.0-280.0-0.0","79270934","wem/bandit_single","AC4LBMA5QJJ1I","pain","1","","74","J","1","","0","1","0","","0.4702771719","false","243","","0.1223474156","main_expt","","0.4702771719","","0.1793426478","","0.08709770617","","","","","",""
"134","","bandit","319","844946","0.0-281.0-0.0","79270934","wem/bandit_single","AC4LBMA5QJJ1I","pain","1","","74","J","1","","0","0","1","","0.4678480784","false","244","","0.1004902073","main_expt","","0.4678480784","","0.1623289848","","0.08252109256","","","","","",""
"225","","bandit","320","846955","0.0-282.0-0.0","79270934","wem/bandit_single","AC4LBMA5QJJ1I","pain","1","","74","J","1","","0","1","0","","0.4608336118","false","245","","0.09372717231","main_expt","","0.4608336118","","0.1638267454","","0.07130924754","","","","","",""
"227","","bandit","321","848956","0.0-283.0-0.0","79270934","wem/bandit_single","AC4LBMA5QJJ1I","pain","1","","74","J","1","","0","1","0","","0.4455928316","false","246","","0.1004977064","main_expt","","0.4455928316","","0.1794660524","","0.06886742221","","","","","",""
"1671","","bandit","322","852408","0.0-284.0-0.0","79270934","wem/bandit_single","AC4LBMA5QJJ1I","pain","1","","74","J","1","","0","1","0","","0.4322927154","false","247","","0.09336015453","main_expt","","0.4322927154","","0.1751092572","","0.064138504","","","","","",""
"349","","bandit","323","854518","0.0-285.0-0.0","79270934","wem/bandit_single","AC4LBMA5QJJ1I","pain","1","","74","J","1","","0","1","0","","0.4293825987","false","248","","0.09552903486","main_expt","","0.4293825987","","0.188480637","","0.05051083443","","","","","",""
"119","","bandit","324","856414","0.0-286.0-0.0","79270934","wem/bandit_single","AC4LBMA5QJJ1I","pain","1","","74","J","1","","0","1","0","","0.4338924945","false","249","","0.1087111068","main_expt","","0.4338924945","","0.1718025207","","0.05514480776","","","","","",""
"426","","bandit","325","858616","0.0-287.0-0.0","79270934","wem/bandit_single","AC4LBMA5QJJ1I","pain","1","","74","J","1","","0","1","0","","0.4356531551","false","250","","0.08296073337","main_expt","","0.4356531551","","0.1377417152","","0.02780796002","","","","","",""
"11","","bandit","326","860400","0.0-288.0-0.0","79270934","wem/bandit_single","AC4LBMA5QJJ1I","pain","1","","74","J","1","","0","0","1","","0.4561881598","false","251","","0.08988728922","main_expt","","0.4561881598","","0.1623098307","","0.02786711831","","","","","",""
"158","","bandit","327","862327","0.0-289.0-0.0","79270934","wem/bandit_single","AC4LBMA5QJJ1I","pain","1","","74","J","1","","0","0","1","","0.4517263236","false","252","","0.07043490844","main_expt","","0.4517263236","","0.1702242208","","0.03881205422","","","","","",""
"1126","","bandit","328","865227","0.0-290.0-0.0","79270934","wem/bandit_single","AC4LBMA5QJJ1I","pain","1","","74","J","1","","0","0","1","","0.4280730872","false","253","","0.06648959932","main_expt","","0.4280730872","","0.1571297736","","0.03211176865","","","","","",""
"812","","bandit","329","867812","0.0-291.0-0.0","79270934","wem/bandit_single","AC4LBMA5QJJ1I","pain","1","","74","J","1","","0","1","0","","0.3976691957","false","254","","0.04750248463","main_expt","","0.3976691957","","0.1311762281","","0.02501863174","","","","","",""
"252","","bandit","330","869831","0.0-292.0-0.0","79270934","wem/bandit_single","AC4LBMA5QJJ1I","pain","1","","74","J","1","","0","1","0","","0.3920211634","false","255","","0.0685067328","main_expt","","0.3920211634","","0.1262313745","","0.03845468041","","","","","",""
"170","","bandit","331","871780","0.0-293.0-0.0","79270934","wem/bandit_single","AC4LBMA5QJJ1I","pain","1","","74","J","1","","0","0","1","","0.3802568344","false","256","","0.06106940649","main_expt","","0.3802568344","","0.08888936201","","0.03093107714","","","","","",""
"1684","","bandit","332","875235","0.0-294.0-0.0","79270934","wem/bandit_single","AC4LBMA5QJJ1I","pain","1","","74","J","1","","0","0","1","","0.4153547565","false","257","","0.03925251802","main_expt","","0.4153547565","","0.1016624202","","0.02284381284","","","","","",""
"775","","bandit","333","877783","0.0-295.0-0.0","79270934","wem/bandit_single","AC4LBMA5QJJ1I","pain","1","","74","J","1","","0","1","0","","0.412770775","false","258","","0.07528758783","main_expt","","0.412770775","","0.1201960749","","0.01195927332","","","","","",""
"512","","bandit","334","880074","0.0-296.0-0.0","79270934","wem/bandit_single","AC4LBMA5QJJ1I","pain","1","","74","J","1","","0","1","0","","0.4364469878","false","259","","0.06168900656","main_expt","","0.4364469878","","0.09869940493","","0.009837890866","","","","","",""
"281","","bandit","335","882135","0.0-297.0-0.0","79270934","wem/bandit_single","AC4LBMA5QJJ1I","pain","1","","74","J","1","","0","0","1","","0.4143686848","false","260","","0.05358732337","main_expt","","0.4143686848","","0.140367269","","0.01652501309","","","","","",""
"474","","bandit","336","884406","0.0-298.0-0.0","79270934","wem/bandit_single","AC4LBMA5QJJ1I","pain","1","","74","J","1","","0","0","1","","0.3932103286","false","261","","0.05974294151","main_expt","","0.3932103286","","0.107121031","","0.0246934762","","","","","",""
"2598","","bandit","337","888775","0.0-299.0-0.0","79270934","wem/bandit_single","AC4LBMA5QJJ1I","pain","1","","74","J","1","","0","1","0","","0.4299042069","false","262","","0.0656558392","main_expt","","0.4299042069","","0.142880744","","0.02217338967","","","","","",""
"748","","bandit","338","891289","0.0-300.0-0.0","79270934","wem/bandit_single","AC4LBMA5QJJ1I","pain","1","","74","J","1","","0","1","0","","0.3864913748","false","263","","0.08006927963","main_expt","","0.3864913748","","0.1398656543","","0.02538488248","","","","","",""
"210","","bandit","339","893292","0.0-301.0-0.0","79270934","wem/bandit_single","AC4LBMA5QJJ1I","pain","1","","74","J","1","","0","1","0","","0.3721946297","false","264","","0.07803510261","main_expt","","0.3721946297","","0.185630342","","0.03542132602","","","","","",""
"254","","bandit","340","895326","0.0-302.0-0.0","79270934","wem/bandit_single","AC4LBMA5QJJ1I","pain","1","","74","J","1","","0","0","1","","0.3326379545","false","265","","0.08917846028","main_expt","","0.3326379545","","0.1483619715","","0.03052618628","","","","","",""
"290","","bandit","341","897391","0.0-303.0-0.0","79270934","wem/bandit_single","AC4LBMA5QJJ1I","pain","1","","74","J","1","","0","0","1","","0.3337002386","false","266","","0.1562168236","main_expt","","0.3337002386","","0.1677753502","","0.02388326919","","","","","",""
"211","","bandit","342","899370","0.0-304.0-0.0","79270934","wem/bandit_single","AC4LBMA5QJJ1I","pain","1","","74","J","1","","0","0","1","","0.3044940876","false","267","","0.1873085091","main_expt","","0.3044940876","","0.1748953786","","0.01496915784","","","","","",""
"130","","bandit","343","901265","0.0-305.0-0.0","79270934","wem/bandit_single","AC4LBMA5QJJ1I","pain","1","","74","J","1","","0","1","0","","0.2966269971","false","268","","0.1850807086","main_expt","","0.2966269971","","0.152215306","","0.01735494223","","","","","",""
"53","","bandit","344","903101","0.0-306.0-0.0","79270934","wem/bandit_single","AC4LBMA5QJJ1I","pain","1","","74","J","1","","0","1","0","","0.2617435325","false","269","","0.1461958128","main_expt","","0.2617435325","","0.1420691147","","0.01365938384","","","","","",""
"1547","","bandit","345","906414","0.0-307.0-0.0","79270934","wem/bandit_single","AC4LBMA5QJJ1I","pain","1","","74","J","1","","0","0","1","","0.2599280147","false","270","","0.1348565207","main_expt","","0.2599280147","","0.1338049101","","0.01871615964","","","","","",""
"212","","bandit","346","908396","0.0-308.0-0.0","79270934","wem/bandit_single","AC4LBMA5QJJ1I","pain","1","","74","J","1","","0","1","0","","0.2499936179","false","271","","0.1588166083","main_expt","","0.2499936179","","0.1178923734","","0.01663887187","","","","","",""
"5308","","bandit","347","915470","0.0-309.0-0.0","79270934","wem/bandit_single","AC4LBMA5QJJ1I","pain","1","","74","J","1","","0","0","1","","0.2703142459","false","272","","0.1288650497","main_expt","","0.2703142459","","0.1436833609","","0.01973971225","","","","","",""
"2433","","bandit","348","919663","0.0-310.0-0.0","79270934","wem/bandit_single","AC4LBMA5QJJ1I","pain","1","","74","J","1","","0","0","1","","0.2835249431","false","273","","0.1414039315","main_expt","","0.2835249431","","0.1917782062","","0.01954424634","","","","","",""
"116","","bandit","349","921562","0.0-311.0-0.0","79270934","wem/bandit_single","AC4LBMA5QJJ1I","pain","1","","74","J","1","","0","1","0","","0.2906451875","false","274","","0.1132613661","main_expt","","0.2906451875","","0.1657285368","","0.008862655739","","","","","",""
"6","","bandit","350","923339","0.0-312.0-0.0","79270934","wem/bandit_single","AC4LBMA5QJJ1I","pain","1","","74","J","1","","0","0","1","","0.2670480505","false","275","","0.1396690899","main_expt","","0.2670480505","","0.1420329436","","0.0094605031","","","","","",""
"149","","bandit","351","925255","0.0-313.0-0.0","79270934","wem/bandit_single","AC4LBMA5QJJ1I","pain","1","","74","J","1","","0","0","1","","0.2358592403","false","276","","0.1109816737","main_expt","","0.2358592403","","0.1369756733","","0.01191149084","","","","","",""
"155","","bandit","352","927204","0.0-314.0-0.0","79270934","wem/bandit_single","AC4LBMA5QJJ1I","pain","1","","74","J","1","","0","0","1","","0.1877967456","false","277","","0.08046464388","main_expt","","0.1877967456","","0.1781068979","","0.00904810236","","","","","",""
"108","","bandit","353","929101","0.0-315.0-0.0","79270934","wem/bandit_single","AC4LBMA5QJJ1I","pain","1","","74","J","1","","0","1","0","","0.1537245983","false","278","","0.07407019324","main_expt","","0.1537245983","","0.248352092","","0.007795284796","","","","","",""
"10547","","bandit","354","941431","0.0-316.0-0.0","79270934","wem/bandit_single","AC4LBMA5QJJ1I","pain","1","","74","J","1","","0","0","1","","0.1662011111","false","279","","0.06478755197","main_expt","","0.1662011111","","0.263219496","","0.01747653863","","","","","",""
"2099","","bandit","355","945314","0.0-317.0-0.0","79270934","wem/bandit_single","AC4LBMA5QJJ1I","pain","1","","74","J","1","","0","0","1","","0.1622625537","false","280","","0.04895059186","main_expt","","0.1622625537","","0.210776847","","0.02326096521","","","","","",""
"295","","bandit","356","947371","0.0-318.0-0.0","79270934","wem/bandit_single","AC4LBMA5QJJ1I","pain","1","","74","J","1","","0","0","1","","0.2160365104","false","281","","0.04598133094","main_expt","","0.2160365104","","0.1901401854","","0.03290281633","","","","","",""
"96","","bandit","357","949235","0.0-319.0-0.0","79270934","wem/bandit_single","AC4LBMA5QJJ1I","pain","1","","74","J","1","","0","1","0","","0.2031844556","false","282","","0.0454431083","main_expt","","0.2031844556","","0.1692674388","","0.03647511751","","","","","",""
"352","","bandit","358","951359","0.0-320.0-0.0","79270934","wem/bandit_single","AC4LBMA5QJJ1I","pain","1","","74","J","1","","0","1","0","","0.236778666","false","283","","0.0377119091","main_expt","","0.236778666","","0.1697823826","","0.0381479171","","","","","",""
"515","","bandit","359","953645","0.0-321.0-0.0","79270934","wem/bandit_single","AC4LBMA5QJJ1I","pain","1","","74","J","1","","0","0","1","","0.2082896542","false","284","","0.0346676025","main_expt","","0.2082896542","","0.1647860582","","0.04237273713","","","","","",""
"783","","bandit","360","956202","0.0-322.0-0.0","79270934","wem/bandit_single","AC4LBMA5QJJ1I","pain","1","","74","J","1","","0","0","1","","0.1682052712","false","285","","0.03394591187","main_expt","","0.1682052712","","0.2346467376","","0.08736605616","","","","","",""
"155","","bandit","361","958135","0.0-323.0-0.0","79270934","wem/bandit_single","AC4LBMA5QJJ1I","pain","1","","74","J","1","","0","0","1","","0.1287852917","false","286","","0.03437308726","main_expt","","0.1287852917","","0.1651037306","","0.149418319","","","","","",""
"66","","bandit","362","959971","0.0-324.0-0.0","79270934","wem/bandit_single","AC4LBMA5QJJ1I","pain","1","","74","J","1","","0","0","1","","0.0739145169","false","287","","0.043905831","main_expt","","0.0739145169","","0.113933185","","0.2149685411","","","","","",""
"176","","bandit","363","961919","0.0-325.0-0.0","79270934","wem/bandit_single","AC4LBMA5QJJ1I","pain","1","","74","J","1","","0","0","1","","0.08295252225","false","288","","0.02064047927","main_expt","","0.08295252225","","0.08260993421","","0.181398065","","","","","",""
"143","","bandit","364","963845","0.0-326.0-0.0","79270934","wem/bandit_single","AC4LBMA5QJJ1I","pain","1","","72","H","0","img/none_selected.jpg","0","0","1","","0.0250169619","false","289","","0.0250169619","main_expt","","0.0479508895","","0.07260323305","","0.1523032639","","","","","",""
"254","","bandit","365","965881","0.0-327.0-0.0","79270934","wem/bandit_single","AC4LBMA5QJJ1I","pain","1","","75","K","2","","0","0","1","","0.06306400378","false","290","","0.04785043425","main_expt","","0.05498143303","","0.06306400378","","0.1404761367","","","","","",""
"102","","bandit","366","967765","0.0-328.0-0.0","79270934","wem/bandit_single","AC4LBMA5QJJ1I","pain","1","","74","J","1","","0","0","1","","0.06238518006","false","291","","0.05997729544","main_expt","","0.06238518006","","0.06173149747","","0.1639955189","","","","","",""
"178","","bandit","367","969732","0.0-329.0-0.0","79270934","wem/bandit_single","AC4LBMA5QJJ1I","pain","1","","76","L","3","","0","0","1","","0.1365824739","false","292","","0.08013724224","main_expt","","0.06246846358","","0.049421281","","0.1365824739","","","","","",""
"130","","bandit","368","971632","0.0-330.0-0.0","79270934","wem/bandit_single","AC4LBMA5QJJ1I","pain","1","","74","J","1","","0","0","1","","0.0635142122","false","293","","0.08257915178","main_expt","","0.0635142122","","0.04661139695","","0.2190436779","","","","","",""
"304","","bandit","369","973711","0.0-331.0-0.0","79270934","wem/bandit_single","AC4LBMA5QJJ1I","pain","1","","74","J","1","","0","0","1","","0.1078883856","false","294","","0.07979116831","main_expt","","0.1078883856","","0.05266196286","","0.2961987497","","","","","",""
"184","","bandit","370","975681","0.0-332.0-0.0","79270934","wem/bandit_single","AC4LBMA5QJJ1I","pain","1","","72","H","0","img/none_selected.jpg","0","0","1","","0.1168190604","false","295","","0.1168190604","main_expt","","0.1065048767","","0.0541153793","","0.3422413176","","","","","",""
"43","","bandit","371","977483","0.0-333.0-0.0","79270934","wem/bandit_single","AC4LBMA5QJJ1I","pain","1","","74","J","1","","0","0","1","","0.1528862056","false","296","","0.1280513587","main_expt","","0.1528862056","","0.03514166697","","0.3023757447","","","","","",""
"5721","","bandit","372","984967","0.0-334.0-0.0","79270934","wem/bandit_single","AC4LBMA5QJJ1I","pain","1","","74","J","1","","0","0","1","","0.1655716118","false","297","","0.1545711336","main_expt","","0.1655716118","","0.0293008482","","0.3744966898","","","","","",""
"239","","bandit","373","986964","0.0-335.0-0.0","79270934","wem/bandit_single","AC4LBMA5QJJ1I","pain","1","","72","H","0","img/none_selected.jpg","0","1","0","","0.1485956324","false","298","","0.1485956324","main_expt","","0.1725180782","","0.03311380314","","0.3702548021","","","","","",""
"76","","bandit","374","988799","0.0-336.0-0.0","79270934","wem/bandit_single","AC4LBMA5QJJ1I","pain","1","","72","H","0","img/none_selected.jpg","0","0","1","","0.1680902507","false","299","","0.1680902507","main_expt","","0.1569797065","","0.02365994183","","0.3675060033","","","","","",""
"21","","bandit","375","990578","0.0-337.0-0.0","79270934","wem/bandit_single","AC4LBMA5QJJ1I","pain","1","","74","J","1","","0","1","0","","0.2025314082","false","300","","0.1461034277","main_expt","","0.2025314082","","0.03748312384","","0.3623977575","","","","","",""
