"rt","responses","trial_type","trial_index","time_elapsed","internal_node_id","subjID","study","MID","cond","drift","key_press","respCharCode","respKey","respChoiceNum","respChoice","gems","bombs","no_reward","GemPrChosen","BombPrChosen","practice","trial_counter","WinPr_0","LosePr_0","trial_label","WinPr_1","LosePr_1","WinPr_2","LosePr_2","WinPr_3","LosePr_3","Q0","Q1","Q2","gender","age","ethnicity"
"101740","{""Q0"":""A2IA303OT5BBX0""}","survey-text","0","101752","0.0-0.0","79886005","wem/bandit_single","A2IA303OT5BBX0","pain","1","","","","","","","","","","","","","","","","","","","","","","","","","","",""
"4394","","text","1","107152","0.0-1.0","79886005","wem/bandit_single","A2IA303OT5BBX0","pain","1","32","","","","","","","","","","","","","","","","","","","","","","","","","",""
"30468","","text","2","137622","0.0-2.0","79886005","wem/bandit_single","A2IA303OT5BBX0","pain","1","32","","","","","","","","","","","","","","","","","","","","","","","","","",""
"33489","","text","3","171113","0.0-3.0","79886005","wem/bandit_single","A2IA303OT5BBX0","pain","1","32","","","","","","","","","","","","","","","","","","","","","","","","","",""
"19287","","text","4","190402","0.0-4.0","79886005","wem/bandit_single","A2IA303OT5BBX0","pain","1","32","","","","","","","","","","","","","","","","","","","","","","","","","",""
"78516","","text","5","268920","0.0-5.0","79886005","wem/bandit_single","A2IA303OT5BBX0","pain","1","32","","","","","","","","","","","","","","","","","","","","","","","","","",""
"13739","","text","6","282661","0.0-6.0","79886005","wem/bandit_single","A2IA303OT5BBX0","pain","1","32","","","","","","","","","","","","","","","","","","","","","","","","","",""
"7173","","text","7","289836","0.0-7.0","79886005","wem/bandit_single","A2IA303OT5BBX0","pain","1","32","","","","","","","","","","","","","","","","","","","","","","","","","",""
"7331","","text","8","297170","0.0-8.0","79886005","wem/bandit_single","A2IA303OT5BBX0","pain","1","32","","","","","","","","","","","","","","","","","","","","","","","","","",""
"4660","","text","9","301831","0.0-9.0","79886005","wem/bandit_single","A2IA303OT5BBX0","pain","1","32","","","","","","","","","","","","","","","","","","","","","","","","","",""
"8825","","text","10","310658","0.0-10.0","79886005","wem/bandit_single","A2IA303OT5BBX0","pain","1","32","","","","","","","","","","","","","","","","","","","","","","","","","",""
"8614","","text","11","319273","0.0-11.0","79886005","wem/bandit_single","A2IA303OT5BBX0","pain","1","32","","","","","","","","","","","","","","","","","","","","","","","","","",""
"1660","","bandit","12","322443","0.0-12.0-0.0","79886005","wem/bandit_single","A2IA303OT5BBX0","pain","1","","74","J","0","img/none_selected_demo.jpg","0","0","1","0","0","true","0","0","0","","","","","","","","","","","","",""
"1358","","bandit","13","325562","0.0-13.0-0.0","79886005","wem/bandit_single","A2IA303OT5BBX0","pain","1","","75","K","0","img/none_selected_demo.jpg","0","0","1","0","0","true","0","0","0","","","","","","","","","","","","",""
"4537","","text","14","330357","0.0-14.0","79886005","wem/bandit_single","A2IA303OT5BBX0","pain","1","32","","","","","","","","","","","","","","","","","","","","","","","","","",""
"2340","","text","15","332697","0.0-15.0","79886005","wem/bandit_single","A2IA303OT5BBX0","pain","1","32","","","","","","","","","","","","","","","","","","","","","","","","","",""
"5403","","text","16","338101","0.0-16.0","79886005","wem/bandit_single","A2IA303OT5BBX0","pain","1","32","","","","","","","","","","","","","","","","","","","","","","","","","",""
"7471","","text","17","345574","0.0-17.0","79886005","wem/bandit_single","A2IA303OT5BBX0","pain","1","32","","","","","","","","","","","","","","","","","","","","","","","","","",""
"1555","","bandit","18","348638","0.0-18.0-0.0","79886005","wem/bandit_single","A2IA303OT5BBX0","pain","1","","74","J","0","img/none_selected_demo.jpg","0","1","0","0","0.8","true","0","0","0.8","80_20_practice","0","0.2","","","","","","","","","",""
"1000","","bandit","19","351397","0.0-18.0-1.0","79886005","wem/bandit_single","A2IA303OT5BBX0","pain","1","","74","J","0","img/none_selected_demo.jpg","0","0","1","0","0.8","true","0","0","0.8","80_20_practice","0","0.2","","","","","","","","","",""
"2263","","bandit","20","355419","0.0-18.0-2.0","79886005","wem/bandit_single","A2IA303OT5BBX0","pain","1","","75","K","1","","0","0","1","0","0.2","true","0","0","0.8","80_20_practice","0","0.2","","","","","","","","","",""
"165","","bandit","21","357344","0.0-18.0-3.0","79886005","wem/bandit_single","A2IA303OT5BBX0","pain","1","","75","K","1","","0","0","1","0","0.2","true","0","0","0.8","80_20_practice","0","0.2","","","","","","","","","",""
"199","","bandit","22","359301","0.0-18.0-4.0","79886005","wem/bandit_single","A2IA303OT5BBX0","pain","1","","74","J","0","img/none_selected_demo.jpg","0","1","0","0","0.8","true","0","0","0.8","80_20_practice","0","0.2","","","","","","","","","",""
"739","","bandit","23","361800","0.0-18.0-5.0","79886005","wem/bandit_single","A2IA303OT5BBX0","pain","1","","74","J","0","img/none_selected_demo.jpg","0","0","1","0","0.8","true","0","0","0.8","80_20_practice","0","0.2","","","","","","","","","",""
"128","","bandit","24","363690","0.0-18.0-6.0","79886005","wem/bandit_single","A2IA303OT5BBX0","pain","1","","74","J","0","img/none_selected_demo.jpg","0","0","1","0","0.8","true","0","0","0.8","80_20_practice","0","0.2","","","","","","","","","",""
"146","","bandit","25","365596","0.0-18.0-7.0","79886005","wem/bandit_single","A2IA303OT5BBX0","pain","1","","74","J","0","img/none_selected_demo.jpg","0","1","0","0","0.8","true","0","0","0.8","80_20_practice","0","0.2","","","","","","","","","",""
"132","","bandit","26","367487","0.0-18.0-8.0","79886005","wem/bandit_single","A2IA303OT5BBX0","pain","1","","74","J","0","img/none_selected_demo.jpg","0","1","0","0","0.8","true","0","0","0.8","80_20_practice","0","0.2","","","","","","","","","",""
"38","","bandit","27","369282","0.0-18.0-9.0","79886005","wem/bandit_single","A2IA303OT5BBX0","pain","1","","74","J","0","img/none_selected_demo.jpg","0","1","0","0","0.8","true","0","0","0.8","80_20_practice","0","0.2","","","","","","","","","",""
"67","","bandit","28","371106","0.0-18.0-10.0","79886005","wem/bandit_single","A2IA303OT5BBX0","pain","1","","74","J","0","img/none_selected_demo.jpg","0","0","1","0","0.8","true","0","0","0.8","80_20_practice","0","0.2","","","","","","","","","",""
"178","","bandit","29","373040","0.0-18.0-11.0","79886005","wem/bandit_single","A2IA303OT5BBX0","pain","1","","74","J","0","img/none_selected_demo.jpg","0","0","1","0","0.8","true","0","0","0.8","80_20_practice","0","0.2","","","","","","","","","",""
"3215","","bandit","30","378013","0.0-18.0-12.0","79886005","wem/bandit_single","A2IA303OT5BBX0","pain","1","","74","J","0","img/none_selected_demo.jpg","0","1","0","0","0.8","true","0","0","0.8","80_20_practice","0","0.2","","","","","","","","","",""
"197","","bandit","31","379972","0.0-18.0-13.0","79886005","wem/bandit_single","A2IA303OT5BBX0","pain","1","","74","J","0","img/none_selected_demo.jpg","0","0","1","0","0.8","true","0","0","0.8","80_20_practice","0","0.2","","","","","","","","","",""
"140","","bandit","32","381871","0.0-18.0-14.0","79886005","wem/bandit_single","A2IA303OT5BBX0","pain","1","","74","J","0","img/none_selected_demo.jpg","0","1","0","0","0.8","true","0","0","0.8","80_20_practice","0","0.2","","","","","","","","","",""
"44","","bandit","33","383674","0.0-18.0-15.0","79886005","wem/bandit_single","A2IA303OT5BBX0","pain","1","","74","J","0","img/none_selected_demo.jpg","0","1","0","0","0.8","true","0","0","0.8","80_20_practice","0","0.2","","","","","","","","","",""
"1484","","bandit","34","386913","0.0-18.0-16.0","79886005","wem/bandit_single","A2IA303OT5BBX0","pain","1","","74","J","0","img/none_selected_demo.jpg","0","0","1","0","0.8","true","0","0","0.8","80_20_practice","0","0.2","","","","","","","","","",""
"82","","bandit","35","388759","0.0-18.0-17.0","79886005","wem/bandit_single","A2IA303OT5BBX0","pain","1","","74","J","0","img/none_selected_demo.jpg","0","1","0","0","0.8","true","0","0","0.8","80_20_practice","0","0.2","","","","","","","","","",""
"1243","","bandit","36","391760","0.0-18.0-18.0","79886005","wem/bandit_single","A2IA303OT5BBX0","pain","1","","74","J","0","img/none_selected_demo.jpg","0","0","1","0","0.8","true","0","0","0.8","80_20_practice","0","0.2","","","","","","","","","",""
"2974","","bandit","37","396507","0.0-18.0-19.0","79886005","wem/bandit_single","A2IA303OT5BBX0","pain","1","","74","J","0","img/none_selected_demo.jpg","0","1","0","0","0.8","true","0","0","0.8","80_20_practice","0","0.2","","","","","","","","","",""
"4974","","text","38","401735","0.0-19.0","79886005","wem/bandit_single","A2IA303OT5BBX0","pain","1","32","","","","","","","","","","","","","","","","","","","","","","","","","",""
"3741","","bandit","39","406989","0.0-20.0-0.0","79886005","wem/bandit_single","A2IA303OT5BBX0","pain","1","","74","J","0","img/none_selected_demo.jpg","0","0","1","0","0","true","0","0","0","","0","0","","","","","","","","","",""
"15405","","text","40","422649","0.0-21.0","79886005","wem/bandit_single","A2IA303OT5BBX0","pain","1","32","","","","","","","","","","","","","","","","","","","","","","","","","",""
"7924","","text","41","430575","0.0-22.0","79886005","wem/bandit_single","A2IA303OT5BBX0","pain","1","32","","","","","","","","","","","","","","","","","","","","","","","","","",""
"3862","","text","42","434440","0.0-23.0","79886005","wem/bandit_single","A2IA303OT5BBX0","pain","1","32","","","","","","","","","","","","","","","","","","","","","","","","","",""
"45774","","text","43","480218","0.0-24.0","79886005","wem/bandit_single","A2IA303OT5BBX0","pain","1","32","","","","","","","","","","","","","","","","","","","","","","","","","",""
"12392","","text","44","492612","0.0-25.0","79886005","wem/bandit_single","A2IA303OT5BBX0","pain","1","32","","","","","","","","","","","","","","","","","","","","","","","","","",""
"7344","","text","45","499958","0.0-26.0","79886005","wem/bandit_single","A2IA303OT5BBX0","pain","1","32","","","","","","","","","","","","","","","","","","","","","","","","","",""
"5630","","text","46","505590","0.0-27.0","79886005","wem/bandit_single","A2IA303OT5BBX0","pain","1","32","","","","","","","","","","","","","","","","","","","","","","","","","",""
"5479","","text","47","511073","0.0-28.0","79886005","wem/bandit_single","A2IA303OT5BBX0","pain","1","32","","","","","","","","","","","","","","","","","","","","","","","","","",""
"7072","","text","48","518148","0.0-29.0","79886005","wem/bandit_single","A2IA303OT5BBX0","pain","1","32","","","","","","","","","","","","","","","","","","","","","","","","","",""
"6146","","text","49","524296","0.0-30.0","79886005","wem/bandit_single","A2IA303OT5BBX0","pain","1","32","","","","","","","","","","","","","","","","","","","","","","","","","",""
"11582","","text","50","535880","0.0-31.0","79886005","wem/bandit_single","A2IA303OT5BBX0","pain","1","32","","","","","","","","","","","","","","","","","","","","","","","","","",""
"875","","bandit","51","538260","0.0-32.0-0.0","79886005","wem/bandit_single","A2IA303OT5BBX0","pain","1","","72","H","0","img/none_selected.jpg","0","1","0","0","0.8","true","0","0","0.8","full_practice","0","0.2","0","0.6","0","0.2","","","","","",""
"385","","bandit","52","540401","0.0-32.0-1.0","79886005","wem/bandit_single","A2IA303OT5BBX0","pain","1","","72","H","0","img/none_selected.jpg","0","0","1","0","0.8","true","0","0","0.8","full_practice","0","0.2","0","0.6","0","0.2","","","","","",""
"270","","bandit","53","542441","0.0-32.0-2.0","79886005","wem/bandit_single","A2IA303OT5BBX0","pain","1","","74","J","1","","0","1","0","0","0.2","true","0","0","0.8","full_practice","0","0.2","0","0.6","0","0.2","","","","","",""
"1367","","bandit","54","545572","0.0-32.0-3.0","79886005","wem/bandit_single","A2IA303OT5BBX0","pain","1","","74","J","1","","0","1","0","0","0.2","true","0","0","0.8","full_practice","0","0.2","0","0.6","0","0.2","","","","","",""
"338","","bandit","55","547674","0.0-32.0-4.0","79886005","wem/bandit_single","A2IA303OT5BBX0","pain","1","","74","J","1","","0","0","1","0","0.2","true","0","0","0.8","full_practice","0","0.2","0","0.6","0","0.2","","","","","",""
"1097","","bandit","56","550532","0.0-32.0-5.0","79886005","wem/bandit_single","A2IA303OT5BBX0","pain","1","","74","J","1","","0","1","0","0","0.2","true","0","0","0.8","full_practice","0","0.2","0","0.6","0","0.2","","","","","",""
"345","","bandit","57","552634","0.0-32.0-6.0","79886005","wem/bandit_single","A2IA303OT5BBX0","pain","1","","74","J","1","","0","0","1","0","0.2","true","0","0","0.8","full_practice","0","0.2","0","0.6","0","0.2","","","","","",""
"54","","bandit","58","554445","0.0-32.0-7.0","79886005","wem/bandit_single","A2IA303OT5BBX0","pain","1","","74","J","1","","0","0","1","0","0.2","true","0","0","0.8","full_practice","0","0.2","0","0.6","0","0.2","","","","","",""
"335","","bandit","59","556539","0.0-32.0-8.0","79886005","wem/bandit_single","A2IA303OT5BBX0","pain","1","","75","K","2","","0","1","0","0","0.6","true","0","0","0.8","full_practice","0","0.2","0","0.6","0","0.2","","","","","",""
"130","","bandit","60","558431","0.0-32.0-9.0","79886005","wem/bandit_single","A2IA303OT5BBX0","pain","1","","75","K","2","","0","1","0","0","0.6","true","0","0","0.8","full_practice","0","0.2","0","0.6","0","0.2","","","","","",""
"89","","bandit","61","560283","0.0-32.0-10.0","79886005","wem/bandit_single","A2IA303OT5BBX0","pain","1","","75","K","2","","0","1","0","0","0.6","true","0","0","0.8","full_practice","0","0.2","0","0.6","0","0.2","","","","","",""
"94","","bandit","62","562142","0.0-32.0-11.0","79886005","wem/bandit_single","A2IA303OT5BBX0","pain","1","","75","K","2","","0","0","1","0","0.6","true","0","0","0.8","full_practice","0","0.2","0","0.6","0","0.2","","","","","",""
"28","","bandit","63","563928","0.0-32.0-12.0","79886005","wem/bandit_single","A2IA303OT5BBX0","pain","1","","75","K","2","","0","0","1","0","0.6","true","0","0","0.8","full_practice","0","0.2","0","0.6","0","0.2","","","","","",""
"824","","bandit","64","566531","0.0-32.0-13.0","79886005","wem/bandit_single","A2IA303OT5BBX0","pain","1","","75","K","2","","0","1","0","0","0.6","true","0","0","0.8","full_practice","0","0.2","0","0.6","0","0.2","","","","","",""
"395","","bandit","65","568687","0.0-32.0-14.0","79886005","wem/bandit_single","A2IA303OT5BBX0","pain","1","","75","K","2","","0","1","0","0","0.6","true","0","0","0.8","full_practice","0","0.2","0","0.6","0","0.2","","","","","",""
"561","","bandit","66","571018","0.0-32.0-15.0","79886005","wem/bandit_single","A2IA303OT5BBX0","pain","1","","75","K","2","","0","1","0","0","0.6","true","0","0","0.8","full_practice","0","0.2","0","0.6","0","0.2","","","","","",""
"97","","bandit","67","572879","0.0-32.0-16.0","79886005","wem/bandit_single","A2IA303OT5BBX0","pain","1","","75","K","2","","0","1","0","0","0.6","true","0","0","0.8","full_practice","0","0.2","0","0.6","0","0.2","","","","","",""
"93","","bandit","68","574734","0.0-32.0-17.0","79886005","wem/bandit_single","A2IA303OT5BBX0","pain","1","","75","K","2","","0","1","0","0","0.6","true","0","0","0.8","full_practice","0","0.2","0","0.6","0","0.2","","","","","",""
"135","","bandit","69","576632","0.0-32.0-18.0","79886005","wem/bandit_single","A2IA303OT5BBX0","pain","1","","75","K","2","","0","1","0","0","0.6","true","0","0","0.8","full_practice","0","0.2","0","0.6","0","0.2","","","","","",""
"587","","bandit","70","578980","0.0-32.0-19.0","79886005","wem/bandit_single","A2IA303OT5BBX0","pain","1","","75","K","2","","0","1","0","0","0.6","true","0","0","0.8","full_practice","0","0.2","0","0.6","0","0.2","","","","","",""
"5880","","text","71","585131","0.0-33.0","79886005","wem/bandit_single","A2IA303OT5BBX0","pain","1","32","","","","","","","","","","","","","","","","","","","","","","","","","",""
"17004","","text","72","603139","0.0-34.0","79886005","wem/bandit_single","A2IA303OT5BBX0","pain","1","32","","","","","","","","","","","","","","","","","","","","","","","","","",""
"9036","","text","73","612178","0.0-35.0","79886005","wem/bandit_single","A2IA303OT5BBX0","pain","1","32","","","","","","","","","","","","","","","","","","","","","","","","","",""
"10369","","text","74","622550","0.0-36.0","79886005","wem/bandit_single","A2IA303OT5BBX0","pain","1","32","","","","","","","","","","","","","","","","","","","","","","","","","",""
"8157","","text","75","630709","0.0-37.0","79886005","wem/bandit_single","A2IA303OT5BBX0","pain","1","32","","","","","","","","","","","","","","","","","","","","","","","","","",""
"2451","","bandit","76","634669","0.0-38.0-0.0","79886005","wem/bandit_single","A2IA303OT5BBX0","pain","1","","72","H","0","img/none_selected.jpg","0","0","1","","0.1079408374","false","1","","0.1079408374","main_expt","","0.04371116513","","0.433486002","","0.1765468105","","","","","",""
"677","","bandit","77","637104","0.0-39.0-0.0","79886005","wem/bandit_single","A2IA303OT5BBX0","pain","1","","74","J","1","","0","0","1","","0.0204546363","false","2","","0.1605706499","main_expt","","0.0204546363","","0.4446307222","","0.1569258514","","","","","",""
"169","","bandit","78","639030","0.0-40.0-0.0","79886005","wem/bandit_single","A2IA303OT5BBX0","pain","1","","74","J","1","","0","0","1","","0.02109221713","false","3","","0.1829447669","main_expt","","0.02109221713","","0.4522438858","","0.1639246388","","","","","",""
"1190","","bandit","79","641979","0.0-41.0-0.0","79886005","wem/bandit_single","A2IA303OT5BBX0","pain","1","","72","H","0","img/none_selected.jpg","0","0","1","","0.1756642407","false","4","","0.1756642407","main_expt","","0.04448829896","","0.4330109471","","0.2130332657","","","","","",""
"321","","bandit","80","644058","0.0-42.0-0.0","79886005","wem/bandit_single","A2IA303OT5BBX0","pain","1","","75","K","2","","0","0","1","","0.4678508314","false","5","","0.1349544936","main_expt","","0.03824555068","","0.4678508314","","0.1939577492","","","","","",""
"82","","bandit","81","645899","0.0-43.0-0.0","79886005","wem/bandit_single","A2IA303OT5BBX0","pain","1","","75","K","2","","0","1","0","","0.4644602632","false","6","","0.1356037804","main_expt","","0.03028715703","","0.4644602632","","0.2419857306","","","","","",""
"231","","bandit","82","647888","0.0-44.0-0.0","79886005","wem/bandit_single","A2IA303OT5BBX0","pain","1","","75","K","2","","0","0","1","","0.4575746565","false","7","","0.1731738011","main_expt","","0.0280090558","","0.4575746565","","0.2437977828","","","","","",""
"35","","bandit","83","649682","0.0-45.0-0.0","79886005","wem/bandit_single","A2IA303OT5BBX0","pain","1","","76","L","3","","0","1","0","","0.2910779813","false","8","","0.1697830552","main_expt","","0.01994926529","","0.4508833002","","0.2910779813","","","","","",""
"29","","bandit","84","651470","0.0-46.0-0.0","79886005","wem/bandit_single","A2IA303OT5BBX0","pain","1","","76","L","3","","0","0","1","","0.3043628405","false","9","","0.1792782501","main_expt","","0.02255652904","","0.446295775","","0.3043628405","","","","","",""
"1101","","bandit","85","654332","0.0-47.0-0.0","79886005","wem/bandit_single","A2IA303OT5BBX0","pain","1","","76","L","3","","0","1","0","","0.3568141906","false","10","","0.1705688187","main_expt","","0.02794315976","","0.4564580261","","0.3568141906","","","","","",""
"317","","bandit","86","656415","0.0-48.0-0.0","79886005","wem/bandit_single","A2IA303OT5BBX0","pain","1","","76","L","3","","0","0","1","","0.3439843329","false","11","","0.1974022207","main_expt","","0.02289966844","","0.4233437492","","0.3439843329","","","","","",""
"1688","","bandit","87","659861","0.0-49.0-0.0","79886005","wem/bandit_single","A2IA303OT5BBX0","pain","1","","75","K","2","","0","1","0","","0.4129107721","false","12","","0.1753487428","main_expt","","0.01510656417","","0.4129107721","","0.2959247237","","","","","",""
"255","","bandit","88","661878","0.0-50.0-0.0","79886005","wem/bandit_single","A2IA303OT5BBX0","pain","1","","75","K","2","","0","0","1","","0.4188058581","false","13","","0.1858973774","main_expt","","0.01475809492","","0.4188058581","","0.2711511111","","","","","",""
"118","","bandit","89","663758","0.0-51.0-0.0","79886005","wem/bandit_single","A2IA303OT5BBX0","pain","1","","75","K","2","","0","0","1","","0.4542155744","false","14","","0.1873997244","main_expt","","0.00909265887","","0.4542155744","","0.2351285692","","","","","",""
"1305","","bandit","90","666821","0.0-52.0-0.0","79886005","wem/bandit_single","A2IA303OT5BBX0","pain","1","","76","L","3","","0","0","1","","0.3299180318","false","15","","0.2079034381","main_expt","","0.004683339805","","0.4436127815","","0.3299180318","","","","","",""
"44","","bandit","91","668625","0.0-53.0-0.0","79886005","wem/bandit_single","A2IA303OT5BBX0","pain","1","","76","L","3","","0","0","1","","0.3382291528","false","16","","0.2116662278","main_expt","","0.007493295572","","0.4255220112","","0.3382291528","","","","","",""
"1031","","bandit","92","671414","0.0-54.0-0.0","79886005","wem/bandit_single","A2IA303OT5BBX0","pain","1","","74","J","1","","0","0","1","","0.009835384986","false","17","","0.2460799228","main_expt","","0.009835384986","","0.4221090449","","0.3890963744","","","","","",""
"116","","bandit","93","673301","0.0-55.0-0.0","79886005","wem/bandit_single","A2IA303OT5BBX0","pain","1","","72","H","0","img/none_selected.jpg","0","0","1","","0.2725156425","false","18","","0.2725156425","main_expt","","0.01282838009","","0.4157246332","","0.3102907615","","","","","",""
"129","","bandit","94","675189","0.0-56.0-0.0","79886005","wem/bandit_single","A2IA303OT5BBX0","pain","1","","72","H","0","img/none_selected.jpg","0","1","0","","0.319312936","false","19","","0.319312936","main_expt","","0.03935122736","","0.4000612909","","0.2734902963","","","","","",""
"125","","bandit","95","677083","0.0-57.0-0.0","79886005","wem/bandit_single","A2IA303OT5BBX0","pain","1","","72","H","0","img/none_selected.jpg","0","0","1","","0.3449168397","false","20","","0.3449168397","main_expt","","0.03712672215","","0.4116546581","","0.2157414593","","","","","",""
"138","","bandit","96","678980","0.0-58.0-0.0","79886005","wem/bandit_single","A2IA303OT5BBX0","pain","1","","72","H","0","img/none_selected.jpg","0","1","0","","0.2668327531","false","21","","0.2668327531","main_expt","","0.02631596187","","0.4276829816","","0.2148325275","","","","","",""
"50","","bandit","97","680792","0.0-59.0-0.0","79886005","wem/bandit_single","A2IA303OT5BBX0","pain","1","","72","H","0","img/none_selected.jpg","0","0","1","","0.2786929748","false","22","","0.2786929748","main_expt","","0.0338100911","","0.3861543943","","0.1819582271","","","","","",""
"91","","bandit","98","682644","0.0-60.0-0.0","79886005","wem/bandit_single","A2IA303OT5BBX0","pain","1","","72","H","0","img/none_selected.jpg","0","0","1","","0.2012253143","false","23","","0.2012253143","main_expt","","0.06132921526","","0.3815006395","","0.1776669961","","","","","",""
"885","","bandit","99","685291","0.0-61.0-0.0","79886005","wem/bandit_single","A2IA303OT5BBX0","pain","1","","74","J","1","","0","1","0","","0.06546003458","false","24","","0.1363446769","main_expt","","0.06546003458","","0.4063144844","","0.2595803745","","","","","",""
"233","","bandit","100","687284","0.0-62.0-0.0","79886005","wem/bandit_single","A2IA303OT5BBX0","pain","1","","74","J","1","","0","0","1","","0.08327489459","false","25","","0.1395957504","main_expt","","0.08327489459","","0.3218764758","","0.2184946748","","","","","",""
"370","","bandit","101","689412","0.0-63.0-0.0","79886005","wem/bandit_single","A2IA303OT5BBX0","pain","1","","75","K","2","","0","0","1","","0.3190898414","false","26","","0.1095431569","main_expt","","0.06117167893","","0.3190898414","","0.2382025465","","","","","",""
"895","","bandit","102","692068","0.0-64.0-0.0","79886005","wem/bandit_single","A2IA303OT5BBX0","pain","1","","76","L","3","","0","0","1","","0.2249508913","false","27","","0.1290148999","main_expt","","0.03494965278","","0.361309168","","0.2249508913","","","","","",""
"338","","bandit","103","694171","0.0-65.0-0.0","79886005","wem/bandit_single","A2IA303OT5BBX0","pain","1","","76","L","3","","0","1","0","","0.2388683754","false","28","","0.09304199486","main_expt","","0.02964638986","","0.3247985582","","0.2388683754","","","","","",""
"314","","bandit","104","696248","0.0-66.0-0.0","79886005","wem/bandit_single","A2IA303OT5BBX0","pain","1","","76","L","3","","0","0","1","","0.238121012","false","29","","0.1042487788","main_expt","","0.03498116837","","0.3358989687","","0.238121012","","","","","",""
"238","","bandit","105","698247","0.0-67.0-0.0","79886005","wem/bandit_single","A2IA303OT5BBX0","pain","1","","76","L","3","","0","0","1","","0.2995264376","false","30","","0.1177759499","main_expt","","0.04244048525","","0.3833706669","","0.2995264376","","","","","",""
"68","","bandit","106","700092","0.0-68.0-0.0","79886005","wem/bandit_single","A2IA303OT5BBX0","pain","1","","75","K","2","","0","1","0","","0.365606812","false","31","","0.1177925617","main_expt","","0.06152315655","","0.365606812","","0.2738636663","","","","","",""
"188","","bandit","107","702042","0.0-69.0-0.0","79886005","wem/bandit_single","A2IA303OT5BBX0","pain","1","","75","K","2","","0","0","1","","0.3376656117","false","32","","0.08495919706","main_expt","","0.04890303061","","0.3376656117","","0.3185168498","","","","","",""
"768","","bandit","108","704575","0.0-70.0-0.0","79886005","wem/bandit_single","A2IA303OT5BBX0","pain","1","","75","K","2","","0","0","1","","0.3632929272","false","33","","0.09918690981","main_expt","","0.06913310411","","0.3632929272","","0.3160257618","","","","","",""
"226","","bandit","109","706565","0.0-71.0-0.0","79886005","wem/bandit_single","A2IA303OT5BBX0","pain","1","","74","J","1","","0","0","1","","0.07311713639","false","34","","0.1267106232","main_expt","","0.07311713639","","0.4008603673","","0.3411570355","","","","","",""
"128","","bandit","110","708463","0.0-72.0-0.0","79886005","wem/bandit_single","A2IA303OT5BBX0","pain","1","","74","J","1","","0","1","0","","0.08374615962","false","35","","0.1076928618","main_expt","","0.08374615962","","0.4024879816","","0.3190481916","","","","","",""
"231","","bandit","111","710459","0.0-73.0-0.0","79886005","wem/bandit_single","A2IA303OT5BBX0","pain","1","","74","J","1","","0","0","1","","0.08182693844","false","36","","0.1298816773","main_expt","","0.08182693844","","0.3740303516","","0.3264142162","","","","","",""
"182","","bandit","112","712404","0.0-74.0-0.0","79886005","wem/bandit_single","A2IA303OT5BBX0","pain","1","","74","J","1","","0","1","0","","0.1343371601","false","37","","0.1459487567","main_expt","","0.1343371601","","0.3728306432","","0.3198880486","","","","","",""
"147","","bandit","113","714309","0.0-75.0-0.0","79886005","wem/bandit_single","A2IA303OT5BBX0","pain","1","","74","J","1","","0","1","0","","0.155986589","false","38","","0.1339045699","main_expt","","0.155986589","","0.3805434418","","0.3683112265","","","","","",""
"184","","bandit","114","716250","0.0-76.0-0.0","79886005","wem/bandit_single","A2IA303OT5BBX0","pain","1","","74","J","1","","0","1","0","","0.1477757124","false","39","","0.1345127174","main_expt","","0.1477757124","","0.3969568822","","0.3427238384","","","","","",""
"75","","bandit","115","718086","0.0-77.0-0.0","79886005","wem/bandit_single","A2IA303OT5BBX0","pain","1","","74","J","1","","0","0","1","","0.1673850924","false","40","","0.1283460502","main_expt","","0.1673850924","","0.3988554294","","0.3218453083","","","","","",""
"25","","bandit","116","719880","0.0-78.0-0.0","79886005","wem/bandit_single","A2IA303OT5BBX0","pain","1","","72","H","0","img/none_selected.jpg","0","0","1","","0.120913883","false","41","","0.120913883","main_expt","","0.1798739011","","0.4510691137","","0.3085515908","","","","","",""
"1200","","bandit","117","722840","0.0-79.0-0.0","79886005","wem/bandit_single","A2IA303OT5BBX0","pain","1","","75","K","2","","0","0","1","","0.4575220824","false","42","","0.1045942129","main_expt","","0.1559165864","","0.4575220824","","0.3072415044","","","","","",""
"273","","bandit","118","724874","0.0-80.0-0.0","79886005","wem/bandit_single","A2IA303OT5BBX0","pain","1","","76","L","3","","0","0","1","","0.272500382","false","43","","0.09432917568","main_expt","","0.1058033922","","0.4425049573","","0.272500382","","","","","",""
"750","","bandit","119","727384","0.0-81.0-0.0","79886005","wem/bandit_single","A2IA303OT5BBX0","pain","1","","76","L","3","","0","0","1","","0.2865836788","false","44","","0.07221407183","main_expt","","0.08489334424","","0.4232077065","","0.2865836788","","","","","",""
"85","","bandit","120","729229","0.0-82.0-0.0","79886005","wem/bandit_single","A2IA303OT5BBX0","pain","1","","76","L","3","","0","0","1","","0.2991622886","false","45","","0.05666738762","main_expt","","0.05905190464","","0.4098430077","","0.2991622886","","","","","",""
"141","","bandit","121","731129","0.0-83.0-0.0","79886005","wem/bandit_single","A2IA303OT5BBX0","pain","1","","75","K","2","","0","1","0","","0.4038708701","false","46","","0.03432969329","main_expt","","0.06331323714","","0.4038708701","","0.2531917612","","","","","",""
"274","","bandit","122","733161","0.0-84.0-0.0","79886005","wem/bandit_single","A2IA303OT5BBX0","pain","1","","75","K","2","","0","0","1","","0.4162646915","false","47","","0.03955917442","main_expt","","0.05657329797","","0.4162646915","","0.174020607","","","","","",""
"1523","","bandit","123","736450","0.0-85.0-0.0","79886005","wem/bandit_single","A2IA303OT5BBX0","pain","1","","74","J","1","","0","0","1","","0.04718629669","false","48","","0.02792503423","main_expt","","0.04718629669","","0.4188900116","","0.1890064997","","","","","",""
"13","","bandit","124","738223","0.0-86.0-0.0","79886005","wem/bandit_single","A2IA303OT5BBX0","pain","1","","75","K","2","","0","0","1","","0.4566014176","false","49","","0.03726959289","main_expt","","0.03289244517","","0.4566014176","","0.218442061","","","","","",""
"134","","bandit","125","740120","0.0-87.0-0.0","79886005","wem/bandit_single","A2IA303OT5BBX0","pain","1","","75","K","2","","0","0","1","","0.4447058567","false","50","","0.03358305353","main_expt","","0.03266450512","","0.4447058567","","0.1635183119","","","","","",""
"955","","bandit","126","742840","0.0-88.0-0.0","79886005","wem/bandit_single","A2IA303OT5BBX0","pain","1","","72","H","0","img/none_selected.jpg","0","1","0","","0.03344521258","false","51","","0.03344521258","main_expt","","0.03026904774","","0.4304926469","","0.1366577914","","","","","",""
"150","","bandit","127","744750","0.0-89.0-0.0","79886005","wem/bandit_single","A2IA303OT5BBX0","pain","1","","72","H","0","img/none_selected.jpg","0","0","1","","0.04269272659","false","52","","0.04269272659","main_expt","","0.03251993274","","0.4221781581","","0.1797398031","","","","","",""
"789","","bandit","128","747302","0.0-90.0-0.0","79886005","wem/bandit_single","A2IA303OT5BBX0","pain","1","","76","L","3","","0","0","1","","0.2893410322","false","53","","0.023815337","main_expt","","0.03960602941","","0.3687481665","","0.2893410322","","","","","",""
"124","","bandit","129","749192","0.0-91.0-0.0","79886005","wem/bandit_single","A2IA303OT5BBX0","pain","1","","76","L","3","","0","1","0","","0.2985665456","false","54","","0.02455785224","main_expt","","0.05707063203","","0.3458934235","","0.2985665456","","","","","",""
"71","","bandit","130","751028","0.0-92.0-0.0","79886005","wem/bandit_single","A2IA303OT5BBX0","pain","1","","76","L","3","","0","0","1","","0.3336948264","false","55","","0.03998391886","main_expt","","0.04044117434","","0.4042580408","","0.3336948264","","","","","",""
"81","","bandit","131","752889","0.0-93.0-0.0","79886005","wem/bandit_single","A2IA303OT5BBX0","pain","1","","76","L","3","","0","0","1","","0.282194417","false","56","","0.06538112884","main_expt","","0.05627119328","","0.4471112694","","0.282194417","","","","","",""
"903","","bandit","132","755555","0.0-94.0-0.0","79886005","wem/bandit_single","A2IA303OT5BBX0","pain","1","","75","K","2","","0","0","1","","0.4640351361","false","57","","0.08662171517","main_expt","","0.06172895681","","0.4640351361","","0.3239389597","","","","","",""
"155","","bandit","133","757470","0.0-95.0-0.0","79886005","wem/bandit_single","A2IA303OT5BBX0","pain","1","","74","J","1","","0","0","1","","0.0708730922","false","58","","0.08191290536","main_expt","","0.0708730922","","0.4654795878","","0.3114288274","","","","","",""
"830","","bandit","134","760060","0.0-96.0-0.0","79886005","wem/bandit_single","A2IA303OT5BBX0","pain","1","","74","J","1","","0","0","1","","0.06307994893","false","59","","0.06359390603","main_expt","","0.06307994893","","0.477644797","","0.3090129124","","","","","",""
"344","","bandit","135","762170","0.0-97.0-0.0","79886005","wem/bandit_single","A2IA303OT5BBX0","pain","1","","72","H","0","img/none_selected.jpg","0","0","1","","0.1113565871","false","60","","0.1113565871","main_expt","","0.06865221942","","0.4637057102","","0.3273240357","","","","","",""
"123","","bandit","136","764058","0.0-98.0-0.0","79886005","wem/bandit_single","A2IA303OT5BBX0","pain","1","","72","H","0","img/none_selected.jpg","0","0","1","","0.1224908949","false","61","","0.1224908949","main_expt","","0.04710261487","","0.4575353452","","0.333760802","","","","","",""
"94","","bandit","137","765923","0.0-99.0-0.0","79886005","wem/bandit_single","A2IA303OT5BBX0","pain","1","","72","H","0","img/none_selected.jpg","0","0","1","","0.1011510181","false","62","","0.1011510181","main_expt","","0.04180279512","","0.4511824808","","0.3721083552","","","","","",""
"166","","bandit","138","767852","0.0-100.0-0.0","79886005","wem/bandit_single","A2IA303OT5BBX0","pain","1","","74","J","1","","0","0","1","","0.04669584184","false","63","","0.1241823521","main_expt","","0.04669584184","","0.4522744543","","0.3366911892","","","","","",""
"81","","bandit","139","769700","0.0-101.0-0.0","79886005","wem/bandit_single","A2IA303OT5BBX0","pain","1","","74","J","1","","0","0","1","","0.04699929359","false","64","","0.1277445844","main_expt","","0.04699929359","","0.4534383651","","0.352845708","","","","","",""
"1645","","bandit","140","773108","0.0-102.0-0.0","79886005","wem/bandit_single","A2IA303OT5BBX0","pain","1","","72","H","0","img/none_selected.jpg","0","0","1","","0.1594820305","false","65","","0.1594820305","main_expt","","0.06422912444","","0.4578128414","","0.3797865956","","","","","",""
"179","","bandit","141","775048","0.0-103.0-0.0","79886005","wem/bandit_single","A2IA303OT5BBX0","pain","1","","72","H","0","img/none_selected.jpg","0","0","1","","0.1902728197","false","66","","0.1902728197","main_expt","","0.09107067683","","0.4675149648","","0.3776123686","","","","","",""
"99","","bandit","142","776927","0.0-104.0-0.0","79886005","wem/bandit_single","A2IA303OT5BBX0","pain","1","","76","L","3","","0","0","1","","0.3520302909","false","67","","0.1915604568","main_expt","","0.1295134299","","0.4801185054","","0.3520302909","","","","","",""
"77","","bandit","143","778764","0.0-105.0-0.0","79886005","wem/bandit_single","A2IA303OT5BBX0","pain","1","","76","L","3","","0","0","1","","0.3563070861","false","68","","0.2292904293","main_expt","","0.1501953896","","0.4853911876","","0.3563070861","","","","","",""
"79","","bandit","144","780601","0.0-106.0-0.0","79886005","wem/bandit_single","A2IA303OT5BBX0","pain","1","","76","L","3","","0","0","1","","0.3773129781","false","69","","0.2982444272","main_expt","","0.2120393587","","0.45952887","","0.3773129781","","","","","",""
"293","","bandit","145","782653","0.0-107.0-0.0","79886005","wem/bandit_single","A2IA303OT5BBX0","pain","1","","75","K","2","","0","0","1","","0.4519788387","false","70","","0.2038928517","main_expt","","0.2046372205","","0.4519788387","","0.3620092878","","","","","",""
"220","","bandit","146","784632","0.0-108.0-0.0","79886005","wem/bandit_single","A2IA303OT5BBX0","pain","1","","75","K","2","","0","0","1","","0.4644284496","false","71","","0.2470144531","main_expt","","0.1711657315","","0.4644284496","","0.3689610789","","","","","",""
"220","","bandit","147","786613","0.0-109.0-0.0","79886005","wem/bandit_single","A2IA303OT5BBX0","pain","1","","75","K","2","","0","1","0","","0.4275080271","false","72","","0.2339224101","main_expt","","0.1804367846","","0.4275080271","","0.335535794","","","","","",""
"254","","bandit","148","788628","0.0-110.0-0.0","79886005","wem/bandit_single","A2IA303OT5BBX0","pain","1","","75","K","2","","0","1","0","","0.4333248441","false","73","","0.198403553","main_expt","","0.1582310148","","0.4333248441","","0.3669127126","","","","","",""
"78","","bandit","149","790472","0.0-111.0-0.0","79886005","wem/bandit_single","A2IA303OT5BBX0","pain","1","","75","K","2","","0","0","1","","0.4272577829","false","74","","0.2162510441","main_expt","","0.1300952354","","0.4272577829","","0.3360165716","","","","","",""
"260","","bandit","150","792493","0.0-112.0-0.0","79886005","wem/bandit_single","A2IA303OT5BBX0","pain","1","","76","L","3","","0","0","1","","0.3379177146","false","75","","0.2467290531","main_expt","","0.1414689969","","0.353629049","","0.3379177146","","","","","",""
"1115","","bandit","151","795368","0.0-113.0-0.0","79886005","wem/bandit_single","A2IA303OT5BBX0","pain","1","","75","K","2","","0","1","0","","0.3526453175","false","76","","0.2199510863","main_expt","","0.1315789974","","0.3526453175","","0.3489784935","","","","","",""
"112","","bandit","152","797239","0.0-114.0-0.0","79886005","wem/bandit_single","A2IA303OT5BBX0","pain","1","","75","K","2","","0","0","1","","0.397337216","false","77","","0.1600424727","main_expt","","0.1054244057","","0.397337216","","0.2843927136","","","","","",""
"207","","bandit","153","799209","0.0-115.0-0.0","79886005","wem/bandit_single","A2IA303OT5BBX0","pain","1","","74","J","1","","0","0","1","","0.1028875903","false","78","","0.1366877547","main_expt","","0.1028875903","","0.3747850168","","0.2585585406","","","","","",""
"115","","bandit","154","801088","0.0-116.0-0.0","79886005","wem/bandit_single","A2IA303OT5BBX0","pain","1","","75","K","2","","0","0","1","","0.3500135026","false","79","","0.1608027171","main_expt","","0.1010795136","","0.3500135026","","0.2211992803","","","","","",""
"348","","bandit","155","803202","0.0-117.0-0.0","79886005","wem/bandit_single","A2IA303OT5BBX0","pain","1","","76","L","3","","0","0","1","","0.1670678668","false","80","","0.2004121585","main_expt","","0.09661145037","","0.3362224365","","0.1670678668","","","","","",""
"259","","bandit","156","805233","0.0-118.0-0.0","79886005","wem/bandit_single","A2IA303OT5BBX0","pain","1","","72","H","0","img/none_selected.jpg","0","0","1","","0.2100463009","false","81","","0.2100463009","main_expt","","0.06079528701","","0.3626400229","","0.1536487801","","","","","",""
"1021","","bandit","157","808018","0.0-119.0-0.0","79886005","wem/bandit_single","A2IA303OT5BBX0","pain","1","","75","K","2","","0","1","0","","0.3433004166","false","82","","0.2313995655","main_expt","","0.0561923849","","0.3433004166","","0.164055667","","","","","",""
"113","","bandit","158","809891","0.0-120.0-0.0","79886005","wem/bandit_single","A2IA303OT5BBX0","pain","1","","75","K","2","","0","0","1","","0.3564809269","false","83","","0.1805974068","main_expt","","0.05471979201","","0.3564809269","","0.1795096781","","","","","",""
"130","","bandit","159","811781","0.0-121.0-0.0","79886005","wem/bandit_single","A2IA303OT5BBX0","pain","1","","75","K","2","","0","0","1","","0.3403656385","false","84","","0.1351257884","main_expt","","0.04961315052","","0.3403656385","","0.1568762326","","","","","",""
"135","","bandit","160","813681","0.0-122.0-0.0","79886005","wem/bandit_single","A2IA303OT5BBX0","pain","1","","74","J","1","","0","0","1","","0.05195310968","false","85","","0.1372280885","main_expt","","0.05195310968","","0.3009252634","","0.1857208284","","","","","",""
"140","","bandit","161","815590","0.0-123.0-0.0","79886005","wem/bandit_single","A2IA303OT5BBX0","pain","1","","74","J","1","","0","0","1","","0.05385113756","false","86","","0.1685840628","main_expt","","0.05385113756","","0.3067316121","","0.2180329602","","","","","",""
"92","","bandit","162","817445","0.0-124.0-0.0","79886005","wem/bandit_single","A2IA303OT5BBX0","pain","1","","72","H","0","img/none_selected.jpg","0","0","1","","0.1654340797","false","87","","0.1654340797","main_expt","","0.08202519069","","0.3073916088","","0.1893737279","","","","","",""
"255","","bandit","163","819463","0.0-125.0-0.0","79886005","wem/bandit_single","A2IA303OT5BBX0","pain","1","","75","K","2","","0","0","1","","0.301504441","false","88","","0.1870328522","main_expt","","0.04873944257","","0.301504441","","0.2309201776","","","","","",""
"100","","bandit","164","821327","0.0-126.0-0.0","79886005","wem/bandit_single","A2IA303OT5BBX0","pain","1","","75","K","2","","0","1","0","","0.3324072184","false","89","","0.1786415591","main_expt","","0.05553778571","","0.3324072184","","0.2368651839","","","","","",""
"93","","bandit","165","823194","0.0-127.0-0.0","79886005","wem/bandit_single","A2IA303OT5BBX0","pain","1","","75","K","2","","0","0","1","","0.3245139686","false","90","","0.2293974223","main_expt","","0.04980790846","","0.3245139686","","0.2459093935","","","","","",""
"83","","bandit","166","825038","0.0-128.0-0.0","79886005","wem/bandit_single","A2IA303OT5BBX0","pain","1","","75","K","2","","0","0","1","","0.3310751299","false","91","","0.2407797963","main_expt","","0.05804880768","","0.3310751299","","0.2371609774","","","","","",""
"557","","bandit","167","827356","0.0-129.0-0.0","79886005","wem/bandit_single","A2IA303OT5BBX0","pain","1","","76","L","3","","0","0","1","","0.260478489","false","92","","0.2337544695","main_expt","","0.0614883172","","0.3717444616","","0.260478489","","","","","",""
"114","","bandit","168","829230","0.0-130.0-0.0","79886005","wem/bandit_single","A2IA303OT5BBX0","pain","1","","75","K","2","","0","0","1","","0.3846532122","false","93","","0.2589688886","main_expt","","0.0764333552","","0.3846532122","","0.2595992258","","","","","",""
"87","","bandit","169","831079","0.0-131.0-0.0","79886005","wem/bandit_single","A2IA303OT5BBX0","pain","1","","75","K","2","","0","0","1","","0.4017211595","false","94","","0.2699529923","main_expt","","0.1280824273","","0.4017211595","","0.206568391","","","","","",""
"168","","bandit","170","833006","0.0-132.0-0.0","79886005","wem/bandit_single","A2IA303OT5BBX0","pain","1","","74","J","1","","0","0","1","","0.1191245721","false","95","","0.2626559999","main_expt","","0.1191245721","","0.3736639641","","0.1846794781","","","","","",""
"139","","bandit","171","834913","0.0-133.0-0.0","79886005","wem/bandit_single","A2IA303OT5BBX0","pain","1","","72","H","0","img/none_selected.jpg","0","0","1","","0.2196428224","false","96","","0.2196428224","main_expt","","0.08526153109","","0.3220453652","","0.2484851932","","","","","",""
"129","","bandit","172","836840","0.0-134.0-0.0","79886005","wem/bandit_single","A2IA303OT5BBX0","pain","1","","72","H","0","img/none_selected.jpg","0","0","1","","0.1922289922","false","97","","0.1922289922","main_expt","","0.0775518538","","0.2964534367","","0.198145661","","","","","",""
"92","","bandit","173","838690","0.0-135.0-0.0","79886005","wem/bandit_single","A2IA303OT5BBX0","pain","1","","74","J","1","","0","0","1","","0.08824897118","false","98","","0.2328023708","main_expt","","0.08824897118","","0.3388366936","","0.1738253929","","","","","",""
"106","","bandit","174","840560","0.0-136.0-0.0","79886005","wem/bandit_single","A2IA303OT5BBX0","pain","1","","75","K","2","","0","1","0","","0.4233536788","false","99","","0.2606341713","main_expt","","0.08912321317","","0.4233536788","","0.1261523865","","","","","",""
"76","","bandit","175","842400","0.0-137.0-0.0","79886005","wem/bandit_single","A2IA303OT5BBX0","pain","1","","75","K","2","","0","0","1","","0.3799029244","false","100","","0.310387162","main_expt","","0.1217067293","","0.3799029244","","0.1368684177","","","","","",""
"50","","bandit","176","844209","0.0-138.0-0.0","79886005","wem/bandit_single","A2IA303OT5BBX0","pain","1","","75","K","2","","0","0","1","","0.3644029447","false","101","","0.3802628165","main_expt","","0.08537200695","","0.3644029447","","0.1262970555","","","","","",""
"168","","bandit","177","846141","0.0-139.0-0.0","79886005","wem/bandit_single","A2IA303OT5BBX0","pain","1","","76","L","3","","0","0","1","","0.1022564356","false","102","","0.4133848668","main_expt","","0.09606980913","","0.3414838768","","0.1022564356","","","","","",""
"30","","bandit","178","847944","0.0-140.0-0.0","79886005","wem/bandit_single","A2IA303OT5BBX0","pain","1","","76","L","3","","0","0","1","","0.07046703442","false","103","","0.4352089555","main_expt","","0.09968925047","","0.3691073091","","0.07046703442","","","","","",""
"118","","bandit","179","849823","0.0-141.0-0.0","79886005","wem/bandit_single","A2IA303OT5BBX0","pain","1","","75","K","2","","0","0","1","","0.3386210986","false","104","","0.4248252031","main_expt","","0.1070137741","","0.3386210986","","0.08582175226","","","","","",""
"70","","bandit","180","851658","0.0-142.0-0.0","79886005","wem/bandit_single","A2IA303OT5BBX0","pain","1","","75","K","2","","0","0","1","","0.3517858304","false","105","","0.4382512542","main_expt","","0.1086060941","","0.3517858304","","0.08910626196","","","","","",""
"587","","bandit","181","854009","0.0-143.0-0.0","79886005","wem/bandit_single","A2IA303OT5BBX0","pain","1","","74","J","1","","0","0","1","","0.1006724549","false","106","","0.4551412652","main_expt","","0.1006724549","","0.4016578568","","0.09380004764","","","","","",""
"87","","bandit","182","855873","0.0-144.0-0.0","79886005","wem/bandit_single","A2IA303OT5BBX0","pain","1","","74","J","1","","0","0","1","","0.07769839914","false","107","","0.4481373055","main_expt","","0.07769839914","","0.3951748439","","0.08916311959","","","","","",""
"30","","bandit","183","857682","0.0-145.0-0.0","79886005","wem/bandit_single","A2IA303OT5BBX0","pain","1","","72","H","0","img/none_selected.jpg","0","1","0","","0.4611843773","false","108","","0.4611843773","main_expt","","0.09470950607","","0.3933810371","","0.1635033392","","","","","",""
"57","","bandit","184","859510","0.0-146.0-0.0","79886005","wem/bandit_single","A2IA303OT5BBX0","pain","1","","72","H","0","img/none_selected.jpg","0","0","1","","0.416280782","false","109","","0.416280782","main_expt","","0.1117426234","","0.3961603237","","0.1923408453","","","","","",""
"652","","bandit","185","861925","0.0-147.0-0.0","79886005","wem/bandit_single","A2IA303OT5BBX0","pain","1","","72","H","0","img/none_selected.jpg","0","0","1","","0.3959176693","false","110","","0.3959176693","main_expt","","0.1190643529","","0.3933476799","","0.1668397223","","","","","",""
"72","","bandit","186","863760","0.0-148.0-0.0","79886005","wem/bandit_single","A2IA303OT5BBX0","pain","1","","72","H","0","img/none_selected.jpg","0","1","0","","0.3881072513","false","111","","0.3881072513","main_expt","","0.1605091549","","0.3953313537","","0.1254506171","","","","","",""
"90","","bandit","187","865613","0.0-149.0-0.0","79886005","wem/bandit_single","A2IA303OT5BBX0","pain","1","","72","H","0","img/none_selected.jpg","0","0","1","","0.3430735849","false","112","","0.3430735849","main_expt","","0.1531505469","","0.3398422341","","0.1596839241","","","","","",""
"802","","bandit","188","868180","0.0-150.0-0.0","79886005","wem/bandit_single","A2IA303OT5BBX0","pain","1","","72","H","0","img/none_selected.jpg","0","0","1","","0.3036143476","false","113","","0.3036143476","main_expt","","0.1796188848","","0.375538402","","0.1986187203","","","","","",""
"428","","bandit","189","870372","0.0-151.0-0.0","79886005","wem/bandit_single","A2IA303OT5BBX0","pain","1","","75","K","2","","0","0","1","","0.3629483147","false","114","","0.3581708668","main_expt","","0.1820080726","","0.3629483147","","0.2334514198","","","","","",""
"779","","bandit","190","872915","0.0-152.0-0.0","79886005","wem/bandit_single","A2IA303OT5BBX0","pain","1","","75","K","2","","0","0","1","","0.2969550108","false","115","","0.2948471219","main_expt","","0.2050936175","","0.2969550108","","0.1892672839","","","","","",""
"1026","","bandit","191","875738","0.0-153.0-0.0","79886005","wem/bandit_single","A2IA303OT5BBX0","pain","1","","72","H","0","img/none_selected.jpg","0","1","0","","0.2711132382","false","116","","0.2711132382","main_expt","","0.2071503316","","0.260261953","","0.1507180646","","","","","",""
"312","","bandit","192","877811","0.0-154.0-0.0","79886005","wem/bandit_single","A2IA303OT5BBX0","pain","1","","72","H","0","img/none_selected.jpg","0","0","1","","0.3124997295","false","117","","0.3124997295","main_expt","","0.2359882763","","0.2626326191","","0.1830546279","","","","","",""
"133","","bandit","193","879710","0.0-155.0-0.0","79886005","wem/bandit_single","A2IA303OT5BBX0","pain","1","","74","J","1","","0","0","1","","0.2388261631","false","118","","0.3888019654","main_expt","","0.2388261631","","0.2933310536","","0.1415506149","","","","","",""
"77","","bandit","194","881550","0.0-156.0-0.0","79886005","wem/bandit_single","A2IA303OT5BBX0","pain","1","","72","H","0","img/none_selected.jpg","0","1","0","","0.3695751837","false","119","","0.3695751837","main_expt","","0.2470137322","","0.2469992957","","0.1814909568","","","","","",""
"469","","bandit","195","883781","0.0-157.0-0.0","79886005","wem/bandit_single","A2IA303OT5BBX0","pain","1","","74","J","1","","0","1","0","","0.209676098","false","120","","0.3471196364","main_expt","","0.209676098","","0.2186909282","","0.1900691043","","","","","",""
"281","","bandit","196","885830","0.0-158.0-0.0","79886005","wem/bandit_single","A2IA303OT5BBX0","pain","1","","74","J","1","","0","0","1","","0.2058519679","false","121","","0.3164400491","main_expt","","0.2058519679","","0.1915374776","","0.2002257321","","","","","",""
"29","","bandit","197","887626","0.0-159.0-0.0","79886005","wem/bandit_single","A2IA303OT5BBX0","pain","1","","72","H","0","img/none_selected.jpg","0","1","0","","0.3565888941","false","122","","0.3565888941","main_expt","","0.1409467191","","0.1666700693","","0.2000360786","","","","","",""
"109","","bandit","198","889499","0.0-160.0-0.0","79886005","wem/bandit_single","A2IA303OT5BBX0","pain","1","","72","H","0","img/none_selected.jpg","0","0","1","","0.3293983066","false","123","","0.3293983066","main_expt","","0.08785727187","","0.1779758636","","0.1656706666","","","","","",""
"383","","bandit","199","891645","0.0-161.0-0.0","79886005","wem/bandit_single","A2IA303OT5BBX0","pain","1","","74","J","1","","0","0","1","","0.1153756664","false","124","","0.3202360925","main_expt","","0.1153756664","","0.2483730269","","0.2433115295","","","","","",""
"23","","bandit","200","893436","0.0-162.0-0.0","79886005","wem/bandit_single","A2IA303OT5BBX0","pain","1","","74","J","1","","0","0","1","","0.1211147435","false","125","","0.3478690395","main_expt","","0.1211147435","","0.2274485556","","0.1810024247","","","","","",""
"279","","bandit","201","895479","0.0-163.0-0.0","79886005","wem/bandit_single","A2IA303OT5BBX0","pain","1","","72","H","0","img/none_selected.jpg","0","0","1","","0.3312811416","false","126","","0.3312811416","main_expt","","0.1434737457","","0.2506805994","","0.2138299762","","","","","",""
"557","","bandit","202","897801","0.0-164.0-0.0","79886005","wem/bandit_single","A2IA303OT5BBX0","pain","1","","76","L","3","","0","0","1","","0.1993304114","false","127","","0.2641060438","main_expt","","0.1970801631","","0.2520497492","","0.1993304114","","","","","",""
"647","","bandit","203","900213","0.0-165.0-0.0","79886005","wem/bandit_single","A2IA303OT5BBX0","pain","1","","76","L","3","","0","0","1","","0.2602773644","false","128","","0.2239657692","main_expt","","0.2891253811","","0.1948091286","","0.2602773644","","","","","",""
"95","","bandit","204","902072","0.0-166.0-0.0","79886005","wem/bandit_single","A2IA303OT5BBX0","pain","1","","75","K","2","","0","0","1","","0.1749799719","false","129","","0.2243581634","main_expt","","0.2389970352","","0.1749799719","","0.2960784606","","","","","",""
"878","","bandit","205","904715","0.0-167.0-0.0","79886005","wem/bandit_single","A2IA303OT5BBX0","pain","1","","74","J","1","","0","0","1","","0.2613596901","false","130","","0.2215765871","main_expt","","0.2613596901","","0.1950546205","","0.2720271615","","","","","",""
"143","","bandit","206","906635","0.0-168.0-0.0","79886005","wem/bandit_single","A2IA303OT5BBX0","pain","1","","74","J","1","","0","0","1","","0.2254289723","false","131","","0.1796651873","main_expt","","0.2254289723","","0.2501377387","","0.2403459828","","","","","",""
"198","","bandit","207","908609","0.0-169.0-0.0","79886005","wem/bandit_single","A2IA303OT5BBX0","pain","1","","72","H","0","img/none_selected.jpg","0","0","1","","0.1946412172","false","132","","0.1946412172","main_expt","","0.2759434303","","0.2275015869","","0.2261584059","","","","","",""
"464","","bandit","208","910835","0.0-170.0-0.0","79886005","wem/bandit_single","A2IA303OT5BBX0","pain","1","","72","H","0","img/none_selected.jpg","0","0","1","","0.2390261597","false","133","","0.2390261597","main_expt","","0.3153186182","","0.1961271051","","0.225512635","","","","","",""
"665","","bandit","209","913265","0.0-171.0-0.0","79886005","wem/bandit_single","A2IA303OT5BBX0","pain","1","","72","H","0","img/none_selected.jpg","0","0","1","","0.227958871","false","134","","0.227958871","main_expt","","0.2950667763","","0.2508816485","","0.2119287539","","","","","",""
"54","","bandit","210","915082","0.0-172.0-0.0","79886005","wem/bandit_single","A2IA303OT5BBX0","pain","1","","72","H","0","img/none_selected.jpg","0","1","0","","0.2312014448","false","135","","0.2312014448","main_expt","","0.3307223606","","0.3394706536","","0.1980603764","","","","","",""
"504","","bandit","211","917350","0.0-173.0-0.0","79886005","wem/bandit_single","A2IA303OT5BBX0","pain","1","","72","H","0","img/none_selected.jpg","0","1","0","","0.27599984","false","136","","0.27599984","main_expt","","0.3298223854","","0.2837829406","","0.2325476757","","","","","",""
"83","","bandit","212","919197","0.0-174.0-0.0","79886005","wem/bandit_single","A2IA303OT5BBX0","pain","1","","72","H","0","img/none_selected.jpg","0","1","0","","0.2313694212","false","137","","0.2313694212","main_expt","","0.3330531331","","0.3024244849","","0.2334264213","","","","","",""
"46","","bandit","213","921003","0.0-175.0-0.0","79886005","wem/bandit_single","A2IA303OT5BBX0","pain","1","","72","H","0","img/none_selected.jpg","0","0","1","","0.1816115857","false","138","","0.1816115857","main_expt","","0.292929501","","0.3473265679","","0.3107735177","","","","","",""
"198","","bandit","214","922963","0.0-176.0-0.0","79886005","wem/bandit_single","A2IA303OT5BBX0","pain","1","","74","J","1","","0","1","0","","0.2849421758","false","139","","0.1658496667","main_expt","","0.2849421758","","0.2828336224","","0.3374098654","","","","","",""
"83","","bandit","215","924811","0.0-177.0-0.0","79886005","wem/bandit_single","A2IA303OT5BBX0","pain","1","","74","J","1","","0","0","1","","0.3149573531","false","140","","0.1644365985","main_expt","","0.3149573531","","0.3238397914","","0.3401298673","","","","","",""
"218","","bandit","216","926813","0.0-178.0-0.0","79886005","wem/bandit_single","A2IA303OT5BBX0","pain","1","","74","J","1","","0","0","1","","0.2937847178","false","141","","0.16055167","main_expt","","0.2937847178","","0.3490905252","","0.363539884","","","","","",""
"41","","bandit","217","928621","0.0-179.0-0.0","79886005","wem/bandit_single","A2IA303OT5BBX0","pain","1","","72","H","0","img/none_selected.jpg","0","0","1","","0.1426499966","false","142","","0.1426499966","main_expt","","0.2695919138","","0.337853111","","0.3207651517","","","","","",""
"653","","bandit","218","931037","0.0-180.0-0.0","79886005","wem/bandit_single","A2IA303OT5BBX0","pain","1","","72","H","0","img/none_selected.jpg","0","1","0","","0.1133276474","false","143","","0.1133276474","main_expt","","0.206179854","","0.3475703167","","0.2976941359","","","","","",""
"187","","bandit","219","932985","0.0-181.0-0.0","79886005","wem/bandit_single","A2IA303OT5BBX0","pain","1","","72","H","0","img/none_selected.jpg","0","0","1","","0.1351054788","false","144","","0.1351054788","main_expt","","0.2123329462","","0.3809945211","","0.2405576463","","","","","",""
"204","","bandit","220","934953","0.0-182.0-0.0","79886005","wem/bandit_single","A2IA303OT5BBX0","pain","1","","75","K","2","","0","1","0","","0.3842622547","false","145","","0.1703546958","main_expt","","0.2144195617","","0.3842622547","","0.2513929943","","","","","",""
"72","","bandit","221","936788","0.0-183.0-0.0","79886005","wem/bandit_single","A2IA303OT5BBX0","pain","1","","75","K","2","","0","0","1","","0.4068715463","false","146","","0.1382352341","main_expt","","0.2264269311","","0.4068715463","","0.2665850657","","","","","",""
"102","","bandit","222","938651","0.0-184.0-0.0","79886005","wem/bandit_single","A2IA303OT5BBX0","pain","1","","75","K","2","","0","1","0","","0.3690267696","false","147","","0.1111211324","main_expt","","0.2458089499","","0.3690267696","","0.2742171136","","","","","",""
"137","","bandit","223","940552","0.0-185.0-0.0","79886005","wem/bandit_single","A2IA303OT5BBX0","pain","1","","75","K","2","","0","0","1","","0.3999465919","false","148","","0.1046256567","main_expt","","0.2581131455","","0.3999465919","","0.2504516377","","","","","",""
"98","","bandit","224","942418","0.0-186.0-0.0","79886005","wem/bandit_single","A2IA303OT5BBX0","pain","1","","75","K","2","","0","1","0","","0.3823047489","false","149","","0.09450025474","main_expt","","0.2055420423","","0.3823047489","","0.2749888299","","","","","",""
"401","","bandit","225","944590","0.0-187.0-0.0","79886005","wem/bandit_single","A2IA303OT5BBX0","pain","1","","76","L","3","","0","1","0","","0.2199302859","false","150","","0.08682851814","main_expt","","0.2196547661","","0.3970301866","","0.2199302859","","","","","",""
"109","","bandit","226","946483","0.0-188.0-0.0","79886005","wem/bandit_single","A2IA303OT5BBX0","pain","1","","75","K","2","","0","1","0","","0.4141828336","false","151","","0.0775356828","main_expt","","0.2311854424","","0.4141828336","","0.228921305","","","","","",""
"78","","bandit","227","948334","0.0-189.0-0.0","79886005","wem/bandit_single","A2IA303OT5BBX0","pain","1","","76","L","3","","0","0","1","","0.1858313389","false","152","","0.08719832593","main_expt","","0.2692750042","","0.4233092002","","0.1858313389","","","","","",""
"719","","bandit","228","950824","0.0-190.0-0.0","79886005","wem/bandit_single","A2IA303OT5BBX0","pain","1","","75","K","2","","0","0","1","","0.3961827626","false","153","","0.06950392785","main_expt","","0.3209664266","","0.3961827626","","0.2253380596","","","","","",""
"428","","bandit","229","953022","0.0-191.0-0.0","79886005","wem/bandit_single","A2IA303OT5BBX0","pain","1","","75","K","2","","0","0","1","","0.4023640633","false","154","","0.09734883616","main_expt","","0.2633096479","","0.4023640633","","0.1787374968","","","","","",""
"588","","bandit","230","955374","0.0-192.0-0.0","79886005","wem/bandit_single","A2IA303OT5BBX0","pain","1","","76","L","3","","0","0","1","","0.1026625787","false","155","","0.1078867986","main_expt","","0.2611493198","","0.3927422998","","0.1026625787","","","","","",""
"252","","bandit","231","957386","0.0-193.0-0.0","79886005","wem/bandit_single","A2IA303OT5BBX0","pain","1","","74","J","1","","0","0","1","","0.2556392324","false","156","","0.09294383108","main_expt","","0.2556392324","","0.3696188161","","0.1201393653","","","","","",""
"145","","bandit","232","959296","0.0-194.0-0.0","79886005","wem/bandit_single","A2IA303OT5BBX0","pain","1","","72","H","0","img/none_selected.jpg","0","0","1","","0.1344904143","false","157","","0.1344904143","main_expt","","0.2237912435","","0.3562863837","","0.1601810659","","","","","",""
"643","","bandit","233","961708","0.0-195.0-0.0","79886005","wem/bandit_single","A2IA303OT5BBX0","pain","1","","75","K","2","","0","0","1","","0.3891013447","false","158","","0.1682501471","main_expt","","0.2269937079","","0.3891013447","","0.2178666355","","","","","",""
"88","","bandit","234","963561","0.0-196.0-0.0","79886005","wem/bandit_single","A2IA303OT5BBX0","pain","1","","76","L","3","","0","0","1","","0.2088119712","false","159","","0.1859978291","main_expt","","0.2244600926","","0.3771509201","","0.2088119712","","","","","",""
"83","","bandit","235","965419","0.0-197.0-0.0","79886005","wem/bandit_single","A2IA303OT5BBX0","pain","1","","76","L","3","","0","0","1","","0.2853399033","false","160","","0.1169857497","main_expt","","0.231654425","","0.3677966378","","0.2853399033","","","","","",""
"183","","bandit","236","967378","0.0-198.0-0.0","79886005","wem/bandit_single","A2IA303OT5BBX0","pain","1","","76","L","3","","0","1","0","","0.2755093387","false","161","","0.1131976547","main_expt","","0.2415747561","","0.3691576932","","0.2755093387","","","","","",""
"127","","bandit","237","969270","0.0-199.0-0.0","79886005","wem/bandit_single","A2IA303OT5BBX0","pain","1","","76","L","3","","0","0","1","","0.2706635439","false","162","","0.1560378341","main_expt","","0.1807921844","","0.3102253273","","0.2706635439","","","","","",""
"170","","bandit","238","971201","0.0-200.0-0.0","79886005","wem/bandit_single","A2IA303OT5BBX0","pain","1","","75","K","2","","0","1","0","","0.3361037566","false","163","","0.1200759877","main_expt","","0.1986212186","","0.3361037566","","0.2856851073","","","","","",""
"103","","bandit","239","973067","0.0-201.0-0.0","79886005","wem/bandit_single","A2IA303OT5BBX0","pain","1","","76","L","3","","0","1","0","","0.3188827228","false","164","","0.1198838954","main_expt","","0.1799022971","","0.3097300036","","0.3188827228","","","","","",""
"123","","bandit","240","974959","0.0-202.0-0.0","79886005","wem/bandit_single","A2IA303OT5BBX0","pain","1","","75","K","2","","0","1","0","","0.3234169084","false","165","","0.1397308529","main_expt","","0.2610149466","","0.3234169084","","0.3258940933","","","","","",""
"205","","bandit","241","976959","0.0-203.0-0.0","79886005","wem/bandit_single","A2IA303OT5BBX0","pain","1","","76","L","3","","0","0","1","","0.3525092479","false","166","","0.1506282743","main_expt","","0.2673729835","","0.3201458278","","0.3525092479","","","","","",""
"41","","bandit","242","978791","0.0-204.0-0.0","79886005","wem/bandit_single","A2IA303OT5BBX0","pain","1","","76","L","3","","0","0","1","","0.3919017073","false","167","","0.1407574557","main_expt","","0.169486101","","0.366643239","","0.3919017073","","","","","",""
"713","","bandit","243","981265","0.0-205.0-0.0","79886005","wem/bandit_single","A2IA303OT5BBX0","pain","1","","75","K","2","","0","0","1","","0.3877512758","false","168","","0.1217255528","main_expt","","0.1997030364","","0.3877512758","","0.3855955566","","","","","",""
"817","","bandit","244","983843","0.0-206.0-0.0","79886005","wem/bandit_single","A2IA303OT5BBX0","pain","1","","75","K","2","","0","0","1","","0.3733196812","false","169","","0.118108524","main_expt","","0.2391799942","","0.3733196812","","0.3882436634","","","","","",""
"473","","bandit","245","986092","0.0-207.0-0.0","79886005","wem/bandit_single","A2IA303OT5BBX0","pain","1","","74","J","1","","0","0","1","","0.2239577552","false","170","","0.0750780909","main_expt","","0.2239577552","","0.3616719183","","0.4096789578","","","","","",""
"240","","bandit","246","988097","0.0-208.0-0.0","79886005","wem/bandit_single","A2IA303OT5BBX0","pain","1","","72","H","0","img/none_selected.jpg","0","0","1","","0.07048665386","false","171","","0.07048665386","main_expt","","0.2175962327","","0.3222484871","","0.4326257363","","","","","",""
"521","","bandit","247","990377","0.0-209.0-0.0","79886005","wem/bandit_single","A2IA303OT5BBX0","pain","1","","72","H","0","img/none_selected.jpg","0","1","0","","0.09439478605","false","172","","0.09439478605","main_expt","","0.2061205584","","0.2849842628","","0.4381189537","","","","","",""
"159","","bandit","248","992297","0.0-210.0-0.0","79886005","wem/bandit_single","A2IA303OT5BBX0","pain","1","","72","H","0","img/none_selected.jpg","0","0","1","","0.05932603211","false","173","","0.05932603211","main_expt","","0.1787022686","","0.2896949147","","0.3823577146","","","","","",""
"909","","bandit","249","994972","0.0-211.0-0.0","79886005","wem/bandit_single","A2IA303OT5BBX0","pain","1","","75","K","2","","0","1","0","","0.260829927","false","174","","0.1019229976","main_expt","","0.1782801474","","0.260829927","","0.4155511425","","","","","",""
"179","","bandit","250","996912","0.0-212.0-0.0","79886005","wem/bandit_single","A2IA303OT5BBX0","pain","1","","76","L","3","","0","1","0","","0.4391025654","false","175","","0.1270031357","main_expt","","0.1723114597","","0.1608433896","","0.4391025654","","","","","",""
"279","","bandit","251","998952","0.0-213.0-0.0","79886005","wem/bandit_single","A2IA303OT5BBX0","pain","1","","75","K","2","","0","0","1","","0.1924323662","false","176","","0.1519507126","main_expt","","0.1714247165","","0.1924323662","","0.4654332747","","","","","",""
"146","","bandit","252","1000858","0.0-214.0-0.0","79886005","wem/bandit_single","A2IA303OT5BBX0","pain","1","","72","H","0","img/none_selected.jpg","0","0","1","","0.2645819263","false","177","","0.2645819263","main_expt","","0.2003569552","","0.1942299772","","0.4862166952","","","","","",""
"594","","bandit","253","1003212","0.0-215.0-0.0","79886005","wem/bandit_single","A2IA303OT5BBX0","pain","1","","75","K","2","","0","1","0","","0.2266891382","false","178","","0.2497033982","main_expt","","0.1848954505","","0.2266891382","","0.4878504479","","","","","",""
"190","","bandit","254","1005161","0.0-216.0-0.0","79886005","wem/bandit_single","A2IA303OT5BBX0","pain","1","","75","K","2","","0","0","1","","0.193755509","false","179","","0.2464833147","main_expt","","0.120488448","","0.193755509","","0.4925433574","","","","","",""
"115","","bandit","255","1007038","0.0-217.0-0.0","79886005","wem/bandit_single","A2IA303OT5BBX0","pain","1","","76","L","3","","0","0","1","","0.4863546804","false","180","","0.191435525","main_expt","","0.09518531587","","0.2143300014","","0.4863546804","","","","","",""
"767","","bandit","256","1009569","0.0-218.0-0.0","79886005","wem/bandit_single","A2IA303OT5BBX0","pain","1","","76","L","3","","0","0","1","","0.4898831258","false","181","","0.2095150634","main_expt","","0.1110105533","","0.1996101457","","0.4898831258","","","","","",""
"366","","bandit","257","1011700","0.0-219.0-0.0","79886005","wem/bandit_single","A2IA303OT5BBX0","pain","1","","74","J","1","","0","1","0","","0.1321710188","false","182","","0.2238619417","main_expt","","0.1321710188","","0.220362663","","0.4702328405","","","","","",""
"116","","bandit","258","1013581","0.0-220.0-0.0","79886005","wem/bandit_single","A2IA303OT5BBX0","pain","1","","74","J","1","","0","0","1","","0.07205074818","false","183","","0.172430875","main_expt","","0.07205074818","","0.2087999581","","0.4443650637","","","","","",""
"399","","bandit","259","1015793","0.0-221.0-0.0","79886005","wem/bandit_single","A2IA303OT5BBX0","pain","1","","75","K","2","","0","0","1","","0.2693368533","false","184","","0.1537152065","main_expt","","0.08140980564","","0.2693368533","","0.4395551327","","","","","",""
"124","","bandit","260","1017688","0.0-222.0-0.0","79886005","wem/bandit_single","A2IA303OT5BBX0","pain","1","","72","H","0","img/none_selected.jpg","0","0","1","","0.1089078126","false","185","","0.1089078126","main_expt","","0.07005875891","","0.3177788722","","0.427498872","","","","","",""
"138","","bandit","261","1019599","0.0-223.0-0.0","79886005","wem/bandit_single","A2IA303OT5BBX0","pain","1","","76","L","3","","0","1","0","","0.4126395781","false","186","","0.1150542287","main_expt","","0.04712836877","","0.3093747324","","0.4126395781","","","","","",""
"78","","bandit","262","1021441","0.0-224.0-0.0","79886005","wem/bandit_single","A2IA303OT5BBX0","pain","1","","76","L","3","","0","0","1","","0.4059631444","false","187","","0.07877539194","main_expt","","0.07097221374","","0.3361469263","","0.4059631444","","","","","",""
"91","","bandit","263","1023302","0.0-225.0-0.0","79886005","wem/bandit_single","A2IA303OT5BBX0","pain","1","","76","L","3","","0","0","1","","0.4007853126","false","188","","0.06234325246","main_expt","","0.04255461481","","0.3096611705","","0.4007853126","","","","","",""
"117","","bandit","264","1025189","0.0-226.0-0.0","79886005","wem/bandit_single","A2IA303OT5BBX0","pain","1","","75","K","2","","0","0","1","","0.298651231","false","189","","0.07748383332","main_expt","","0.03834091028","","0.298651231","","0.4208201059","","","","","",""
"170","","bandit","265","1027131","0.0-227.0-0.0","79886005","wem/bandit_single","A2IA303OT5BBX0","pain","1","","75","K","2","","0","0","1","","0.3361123746","false","190","","0.08864116925","main_expt","","0.03101500858","","0.3361123746","","0.4249824956","","","","","",""
"454","","bandit","266","1029358","0.0-228.0-0.0","79886005","wem/bandit_single","A2IA303OT5BBX0","pain","1","","74","J","1","","0","0","1","","0.05137759752","false","191","","0.1114019665","main_expt","","0.05137759752","","0.3529126189","","0.4519194686","","","","","",""
"142","","bandit","267","1031265","0.0-229.0-0.0","79886005","wem/bandit_single","A2IA303OT5BBX0","pain","1","","74","J","1","","0","0","1","","0.05101019331","false","192","","0.0944181321","main_expt","","0.05101019331","","0.3806900048","","0.449072141","","","","","",""
"68","","bandit","268","1033103","0.0-230.0-0.0","79886005","wem/bandit_single","A2IA303OT5BBX0","pain","1","","75","K","2","","0","0","1","","0.3191299148","false","193","","0.09015445577","main_expt","","0.0408087357","","0.3191299148","","0.4069092802","","","","","",""
"541","","bandit","269","1035413","0.0-231.0-0.0","79886005","wem/bandit_single","A2IA303OT5BBX0","pain","1","","72","H","0","img/none_selected.jpg","0","0","1","","0.09569888082","false","194","","0.09569888082","main_expt","","0.04787233925","","0.3350705725","","0.399300076","","","","","",""
"320","","bandit","270","1037500","0.0-232.0-0.0","79886005","wem/bandit_single","A2IA303OT5BBX0","pain","1","","76","L","3","","0","1","0","","0.4028519225","false","195","","0.1521563302","main_expt","","0.07297342555","","0.3579412151","","0.4028519225","","","","","",""
"168","","bandit","271","1039434","0.0-233.0-0.0","79886005","wem/bandit_single","A2IA303OT5BBX0","pain","1","","76","L","3","","0","0","1","","0.3708283831","false","196","","0.1612876033","main_expt","","0.1090796252","","0.4135102269","","0.3708283831","","","","","",""
"124","","bandit","272","1041325","0.0-234.0-0.0","79886005","wem/bandit_single","A2IA303OT5BBX0","pain","1","","75","K","2","","0","1","0","","0.4368922102","false","197","","0.1818980103","main_expt","","0.1141593934","","0.4368922102","","0.3992028251","","","","","",""
"135","","bandit","273","1043223","0.0-235.0-0.0","79886005","wem/bandit_single","A2IA303OT5BBX0","pain","1","","76","L","3","","0","1","0","","0.3662313723","false","198","","0.1426991491","main_expt","","0.1247063377","","0.4329908538","","0.3662313723","","","","","",""
"82","","bandit","274","1045065","0.0-236.0-0.0","79886005","wem/bandit_single","A2IA303OT5BBX0","pain","1","","75","K","2","","0","0","1","","0.4458308372","false","199","","0.1339470975","main_expt","","0.1324590526","","0.4458308372","","0.3667285709","","","","","",""
"54","","bandit","275","1046887","0.0-237.0-0.0","79886005","wem/bandit_single","A2IA303OT5BBX0","pain","1","","76","L","3","","0","0","1","","0.365396467","false","200","","0.1615481579","main_expt","","0.1062358191","","0.4535445428","","0.365396467","","","","","",""
"13","","bandit","276","1048670","0.0-238.0-0.0","79886005","wem/bandit_single","A2IA303OT5BBX0","pain","1","","74","J","1","","0","0","1","","0.1027729413","false","201","","0.1889616495","main_expt","","0.1027729413","","0.4258040833","","0.3413602931","","","","","",""
"472","","bandit","277","1050906","0.0-239.0-0.0","79886005","wem/bandit_single","A2IA303OT5BBX0","pain","1","","72","H","0","img/none_selected.jpg","0","0","1","","0.2043886565","false","202","","0.2043886565","main_expt","","0.09207086273","","0.413157784","","0.3655369163","","","","","",""
"553","","bandit","278","1053229","0.0-240.0-0.0","79886005","wem/bandit_single","A2IA303OT5BBX0","pain","1","","75","K","2","","0","0","1","","0.358983575","false","203","","0.2274570119","main_expt","","0.1409949376","","0.358983575","","0.3301706169","","","","","",""
"258","","bandit","279","1055254","0.0-241.0-0.0","79886005","wem/bandit_single","A2IA303OT5BBX0","pain","1","","76","L","3","","0","1","0","","0.3305557625","false","204","","0.1795680912","main_expt","","0.2067441942","","0.3354839288","","0.3305557625","","","","","",""
"120","","bandit","280","1057141","0.0-242.0-0.0","79886005","wem/bandit_single","A2IA303OT5BBX0","pain","1","","75","K","2","","0","0","1","","0.3814446138","false","205","","0.1823506393","main_expt","","0.2171549514","","0.3814446138","","0.3332543728","","","","","",""
"80","","bandit","281","1058989","0.0-243.0-0.0","79886005","wem/bandit_single","A2IA303OT5BBX0","pain","1","","76","L","3","","0","1","0","","0.270761893","false","206","","0.1401809595","main_expt","","0.1399251859","","0.4069937863","","0.270761893","","","","","",""
"159","","bandit","282","1060916","0.0-244.0-0.0","79886005","wem/bandit_single","A2IA303OT5BBX0","pain","1","","76","L","3","","0","0","1","","0.2595670132","false","207","","0.1651993972","main_expt","","0.1700254018","","0.4261201247","","0.2595670132","","","","","",""
"98","","bandit","283","1062782","0.0-245.0-0.0","79886005","wem/bandit_single","A2IA303OT5BBX0","pain","1","","76","L","3","","0","0","1","","0.2772442529","false","208","","0.1803987852","main_expt","","0.1831619311","","0.4105702951","","0.2772442529","","","","","",""
"101","","bandit","284","1064651","0.0-246.0-0.0","79886005","wem/bandit_single","A2IA303OT5BBX0","pain","1","","74","J","1","","0","1","0","","0.151215806","false","209","","0.1470434113","main_expt","","0.151215806","","0.402481318","","0.2654441326","","","","","",""
"123","","bandit","285","1066568","0.0-247.0-0.0","79886005","wem/bandit_single","A2IA303OT5BBX0","pain","1","","76","L","3","","0","0","1","","0.2475709295","false","210","","0.1375860563","main_expt","","0.1841878728","","0.4378094136","","0.2475709295","","","","","",""
"131","","bandit","286","1068471","0.0-248.0-0.0","79886005","wem/bandit_single","A2IA303OT5BBX0","pain","1","","74","J","1","","0","0","1","","0.190591144","false","211","","0.1181257803","main_expt","","0.190591144","","0.4174257438","","0.1836637302","","","","","",""
"374","","bandit","287","1070619","0.0-249.0-0.0","79886005","wem/bandit_single","A2IA303OT5BBX0","pain","1","","75","K","2","","0","0","1","","0.4235695044","false","212","","0.1284194295","main_expt","","0.2024219406","","0.4235695044","","0.2018671691","","","","","",""
"359","","bandit","288","1072746","0.0-250.0-0.0","79886005","wem/bandit_single","A2IA303OT5BBX0","pain","1","","76","L","3","","0","0","1","","0.1807811906","false","213","","0.1088774305","main_expt","","0.1985525674","","0.4112054282","","0.1807811906","","","","","",""
"713","","bandit","289","1075225","0.0-251.0-0.0","79886005","wem/bandit_single","A2IA303OT5BBX0","pain","1","","72","H","0","img/none_selected.jpg","0","0","1","","0.07230623063","false","214","","0.07230623063","main_expt","","0.1940352924","","0.3986702209","","0.2432807767","","","","","",""
"114","","bandit","290","1077111","0.0-252.0-0.0","79886005","wem/bandit_single","A2IA303OT5BBX0","pain","1","","74","J","1","","0","0","1","","0.1155678072","false","215","","0.07963887701","main_expt","","0.1155678072","","0.4379561577","","0.2167976264","","","","","",""
"153","","bandit","291","1079031","0.0-253.0-0.0","79886005","wem/bandit_single","A2IA303OT5BBX0","pain","1","","74","J","1","","0","0","1","","0.08288275022","false","216","","0.0792987172","main_expt","","0.08288275022","","0.425003275","","0.2963745884","","","","","",""
"172","","bandit","292","1080970","0.0-254.0-0.0","79886005","wem/bandit_single","A2IA303OT5BBX0","pain","1","","75","K","2","","0","0","1","","0.4398514333","false","217","","0.07576557353","main_expt","","0.1108164962","","0.4398514333","","0.2704200786","","","","","",""
"81","","bandit","293","1082818","0.0-255.0-0.0","79886005","wem/bandit_single","A2IA303OT5BBX0","pain","1","","74","J","1","","0","0","1","","0.1166222362","false","218","","0.05946619603","main_expt","","0.1166222362","","0.4307107256","","0.2057322541","","","","","",""
"102","","bandit","294","1084691","0.0-256.0-0.0","79886005","wem/bandit_single","A2IA303OT5BBX0","pain","1","","72","H","0","img/none_selected.jpg","0","0","1","","0.07419684477","false","219","","0.07419684477","main_expt","","0.1441412427","","0.4236121262","","0.2143414454","","","","","",""
"72","","bandit","295","1086539","0.0-257.0-0.0","79886005","wem/bandit_single","A2IA303OT5BBX0","pain","1","","72","H","0","img/none_selected.jpg","0","0","1","","0.09297922461","false","220","","0.09297922461","main_expt","","0.1460318591","","0.4020148519","","0.1630835619","","","","","",""
"743","","bandit","296","1089052","0.0-258.0-0.0","79886005","wem/bandit_single","A2IA303OT5BBX0","pain","1","","76","L","3","","0","0","1","","0.1536312793","false","221","","0.1429286242","main_expt","","0.1068666799","","0.4073181559","","0.1536312793","","","","","",""
"79","","bandit","297","1090897","0.0-259.0-0.0","79886005","wem/bandit_single","A2IA303OT5BBX0","pain","1","","75","K","2","","0","0","1","","0.3651123295","false","222","","0.1708286753","main_expt","","0.1101844092","","0.3651123295","","0.2214617817","","","","","",""
"127","","bandit","298","1092792","0.0-260.0-0.0","79886005","wem/bandit_single","A2IA303OT5BBX0","pain","1","","74","J","1","","0","0","1","","0.0707480467","false","223","","0.1461267001","main_expt","","0.0707480467","","0.3836441325","","0.2273662723","","","","","",""
"109","","bandit","299","1094663","0.0-261.0-0.0","79886005","wem/bandit_single","A2IA303OT5BBX0","pain","1","","72","H","0","img/none_selected.jpg","0","0","1","","0.144808321","false","224","","0.144808321","main_expt","","0.06117493494","","0.3982756155","","0.1894352557","","","","","",""
"82","","bandit","300","1096511","0.0-262.0-0.0","79886005","wem/bandit_single","A2IA303OT5BBX0","pain","1","","72","H","0","img/none_selected.jpg","0","0","1","","0.1890777341","false","225","","0.1890777341","main_expt","","0.0615688762","","0.3942448394","","0.1292085382","","","","","",""
"72","","bandit","301","1098344","0.0-263.0-0.0","79886005","wem/bandit_single","A2IA303OT5BBX0","pain","1","","72","H","0","img/none_selected.jpg","0","0","1","","0.1442837472","false","226","","0.1442837472","main_expt","","0.05052633559","","0.4169515918","","0.1530858041","","","","","",""
"91","","bandit","302","1100198","0.0-264.0-0.0","79886005","wem/bandit_single","A2IA303OT5BBX0","pain","1","","74","J","1","","0","0","1","","0.05726050712","false","227","","0.1425852804","main_expt","","0.05726050712","","0.4204191544","","0.1593334253","","","","","",""
"57","","bandit","303","1102018","0.0-265.0-0.0","79886005","wem/bandit_single","A2IA303OT5BBX0","pain","1","","74","J","1","","0","0","1","","0.0758768547","false","228","","0.1116716659","main_expt","","0.0758768547","","0.4091886","","0.1247523642","","","","","",""
"54","","bandit","304","1103853","0.0-266.0-0.0","79886005","wem/bandit_single","A2IA303OT5BBX0","pain","1","","75","K","2","","0","0","1","","0.407276644","false","229","","0.1206121499","main_expt","","0.07022353505","","0.407276644","","0.1463700977","","","","","",""
"718","","bandit","305","1106337","0.0-267.0-0.0","79886005","wem/bandit_single","A2IA303OT5BBX0","pain","1","","75","K","2","","0","0","1","","0.4254558538","false","230","","0.1168532629","main_expt","","0.06577032649","","0.4254558538","","0.1402324221","","","","","",""
"129","","bandit","306","1108232","0.0-268.0-0.0","79886005","wem/bandit_single","A2IA303OT5BBX0","pain","1","","75","K","2","","0","0","1","","0.4259586803","false","231","","0.0916199044","main_expt","","0.06313303242","","0.4259586803","","0.1914784592","","","","","",""
"202","","bandit","307","1110200","0.0-269.0-0.0","79886005","wem/bandit_single","A2IA303OT5BBX0","pain","1","","76","L","3","","0","0","1","","0.1507361932","false","232","","0.09573807812","main_expt","","0.05490827263","","0.4429649496","","0.1507361932","","","","","",""
"148","","bandit","308","1112114","0.0-270.0-0.0","79886005","wem/bandit_single","A2IA303OT5BBX0","pain","1","","76","L","3","","0","0","1","","0.1902650793","false","233","","0.1246926578","main_expt","","0.04200611561","","0.4456598826","","0.1902650793","","","","","",""
"317","","bandit","309","1114220","0.0-271.0-0.0","79886005","wem/bandit_single","A2IA303OT5BBX0","pain","1","","74","J","1","","0","0","1","","0.0550058871","false","234","","0.122457211","main_expt","","0.0550058871","","0.4504169918","","0.2663902881","","","","","",""
"188","","bandit","310","1116176","0.0-272.0-0.0","79886005","wem/bandit_single","A2IA303OT5BBX0","pain","1","","76","L","3","","0","0","1","","0.257874652","false","235","","0.1561374187","main_expt","","0.06273227262","","0.4255816076","","0.257874652","","","","","",""
"135","","bandit","311","1118078","0.0-273.0-0.0","79886005","wem/bandit_single","A2IA303OT5BBX0","pain","1","","75","K","2","","0","1","0","","0.4262424011","false","236","","0.1726763947","main_expt","","0.09869136657","","0.4262424011","","0.2134416149","","","","","",""
"204","","bandit","312","1120047","0.0-274.0-0.0","79886005","wem/bandit_single","A2IA303OT5BBX0","pain","1","","75","K","2","","0","1","0","","0.4314914545","false","237","","0.163453789","main_expt","","0.06464195797","","0.4314914545","","0.1655180868","","","","","",""
"413","","bandit","313","1122223","0.0-275.0-0.0","79886005","wem/bandit_single","A2IA303OT5BBX0","pain","1","","75","K","2","","0","0","1","","0.4580147213","false","238","","0.1511244057","main_expt","","0.1092425733","","0.4580147213","","0.1528926348","","","","","",""
"261","","bandit","314","1124246","0.0-276.0-0.0","79886005","wem/bandit_single","A2IA303OT5BBX0","pain","1","","74","J","1","","0","0","1","","0.08920017271","false","239","","0.1170855371","main_expt","","0.08920017271","","0.4437162142","","0.1594670864","","","","","",""
"74","","bandit","315","1126087","0.0-277.0-0.0","79886005","wem/bandit_single","A2IA303OT5BBX0","pain","1","","76","L","3","","0","0","1","","0.104293197","false","240","","0.1281478965","main_expt","","0.138477068","","0.4423909474","","0.104293197","","","","","",""
"175","","bandit","316","1128030","0.0-278.0-0.0","79886005","wem/bandit_single","A2IA303OT5BBX0","pain","1","","75","K","2","","0","0","1","","0.4542424264","false","241","","0.1579661802","main_expt","","0.1249513709","","0.4542424264","","0.07968297136","","","","","",""
"702","","bandit","317","1130504","0.0-279.0-0.0","79886005","wem/bandit_single","A2IA303OT5BBX0","pain","1","","72","H","0","img/none_selected.jpg","0","0","1","","0.1345462726","false","242","","0.1345462726","main_expt","","0.09754639251","","0.4659063812","","0.07079416442","","","","","",""
"297","","bandit","318","1132574","0.0-280.0-0.0","79886005","wem/bandit_single","A2IA303OT5BBX0","pain","1","","74","J","1","","0","1","0","","0.1223474156","false","243","","0.1793426478","main_expt","","0.1223474156","","0.4702771719","","0.08709770617","","","","","",""
"494","","bandit","319","1134856","0.0-281.0-0.0","79886005","wem/bandit_single","A2IA303OT5BBX0","pain","1","","74","J","1","","0","0","1","","0.1004902073","false","244","","0.1623289848","main_expt","","0.1004902073","","0.4678480784","","0.08252109256","","","","","",""
"123","","bandit","320","1136750","0.0-282.0-0.0","79886005","wem/bandit_single","A2IA303OT5BBX0","pain","1","","72","H","0","img/none_selected.jpg","0","0","1","","0.1638267454","false","245","","0.1638267454","main_expt","","0.09372717231","","0.4608336118","","0.07130924754","","","","","",""
"107","","bandit","321","1138624","0.0-283.0-0.0","79886005","wem/bandit_single","A2IA303OT5BBX0","pain","1","","75","K","2","","0","1","0","","0.4455928316","false","246","","0.1794660524","main_expt","","0.1004977064","","0.4455928316","","0.06886742221","","","","","",""
"106","","bandit","322","1140520","0.0-284.0-0.0","79886005","wem/bandit_single","A2IA303OT5BBX0","pain","1","","74","J","1","","0","1","0","","0.09336015453","false","247","","0.1751092572","main_expt","","0.09336015453","","0.4322927154","","0.064138504","","","","","",""
"100","","bandit","323","1142385","0.0-285.0-0.0","79886005","wem/bandit_single","A2IA303OT5BBX0","pain","1","","75","K","2","","0","0","1","","0.4293825987","false","248","","0.188480637","main_expt","","0.09552903486","","0.4293825987","","0.05051083443","","","","","",""
"474","","bandit","324","1144634","0.0-286.0-0.0","79886005","wem/bandit_single","A2IA303OT5BBX0","pain","1","","74","J","1","","0","0","1","","0.1087111068","false","249","","0.1718025207","main_expt","","0.1087111068","","0.4338924945","","0.05514480776","","","","","",""
"285","","bandit","325","1146688","0.0-287.0-0.0","79886005","wem/bandit_single","A2IA303OT5BBX0","pain","1","","72","H","0","img/none_selected.jpg","0","0","1","","0.1377417152","false","250","","0.1377417152","main_expt","","0.08296073337","","0.4356531551","","0.02780796002","","","","","",""
"281","","bandit","326","1148750","0.0-288.0-0.0","79886005","wem/bandit_single","A2IA303OT5BBX0","pain","1","","76","L","3","","0","0","1","","0.02786711831","false","251","","0.1623098307","main_expt","","0.08988728922","","0.4561881598","","0.02786711831","","","","","",""
"73","","bandit","327","1150590","0.0-289.0-0.0","79886005","wem/bandit_single","A2IA303OT5BBX0","pain","1","","75","K","2","","0","0","1","","0.4517263236","false","252","","0.1702242208","main_expt","","0.07043490844","","0.4517263236","","0.03881205422","","","","","",""
"57","","bandit","328","1152412","0.0-290.0-0.0","79886005","wem/bandit_single","A2IA303OT5BBX0","pain","1","","75","K","2","","0","1","0","","0.4280730872","false","253","","0.1571297736","main_expt","","0.06648959932","","0.4280730872","","0.03211176865","","","","","",""
"131","","bandit","329","1154313","0.0-291.0-0.0","79886005","wem/bandit_single","A2IA303OT5BBX0","pain","1","","75","K","2","","0","0","1","","0.3976691957","false","254","","0.1311762281","main_expt","","0.04750248463","","0.3976691957","","0.02501863174","","","","","",""
"122","","bandit","330","1156197","0.0-292.0-0.0","79886005","wem/bandit_single","A2IA303OT5BBX0","pain","1","","75","K","2","","0","0","1","","0.3920211634","false","255","","0.1262313745","main_expt","","0.0685067328","","0.3920211634","","0.03845468041","","","","","",""
"312","","bandit","331","1158271","0.0-293.0-0.0","79886005","wem/bandit_single","A2IA303OT5BBX0","pain","1","","74","J","1","","0","0","1","","0.06106940649","false","256","","0.08888936201","main_expt","","0.06106940649","","0.3802568344","","0.03093107714","","","","","",""
"205","","bandit","332","1160239","0.0-294.0-0.0","79886005","wem/bandit_single","A2IA303OT5BBX0","pain","1","","74","J","1","","0","0","1","","0.03925251802","false","257","","0.1016624202","main_expt","","0.03925251802","","0.4153547565","","0.02284381284","","","","","",""
"73","","bandit","333","1162079","0.0-295.0-0.0","79886005","wem/bandit_single","A2IA303OT5BBX0","pain","1","","74","J","1","","0","0","1","","0.07528758783","false","258","","0.1201960749","main_expt","","0.07528758783","","0.412770775","","0.01195927332","","","","","",""
"152","","bandit","334","1163993","0.0-296.0-0.0","79886005","wem/bandit_single","A2IA303OT5BBX0","pain","1","","74","J","1","","0","0","1","","0.06168900656","false","259","","0.09869940493","main_expt","","0.06168900656","","0.4364469878","","0.009837890866","","","","","",""
"807","","bandit","335","1166569","0.0-297.0-0.0","79886005","wem/bandit_single","A2IA303OT5BBX0","pain","1","","72","H","0","img/none_selected.jpg","0","0","1","","0.140367269","false","260","","0.140367269","main_expt","","0.05358732337","","0.4143686848","","0.01652501309","","","","","",""
"184","","bandit","336","1168539","0.0-298.0-0.0","79886005","wem/bandit_single","A2IA303OT5BBX0","pain","1","","72","H","0","img/none_selected.jpg","0","0","1","","0.107121031","false","261","","0.107121031","main_expt","","0.05974294151","","0.3932103286","","0.0246934762","","","","","",""
"136","","bandit","337","1170439","0.0-299.0-0.0","79886005","wem/bandit_single","A2IA303OT5BBX0","pain","1","","74","J","1","","0","1","0","","0.0656558392","false","262","","0.142880744","main_expt","","0.0656558392","","0.4299042069","","0.02217338967","","","","","",""
"742","","bandit","338","1172945","0.0-300.0-0.0","79886005","wem/bandit_single","A2IA303OT5BBX0","pain","1","","75","K","2","","0","0","1","","0.3864913748","false","263","","0.1398656543","main_expt","","0.08006927963","","0.3864913748","","0.02538488248","","","","","",""
"941","","bandit","339","1175655","0.0-301.0-0.0","79886005","wem/bandit_single","A2IA303OT5BBX0","pain","1","","74","J","1","","0","0","1","","0.07803510261","false","264","","0.185630342","main_expt","","0.07803510261","","0.3721946297","","0.03542132602","","","","","",""
"129","","bandit","340","1177560","0.0-302.0-0.0","79886005","wem/bandit_single","A2IA303OT5BBX0","pain","1","","76","L","3","","0","0","1","","0.03052618628","false","265","","0.1483619715","main_expt","","0.08917846028","","0.3326379545","","0.03052618628","","","","","",""
"712","","bandit","341","1180041","0.0-303.0-0.0","79886005","wem/bandit_single","A2IA303OT5BBX0","pain","1","","75","K","2","","0","1","0","","0.3337002386","false","266","","0.1677753502","main_expt","","0.1562168236","","0.3337002386","","0.02388326919","","","","","",""
"721","","bandit","342","1182541","0.0-304.0-0.0","79886005","wem/bandit_single","A2IA303OT5BBX0","pain","1","","75","K","2","","0","0","1","","0.3044940876","false","267","","0.1748953786","main_expt","","0.1873085091","","0.3044940876","","0.01496915784","","","","","",""
"319","","bandit","343","1184628","0.0-305.0-0.0","79886005","wem/bandit_single","A2IA303OT5BBX0","pain","1","","75","K","2","","0","0","1","","0.2966269971","false","268","","0.152215306","main_expt","","0.1850807086","","0.2966269971","","0.01735494223","","","","","",""
"159","","bandit","344","1186569","0.0-306.0-0.0","79886005","wem/bandit_single","A2IA303OT5BBX0","pain","1","","74","J","1","","0","0","1","","0.1461958128","false","269","","0.1420691147","main_expt","","0.1461958128","","0.2617435325","","0.01365938384","","","","","",""
"280","","bandit","345","1188614","0.0-307.0-0.0","79886005","wem/bandit_single","A2IA303OT5BBX0","pain","1","","74","J","1","","0","0","1","","0.1348565207","false","270","","0.1338049101","main_expt","","0.1348565207","","0.2599280147","","0.01871615964","","","","","",""
"117","","bandit","346","1190523","0.0-308.0-0.0","79886005","wem/bandit_single","A2IA303OT5BBX0","pain","1","","72","H","0","img/none_selected.jpg","0","0","1","","0.1178923734","false","271","","0.1178923734","main_expt","","0.1588166083","","0.2499936179","","0.01663887187","","","","","",""
"595","","bandit","347","1192889","0.0-309.0-0.0","79886005","wem/bandit_single","A2IA303OT5BBX0","pain","1","","75","K","2","","0","0","1","","0.2703142459","false","272","","0.1436833609","main_expt","","0.1288650497","","0.2703142459","","0.01973971225","","","","","",""
"212","","bandit","348","1194869","0.0-310.0-0.0","79886005","wem/bandit_single","A2IA303OT5BBX0","pain","1","","76","L","3","","0","0","1","","0.01954424634","false","273","","0.1917782062","main_expt","","0.1414039315","","0.2835249431","","0.01954424634","","","","","",""
"15","","bandit","349","1196655","0.0-311.0-0.0","79886005","wem/bandit_single","A2IA303OT5BBX0","pain","1","","72","H","0","img/none_selected.jpg","0","0","1","","0.1657285368","false","274","","0.1657285368","main_expt","","0.1132613661","","0.2906451875","","0.008862655739","","","","","",""
"319","","bandit","350","1198743","0.0-312.0-0.0","79886005","wem/bandit_single","A2IA303OT5BBX0","pain","1","","75","K","2","","0","0","1","","0.2670480505","false","275","","0.1420329436","main_expt","","0.1396690899","","0.2670480505","","0.0094605031","","","","","",""
"276","","bandit","351","1200791","0.0-313.0-0.0","79886005","wem/bandit_single","A2IA303OT5BBX0","pain","1","","74","J","1","","0","0","1","","0.1109816737","false","276","","0.1369756733","main_expt","","0.1109816737","","0.2358592403","","0.01191149084","","","","","",""
"230","","bandit","352","1202790","0.0-314.0-0.0","79886005","wem/bandit_single","A2IA303OT5BBX0","pain","1","","72","H","0","img/none_selected.jpg","0","0","1","","0.1781068979","false","277","","0.1781068979","main_expt","","0.08046464388","","0.1877967456","","0.00904810236","","","","","",""
"122","","bandit","353","1204686","0.0-315.0-0.0","79886005","wem/bandit_single","A2IA303OT5BBX0","pain","1","","72","H","0","img/none_selected.jpg","0","0","1","","0.248352092","false","278","","0.248352092","main_expt","","0.07407019324","","0.1537245983","","0.007795284796","","","","","",""
"517","","bandit","354","1206975","0.0-316.0-0.0","79886005","wem/bandit_single","A2IA303OT5BBX0","pain","1","","74","J","1","","0","0","1","","0.06478755197","false","279","","0.263219496","main_expt","","0.06478755197","","0.1662011111","","0.01747653863","","","","","",""
"734","","bandit","355","1209475","0.0-317.0-0.0","79886005","wem/bandit_single","A2IA303OT5BBX0","pain","1","","75","K","2","","0","0","1","","0.1622625537","false","280","","0.210776847","main_expt","","0.04895059186","","0.1622625537","","0.02326096521","","","","","",""
"126","","bandit","356","1211366","0.0-318.0-0.0","79886005","wem/bandit_single","A2IA303OT5BBX0","pain","1","","75","K","2","","0","0","1","","0.2160365104","false","281","","0.1901401854","main_expt","","0.04598133094","","0.2160365104","","0.03290281633","","","","","",""
"168","","bandit","357","1213312","0.0-319.0-0.0","79886005","wem/bandit_single","A2IA303OT5BBX0","pain","1","","76","L","3","","0","0","1","","0.03647511751","false","282","","0.1692674388","main_expt","","0.0454431083","","0.2031844556","","0.03647511751","","","","","",""
"142","","bandit","358","1215219","0.0-320.0-0.0","79886005","wem/bandit_single","A2IA303OT5BBX0","pain","1","","76","L","3","","0","0","1","","0.0381479171","false","283","","0.1697823826","main_expt","","0.0377119091","","0.236778666","","0.0381479171","","","","","",""
"211","","bandit","359","1217200","0.0-321.0-0.0","79886005","wem/bandit_single","A2IA303OT5BBX0","pain","1","","76","L","3","","0","0","1","","0.04237273713","false","284","","0.1647860582","main_expt","","0.0346676025","","0.2082896542","","0.04237273713","","","","","",""
"504","","bandit","360","1219473","0.0-322.0-0.0","79886005","wem/bandit_single","A2IA303OT5BBX0","pain","1","","74","J","1","","0","0","1","","0.03394591187","false","285","","0.2346467376","main_expt","","0.03394591187","","0.1682052712","","0.08736605616","","","","","",""
"593","","bandit","361","1221839","0.0-323.0-0.0","79886005","wem/bandit_single","A2IA303OT5BBX0","pain","1","","74","J","1","","0","0","1","","0.03437308726","false","286","","0.1651037306","main_expt","","0.03437308726","","0.1287852917","","0.149418319","","","","","",""
"48","","bandit","362","1223654","0.0-324.0-0.0","79886005","wem/bandit_single","A2IA303OT5BBX0","pain","1","","75","K","2","","0","0","1","","0.0739145169","false","287","","0.113933185","main_expt","","0.043905831","","0.0739145169","","0.2149685411","","","","","",""
"172","","bandit","363","1225601","0.0-325.0-0.0","79886005","wem/bandit_single","A2IA303OT5BBX0","pain","1","","75","K","2","","0","0","1","","0.08295252225","false","288","","0.08260993421","main_expt","","0.02064047927","","0.08295252225","","0.181398065","","","","","",""
"1573","","bandit","364","1228953","0.0-326.0-0.0","79886005","wem/bandit_single","A2IA303OT5BBX0","pain","1","","72","H","0","img/none_selected.jpg","0","0","1","","0.07260323305","false","289","","0.07260323305","main_expt","","0.0250169619","","0.0479508895","","0.1523032639","","","","","",""
"108","","bandit","365","1230829","0.0-327.0-0.0","79886005","wem/bandit_single","A2IA303OT5BBX0","pain","1","","72","H","0","img/none_selected.jpg","0","0","1","","0.06306400378","false","290","","0.06306400378","main_expt","","0.04785043425","","0.05498143303","","0.1404761367","","","","","",""
"137","","bandit","366","1232735","0.0-328.0-0.0","79886005","wem/bandit_single","A2IA303OT5BBX0","pain","1","","72","H","0","img/none_selected.jpg","0","0","1","","0.06173149747","false","291","","0.06173149747","main_expt","","0.05997729544","","0.06238518006","","0.1639955189","","","","","",""
"185","","bandit","367","1234701","0.0-329.0-0.0","79886005","wem/bandit_single","A2IA303OT5BBX0","pain","1","","72","H","0","img/none_selected.jpg","0","0","1","","0.049421281","false","292","","0.049421281","main_expt","","0.08013724224","","0.06246846358","","0.1365824739","","","","","",""
"1055","","bandit","368","1237546","0.0-330.0-0.0","79886005","wem/bandit_single","A2IA303OT5BBX0","pain","1","","72","H","0","img/none_selected.jpg","0","0","1","","0.04661139695","false","293","","0.04661139695","main_expt","","0.08257915178","","0.0635142122","","0.2190436779","","","","","",""
"75","","bandit","369","1239395","0.0-331.0-0.0","79886005","wem/bandit_single","A2IA303OT5BBX0","pain","1","","74","J","1","","0","0","1","","0.07979116831","false","294","","0.05266196286","main_expt","","0.07979116831","","0.1078883856","","0.2961987497","","","","","",""
"501","","bandit","370","1241671","0.0-332.0-0.0","79886005","wem/bandit_single","A2IA303OT5BBX0","pain","1","","74","J","1","","0","0","1","","0.1168190604","false","295","","0.0541153793","main_expt","","0.1168190604","","0.1065048767","","0.3422413176","","","","","",""
"968","","bandit","371","1244412","0.0-333.0-0.0","79886005","wem/bandit_single","A2IA303OT5BBX0","pain","1","","75","K","2","","0","0","1","","0.1528862056","false","296","","0.03514166697","main_expt","","0.1280513587","","0.1528862056","","0.3023757447","","","","","",""
"98","","bandit","372","1246282","0.0-334.0-0.0","79886005","wem/bandit_single","A2IA303OT5BBX0","pain","1","","74","J","1","","0","0","1","","0.1545711336","false","297","","0.0293008482","main_expt","","0.1545711336","","0.1655716118","","0.3744966898","","","","","",""
