"rt","responses","trial_type","trial_index","time_elapsed","internal_node_id","subjID","study","MID","cond","drift","key_press","respCharCode","respKey","respChoiceNum","respChoice","gems","bombs","no_reward","GemPrChosen","BombPrChosen","practice","trial_counter","WinPr_0","LosePr_0","trial_label","WinPr_1","LosePr_1","WinPr_2","LosePr_2","WinPr_3","LosePr_3","Q0","Q1","Q2","gender","age","ethnicity"
"16916","{""Q0"":""A1FV7GRQF2O7LY""}","survey-text","0","16923","0.0-0.0","82111764","wem/bandit_single","A1FV7GRQF2O7LY","pain","1","","","","","","","","","","","","","","","","","","","","","","","","","","",""
"3550","","text","1","21477","0.0-1.0","82111764","wem/bandit_single","A1FV7GRQF2O7LY","pain","1","32","","","","","","","","","","","","","","","","","","","","","","","","","",""
"23952","","text","2","45430","0.0-2.0","82111764","wem/bandit_single","A1FV7GRQF2O7LY","pain","1","32","","","","","","","","","","","","","","","","","","","","","","","","","",""
"24527","","text","3","69959","0.0-3.0","82111764","wem/bandit_single","A1FV7GRQF2O7LY","pain","1","32","","","","","","","","","","","","","","","","","","","","","","","","","",""
"18298","","text","4","88258","0.0-4.0","82111764","wem/bandit_single","A1FV7GRQF2O7LY","pain","1","32","","","","","","","","","","","","","","","","","","","","","","","","","",""
"11579","","text","5","99839","0.0-5.0","82111764","wem/bandit_single","A1FV7GRQF2O7LY","pain","1","32","","","","","","","","","","","","","","","","","","","","","","","","","",""
"8753","","text","6","108593","0.0-6.0","82111764","wem/bandit_single","A1FV7GRQF2O7LY","pain","1","32","","","","","","","","","","","","","","","","","","","","","","","","","",""
"4392","","text","7","112987","0.0-7.0","82111764","wem/bandit_single","A1FV7GRQF2O7LY","pain","1","32","","","","","","","","","","","","","","","","","","","","","","","","","",""
"4724","","text","8","117713","0.0-8.0","82111764","wem/bandit_single","A1FV7GRQF2O7LY","pain","1","32","","","","","","","","","","","","","","","","","","","","","","","","","",""
"2563","","text","9","120277","0.0-9.0","82111764","wem/bandit_single","A1FV7GRQF2O7LY","pain","1","32","","","","","","","","","","","","","","","","","","","","","","","","","",""
"2850","","text","10","123128","0.0-10.0","82111764","wem/bandit_single","A1FV7GRQF2O7LY","pain","1","32","","","","","","","","","","","","","","","","","","","","","","","","","",""
"8131","","text","11","131259","0.0-11.0","82111764","wem/bandit_single","A1FV7GRQF2O7LY","pain","1","32","","","","","","","","","","","","","","","","","","","","","","","","","",""
"5054","","bandit","12","137823","0.0-12.0-0.0","82111764","wem/bandit_single","A1FV7GRQF2O7LY","pain","1","","74","J","0","img/none_selected_demo.jpg","0","0","1","0","0","true","0","0","0","","","","","","","","","","","","",""
"1152","","bandit","13","140730","0.0-13.0-0.0","82111764","wem/bandit_single","A1FV7GRQF2O7LY","pain","1","","75","K","0","img/none_selected_demo.jpg","0","0","1","0","0","true","0","0","0","","","","","","","","","","","","",""
"2710","","text","14","143692","0.0-14.0","82111764","wem/bandit_single","A1FV7GRQF2O7LY","pain","1","32","","","","","","","","","","","","","","","","","","","","","","","","","",""
"1477","","text","15","145170","0.0-15.0","82111764","wem/bandit_single","A1FV7GRQF2O7LY","pain","1","32","","","","","","","","","","","","","","","","","","","","","","","","","",""
"3576","","text","16","148746","0.0-16.0","82111764","wem/bandit_single","A1FV7GRQF2O7LY","pain","1","32","","","","","","","","","","","","","","","","","","","","","","","","","",""
"2869","","text","17","151617","0.0-17.0","82111764","wem/bandit_single","A1FV7GRQF2O7LY","pain","1","32","","","","","","","","","","","","","","","","","","","","","","","","","",""
"1823","","bandit","18","154945","0.0-18.0-0.0","82111764","wem/bandit_single","A1FV7GRQF2O7LY","pain","1","","75","K","1","","0","0","1","0","0.2","true","0","0","0.8","80_20_practice","0","0.2","","","","","","","","","",""
"1139","","bandit","19","157840","0.0-18.0-1.0","82111764","wem/bandit_single","A1FV7GRQF2O7LY","pain","1","","74","J","0","img/none_selected_demo.jpg","0","1","0","0","0.8","true","0","0","0.8","80_20_practice","0","0.2","","","","","","","","","",""
"268","","bandit","20","159864","0.0-18.0-2.0","82111764","wem/bandit_single","A1FV7GRQF2O7LY","pain","1","","74","J","0","img/none_selected_demo.jpg","0","0","1","0","0.8","true","0","0","0.8","80_20_practice","0","0.2","","","","","","","","","",""
"117","","bandit","21","161738","0.0-18.0-3.0","82111764","wem/bandit_single","A1FV7GRQF2O7LY","pain","1","","74","J","0","img/none_selected_demo.jpg","0","1","0","0","0.8","true","0","0","0.8","80_20_practice","0","0.2","","","","","","","","","",""
"87","","bandit","22","163580","0.0-18.0-4.0","82111764","wem/bandit_single","A1FV7GRQF2O7LY","pain","1","","74","J","0","img/none_selected_demo.jpg","0","1","0","0","0.8","true","0","0","0.8","80_20_practice","0","0.2","","","","","","","","","",""
"188","","bandit","23","165522","0.0-18.0-5.0","82111764","wem/bandit_single","A1FV7GRQF2O7LY","pain","1","","74","J","0","img/none_selected_demo.jpg","0","1","0","0","0.8","true","0","0","0.8","80_20_practice","0","0.2","","","","","","","","","",""
"50","","bandit","24","167325","0.0-18.0-6.0","82111764","wem/bandit_single","A1FV7GRQF2O7LY","pain","1","","74","J","0","img/none_selected_demo.jpg","0","1","0","0","0.8","true","0","0","0.8","80_20_practice","0","0.2","","","","","","","","","",""
"68","","bandit","25","169150","0.0-18.0-7.0","82111764","wem/bandit_single","A1FV7GRQF2O7LY","pain","1","","74","J","0","img/none_selected_demo.jpg","0","1","0","0","0.8","true","0","0","0.8","80_20_practice","0","0.2","","","","","","","","","",""
"65","","bandit","26","170970","0.0-18.0-8.0","82111764","wem/bandit_single","A1FV7GRQF2O7LY","pain","1","","74","J","0","img/none_selected_demo.jpg","0","1","0","0","0.8","true","0","0","0.8","80_20_practice","0","0.2","","","","","","","","","",""
"217","","bandit","27","172950","0.0-18.0-9.0","82111764","wem/bandit_single","A1FV7GRQF2O7LY","pain","1","","74","J","0","img/none_selected_demo.jpg","0","0","1","0","0.8","true","0","0","0.8","80_20_practice","0","0.2","","","","","","","","","",""
"178","","bandit","28","174884","0.0-18.0-10.0","82111764","wem/bandit_single","A1FV7GRQF2O7LY","pain","1","","74","J","0","img/none_selected_demo.jpg","0","0","1","0","0.8","true","0","0","0.8","80_20_practice","0","0.2","","","","","","","","","",""
"1286","","bandit","29","177925","0.0-18.0-11.0","82111764","wem/bandit_single","A1FV7GRQF2O7LY","pain","1","","74","J","0","img/none_selected_demo.jpg","0","1","0","0","0.8","true","0","0","0.8","80_20_practice","0","0.2","","","","","","","","","",""
"451","","bandit","30","180132","0.0-18.0-12.0","82111764","wem/bandit_single","A1FV7GRQF2O7LY","pain","1","","74","J","0","img/none_selected_demo.jpg","0","1","0","0","0.8","true","0","0","0.8","80_20_practice","0","0.2","","","","","","","","","",""
"222","","bandit","31","182110","0.0-18.0-13.0","82111764","wem/bandit_single","A1FV7GRQF2O7LY","pain","1","","74","J","0","img/none_selected_demo.jpg","0","0","1","0","0.8","true","0","0","0.8","80_20_practice","0","0.2","","","","","","","","","",""
"689","","bandit","32","184555","0.0-18.0-14.0","82111764","wem/bandit_single","A1FV7GRQF2O7LY","pain","1","","74","J","0","img/none_selected_demo.jpg","0","1","0","0","0.8","true","0","0","0.8","80_20_practice","0","0.2","","","","","","","","","",""
"117","","bandit","33","186428","0.0-18.0-15.0","82111764","wem/bandit_single","A1FV7GRQF2O7LY","pain","1","","74","J","0","img/none_selected_demo.jpg","0","0","1","0","0.8","true","0","0","0.8","80_20_practice","0","0.2","","","","","","","","","",""
"57","","bandit","34","188241","0.0-18.0-16.0","82111764","wem/bandit_single","A1FV7GRQF2O7LY","pain","1","","74","J","0","img/none_selected_demo.jpg","0","1","0","0","0.8","true","0","0","0.8","80_20_practice","0","0.2","","","","","","","","","",""
"155","","bandit","35","190152","0.0-18.0-17.0","82111764","wem/bandit_single","A1FV7GRQF2O7LY","pain","1","","74","J","0","img/none_selected_demo.jpg","0","1","0","0","0.8","true","0","0","0.8","80_20_practice","0","0.2","","","","","","","","","",""
"69","","bandit","36","192006","0.0-18.0-18.0","82111764","wem/bandit_single","A1FV7GRQF2O7LY","pain","1","","74","J","0","img/none_selected_demo.jpg","0","0","1","0","0.8","true","0","0","0.8","80_20_practice","0","0.2","","","","","","","","","",""
"1037","","bandit","37","194799","0.0-18.0-19.0","82111764","wem/bandit_single","A1FV7GRQF2O7LY","pain","1","","74","J","0","img/none_selected_demo.jpg","0","1","0","0","0.8","true","0","0","0.8","80_20_practice","0","0.2","","","","","","","","","",""
"4205","","text","38","199257","0.0-19.0","82111764","wem/bandit_single","A1FV7GRQF2O7LY","pain","1","32","","","","","","","","","","","","","","","","","","","","","","","","","",""
"1549","","bandit","39","202309","0.0-20.0-0.0","82111764","wem/bandit_single","A1FV7GRQF2O7LY","pain","1","","74","J","0","img/none_selected_demo.jpg","0","0","1","0","0","true","0","0","0","","0","0","","","","","","","","","",""
"7015","","text","40","209576","0.0-21.0","82111764","wem/bandit_single","A1FV7GRQF2O7LY","pain","1","32","","","","","","","","","","","","","","","","","","","","","","","","","",""
"2367","","text","41","211945","0.0-22.0","82111764","wem/bandit_single","A1FV7GRQF2O7LY","pain","1","32","","","","","","","","","","","","","","","","","","","","","","","","","",""
"2389","","text","42","214336","0.0-23.0","82111764","wem/bandit_single","A1FV7GRQF2O7LY","pain","1","32","","","","","","","","","","","","","","","","","","","","","","","","","",""
"6885","","text","43","221222","0.0-24.0","82111764","wem/bandit_single","A1FV7GRQF2O7LY","pain","1","32","","","","","","","","","","","","","","","","","","","","","","","","","",""
"11565","","text","44","232788","0.0-25.0","82111764","wem/bandit_single","A1FV7GRQF2O7LY","pain","1","32","","","","","","","","","","","","","","","","","","","","","","","","","",""
"4517","","text","45","237308","0.0-26.0","82111764","wem/bandit_single","A1FV7GRQF2O7LY","pain","1","32","","","","","","","","","","","","","","","","","","","","","","","","","",""
"4810","","text","46","242120","0.0-27.0","82111764","wem/bandit_single","A1FV7GRQF2O7LY","pain","1","32","","","","","","","","","","","","","","","","","","","","","","","","","",""
"3785","","text","47","245907","0.0-28.0","82111764","wem/bandit_single","A1FV7GRQF2O7LY","pain","1","32","","","","","","","","","","","","","","","","","","","","","","","","","",""
"4716","","text","48","250626","0.0-29.0","82111764","wem/bandit_single","A1FV7GRQF2O7LY","pain","1","32","","","","","","","","","","","","","","","","","","","","","","","","","",""
"2519","","text","49","253146","0.0-30.0","82111764","wem/bandit_single","A1FV7GRQF2O7LY","pain","1","32","","","","","","","","","","","","","","","","","","","","","","","","","",""
"3190","","text","50","256337","0.0-31.0","82111764","wem/bandit_single","A1FV7GRQF2O7LY","pain","1","32","","","","","","","","","","","","","","","","","","","","","","","","","",""
"745","","bandit","51","258588","0.0-32.0-0.0","82111764","wem/bandit_single","A1FV7GRQF2O7LY","pain","1","","72","H","0","img/none_selected.jpg","0","1","0","0","0.8","true","0","0","0.8","full_practice","0","0.2","0","0.6","0","0.2","","","","","",""
"162","","bandit","52","260506","0.0-32.0-1.0","82111764","wem/bandit_single","A1FV7GRQF2O7LY","pain","1","","72","H","0","img/none_selected.jpg","0","1","0","0","0.8","true","0","0","0.8","full_practice","0","0.2","0","0.6","0","0.2","","","","","",""
"241","","bandit","53","262503","0.0-32.0-2.0","82111764","wem/bandit_single","A1FV7GRQF2O7LY","pain","1","","72","H","0","img/none_selected.jpg","0","1","0","0","0.8","true","0","0","0.8","full_practice","0","0.2","0","0.6","0","0.2","","","","","",""
"177","","bandit","54","264437","0.0-32.0-3.0","82111764","wem/bandit_single","A1FV7GRQF2O7LY","pain","1","","72","H","0","img/none_selected.jpg","0","0","1","0","0.8","true","0","0","0.8","full_practice","0","0.2","0","0.6","0","0.2","","","","","",""
"81","","bandit","55","266275","0.0-32.0-4.0","82111764","wem/bandit_single","A1FV7GRQF2O7LY","pain","1","","72","H","0","img/none_selected.jpg","0","1","0","0","0.8","true","0","0","0.8","full_practice","0","0.2","0","0.6","0","0.2","","","","","",""
"119","","bandit","56","268150","0.0-32.0-5.0","82111764","wem/bandit_single","A1FV7GRQF2O7LY","pain","1","","72","H","0","img/none_selected.jpg","0","1","0","0","0.8","true","0","0","0.8","full_practice","0","0.2","0","0.6","0","0.2","","","","","",""
"43","","bandit","57","270021","0.0-32.0-6.0","82111764","wem/bandit_single","A1FV7GRQF2O7LY","pain","1","","72","H","0","img/none_selected.jpg","0","1","0","0","0.8","true","0","0","0.8","full_practice","0","0.2","0","0.6","0","0.2","","","","","",""
"1009","","bandit","58","272787","0.0-32.0-7.0","82111764","wem/bandit_single","A1FV7GRQF2O7LY","pain","1","","72","H","0","img/none_selected.jpg","0","1","0","0","0.8","true","0","0","0.8","full_practice","0","0.2","0","0.6","0","0.2","","","","","",""
"113","","bandit","59","274657","0.0-32.0-8.0","82111764","wem/bandit_single","A1FV7GRQF2O7LY","pain","1","","72","H","0","img/none_selected.jpg","0","1","0","0","0.8","true","0","0","0.8","full_practice","0","0.2","0","0.6","0","0.2","","","","","",""
"46","","bandit","60","276458","0.0-32.0-9.0","82111764","wem/bandit_single","A1FV7GRQF2O7LY","pain","1","","72","H","0","img/none_selected.jpg","0","1","0","0","0.8","true","0","0","0.8","full_practice","0","0.2","0","0.6","0","0.2","","","","","",""
"583","","bandit","61","278796","0.0-32.0-10.0","82111764","wem/bandit_single","A1FV7GRQF2O7LY","pain","1","","72","H","0","img/none_selected.jpg","0","1","0","0","0.8","true","0","0","0.8","full_practice","0","0.2","0","0.6","0","0.2","","","","","",""
"113","","bandit","62","280666","0.0-32.0-11.0","82111764","wem/bandit_single","A1FV7GRQF2O7LY","pain","1","","72","H","0","img/none_selected.jpg","0","1","0","0","0.8","true","0","0","0.8","full_practice","0","0.2","0","0.6","0","0.2","","","","","",""
"48","","bandit","63","282490","0.0-32.0-12.0","82111764","wem/bandit_single","A1FV7GRQF2O7LY","pain","1","","72","H","0","img/none_selected.jpg","0","1","0","0","0.8","true","0","0","0.8","full_practice","0","0.2","0","0.6","0","0.2","","","","","",""
"29","","bandit","64","284277","0.0-32.0-13.0","82111764","wem/bandit_single","A1FV7GRQF2O7LY","pain","1","","72","H","0","img/none_selected.jpg","0","1","0","0","0.8","true","0","0","0.8","full_practice","0","0.2","0","0.6","0","0.2","","","","","",""
"68","","bandit","65","286101","0.0-32.0-14.0","82111764","wem/bandit_single","A1FV7GRQF2O7LY","pain","1","","72","H","0","img/none_selected.jpg","0","1","0","0","0.8","true","0","0","0.8","full_practice","0","0.2","0","0.6","0","0.2","","","","","",""
"777","","bandit","66","288636","0.0-32.0-15.0","82111764","wem/bandit_single","A1FV7GRQF2O7LY","pain","1","","72","H","0","img/none_selected.jpg","0","1","0","0","0.8","true","0","0","0.8","full_practice","0","0.2","0","0.6","0","0.2","","","","","",""
"244","","bandit","67","290639","0.0-32.0-16.0","82111764","wem/bandit_single","A1FV7GRQF2O7LY","pain","1","","72","H","0","img/none_selected.jpg","0","1","0","0","0.8","true","0","0","0.8","full_practice","0","0.2","0","0.6","0","0.2","","","","","",""
"36","","bandit","68","292431","0.0-32.0-17.0","82111764","wem/bandit_single","A1FV7GRQF2O7LY","pain","1","","72","H","0","img/none_selected.jpg","0","1","0","0","0.8","true","0","0","0.8","full_practice","0","0.2","0","0.6","0","0.2","","","","","",""
"497","","bandit","69","294687","0.0-32.0-18.0","82111764","wem/bandit_single","A1FV7GRQF2O7LY","pain","1","","72","H","0","img/none_selected.jpg","0","1","0","0","0.8","true","0","0","0.8","full_practice","0","0.2","0","0.6","0","0.2","","","","","",""
"592","","bandit","70","297057","0.0-32.0-19.0","82111764","wem/bandit_single","A1FV7GRQF2O7LY","pain","1","","72","H","0","img/none_selected.jpg","0","1","0","0","0.8","true","0","0","0.8","full_practice","0","0.2","0","0.6","0","0.2","","","","","",""
"2111","","text","71","299425","0.0-33.0","82111764","wem/bandit_single","A1FV7GRQF2O7LY","pain","1","32","","","","","","","","","","","","","","","","","","","","","","","","","",""
"12404","","text","72","312833","0.0-34.0","82111764","wem/bandit_single","A1FV7GRQF2O7LY","pain","1","32","","","","","","","","","","","","","","","","","","","","","","","","","",""
"6516","","text","73","319352","0.0-35.0","82111764","wem/bandit_single","A1FV7GRQF2O7LY","pain","1","32","","","","","","","","","","","","","","","","","","","","","","","","","",""
"6897","","text","74","326252","0.0-36.0","82111764","wem/bandit_single","A1FV7GRQF2O7LY","pain","1","32","","","","","","","","","","","","","","","","","","","","","","","","","",""
"5148","","text","75","331402","0.0-37.0","82111764","wem/bandit_single","A1FV7GRQF2O7LY","pain","1","32","","","","","","","","","","","","","","","","","","","","","","","","","",""
"2728","","bandit","76","335638","0.0-38.0-0.0","82111764","wem/bandit_single","A1FV7GRQF2O7LY","pain","1","","76","L","3","","0","0","1","","0.1765468105","false","1","","0.433486002","main_expt","","0.04371116513","","0.1079408374","","0.1765468105","","","","","",""
"276","","bandit","77","337675","0.0-39.0-0.0","82111764","wem/bandit_single","A1FV7GRQF2O7LY","pain","1","","76","L","3","","0","0","1","","0.1569258514","false","2","","0.4446307222","main_expt","","0.0204546363","","0.1605706499","","0.1569258514","","","","","",""
"106","","bandit","78","339568","0.0-40.0-0.0","82111764","wem/bandit_single","A1FV7GRQF2O7LY","pain","1","","76","L","3","","0","0","1","","0.1639246388","false","3","","0.4522438858","main_expt","","0.02109221713","","0.1829447669","","0.1639246388","","","","","",""
"173","","bandit","79","341499","0.0-41.0-0.0","82111764","wem/bandit_single","A1FV7GRQF2O7LY","pain","1","","75","K","2","","0","0","1","","0.1756642407","false","4","","0.4330109471","main_expt","","0.04448829896","","0.1756642407","","0.2130332657","","","","","",""
"192","","bandit","80","343448","0.0-42.0-0.0","82111764","wem/bandit_single","A1FV7GRQF2O7LY","pain","1","","75","K","2","","0","0","1","","0.1349544936","false","5","","0.4678508314","main_expt","","0.03824555068","","0.1349544936","","0.1939577492","","","","","",""
"88","","bandit","81","345294","0.0-43.0-0.0","82111764","wem/bandit_single","A1FV7GRQF2O7LY","pain","1","","75","K","2","","0","0","1","","0.1356037804","false","6","","0.4644602632","main_expt","","0.03028715703","","0.1356037804","","0.2419857306","","","","","",""
"907","","bandit","82","347958","0.0-44.0-0.0","82111764","wem/bandit_single","A1FV7GRQF2O7LY","pain","1","","74","J","1","","0","0","1","","0.0280090558","false","7","","0.4575746565","main_expt","","0.0280090558","","0.1731738011","","0.2437977828","","","","","",""
"78","","bandit","83","349794","0.0-45.0-0.0","82111764","wem/bandit_single","A1FV7GRQF2O7LY","pain","1","","74","J","1","","0","0","1","","0.01994926529","false","8","","0.4508833002","main_expt","","0.01994926529","","0.1697830552","","0.2910779813","","","","","",""
"79","","bandit","84","351630","0.0-46.0-0.0","82111764","wem/bandit_single","A1FV7GRQF2O7LY","pain","1","","74","J","1","","0","0","1","","0.02255652904","false","9","","0.446295775","main_expt","","0.02255652904","","0.1792782501","","0.3043628405","","","","","",""
"399","","bandit","85","353786","0.0-47.0-0.0","82111764","wem/bandit_single","A1FV7GRQF2O7LY","pain","1","","72","H","0","img/none_selected.jpg","0","0","1","","0.4564580261","false","10","","0.4564580261","main_expt","","0.02794315976","","0.1705688187","","0.3568141906","","","","","",""
"93","","bandit","86","355636","0.0-48.0-0.0","82111764","wem/bandit_single","A1FV7GRQF2O7LY","pain","1","","72","H","0","img/none_selected.jpg","0","1","0","","0.4233437492","false","11","","0.4233437492","main_expt","","0.02289966844","","0.1974022207","","0.3439843329","","","","","",""
"178","","bandit","87","357619","0.0-49.0-0.0","82111764","wem/bandit_single","A1FV7GRQF2O7LY","pain","1","","72","H","0","img/none_selected.jpg","0","0","1","","0.4129107721","false","12","","0.4129107721","main_expt","","0.01510656417","","0.1753487428","","0.2959247237","","","","","",""
"34","","bandit","88","359410","0.0-50.0-0.0","82111764","wem/bandit_single","A1FV7GRQF2O7LY","pain","1","","72","H","0","img/none_selected.jpg","0","0","1","","0.4188058581","false","13","","0.4188058581","main_expt","","0.01475809492","","0.1858973774","","0.2711511111","","","","","",""
"105","","bandit","89","361272","0.0-51.0-0.0","82111764","wem/bandit_single","A1FV7GRQF2O7LY","pain","1","","72","H","0","img/none_selected.jpg","0","0","1","","0.4542155744","false","14","","0.4542155744","main_expt","","0.00909265887","","0.1873997244","","0.2351285692","","","","","",""
"85","","bandit","90","363115","0.0-52.0-0.0","82111764","wem/bandit_single","A1FV7GRQF2O7LY","pain","1","","74","J","1","","0","0","1","","0.004683339805","false","15","","0.4436127815","main_expt","","0.004683339805","","0.2079034381","","0.3299180318","","","","","",""
"96","","bandit","91","364970","0.0-53.0-0.0","82111764","wem/bandit_single","A1FV7GRQF2O7LY","pain","1","","74","J","1","","0","0","1","","0.007493295572","false","16","","0.4255220112","main_expt","","0.007493295572","","0.2116662278","","0.3382291528","","","","","",""
"52","","bandit","92","366780","0.0-54.0-0.0","82111764","wem/bandit_single","A1FV7GRQF2O7LY","pain","1","","75","K","2","","0","0","1","","0.2460799228","false","17","","0.4221090449","main_expt","","0.009835384986","","0.2460799228","","0.3890963744","","","","","",""
"39","","bandit","93","368575","0.0-55.0-0.0","82111764","wem/bandit_single","A1FV7GRQF2O7LY","pain","1","","75","K","2","","0","0","1","","0.2725156425","false","18","","0.4157246332","main_expt","","0.01282838009","","0.2725156425","","0.3102907615","","","","","",""
"610","","bandit","94","370943","0.0-56.0-0.0","82111764","wem/bandit_single","A1FV7GRQF2O7LY","pain","1","","76","L","3","","0","1","0","","0.2734902963","false","19","","0.4000612909","main_expt","","0.03935122736","","0.319312936","","0.2734902963","","","","","",""
"148","","bandit","95","372849","0.0-57.0-0.0","82111764","wem/bandit_single","A1FV7GRQF2O7LY","pain","1","","76","L","3","","0","0","1","","0.2157414593","false","20","","0.4116546581","main_expt","","0.03712672215","","0.3449168397","","0.2157414593","","","","","",""
"23","","bandit","96","374639","0.0-58.0-0.0","82111764","wem/bandit_single","A1FV7GRQF2O7LY","pain","1","","76","L","3","","0","0","1","","0.2148325275","false","21","","0.4276829816","main_expt","","0.02631596187","","0.2668327531","","0.2148325275","","","","","",""
"24","","bandit","97","376421","0.0-59.0-0.0","82111764","wem/bandit_single","A1FV7GRQF2O7LY","pain","1","","76","L","3","","0","0","1","","0.1819582271","false","22","","0.3861543943","main_expt","","0.0338100911","","0.2786929748","","0.1819582271","","","","","",""
"407","","bandit","98","378584","0.0-60.0-0.0","82111764","wem/bandit_single","A1FV7GRQF2O7LY","pain","1","","75","K","2","","0","1","0","","0.2012253143","false","23","","0.3815006395","main_expt","","0.06132921526","","0.2012253143","","0.1776669961","","","","","",""
"130","","bandit","99","380471","0.0-61.0-0.0","82111764","wem/bandit_single","A1FV7GRQF2O7LY","pain","1","","75","K","2","","0","1","0","","0.1363446769","false","24","","0.4063144844","main_expt","","0.06546003458","","0.1363446769","","0.2595803745","","","","","",""
"54","","bandit","100","382284","0.0-62.0-0.0","82111764","wem/bandit_single","A1FV7GRQF2O7LY","pain","1","","75","K","2","","0","0","1","","0.1395957504","false","25","","0.3218764758","main_expt","","0.08327489459","","0.1395957504","","0.2184946748","","","","","",""
"61","","bandit","101","384103","0.0-63.0-0.0","82111764","wem/bandit_single","A1FV7GRQF2O7LY","pain","1","","75","K","2","","0","0","1","","0.1095431569","false","26","","0.3190898414","main_expt","","0.06117167893","","0.1095431569","","0.2382025465","","","","","",""
"59","","bandit","102","385918","0.0-64.0-0.0","82111764","wem/bandit_single","A1FV7GRQF2O7LY","pain","1","","75","K","2","","0","1","0","","0.1290148999","false","27","","0.361309168","main_expt","","0.03494965278","","0.1290148999","","0.2249508913","","","","","",""
"689","","bandit","103","388371","0.0-65.0-0.0","82111764","wem/bandit_single","A1FV7GRQF2O7LY","pain","1","","75","K","2","","0","0","1","","0.09304199486","false","28","","0.3247985582","main_expt","","0.02964638986","","0.09304199486","","0.2388683754","","","","","",""
"22","","bandit","104","390151","0.0-66.0-0.0","82111764","wem/bandit_single","A1FV7GRQF2O7LY","pain","1","","75","K","2","","0","0","1","","0.1042487788","false","29","","0.3358989687","main_expt","","0.03498116837","","0.1042487788","","0.238121012","","","","","",""
"61","","bandit","105","392019","0.0-67.0-0.0","82111764","wem/bandit_single","A1FV7GRQF2O7LY","pain","1","","75","K","2","","0","0","1","","0.1177759499","false","30","","0.3833706669","main_expt","","0.04244048525","","0.1177759499","","0.2995264376","","","","","",""
"87","","bandit","106","393862","0.0-68.0-0.0","82111764","wem/bandit_single","A1FV7GRQF2O7LY","pain","1","","75","K","2","","0","0","1","","0.1177925617","false","31","","0.365606812","main_expt","","0.06152315655","","0.1177925617","","0.2738636663","","","","","",""
"544","","bandit","107","396165","0.0-69.0-0.0","82111764","wem/bandit_single","A1FV7GRQF2O7LY","pain","1","","74","J","1","","0","0","1","","0.04890303061","false","32","","0.3376656117","main_expt","","0.04890303061","","0.08495919706","","0.3185168498","","","","","",""
"28","","bandit","108","397955","0.0-70.0-0.0","82111764","wem/bandit_single","A1FV7GRQF2O7LY","pain","1","","74","J","1","","0","0","1","","0.06913310411","false","33","","0.3632929272","main_expt","","0.06913310411","","0.09918690981","","0.3160257618","","","","","",""
"24","","bandit","109","399736","0.0-71.0-0.0","82111764","wem/bandit_single","A1FV7GRQF2O7LY","pain","1","","74","J","1","","0","0","1","","0.07311713639","false","34","","0.4008603673","main_expt","","0.07311713639","","0.1267106232","","0.3411570355","","","","","",""
"70","","bandit","110","401563","0.0-72.0-0.0","82111764","wem/bandit_single","A1FV7GRQF2O7LY","pain","1","","72","H","0","img/none_selected.jpg","0","0","1","","0.4024879816","false","35","","0.4024879816","main_expt","","0.08374615962","","0.1076928618","","0.3190481916","","","","","",""
"141","","bandit","111","403461","0.0-73.0-0.0","82111764","wem/bandit_single","A1FV7GRQF2O7LY","pain","1","","72","H","0","img/none_selected.jpg","0","1","0","","0.3740303516","false","36","","0.3740303516","main_expt","","0.08182693844","","0.1298816773","","0.3264142162","","","","","",""
"88","","bandit","112","405307","0.0-74.0-0.0","82111764","wem/bandit_single","A1FV7GRQF2O7LY","pain","1","","72","H","0","img/none_selected.jpg","0","0","1","","0.3728306432","false","37","","0.3728306432","main_expt","","0.1343371601","","0.1459487567","","0.3198880486","","","","","",""
"53","","bandit","113","407119","0.0-75.0-0.0","82111764","wem/bandit_single","A1FV7GRQF2O7LY","pain","1","","72","H","0","img/none_selected.jpg","0","0","1","","0.3805434418","false","38","","0.3805434418","main_expt","","0.155986589","","0.1339045699","","0.3683112265","","","","","",""
"125","","bandit","114","409002","0.0-76.0-0.0","82111764","wem/bandit_single","A1FV7GRQF2O7LY","pain","1","","72","H","0","img/none_selected.jpg","0","1","0","","0.3969568822","false","39","","0.3969568822","main_expt","","0.1477757124","","0.1345127174","","0.3427238384","","","","","",""
"162","","bandit","115","410922","0.0-77.0-0.0","82111764","wem/bandit_single","A1FV7GRQF2O7LY","pain","1","","72","H","0","img/none_selected.jpg","0","0","1","","0.3988554294","false","40","","0.3988554294","main_expt","","0.1673850924","","0.1283460502","","0.3218453083","","","","","",""
"43","","bandit","116","412723","0.0-78.0-0.0","82111764","wem/bandit_single","A1FV7GRQF2O7LY","pain","1","","72","H","0","img/none_selected.jpg","0","0","1","","0.4510691137","false","41","","0.4510691137","main_expt","","0.1798739011","","0.120913883","","0.3085515908","","","","","",""
"83","","bandit","117","414562","0.0-79.0-0.0","82111764","wem/bandit_single","A1FV7GRQF2O7LY","pain","1","","76","L","3","","0","0","1","","0.3072415044","false","42","","0.4575220824","main_expt","","0.1559165864","","0.1045942129","","0.3072415044","","","","","",""
"1090","","bandit","118","417410","0.0-80.0-0.0","82111764","wem/bandit_single","A1FV7GRQF2O7LY","pain","1","","75","K","2","","0","0","1","","0.09432917568","false","43","","0.4425049573","main_expt","","0.1058033922","","0.09432917568","","0.272500382","","","","","",""
"677","","bandit","119","419844","0.0-81.0-0.0","82111764","wem/bandit_single","A1FV7GRQF2O7LY","pain","1","","74","J","1","","0","0","1","","0.08489334424","false","44","","0.4232077065","main_expt","","0.08489334424","","0.07221407183","","0.2865836788","","","","","",""
"107","","bandit","120","421709","0.0-82.0-0.0","82111764","wem/bandit_single","A1FV7GRQF2O7LY","pain","1","","74","J","1","","0","0","1","","0.05905190464","false","45","","0.4098430077","main_expt","","0.05905190464","","0.05666738762","","0.2991622886","","","","","",""
"217","","bandit","121","423683","0.0-83.0-0.0","82111764","wem/bandit_single","A1FV7GRQF2O7LY","pain","1","","74","J","1","","0","0","1","","0.06331323714","false","46","","0.4038708701","main_expt","","0.06331323714","","0.03432969329","","0.2531917612","","","","","",""
"110","","bandit","122","425598","0.0-84.0-0.0","82111764","wem/bandit_single","A1FV7GRQF2O7LY","pain","1","","75","K","2","","0","0","1","","0.03955917442","false","47","","0.4162646915","main_expt","","0.05657329797","","0.03955917442","","0.174020607","","","","","",""
"65","","bandit","123","427419","0.0-85.0-0.0","82111764","wem/bandit_single","A1FV7GRQF2O7LY","pain","1","","75","K","2","","0","0","1","","0.02792503423","false","48","","0.4188900116","main_expt","","0.04718629669","","0.02792503423","","0.1890064997","","","","","",""
"43","","bandit","124","429218","0.0-86.0-0.0","82111764","wem/bandit_single","A1FV7GRQF2O7LY","pain","1","","76","L","3","","0","0","1","","0.218442061","false","49","","0.4566014176","main_expt","","0.03289244517","","0.03726959289","","0.218442061","","","","","",""
"842","","bandit","125","431817","0.0-87.0-0.0","82111764","wem/bandit_single","A1FV7GRQF2O7LY","pain","1","","76","L","3","","0","0","1","","0.1635183119","false","50","","0.4447058567","main_expt","","0.03266450512","","0.03358305353","","0.1635183119","","","","","",""
"244","","bandit","126","433866","0.0-88.0-0.0","82111764","wem/bandit_single","A1FV7GRQF2O7LY","pain","1","","72","H","0","img/none_selected.jpg","0","1","0","","0.4304926469","false","51","","0.4304926469","main_expt","","0.03026904774","","0.03344521258","","0.1366577914","","","","","",""
"171","","bandit","127","435795","0.0-89.0-0.0","82111764","wem/bandit_single","A1FV7GRQF2O7LY","pain","1","","72","H","0","img/none_selected.jpg","0","1","0","","0.4221781581","false","52","","0.4221781581","main_expt","","0.03251993274","","0.04269272659","","0.1797398031","","","","","",""
"212","","bandit","128","437774","0.0-90.0-0.0","82111764","wem/bandit_single","A1FV7GRQF2O7LY","pain","1","","72","H","0","img/none_selected.jpg","0","0","1","","0.3687481665","false","53","","0.3687481665","main_expt","","0.03960602941","","0.023815337","","0.2893410322","","","","","",""
"87","","bandit","129","439618","0.0-91.0-0.0","82111764","wem/bandit_single","A1FV7GRQF2O7LY","pain","1","","72","H","0","img/none_selected.jpg","0","0","1","","0.3458934235","false","54","","0.3458934235","main_expt","","0.05707063203","","0.02455785224","","0.2985665456","","","","","",""
"209","","bandit","130","441585","0.0-92.0-0.0","82111764","wem/bandit_single","A1FV7GRQF2O7LY","pain","1","","72","H","0","img/none_selected.jpg","0","0","1","","0.4042580408","false","55","","0.4042580408","main_expt","","0.04044117434","","0.03998391886","","0.3336948264","","","","","",""
"131","","bandit","131","443474","0.0-93.0-0.0","82111764","wem/bandit_single","A1FV7GRQF2O7LY","pain","1","","74","J","1","","0","0","1","","0.05627119328","false","56","","0.4471112694","main_expt","","0.05627119328","","0.06538112884","","0.282194417","","","","","",""
"104","","bandit","132","445338","0.0-94.0-0.0","82111764","wem/bandit_single","A1FV7GRQF2O7LY","pain","1","","75","K","2","","0","0","1","","0.08662171517","false","57","","0.4640351361","main_expt","","0.06172895681","","0.08662171517","","0.3239389597","","","","","",""
"100","","bandit","133","447195","0.0-95.0-0.0","82111764","wem/bandit_single","A1FV7GRQF2O7LY","pain","1","","76","L","3","","0","0","1","","0.3114288274","false","58","","0.4654795878","main_expt","","0.0708730922","","0.08191290536","","0.3114288274","","","","","",""
"114","","bandit","134","449066","0.0-96.0-0.0","82111764","wem/bandit_single","A1FV7GRQF2O7LY","pain","1","","75","K","2","","0","0","1","","0.06359390603","false","59","","0.477644797","main_expt","","0.06307994893","","0.06359390603","","0.3090129124","","","","","",""
"75","","bandit","135","450896","0.0-97.0-0.0","82111764","wem/bandit_single","A1FV7GRQF2O7LY","pain","1","","74","J","1","","0","0","1","","0.06865221942","false","60","","0.4637057102","main_expt","","0.06865221942","","0.1113565871","","0.3273240357","","","","","",""
"2856","","bandit","136","455510","0.0-98.0-0.0","82111764","wem/bandit_single","A1FV7GRQF2O7LY","pain","1","","72","H","0","img/none_selected.jpg","0","1","0","","0.4575353452","false","61","","0.4575353452","main_expt","","0.04710261487","","0.1224908949","","0.333760802","","","","","",""
"218","","bandit","137","457486","0.0-99.0-0.0","82111764","wem/bandit_single","A1FV7GRQF2O7LY","pain","1","","72","H","0","img/none_selected.jpg","0","0","1","","0.4511824808","false","62","","0.4511824808","main_expt","","0.04180279512","","0.1011510181","","0.3721083552","","","","","",""
"90","","bandit","138","459334","0.0-100.0-0.0","82111764","wem/bandit_single","A1FV7GRQF2O7LY","pain","1","","72","H","0","img/none_selected.jpg","0","1","0","","0.4522744543","false","63","","0.4522744543","main_expt","","0.04669584184","","0.1241823521","","0.3366911892","","","","","",""
"69","","bandit","139","461160","0.0-101.0-0.0","82111764","wem/bandit_single","A1FV7GRQF2O7LY","pain","1","","72","H","0","img/none_selected.jpg","0","0","1","","0.4534383651","false","64","","0.4534383651","main_expt","","0.04699929359","","0.1277445844","","0.352845708","","","","","",""
"81","","bandit","140","463001","0.0-102.0-0.0","82111764","wem/bandit_single","A1FV7GRQF2O7LY","pain","1","","72","H","0","img/none_selected.jpg","0","1","0","","0.4578128414","false","65","","0.4578128414","main_expt","","0.06422912444","","0.1594820305","","0.3797865956","","","","","",""
"663","","bandit","141","465421","0.0-103.0-0.0","82111764","wem/bandit_single","A1FV7GRQF2O7LY","pain","1","","72","H","0","img/none_selected.jpg","0","1","0","","0.4675149648","false","66","","0.4675149648","main_expt","","0.09107067683","","0.1902728197","","0.3776123686","","","","","",""
"37","","bandit","142","467214","0.0-104.0-0.0","82111764","wem/bandit_single","A1FV7GRQF2O7LY","pain","1","","72","H","0","img/none_selected.jpg","0","1","0","","0.4801185054","false","67","","0.4801185054","main_expt","","0.1295134299","","0.1915604568","","0.3520302909","","","","","",""
"17","","bandit","143","468989","0.0-105.0-0.0","82111764","wem/bandit_single","A1FV7GRQF2O7LY","pain","1","","72","H","0","img/none_selected.jpg","0","0","1","","0.4853911876","false","68","","0.4853911876","main_expt","","0.1501953896","","0.2292904293","","0.3563070861","","","","","",""
"53","","bandit","144","470798","0.0-106.0-0.0","82111764","wem/bandit_single","A1FV7GRQF2O7LY","pain","1","","72","H","0","img/none_selected.jpg","0","0","1","","0.45952887","false","69","","0.45952887","main_expt","","0.2120393587","","0.2982444272","","0.3773129781","","","","","",""
"14","","bandit","145","472569","0.0-107.0-0.0","82111764","wem/bandit_single","A1FV7GRQF2O7LY","pain","1","","72","H","0","img/none_selected.jpg","0","0","1","","0.4519788387","false","70","","0.4519788387","main_expt","","0.2046372205","","0.2038928517","","0.3620092878","","","","","",""
"156","","bandit","146","474483","0.0-108.0-0.0","82111764","wem/bandit_single","A1FV7GRQF2O7LY","pain","1","","72","H","0","img/none_selected.jpg","0","0","1","","0.4644284496","false","71","","0.4644284496","main_expt","","0.1711657315","","0.2470144531","","0.3689610789","","","","","",""
"6","","bandit","147","476265","0.0-109.0-0.0","82111764","wem/bandit_single","A1FV7GRQF2O7LY","pain","1","","74","J","1","","0","0","1","","0.1804367846","false","72","","0.4275080271","main_expt","","0.1804367846","","0.2339224101","","0.335535794","","","","","",""
"117","","bandit","148","478139","0.0-110.0-0.0","82111764","wem/bandit_single","A1FV7GRQF2O7LY","pain","1","","74","J","1","","0","0","1","","0.1582310148","false","73","","0.4333248441","main_expt","","0.1582310148","","0.198403553","","0.3669127126","","","","","",""
"160","","bandit","149","480057","0.0-111.0-0.0","82111764","wem/bandit_single","A1FV7GRQF2O7LY","pain","1","","75","K","2","","0","1","0","","0.2162510441","false","74","","0.4272577829","main_expt","","0.1300952354","","0.2162510441","","0.3360165716","","","","","",""
"87","","bandit","150","481902","0.0-112.0-0.0","82111764","wem/bandit_single","A1FV7GRQF2O7LY","pain","1","","75","K","2","","0","0","1","","0.2467290531","false","75","","0.353629049","main_expt","","0.1414689969","","0.2467290531","","0.3379177146","","","","","",""
"118","","bandit","151","483776","0.0-113.0-0.0","82111764","wem/bandit_single","A1FV7GRQF2O7LY","pain","1","","75","K","2","","0","0","1","","0.2199510863","false","76","","0.3526453175","main_expt","","0.1315789974","","0.2199510863","","0.3489784935","","","","","",""
"33","","bandit","152","485567","0.0-114.0-0.0","82111764","wem/bandit_single","A1FV7GRQF2O7LY","pain","1","","75","K","2","","0","0","1","","0.1600424727","false","77","","0.397337216","main_expt","","0.1054244057","","0.1600424727","","0.2843927136","","","","","",""
"438","","bandit","153","487762","0.0-115.0-0.0","82111764","wem/bandit_single","A1FV7GRQF2O7LY","pain","1","","76","L","3","","0","0","1","","0.2585585406","false","78","","0.3747850168","main_expt","","0.1028875903","","0.1366877547","","0.2585585406","","","","","",""
"59","","bandit","154","489629","0.0-116.0-0.0","82111764","wem/bandit_single","A1FV7GRQF2O7LY","pain","1","","76","L","3","","0","1","0","","0.2211992803","false","79","","0.3500135026","main_expt","","0.1010795136","","0.1608027171","","0.2211992803","","","","","",""
"52","","bandit","155","491439","0.0-117.0-0.0","82111764","wem/bandit_single","A1FV7GRQF2O7LY","pain","1","","76","L","3","","0","0","1","","0.1670678668","false","80","","0.3362224365","main_expt","","0.09661145037","","0.2004121585","","0.1670678668","","","","","",""
"41","","bandit","156","493237","0.0-118.0-0.0","82111764","wem/bandit_single","A1FV7GRQF2O7LY","pain","1","","76","L","3","","0","0","1","","0.1536487801","false","81","","0.3626400229","main_expt","","0.06079528701","","0.2100463009","","0.1536487801","","","","","",""
"593","","bandit","157","495586","0.0-119.0-0.0","82111764","wem/bandit_single","A1FV7GRQF2O7LY","pain","1","","76","L","3","","0","1","0","","0.164055667","false","82","","0.3433004166","main_expt","","0.0561923849","","0.2313995655","","0.164055667","","","","","",""
"158","","bandit","158","497503","0.0-120.0-0.0","82111764","wem/bandit_single","A1FV7GRQF2O7LY","pain","1","","76","L","3","","0","0","1","","0.1795096781","false","83","","0.3564809269","main_expt","","0.05471979201","","0.1805974068","","0.1795096781","","","","","",""
"632","","bandit","159","499895","0.0-121.0-0.0","82111764","wem/bandit_single","A1FV7GRQF2O7LY","pain","1","","76","L","3","","0","1","0","","0.1568762326","false","84","","0.3403656385","main_expt","","0.04961315052","","0.1351257884","","0.1568762326","","","","","",""
"31","","bandit","160","501684","0.0-122.0-0.0","82111764","wem/bandit_single","A1FV7GRQF2O7LY","pain","1","","76","L","3","","0","0","1","","0.1857208284","false","85","","0.3009252634","main_expt","","0.05195310968","","0.1372280885","","0.1857208284","","","","","",""
"97","","bandit","161","503541","0.0-123.0-0.0","82111764","wem/bandit_single","A1FV7GRQF2O7LY","pain","1","","76","L","3","","0","0","1","","0.2180329602","false","86","","0.3067316121","main_expt","","0.05385113756","","0.1685840628","","0.2180329602","","","","","",""
"120","","bandit","162","505419","0.0-124.0-0.0","82111764","wem/bandit_single","A1FV7GRQF2O7LY","pain","1","","76","L","3","","0","0","1","","0.1893737279","false","87","","0.3073916088","main_expt","","0.08202519069","","0.1654340797","","0.1893737279","","","","","",""
"305","","bandit","163","507481","0.0-125.0-0.0","82111764","wem/bandit_single","A1FV7GRQF2O7LY","pain","1","","76","L","3","","0","0","1","","0.2309201776","false","88","","0.301504441","main_expt","","0.04873944257","","0.1870328522","","0.2309201776","","","","","",""
"111","","bandit","164","509350","0.0-126.0-0.0","82111764","wem/bandit_single","A1FV7GRQF2O7LY","pain","1","","75","K","2","","0","0","1","","0.1786415591","false","89","","0.3324072184","main_expt","","0.05553778571","","0.1786415591","","0.2368651839","","","","","",""
"68","","bandit","165","511178","0.0-127.0-0.0","82111764","wem/bandit_single","A1FV7GRQF2O7LY","pain","1","","75","K","2","","0","1","0","","0.2293974223","false","90","","0.3245139686","main_expt","","0.04980790846","","0.2293974223","","0.2459093935","","","","","",""
"110","","bandit","166","513048","0.0-128.0-0.0","82111764","wem/bandit_single","A1FV7GRQF2O7LY","pain","1","","75","K","2","","0","0","1","","0.2407797963","false","91","","0.3310751299","main_expt","","0.05804880768","","0.2407797963","","0.2371609774","","","","","",""
"146","","bandit","167","514952","0.0-129.0-0.0","82111764","wem/bandit_single","A1FV7GRQF2O7LY","pain","1","","75","K","2","","0","0","1","","0.2337544695","false","92","","0.3717444616","main_expt","","0.0614883172","","0.2337544695","","0.260478489","","","","","",""
"82","","bandit","168","516791","0.0-130.0-0.0","82111764","wem/bandit_single","A1FV7GRQF2O7LY","pain","1","","75","K","2","","0","0","1","","0.2589688886","false","93","","0.3846532122","main_expt","","0.0764333552","","0.2589688886","","0.2595992258","","","","","",""
"114","","bandit","169","518664","0.0-131.0-0.0","82111764","wem/bandit_single","A1FV7GRQF2O7LY","pain","1","","74","J","1","","0","0","1","","0.1280824273","false","94","","0.4017211595","main_expt","","0.1280824273","","0.2699529923","","0.206568391","","","","","",""
"80","","bandit","170","520504","0.0-132.0-0.0","82111764","wem/bandit_single","A1FV7GRQF2O7LY","pain","1","","74","J","1","","0","0","1","","0.1191245721","false","95","","0.3736639641","main_expt","","0.1191245721","","0.2626559999","","0.1846794781","","","","","",""
"325","","bandit","171","522590","0.0-133.0-0.0","82111764","wem/bandit_single","A1FV7GRQF2O7LY","pain","1","","72","H","0","img/none_selected.jpg","0","1","0","","0.3220453652","false","96","","0.3220453652","main_expt","","0.08526153109","","0.2196428224","","0.2484851932","","","","","",""
"155","","bandit","172","524504","0.0-134.0-0.0","82111764","wem/bandit_single","A1FV7GRQF2O7LY","pain","1","","72","H","0","img/none_selected.jpg","0","1","0","","0.2964534367","false","97","","0.2964534367","main_expt","","0.0775518538","","0.1922289922","","0.198145661","","","","","",""
"113","","bandit","173","526376","0.0-135.0-0.0","82111764","wem/bandit_single","A1FV7GRQF2O7LY","pain","1","","72","H","0","img/none_selected.jpg","0","0","1","","0.3388366936","false","98","","0.3388366936","main_expt","","0.08824897118","","0.2328023708","","0.1738253929","","","","","",""
"141","","bandit","174","528276","0.0-136.0-0.0","82111764","wem/bandit_single","A1FV7GRQF2O7LY","pain","1","","72","H","0","img/none_selected.jpg","0","1","0","","0.4233536788","false","99","","0.4233536788","main_expt","","0.08912321317","","0.2606341713","","0.1261523865","","","","","",""
"171","","bandit","175","530205","0.0-137.0-0.0","82111764","wem/bandit_single","A1FV7GRQF2O7LY","pain","1","","72","H","0","img/none_selected.jpg","0","1","0","","0.3799029244","false","100","","0.3799029244","main_expt","","0.1217067293","","0.310387162","","0.1368684177","","","","","",""
"139","","bandit","176","532102","0.0-138.0-0.0","82111764","wem/bandit_single","A1FV7GRQF2O7LY","pain","1","","72","H","0","img/none_selected.jpg","0","0","1","","0.3644029447","false","101","","0.3644029447","main_expt","","0.08537200695","","0.3802628165","","0.1262970555","","","","","",""
"133","","bandit","177","533993","0.0-139.0-0.0","82111764","wem/bandit_single","A1FV7GRQF2O7LY","pain","1","","72","H","0","img/none_selected.jpg","0","1","0","","0.3414838768","false","102","","0.3414838768","main_expt","","0.09606980913","","0.4133848668","","0.1022564356","","","","","",""
"145","","bandit","178","535896","0.0-140.0-0.0","82111764","wem/bandit_single","A1FV7GRQF2O7LY","pain","1","","72","H","0","img/none_selected.jpg","0","0","1","","0.3691073091","false","103","","0.3691073091","main_expt","","0.09968925047","","0.4352089555","","0.07046703442","","","","","",""
"62","","bandit","179","537718","0.0-141.0-0.0","82111764","wem/bandit_single","A1FV7GRQF2O7LY","pain","1","","72","H","0","img/none_selected.jpg","0","0","1","","0.3386210986","false","104","","0.3386210986","main_expt","","0.1070137741","","0.4248252031","","0.08582175226","","","","","",""
"27","","bandit","180","539504","0.0-142.0-0.0","82111764","wem/bandit_single","A1FV7GRQF2O7LY","pain","1","","72","H","0","img/none_selected.jpg","0","0","1","","0.3517858304","false","105","","0.3517858304","main_expt","","0.1086060941","","0.4382512542","","0.08910626196","","","","","",""
"110","","bandit","181","541375","0.0-143.0-0.0","82111764","wem/bandit_single","A1FV7GRQF2O7LY","pain","1","","72","H","0","img/none_selected.jpg","0","0","1","","0.4016578568","false","106","","0.4016578568","main_expt","","0.1006724549","","0.4551412652","","0.09380004764","","","","","",""
"37","","bandit","182","543200","0.0-144.0-0.0","82111764","wem/bandit_single","A1FV7GRQF2O7LY","pain","1","","72","H","0","img/none_selected.jpg","0","1","0","","0.3951748439","false","107","","0.3951748439","main_expt","","0.07769839914","","0.4481373055","","0.08916311959","","","","","",""
"203","","bandit","183","545162","0.0-145.0-0.0","82111764","wem/bandit_single","A1FV7GRQF2O7LY","pain","1","","72","H","0","img/none_selected.jpg","0","0","1","","0.3933810371","false","108","","0.3933810371","main_expt","","0.09470950607","","0.4611843773","","0.1635033392","","","","","",""
"259","","bandit","184","547181","0.0-146.0-0.0","82111764","wem/bandit_single","A1FV7GRQF2O7LY","pain","1","","72","H","0","img/none_selected.jpg","0","1","0","","0.3961603237","false","109","","0.3961603237","main_expt","","0.1117426234","","0.416280782","","0.1923408453","","","","","",""
"776","","bandit","185","549716","0.0-147.0-0.0","82111764","wem/bandit_single","A1FV7GRQF2O7LY","pain","1","","72","H","0","img/none_selected.jpg","0","0","1","","0.3933476799","false","110","","0.3933476799","main_expt","","0.1190643529","","0.3959176693","","0.1668397223","","","","","",""
"993","","bandit","186","552522","0.0-148.0-0.0","82111764","wem/bandit_single","A1FV7GRQF2O7LY","pain","1","","72","H","0","img/none_selected.jpg","0","0","1","","0.3953313537","false","111","","0.3953313537","main_expt","","0.1605091549","","0.3881072513","","0.1254506171","","","","","",""
"72","","bandit","187","554351","0.0-149.0-0.0","82111764","wem/bandit_single","A1FV7GRQF2O7LY","pain","1","","72","H","0","img/none_selected.jpg","0","0","1","","0.3398422341","false","112","","0.3398422341","main_expt","","0.1531505469","","0.3430735849","","0.1596839241","","","","","",""
"99","","bandit","188","556208","0.0-150.0-0.0","82111764","wem/bandit_single","A1FV7GRQF2O7LY","pain","1","","72","H","0","img/none_selected.jpg","0","0","1","","0.375538402","false","113","","0.375538402","main_expt","","0.1796188848","","0.3036143476","","0.1986187203","","","","","",""
"569","","bandit","189","558535","0.0-151.0-0.0","82111764","wem/bandit_single","A1FV7GRQF2O7LY","pain","1","","74","J","1","","0","0","1","","0.1820080726","false","114","","0.3629483147","main_expt","","0.1820080726","","0.3581708668","","0.2334514198","","","","","",""
"73","","bandit","190","560367","0.0-152.0-0.0","82111764","wem/bandit_single","A1FV7GRQF2O7LY","pain","1","","74","J","1","","0","0","1","","0.2050936175","false","115","","0.2969550108","main_expt","","0.2050936175","","0.2948471219","","0.1892672839","","","","","",""
"115","","bandit","191","562239","0.0-153.0-0.0","82111764","wem/bandit_single","A1FV7GRQF2O7LY","pain","1","","76","L","3","","0","1","0","","0.1507180646","false","116","","0.260261953","main_expt","","0.2071503316","","0.2711132382","","0.1507180646","","","","","",""
"74","","bandit","192","564102","0.0-154.0-0.0","82111764","wem/bandit_single","A1FV7GRQF2O7LY","pain","1","","76","L","3","","0","0","1","","0.1830546279","false","117","","0.2626326191","main_expt","","0.2359882763","","0.3124997295","","0.1830546279","","","","","",""
"88","","bandit","193","565988","0.0-155.0-0.0","82111764","wem/bandit_single","A1FV7GRQF2O7LY","pain","1","","76","L","3","","0","0","1","","0.1415506149","false","118","","0.2933310536","main_expt","","0.2388261631","","0.3888019654","","0.1415506149","","","","","",""
"70","","bandit","194","567847","0.0-156.0-0.0","82111764","wem/bandit_single","A1FV7GRQF2O7LY","pain","1","","76","L","3","","0","1","0","","0.1814909568","false","119","","0.2469992957","main_expt","","0.2470137322","","0.3695751837","","0.1814909568","","","","","",""
"123","","bandit","195","569727","0.0-157.0-0.0","82111764","wem/bandit_single","A1FV7GRQF2O7LY","pain","1","","76","L","3","","0","0","1","","0.1900691043","false","120","","0.2186909282","main_expt","","0.209676098","","0.3471196364","","0.1900691043","","","","","",""
"421","","bandit","196","571942","0.0-158.0-0.0","82111764","wem/bandit_single","A1FV7GRQF2O7LY","pain","1","","76","L","3","","0","0","1","","0.2002257321","false","121","","0.1915374776","main_expt","","0.2058519679","","0.3164400491","","0.2002257321","","","","","",""
"75","","bandit","197","573775","0.0-159.0-0.0","82111764","wem/bandit_single","A1FV7GRQF2O7LY","pain","1","","76","L","3","","0","0","1","","0.2000360786","false","122","","0.1666700693","main_expt","","0.1409467191","","0.3565888941","","0.2000360786","","","","","",""
"124","","bandit","198","575659","0.0-160.0-0.0","82111764","wem/bandit_single","A1FV7GRQF2O7LY","pain","1","","72","H","0","img/none_selected.jpg","0","0","1","","0.1779758636","false","123","","0.1779758636","main_expt","","0.08785727187","","0.3293983066","","0.1656706666","","","","","",""
"82","","bandit","199","577499","0.0-161.0-0.0","82111764","wem/bandit_single","A1FV7GRQF2O7LY","pain","1","","72","H","0","img/none_selected.jpg","0","0","1","","0.2483730269","false","124","","0.2483730269","main_expt","","0.1153756664","","0.3202360925","","0.2433115295","","","","","",""
"155","","bandit","200","579414","0.0-162.0-0.0","82111764","wem/bandit_single","A1FV7GRQF2O7LY","pain","1","","74","J","1","","0","0","1","","0.1211147435","false","125","","0.2274485556","main_expt","","0.1211147435","","0.3478690395","","0.1810024247","","","","","",""
"99","","bandit","201","581270","0.0-163.0-0.0","82111764","wem/bandit_single","A1FV7GRQF2O7LY","pain","1","","74","J","1","","0","0","1","","0.1434737457","false","126","","0.2506805994","main_expt","","0.1434737457","","0.3312811416","","0.2138299762","","","","","",""
"116","","bandit","202","583143","0.0-164.0-0.0","82111764","wem/bandit_single","A1FV7GRQF2O7LY","pain","1","","75","K","2","","0","0","1","","0.2641060438","false","127","","0.2520497492","main_expt","","0.1970801631","","0.2641060438","","0.1993304114","","","","","",""
"101","","bandit","203","585003","0.0-165.0-0.0","82111764","wem/bandit_single","A1FV7GRQF2O7LY","pain","1","","75","K","2","","0","1","0","","0.2239657692","false","128","","0.1948091286","main_expt","","0.2891253811","","0.2239657692","","0.2602773644","","","","","",""
"69","","bandit","204","586833","0.0-166.0-0.0","82111764","wem/bandit_single","A1FV7GRQF2O7LY","pain","1","","75","K","2","","0","1","0","","0.2243581634","false","129","","0.1749799719","main_expt","","0.2389970352","","0.2243581634","","0.2960784606","","","","","",""
"59","","bandit","205","588650","0.0-167.0-0.0","82111764","wem/bandit_single","A1FV7GRQF2O7LY","pain","1","","75","K","2","","0","0","1","","0.2215765871","false","130","","0.1950546205","main_expt","","0.2613596901","","0.2215765871","","0.2720271615","","","","","",""
"42","","bandit","206","590451","0.0-168.0-0.0","82111764","wem/bandit_single","A1FV7GRQF2O7LY","pain","1","","75","K","2","","0","0","1","","0.1796651873","false","131","","0.2501377387","main_expt","","0.2254289723","","0.1796651873","","0.2403459828","","","","","",""
"49","","bandit","207","592260","0.0-169.0-0.0","82111764","wem/bandit_single","A1FV7GRQF2O7LY","pain","1","","75","K","2","","0","0","1","","0.1946412172","false","132","","0.2275015869","main_expt","","0.2759434303","","0.1946412172","","0.2261584059","","","","","",""
"17","","bandit","208","594037","0.0-170.0-0.0","82111764","wem/bandit_single","A1FV7GRQF2O7LY","pain","1","","76","L","3","","0","0","1","","0.225512635","false","133","","0.1961271051","main_expt","","0.3153186182","","0.2390261597","","0.225512635","","","","","",""
"39","","bandit","209","595835","0.0-171.0-0.0","82111764","wem/bandit_single","A1FV7GRQF2O7LY","pain","1","","76","L","3","","0","0","1","","0.2119287539","false","134","","0.2508816485","main_expt","","0.2950667763","","0.227958871","","0.2119287539","","","","","",""
"96","","bandit","210","597689","0.0-172.0-0.0","82111764","wem/bandit_single","A1FV7GRQF2O7LY","pain","1","","72","H","0","img/none_selected.jpg","0","1","0","","0.3394706536","false","135","","0.3394706536","main_expt","","0.3307223606","","0.2312014448","","0.1980603764","","","","","",""
"269","","bandit","211","599717","0.0-173.0-0.0","82111764","wem/bandit_single","A1FV7GRQF2O7LY","pain","1","","72","H","0","img/none_selected.jpg","0","0","1","","0.2837829406","false","136","","0.2837829406","main_expt","","0.3298223854","","0.27599984","","0.2325476757","","","","","",""
"95","","bandit","212","601573","0.0-174.0-0.0","82111764","wem/bandit_single","A1FV7GRQF2O7LY","pain","1","","72","H","0","img/none_selected.jpg","0","0","1","","0.3024244849","false","137","","0.3024244849","main_expt","","0.3330531331","","0.2313694212","","0.2334264213","","","","","",""
"103","","bandit","213","603434","0.0-175.0-0.0","82111764","wem/bandit_single","A1FV7GRQF2O7LY","pain","1","","72","H","0","img/none_selected.jpg","0","0","1","","0.3473265679","false","138","","0.3473265679","main_expt","","0.292929501","","0.1816115857","","0.3107735177","","","","","",""
"160","","bandit","214","605353","0.0-176.0-0.0","82111764","wem/bandit_single","A1FV7GRQF2O7LY","pain","1","","75","K","2","","0","0","1","","0.1658496667","false","139","","0.2828336224","main_expt","","0.2849421758","","0.1658496667","","0.3374098654","","","","","",""
"62","","bandit","215","607174","0.0-177.0-0.0","82111764","wem/bandit_single","A1FV7GRQF2O7LY","pain","1","","75","K","2","","0","0","1","","0.1644365985","false","140","","0.3238397914","main_expt","","0.3149573531","","0.1644365985","","0.3401298673","","","","","",""
"77","","bandit","216","609010","0.0-178.0-0.0","82111764","wem/bandit_single","A1FV7GRQF2O7LY","pain","1","","76","L","3","","0","0","1","","0.363539884","false","141","","0.3490905252","main_expt","","0.2937847178","","0.16055167","","0.363539884","","","","","",""
"44","","bandit","217","610815","0.0-179.0-0.0","82111764","wem/bandit_single","A1FV7GRQF2O7LY","pain","1","","76","L","3","","0","1","0","","0.3207651517","false","142","","0.337853111","main_expt","","0.2695919138","","0.1426499966","","0.3207651517","","","","","",""
"64","","bandit","218","612638","0.0-180.0-0.0","82111764","wem/bandit_single","A1FV7GRQF2O7LY","pain","1","","76","L","3","","0","0","1","","0.2976941359","false","143","","0.3475703167","main_expt","","0.206179854","","0.1133276474","","0.2976941359","","","","","",""
"11","","bandit","219","614407","0.0-181.0-0.0","82111764","wem/bandit_single","A1FV7GRQF2O7LY","pain","1","","76","L","3","","0","0","1","","0.2405576463","false","144","","0.3809945211","main_expt","","0.2123329462","","0.1351054788","","0.2405576463","","","","","",""
"54","","bandit","220","616220","0.0-182.0-0.0","82111764","wem/bandit_single","A1FV7GRQF2O7LY","pain","1","","76","L","3","","0","0","1","","0.2513929943","false","145","","0.3842622547","main_expt","","0.2144195617","","0.1703546958","","0.2513929943","","","","","",""
"197","","bandit","221","618176","0.0-183.0-0.0","82111764","wem/bandit_single","A1FV7GRQF2O7LY","pain","1","","74","J","1","","0","0","1","","0.2264269311","false","146","","0.4068715463","main_expt","","0.2264269311","","0.1382352341","","0.2665850657","","","","","",""
"91","","bandit","222","620026","0.0-184.0-0.0","82111764","wem/bandit_single","A1FV7GRQF2O7LY","pain","1","","74","J","1","","0","0","1","","0.2458089499","false","147","","0.3690267696","main_expt","","0.2458089499","","0.1111211324","","0.2742171136","","","","","",""
"190","","bandit","223","621976","0.0-185.0-0.0","82111764","wem/bandit_single","A1FV7GRQF2O7LY","pain","1","","72","H","0","img/none_selected.jpg","0","1","0","","0.3999465919","false","148","","0.3999465919","main_expt","","0.2581131455","","0.1046256567","","0.2504516377","","","","","",""
"105","","bandit","224","623841","0.0-186.0-0.0","82111764","wem/bandit_single","A1FV7GRQF2O7LY","pain","1","","72","H","0","img/none_selected.jpg","0","0","1","","0.3823047489","false","149","","0.3823047489","main_expt","","0.2055420423","","0.09450025474","","0.2749888299","","","","","",""
"114","","bandit","225","625714","0.0-187.0-0.0","82111764","wem/bandit_single","A1FV7GRQF2O7LY","pain","1","","72","H","0","img/none_selected.jpg","0","1","0","","0.3970301866","false","150","","0.3970301866","main_expt","","0.2196547661","","0.08682851814","","0.2199302859","","","","","",""
"65","","bandit","226","627540","0.0-188.0-0.0","82111764","wem/bandit_single","A1FV7GRQF2O7LY","pain","1","","72","H","0","img/none_selected.jpg","0","1","0","","0.4141828336","false","151","","0.4141828336","main_expt","","0.2311854424","","0.0775356828","","0.228921305","","","","","",""
"108","","bandit","227","629406","0.0-189.0-0.0","82111764","wem/bandit_single","A1FV7GRQF2O7LY","pain","1","","72","H","0","img/none_selected.jpg","0","0","1","","0.4233092002","false","152","","0.4233092002","main_expt","","0.2692750042","","0.08719832593","","0.1858313389","","","","","",""
"60","","bandit","228","631247","0.0-190.0-0.0","82111764","wem/bandit_single","A1FV7GRQF2O7LY","pain","1","","72","H","0","img/none_selected.jpg","0","0","1","","0.3961827626","false","153","","0.3961827626","main_expt","","0.3209664266","","0.06950392785","","0.2253380596","","","","","",""
"56","","bandit","229","633063","0.0-191.0-0.0","82111764","wem/bandit_single","A1FV7GRQF2O7LY","pain","1","","72","H","0","img/none_selected.jpg","0","0","1","","0.4023640633","false","154","","0.4023640633","main_expt","","0.2633096479","","0.09734883616","","0.1787374968","","","","","",""
"73","","bandit","230","634911","0.0-192.0-0.0","82111764","wem/bandit_single","A1FV7GRQF2O7LY","pain","1","","76","L","3","","0","0","1","","0.1026625787","false","155","","0.3927422998","main_expt","","0.2611493198","","0.1078867986","","0.1026625787","","","","","",""
"12","","bandit","231","636683","0.0-193.0-0.0","82111764","wem/bandit_single","A1FV7GRQF2O7LY","pain","1","","76","L","3","","0","0","1","","0.1201393653","false","156","","0.3696188161","main_expt","","0.2556392324","","0.09294383108","","0.1201393653","","","","","",""
"67","","bandit","232","638508","0.0-194.0-0.0","82111764","wem/bandit_single","A1FV7GRQF2O7LY","pain","1","","75","K","2","","0","0","1","","0.1344904143","false","157","","0.3562863837","main_expt","","0.2237912435","","0.1344904143","","0.1601810659","","","","","",""
"93","","bandit","233","640360","0.0-195.0-0.0","82111764","wem/bandit_single","A1FV7GRQF2O7LY","pain","1","","75","K","2","","0","0","1","","0.1682501471","false","158","","0.3891013447","main_expt","","0.2269937079","","0.1682501471","","0.2178666355","","","","","",""
"188","","bandit","234","642308","0.0-196.0-0.0","82111764","wem/bandit_single","A1FV7GRQF2O7LY","pain","1","","74","J","1","","0","0","1","","0.2244600926","false","159","","0.3771509201","main_expt","","0.2244600926","","0.1859978291","","0.2088119712","","","","","",""
"53","","bandit","235","644120","0.0-197.0-0.0","82111764","wem/bandit_single","A1FV7GRQF2O7LY","pain","1","","74","J","1","","0","0","1","","0.231654425","false","160","","0.3677966378","main_expt","","0.231654425","","0.1169857497","","0.2853399033","","","","","",""
"98","","bandit","236","645978","0.0-198.0-0.0","82111764","wem/bandit_single","A1FV7GRQF2O7LY","pain","1","","74","J","1","","0","0","1","","0.2415747561","false","161","","0.3691576932","main_expt","","0.2415747561","","0.1131976547","","0.2755093387","","","","","",""
"109","","bandit","237","647846","0.0-199.0-0.0","82111764","wem/bandit_single","A1FV7GRQF2O7LY","pain","1","","75","K","2","","0","1","0","","0.1560378341","false","162","","0.3102253273","main_expt","","0.1807921844","","0.1560378341","","0.2706635439","","","","","",""
"83","","bandit","238","649687","0.0-200.0-0.0","82111764","wem/bandit_single","A1FV7GRQF2O7LY","pain","1","","75","K","2","","0","0","1","","0.1200759877","false","163","","0.3361037566","main_expt","","0.1986212186","","0.1200759877","","0.2856851073","","","","","",""
"55","","bandit","239","651503","0.0-201.0-0.0","82111764","wem/bandit_single","A1FV7GRQF2O7LY","pain","1","","75","K","2","","0","0","1","","0.1198838954","false","164","","0.3097300036","main_expt","","0.1799022971","","0.1198838954","","0.3188827228","","","","","",""
"23","","bandit","240","653288","0.0-202.0-0.0","82111764","wem/bandit_single","A1FV7GRQF2O7LY","pain","1","","75","K","2","","0","0","1","","0.1397308529","false","165","","0.3234169084","main_expt","","0.2610149466","","0.1397308529","","0.3258940933","","","","","",""
"94","","bandit","241","655140","0.0-203.0-0.0","82111764","wem/bandit_single","A1FV7GRQF2O7LY","pain","1","","76","L","3","","0","0","1","","0.3525092479","false","166","","0.3201458278","main_expt","","0.2673729835","","0.1506282743","","0.3525092479","","","","","",""
"16","","bandit","242","656915","0.0-204.0-0.0","82111764","wem/bandit_single","A1FV7GRQF2O7LY","pain","1","","72","H","0","img/none_selected.jpg","0","0","1","","0.366643239","false","167","","0.366643239","main_expt","","0.169486101","","0.1407574557","","0.3919017073","","","","","",""
"97","","bandit","243","658772","0.0-205.0-0.0","82111764","wem/bandit_single","A1FV7GRQF2O7LY","pain","1","","72","H","0","img/none_selected.jpg","0","1","0","","0.3877512758","false","168","","0.3877512758","main_expt","","0.1997030364","","0.1217255528","","0.3855955566","","","","","",""
"102","","bandit","244","660638","0.0-206.0-0.0","82111764","wem/bandit_single","A1FV7GRQF2O7LY","pain","1","","72","H","0","img/none_selected.jpg","0","0","1","","0.3733196812","false","169","","0.3733196812","main_expt","","0.2391799942","","0.118108524","","0.3882436634","","","","","",""
"206","","bandit","245","662605","0.0-207.0-0.0","82111764","wem/bandit_single","A1FV7GRQF2O7LY","pain","1","","72","H","0","img/none_selected.jpg","0","1","0","","0.3616719183","false","170","","0.3616719183","main_expt","","0.2239577552","","0.0750780909","","0.4096789578","","","","","",""
"842","","bandit","246","665265","0.0-208.0-0.0","82111764","wem/bandit_single","A1FV7GRQF2O7LY","pain","1","","72","H","0","img/none_selected.jpg","0","1","0","","0.3222484871","false","171","","0.3222484871","main_expt","","0.2175962327","","0.07048665386","","0.4326257363","","","","","",""
"384","","bandit","247","667409","0.0-209.0-0.0","82111764","wem/bandit_single","A1FV7GRQF2O7LY","pain","1","","72","H","0","img/none_selected.jpg","0","0","1","","0.2849842628","false","172","","0.2849842628","main_expt","","0.2061205584","","0.09439478605","","0.4381189537","","","","","",""
"83","","bandit","248","669250","0.0-210.0-0.0","82111764","wem/bandit_single","A1FV7GRQF2O7LY","pain","1","","72","H","0","img/none_selected.jpg","0","0","1","","0.2896949147","false","173","","0.2896949147","main_expt","","0.1787022686","","0.05932603211","","0.3823577146","","","","","",""
"31","","bandit","249","671040","0.0-211.0-0.0","82111764","wem/bandit_single","A1FV7GRQF2O7LY","pain","1","","76","L","3","","0","0","1","","0.4155511425","false","174","","0.260829927","main_expt","","0.1782801474","","0.1019229976","","0.4155511425","","","","","",""
"439","","bandit","250","673297","0.0-212.0-0.0","82111764","wem/bandit_single","A1FV7GRQF2O7LY","pain","1","","76","L","3","","0","1","0","","0.4391025654","false","175","","0.1608433896","main_expt","","0.1723114597","","0.1270031357","","0.4391025654","","","","","",""
"133","","bandit","251","675192","0.0-213.0-0.0","82111764","wem/bandit_single","A1FV7GRQF2O7LY","pain","1","","76","L","3","","0","0","1","","0.4654332747","false","176","","0.1924323662","main_expt","","0.1714247165","","0.1519507126","","0.4654332747","","","","","",""
"750","","bandit","252","677700","0.0-214.0-0.0","82111764","wem/bandit_single","A1FV7GRQF2O7LY","pain","1","","76","L","3","","0","0","1","","0.4862166952","false","177","","0.1942299772","main_expt","","0.2003569552","","0.2645819263","","0.4862166952","","","","","",""
"103","","bandit","253","679564","0.0-215.0-0.0","82111764","wem/bandit_single","A1FV7GRQF2O7LY","pain","1","","76","L","3","","0","0","1","","0.4878504479","false","178","","0.2266891382","main_expt","","0.1848954505","","0.2497033982","","0.4878504479","","","","","",""
"114","","bandit","254","681440","0.0-216.0-0.0","82111764","wem/bandit_single","A1FV7GRQF2O7LY","pain","1","","72","H","0","img/none_selected.jpg","0","0","1","","0.193755509","false","179","","0.193755509","main_expt","","0.120488448","","0.2464833147","","0.4925433574","","","","","",""
"88","","bandit","255","683303","0.0-217.0-0.0","82111764","wem/bandit_single","A1FV7GRQF2O7LY","pain","1","","72","H","0","img/none_selected.jpg","0","0","1","","0.2143300014","false","180","","0.2143300014","main_expt","","0.09518531587","","0.191435525","","0.4863546804","","","","","",""
"59","","bandit","256","685119","0.0-218.0-0.0","82111764","wem/bandit_single","A1FV7GRQF2O7LY","pain","1","","75","K","2","","0","1","0","","0.2095150634","false","181","","0.1996101457","main_expt","","0.1110105533","","0.2095150634","","0.4898831258","","","","","",""
"98","","bandit","257","687022","0.0-219.0-0.0","82111764","wem/bandit_single","A1FV7GRQF2O7LY","pain","1","","75","K","2","","0","0","1","","0.2238619417","false","182","","0.220362663","main_expt","","0.1321710188","","0.2238619417","","0.4702328405","","","","","",""
"100","","bandit","258","688881","0.0-220.0-0.0","82111764","wem/bandit_single","A1FV7GRQF2O7LY","pain","1","","75","K","2","","0","0","1","","0.172430875","false","183","","0.2087999581","main_expt","","0.07205074818","","0.172430875","","0.4443650637","","","","","",""
"87","","bandit","259","690726","0.0-221.0-0.0","82111764","wem/bandit_single","A1FV7GRQF2O7LY","pain","1","","75","K","2","","0","0","1","","0.1537152065","false","184","","0.2693368533","main_expt","","0.08140980564","","0.1537152065","","0.4395551327","","","","","",""
"236","","bandit","260","692722","0.0-222.0-0.0","82111764","wem/bandit_single","A1FV7GRQF2O7LY","pain","1","","72","H","0","img/none_selected.jpg","0","0","1","","0.3177788722","false","185","","0.3177788722","main_expt","","0.07005875891","","0.1089078126","","0.427498872","","","","","",""
"58","","bandit","261","694539","0.0-223.0-0.0","82111764","wem/bandit_single","A1FV7GRQF2O7LY","pain","1","","72","H","0","img/none_selected.jpg","0","1","0","","0.3093747324","false","186","","0.3093747324","main_expt","","0.04712836877","","0.1150542287","","0.4126395781","","","","","",""
"164","","bandit","262","696463","0.0-224.0-0.0","82111764","wem/bandit_single","A1FV7GRQF2O7LY","pain","1","","72","H","0","img/none_selected.jpg","0","1","0","","0.3361469263","false","187","","0.3361469263","main_expt","","0.07097221374","","0.07877539194","","0.4059631444","","","","","",""
"69","","bandit","263","698292","0.0-225.0-0.0","82111764","wem/bandit_single","A1FV7GRQF2O7LY","pain","1","","72","H","0","img/none_selected.jpg","0","0","1","","0.3096611705","false","188","","0.3096611705","main_expt","","0.04255461481","","0.06234325246","","0.4007853126","","","","","",""
"129","","bandit","264","700181","0.0-226.0-0.0","82111764","wem/bandit_single","A1FV7GRQF2O7LY","pain","1","","72","H","0","img/none_selected.jpg","0","1","0","","0.298651231","false","189","","0.298651231","main_expt","","0.03834091028","","0.07748383332","","0.4208201059","","","","","",""
"80","","bandit","265","702020","0.0-227.0-0.0","82111764","wem/bandit_single","A1FV7GRQF2O7LY","pain","1","","72","H","0","img/none_selected.jpg","0","1","0","","0.3361123746","false","190","","0.3361123746","main_expt","","0.03101500858","","0.08864116925","","0.4249824956","","","","","",""
"62","","bandit","266","703842","0.0-228.0-0.0","82111764","wem/bandit_single","A1FV7GRQF2O7LY","pain","1","","72","H","0","img/none_selected.jpg","0","1","0","","0.3529126189","false","191","","0.3529126189","main_expt","","0.05137759752","","0.1114019665","","0.4519194686","","","","","",""
"88","","bandit","267","705689","0.0-229.0-0.0","82111764","wem/bandit_single","A1FV7GRQF2O7LY","pain","1","","72","H","0","img/none_selected.jpg","0","0","1","","0.3806900048","false","192","","0.3806900048","main_expt","","0.05101019331","","0.0944181321","","0.449072141","","","","","",""
"5","","bandit","268","707455","0.0-230.0-0.0","82111764","wem/bandit_single","A1FV7GRQF2O7LY","pain","1","","72","H","0","img/none_selected.jpg","0","1","0","","0.3191299148","false","193","","0.3191299148","main_expt","","0.0408087357","","0.09015445577","","0.4069092802","","","","","",""
"248","","bandit","269","709463","0.0-231.0-0.0","82111764","wem/bandit_single","A1FV7GRQF2O7LY","pain","1","","72","H","0","img/none_selected.jpg","0","0","1","","0.3350705725","false","194","","0.3350705725","main_expt","","0.04787233925","","0.09569888082","","0.399300076","","","","","",""
"98","","bandit","270","711322","0.0-232.0-0.0","82111764","wem/bandit_single","A1FV7GRQF2O7LY","pain","1","","72","H","0","img/none_selected.jpg","0","0","1","","0.3579412151","false","195","","0.3579412151","main_expt","","0.07297342555","","0.1521563302","","0.4028519225","","","","","",""
"529","","bandit","271","713611","0.0-233.0-0.0","82111764","wem/bandit_single","A1FV7GRQF2O7LY","pain","1","","76","L","3","","0","1","0","","0.3708283831","false","196","","0.4135102269","main_expt","","0.1090796252","","0.1612876033","","0.3708283831","","","","","",""
"101","","bandit","272","715472","0.0-234.0-0.0","82111764","wem/bandit_single","A1FV7GRQF2O7LY","pain","1","","76","L","3","","0","1","0","","0.3992028251","false","197","","0.4368922102","main_expt","","0.1141593934","","0.1818980103","","0.3992028251","","","","","",""
"12","","bandit","273","717246","0.0-235.0-0.0","82111764","wem/bandit_single","A1FV7GRQF2O7LY","pain","1","","76","L","3","","0","1","0","","0.3662313723","false","198","","0.4329908538","main_expt","","0.1247063377","","0.1426991491","","0.3662313723","","","","","",""
"111","","bandit","274","719118","0.0-236.0-0.0","82111764","wem/bandit_single","A1FV7GRQF2O7LY","pain","1","","76","L","3","","0","0","1","","0.3667285709","false","199","","0.4458308372","main_expt","","0.1324590526","","0.1339470975","","0.3667285709","","","","","",""
"74","","bandit","275","720951","0.0-237.0-0.0","82111764","wem/bandit_single","A1FV7GRQF2O7LY","pain","1","","76","L","3","","0","1","0","","0.365396467","false","200","","0.4535445428","main_expt","","0.1062358191","","0.1615481579","","0.365396467","","","","","",""
"30","","bandit","276","722742","0.0-238.0-0.0","82111764","wem/bandit_single","A1FV7GRQF2O7LY","pain","1","","76","L","3","","0","0","1","","0.3413602931","false","201","","0.4258040833","main_expt","","0.1027729413","","0.1889616495","","0.3413602931","","","","","",""
"46","","bandit","277","724592","0.0-239.0-0.0","82111764","wem/bandit_single","A1FV7GRQF2O7LY","pain","1","","76","L","3","","0","1","0","","0.3655369163","false","202","","0.413157784","main_expt","","0.09207086273","","0.2043886565","","0.3655369163","","","","","",""
"42","","bandit","278","726394","0.0-240.0-0.0","82111764","wem/bandit_single","A1FV7GRQF2O7LY","pain","1","","76","L","3","","0","1","0","","0.3301706169","false","203","","0.358983575","main_expt","","0.1409949376","","0.2274570119","","0.3301706169","","","","","",""
"18","","bandit","279","728174","0.0-241.0-0.0","82111764","wem/bandit_single","A1FV7GRQF2O7LY","pain","1","","76","L","3","","0","1","0","","0.3305557625","false","204","","0.3354839288","main_expt","","0.2067441942","","0.1795680912","","0.3305557625","","","","","",""
"517","","bandit","280","730450","0.0-242.0-0.0","82111764","wem/bandit_single","A1FV7GRQF2O7LY","pain","1","","76","L","3","","0","1","0","","0.3332543728","false","205","","0.3814446138","main_expt","","0.2171549514","","0.1823506393","","0.3332543728","","","","","",""
"108","","bandit","281","732320","0.0-243.0-0.0","82111764","wem/bandit_single","A1FV7GRQF2O7LY","pain","1","","76","L","3","","0","1","0","","0.270761893","false","206","","0.4069937863","main_expt","","0.1399251859","","0.1401809595","","0.270761893","","","","","",""
"241","","bandit","282","734322","0.0-244.0-0.0","82111764","wem/bandit_single","A1FV7GRQF2O7LY","pain","1","","76","L","3","","0","0","1","","0.2595670132","false","207","","0.4261201247","main_expt","","0.1700254018","","0.1651993972","","0.2595670132","","","","","",""
"96","","bandit","283","736177","0.0-245.0-0.0","82111764","wem/bandit_single","A1FV7GRQF2O7LY","pain","1","","76","L","3","","0","0","1","","0.2772442529","false","208","","0.4105702951","main_expt","","0.1831619311","","0.1803987852","","0.2772442529","","","","","",""
"329","","bandit","284","738265","0.0-246.0-0.0","82111764","wem/bandit_single","A1FV7GRQF2O7LY","pain","1","","76","L","3","","0","0","1","","0.2654441326","false","209","","0.402481318","main_expt","","0.151215806","","0.1470434113","","0.2654441326","","","","","",""
"866","","bandit","285","740892","0.0-247.0-0.0","82111764","wem/bandit_single","A1FV7GRQF2O7LY","pain","1","","72","H","0","img/none_selected.jpg","0","1","0","","0.4378094136","false","210","","0.4378094136","main_expt","","0.1841878728","","0.1375860563","","0.2475709295","","","","","",""
"87","","bandit","286","742740","0.0-248.0-0.0","82111764","wem/bandit_single","A1FV7GRQF2O7LY","pain","1","","72","H","0","img/none_selected.jpg","0","0","1","","0.4174257438","false","211","","0.4174257438","main_expt","","0.190591144","","0.1181257803","","0.1836637302","","","","","",""
"15","","bandit","287","744530","0.0-249.0-0.0","82111764","wem/bandit_single","A1FV7GRQF2O7LY","pain","1","","72","H","0","img/none_selected.jpg","0","0","1","","0.4235695044","false","212","","0.4235695044","main_expt","","0.2024219406","","0.1284194295","","0.2018671691","","","","","",""
"384","","bandit","288","746672","0.0-250.0-0.0","82111764","wem/bandit_single","A1FV7GRQF2O7LY","pain","1","","72","H","0","img/none_selected.jpg","0","1","0","","0.4112054282","false","213","","0.4112054282","main_expt","","0.1985525674","","0.1088774305","","0.1807811906","","","","","",""
"126","","bandit","289","748557","0.0-251.0-0.0","82111764","wem/bandit_single","A1FV7GRQF2O7LY","pain","1","","72","H","0","img/none_selected.jpg","0","1","0","","0.3986702209","false","214","","0.3986702209","main_expt","","0.1940352924","","0.07230623063","","0.2432807767","","","","","",""
"152","","bandit","290","750469","0.0-252.0-0.0","82111764","wem/bandit_single","A1FV7GRQF2O7LY","pain","1","","72","H","0","img/none_selected.jpg","0","1","0","","0.4379561577","false","215","","0.4379561577","main_expt","","0.1155678072","","0.07963887701","","0.2167976264","","","","","",""
"71","","bandit","291","752299","0.0-253.0-0.0","82111764","wem/bandit_single","A1FV7GRQF2O7LY","pain","1","","72","H","0","img/none_selected.jpg","0","0","1","","0.425003275","false","216","","0.425003275","main_expt","","0.08288275022","","0.0792987172","","0.2963745884","","","","","",""
"1058","","bandit","292","755118","0.0-254.0-0.0","82111764","wem/bandit_single","A1FV7GRQF2O7LY","pain","1","","72","H","0","img/none_selected.jpg","0","0","1","","0.4398514333","false","217","","0.4398514333","main_expt","","0.1108164962","","0.07576557353","","0.2704200786","","","","","",""
"259","","bandit","293","757146","0.0-255.0-0.0","82111764","wem/bandit_single","A1FV7GRQF2O7LY","pain","1","","76","L","3","","0","0","1","","0.2057322541","false","218","","0.4307107256","main_expt","","0.1166222362","","0.05946619603","","0.2057322541","","","","","",""
"325","","bandit","294","759267","0.0-256.0-0.0","82111764","wem/bandit_single","A1FV7GRQF2O7LY","pain","1","","76","L","3","","0","0","1","","0.2143414454","false","219","","0.4236121262","main_expt","","0.1441412427","","0.07419684477","","0.2143414454","","","","","",""
"192","","bandit","295","761218","0.0-257.0-0.0","82111764","wem/bandit_single","A1FV7GRQF2O7LY","pain","1","","72","H","0","img/none_selected.jpg","0","0","1","","0.4020148519","false","220","","0.4020148519","main_expt","","0.1460318591","","0.09297922461","","0.1630835619","","","","","",""
"127","","bandit","296","763105","0.0-258.0-0.0","82111764","wem/bandit_single","A1FV7GRQF2O7LY","pain","1","","75","K","2","","0","0","1","","0.1429286242","false","221","","0.4073181559","main_expt","","0.1068666799","","0.1429286242","","0.1536312793","","","","","",""
"132","","bandit","297","764996","0.0-259.0-0.0","82111764","wem/bandit_single","A1FV7GRQF2O7LY","pain","1","","75","K","2","","0","0","1","","0.1708286753","false","222","","0.3651123295","main_expt","","0.1101844092","","0.1708286753","","0.2214617817","","","","","",""
"86","","bandit","298","766844","0.0-260.0-0.0","82111764","wem/bandit_single","A1FV7GRQF2O7LY","pain","1","","72","H","0","img/none_selected.jpg","0","0","1","","0.3836441325","false","223","","0.3836441325","main_expt","","0.0707480467","","0.1461267001","","0.2273662723","","","","","",""
"140","","bandit","299","768745","0.0-261.0-0.0","82111764","wem/bandit_single","A1FV7GRQF2O7LY","pain","1","","72","H","0","img/none_selected.jpg","0","1","0","","0.3982756155","false","224","","0.3982756155","main_expt","","0.06117493494","","0.144808321","","0.1894352557","","","","","",""
"186","","bandit","300","770740","0.0-262.0-0.0","82111764","wem/bandit_single","A1FV7GRQF2O7LY","pain","1","","72","H","0","img/none_selected.jpg","0","0","1","","0.3942448394","false","225","","0.3942448394","main_expt","","0.0615688762","","0.1890777341","","0.1292085382","","","","","",""
"150","","bandit","301","772649","0.0-263.0-0.0","82111764","wem/bandit_single","A1FV7GRQF2O7LY","pain","1","","72","H","0","img/none_selected.jpg","0","0","1","","0.4169515918","false","226","","0.4169515918","main_expt","","0.05052633559","","0.1442837472","","0.1530858041","","","","","",""
"117","","bandit","302","774527","0.0-264.0-0.0","82111764","wem/bandit_single","A1FV7GRQF2O7LY","pain","1","","72","H","0","img/none_selected.jpg","0","1","0","","0.4204191544","false","227","","0.4204191544","main_expt","","0.05726050712","","0.1425852804","","0.1593334253","","","","","",""
"105","","bandit","303","776394","0.0-265.0-0.0","82111764","wem/bandit_single","A1FV7GRQF2O7LY","pain","1","","72","H","0","img/none_selected.jpg","0","0","1","","0.4091886","false","228","","0.4091886","main_expt","","0.0758768547","","0.1116716659","","0.1247523642","","","","","",""
"95","","bandit","304","778249","0.0-266.0-0.0","82111764","wem/bandit_single","A1FV7GRQF2O7LY","pain","1","","72","H","0","img/none_selected.jpg","0","0","1","","0.407276644","false","229","","0.407276644","main_expt","","0.07022353505","","0.1206121499","","0.1463700977","","","","","",""
"928","","bandit","305","780941","0.0-267.0-0.0","82111764","wem/bandit_single","A1FV7GRQF2O7LY","pain","1","","76","L","3","","0","1","0","","0.1402324221","false","230","","0.4254558538","main_expt","","0.06577032649","","0.1168532629","","0.1402324221","","","","","",""
"105","","bandit","306","782804","0.0-268.0-0.0","82111764","wem/bandit_single","A1FV7GRQF2O7LY","pain","1","","76","L","3","","0","0","1","","0.1914784592","false","231","","0.4259586803","main_expt","","0.06313303242","","0.0916199044","","0.1914784592","","","","","",""
"128","","bandit","307","784692","0.0-269.0-0.0","82111764","wem/bandit_single","A1FV7GRQF2O7LY","pain","1","","76","L","3","","0","0","1","","0.1507361932","false","232","","0.4429649496","main_expt","","0.05490827263","","0.09573807812","","0.1507361932","","","","","",""
"483","","bandit","308","786936","0.0-270.0-0.0","82111764","wem/bandit_single","A1FV7GRQF2O7LY","pain","1","","76","L","3","","0","0","1","","0.1902650793","false","233","","0.4456598826","main_expt","","0.04200611561","","0.1246926578","","0.1902650793","","","","","",""
"140","","bandit","309","788837","0.0-271.0-0.0","82111764","wem/bandit_single","A1FV7GRQF2O7LY","pain","1","","75","K","2","","0","0","1","","0.122457211","false","234","","0.4504169918","main_expt","","0.0550058871","","0.122457211","","0.2663902881","","","","","",""
"110","","bandit","310","790708","0.0-272.0-0.0","82111764","wem/bandit_single","A1FV7GRQF2O7LY","pain","1","","75","K","2","","0","0","1","","0.1561374187","false","235","","0.4255816076","main_expt","","0.06273227262","","0.1561374187","","0.257874652","","","","","",""
"9","","bandit","311","792477","0.0-273.0-0.0","82111764","wem/bandit_single","A1FV7GRQF2O7LY","pain","1","","72","H","0","img/none_selected.jpg","0","0","1","","0.4262424011","false","236","","0.4262424011","main_expt","","0.09869136657","","0.1726763947","","0.2134416149","","","","","",""
"129","","bandit","312","794367","0.0-274.0-0.0","82111764","wem/bandit_single","A1FV7GRQF2O7LY","pain","1","","72","H","0","img/none_selected.jpg","0","0","1","","0.4314914545","false","237","","0.4314914545","main_expt","","0.06464195797","","0.163453789","","0.1655180868","","","","","",""
"196","","bandit","313","796322","0.0-275.0-0.0","82111764","wem/bandit_single","A1FV7GRQF2O7LY","pain","1","","74","J","1","","0","1","0","","0.1092425733","false","238","","0.4580147213","main_expt","","0.1092425733","","0.1511244057","","0.1528926348","","","","","",""
"145","","bandit","314","798227","0.0-276.0-0.0","82111764","wem/bandit_single","A1FV7GRQF2O7LY","pain","1","","74","J","1","","0","1","0","","0.08920017271","false","239","","0.4437162142","main_expt","","0.08920017271","","0.1170855371","","0.1594670864","","","","","",""
"158","","bandit","315","800145","0.0-277.0-0.0","82111764","wem/bandit_single","A1FV7GRQF2O7LY","pain","1","","74","J","1","","0","0","1","","0.138477068","false","240","","0.4423909474","main_expt","","0.138477068","","0.1281478965","","0.104293197","","","","","",""
"84","","bandit","316","801989","0.0-278.0-0.0","82111764","wem/bandit_single","A1FV7GRQF2O7LY","pain","1","","74","J","1","","0","0","1","","0.1249513709","false","241","","0.4542424264","main_expt","","0.1249513709","","0.1579661802","","0.07968297136","","","","","",""
"105","","bandit","317","803855","0.0-279.0-0.0","82111764","wem/bandit_single","A1FV7GRQF2O7LY","pain","1","","74","J","1","","0","0","1","","0.09754639251","false","242","","0.4659063812","main_expt","","0.09754639251","","0.1345462726","","0.07079416442","","","","","",""
"260","","bandit","318","805924","0.0-280.0-0.0","82111764","wem/bandit_single","A1FV7GRQF2O7LY","pain","1","","72","H","0","img/none_selected.jpg","0","0","1","","0.4702771719","false","243","","0.4702771719","main_expt","","0.1223474156","","0.1793426478","","0.08709770617","","","","","",""
"168","","bandit","319","807853","0.0-281.0-0.0","82111764","wem/bandit_single","A1FV7GRQF2O7LY","pain","1","","72","H","0","img/none_selected.jpg","0","0","1","","0.4678480784","false","244","","0.4678480784","main_expt","","0.1004902073","","0.1623289848","","0.08252109256","","","","","",""
"175","","bandit","320","809787","0.0-282.0-0.0","82111764","wem/bandit_single","A1FV7GRQF2O7LY","pain","1","","75","K","2","","0","0","1","","0.1638267454","false","245","","0.4608336118","main_expt","","0.09372717231","","0.1638267454","","0.07130924754","","","","","",""
"94","","bandit","321","811642","0.0-283.0-0.0","82111764","wem/bandit_single","A1FV7GRQF2O7LY","pain","1","","76","L","3","","0","0","1","","0.06886742221","false","246","","0.4455928316","main_expt","","0.1004977064","","0.1794660524","","0.06886742221","","","","","",""
"82","","bandit","322","813485","0.0-284.0-0.0","82111764","wem/bandit_single","A1FV7GRQF2O7LY","pain","1","","76","L","3","","0","0","1","","0.064138504","false","247","","0.4322927154","main_expt","","0.09336015453","","0.1751092572","","0.064138504","","","","","",""
"117","","bandit","323","815364","0.0-285.0-0.0","82111764","wem/bandit_single","A1FV7GRQF2O7LY","pain","1","","75","K","2","","0","0","1","","0.188480637","false","248","","0.4293825987","main_expt","","0.09552903486","","0.188480637","","0.05051083443","","","","","",""
"97","","bandit","324","817220","0.0-286.0-0.0","82111764","wem/bandit_single","A1FV7GRQF2O7LY","pain","1","","75","K","2","","0","0","1","","0.1718025207","false","249","","0.4338924945","main_expt","","0.1087111068","","0.1718025207","","0.05514480776","","","","","",""
"89","","bandit","325","819069","0.0-287.0-0.0","82111764","wem/bandit_single","A1FV7GRQF2O7LY","pain","1","","74","J","1","","0","0","1","","0.08296073337","false","250","","0.4356531551","main_expt","","0.08296073337","","0.1377417152","","0.02780796002","","","","","",""
"112","","bandit","326","820945","0.0-288.0-0.0","82111764","wem/bandit_single","A1FV7GRQF2O7LY","pain","1","","74","J","1","","0","0","1","","0.08988728922","false","251","","0.4561881598","main_expt","","0.08988728922","","0.1623098307","","0.02786711831","","","","","",""
"65","","bandit","327","822771","0.0-289.0-0.0","82111764","wem/bandit_single","A1FV7GRQF2O7LY","pain","1","","72","H","0","img/none_selected.jpg","0","1","0","","0.4517263236","false","252","","0.4517263236","main_expt","","0.07043490844","","0.1702242208","","0.03881205422","","","","","",""
"25","","bandit","328","824557","0.0-290.0-0.0","82111764","wem/bandit_single","A1FV7GRQF2O7LY","pain","1","","72","H","0","img/none_selected.jpg","0","1","0","","0.4280730872","false","253","","0.4280730872","main_expt","","0.06648959932","","0.1571297736","","0.03211176865","","","","","",""
"79","","bandit","329","826398","0.0-291.0-0.0","82111764","wem/bandit_single","A1FV7GRQF2O7LY","pain","1","","72","H","0","img/none_selected.jpg","0","0","1","","0.3976691957","false","254","","0.3976691957","main_expt","","0.04750248463","","0.1311762281","","0.02501863174","","","","","",""
"46","","bandit","330","828204","0.0-292.0-0.0","82111764","wem/bandit_single","A1FV7GRQF2O7LY","pain","1","","72","H","0","img/none_selected.jpg","0","0","1","","0.3920211634","false","255","","0.3920211634","main_expt","","0.0685067328","","0.1262313745","","0.03845468041","","","","","",""
"25","","bandit","331","829990","0.0-293.0-0.0","82111764","wem/bandit_single","A1FV7GRQF2O7LY","pain","1","","72","H","0","img/none_selected.jpg","0","0","1","","0.3802568344","false","256","","0.3802568344","main_expt","","0.06106940649","","0.08888936201","","0.03093107714","","","","","",""
"138","","bandit","332","831890","0.0-294.0-0.0","82111764","wem/bandit_single","A1FV7GRQF2O7LY","pain","1","","74","J","1","","0","0","1","","0.03925251802","false","257","","0.4153547565","main_expt","","0.03925251802","","0.1016624202","","0.02284381284","","","","","",""
"71","","bandit","333","833721","0.0-295.0-0.0","82111764","wem/bandit_single","A1FV7GRQF2O7LY","pain","1","","74","J","1","","0","1","0","","0.07528758783","false","258","","0.412770775","main_expt","","0.07528758783","","0.1201960749","","0.01195927332","","","","","",""
"125","","bandit","334","835607","0.0-296.0-0.0","82111764","wem/bandit_single","A1FV7GRQF2O7LY","pain","1","","74","J","1","","0","0","1","","0.06168900656","false","259","","0.4364469878","main_expt","","0.06168900656","","0.09869940493","","0.009837890866","","","","","",""
"159","","bandit","335","837526","0.0-297.0-0.0","82111764","wem/bandit_single","A1FV7GRQF2O7LY","pain","1","","74","J","1","","0","0","1","","0.05358732337","false","260","","0.4143686848","main_expt","","0.05358732337","","0.140367269","","0.01652501309","","","","","",""
"58","","bandit","336","839345","0.0-298.0-0.0","82111764","wem/bandit_single","A1FV7GRQF2O7LY","pain","1","","75","K","2","","0","0","1","","0.107121031","false","261","","0.3932103286","main_expt","","0.05974294151","","0.107121031","","0.0246934762","","","","","",""
"40","","bandit","337","841146","0.0-299.0-0.0","82111764","wem/bandit_single","A1FV7GRQF2O7LY","pain","1","","75","K","2","","0","0","1","","0.142880744","false","262","","0.4299042069","main_expt","","0.0656558392","","0.142880744","","0.02217338967","","","","","",""
"174","","bandit","338","843081","0.0-300.0-0.0","82111764","wem/bandit_single","A1FV7GRQF2O7LY","pain","1","","76","L","3","","0","0","1","","0.02538488248","false","263","","0.3864913748","main_expt","","0.08006927963","","0.1398656543","","0.02538488248","","","","","",""
"962","","bandit","339","845806","0.0-301.0-0.0","82111764","wem/bandit_single","A1FV7GRQF2O7LY","pain","1","","76","L","3","","0","0","1","","0.03542132602","false","264","","0.3721946297","main_expt","","0.07803510261","","0.185630342","","0.03542132602","","","","","",""
"115","","bandit","340","847681","0.0-302.0-0.0","82111764","wem/bandit_single","A1FV7GRQF2O7LY","pain","1","","76","L","3","","0","0","1","","0.03052618628","false","265","","0.3326379545","main_expt","","0.08917846028","","0.1483619715","","0.03052618628","","","","","",""
"658","","bandit","341","850099","0.0-303.0-0.0","82111764","wem/bandit_single","A1FV7GRQF2O7LY","pain","1","","74","J","1","","0","0","1","","0.1562168236","false","266","","0.3337002386","main_expt","","0.1562168236","","0.1677753502","","0.02388326919","","","","","",""
"96","","bandit","342","852032","0.0-304.0-0.0","82111764","wem/bandit_single","A1FV7GRQF2O7LY","pain","1","","74","J","1","","0","0","1","","0.1873085091","false","267","","0.3044940876","main_expt","","0.1873085091","","0.1748953786","","0.01496915784","","","","","",""
"113","","bandit","343","853905","0.0-305.0-0.0","82111764","wem/bandit_single","A1FV7GRQF2O7LY","pain","1","","72","H","0","img/none_selected.jpg","0","0","1","","0.2966269971","false","268","","0.2966269971","main_expt","","0.1850807086","","0.152215306","","0.01735494223","","","","","",""
"83","","bandit","344","855750","0.0-306.0-0.0","82111764","wem/bandit_single","A1FV7GRQF2O7LY","pain","1","","72","H","0","img/none_selected.jpg","0","0","1","","0.2617435325","false","269","","0.2617435325","main_expt","","0.1461958128","","0.1420691147","","0.01365938384","","","","","",""
"103","","bandit","345","857614","0.0-307.0-0.0","82111764","wem/bandit_single","A1FV7GRQF2O7LY","pain","1","","75","K","2","","0","0","1","","0.1338049101","false","270","","0.2599280147","main_expt","","0.1348565207","","0.1338049101","","0.01871615964","","","","","",""
"47","","bandit","346","859426","0.0-308.0-0.0","82111764","wem/bandit_single","A1FV7GRQF2O7LY","pain","1","","75","K","2","","0","0","1","","0.1178923734","false","271","","0.2499936179","main_expt","","0.1588166083","","0.1178923734","","0.01663887187","","","","","",""
"183","","bandit","347","861368","0.0-309.0-0.0","82111764","wem/bandit_single","A1FV7GRQF2O7LY","pain","1","","75","K","2","","0","0","1","","0.1436833609","false","272","","0.2703142459","main_expt","","0.1288650497","","0.1436833609","","0.01973971225","","","","","",""
"104","","bandit","348","863231","0.0-310.0-0.0","82111764","wem/bandit_single","A1FV7GRQF2O7LY","pain","1","","74","J","1","","0","0","1","","0.1414039315","false","273","","0.2835249431","main_expt","","0.1414039315","","0.1917782062","","0.01954424634","","","","","",""
"12","","bandit","349","865004","0.0-311.0-0.0","82111764","wem/bandit_single","A1FV7GRQF2O7LY","pain","1","","74","J","1","","0","1","0","","0.1132613661","false","274","","0.2906451875","main_expt","","0.1132613661","","0.1657285368","","0.008862655739","","","","","",""
"123","","bandit","350","866909","0.0-312.0-0.0","82111764","wem/bandit_single","A1FV7GRQF2O7LY","pain","1","","74","J","1","","0","0","1","","0.1396690899","false","275","","0.2670480505","main_expt","","0.1396690899","","0.1420329436","","0.0094605031","","","","","",""
"147","","bandit","351","868817","0.0-313.0-0.0","82111764","wem/bandit_single","A1FV7GRQF2O7LY","pain","1","","74","J","1","","0","0","1","","0.1109816737","false","276","","0.2358592403","main_expt","","0.1109816737","","0.1369756733","","0.01191149084","","","","","",""
"69","","bandit","352","870651","0.0-314.0-0.0","82111764","wem/bandit_single","A1FV7GRQF2O7LY","pain","1","","74","J","1","","0","0","1","","0.08046464388","false","277","","0.1877967456","main_expt","","0.08046464388","","0.1781068979","","0.00904810236","","","","","",""
"406","","bandit","353","872861","0.0-315.0-0.0","82111764","wem/bandit_single","A1FV7GRQF2O7LY","pain","1","","72","H","0","img/none_selected.jpg","0","0","1","","0.1537245983","false","278","","0.1537245983","main_expt","","0.07407019324","","0.248352092","","0.007795284796","","","","","",""
"243","","bandit","354","874867","0.0-316.0-0.0","82111764","wem/bandit_single","A1FV7GRQF2O7LY","pain","1","","72","H","0","img/none_selected.jpg","0","0","1","","0.1662011111","false","279","","0.1662011111","main_expt","","0.06478755197","","0.263219496","","0.01747653863","","","","","",""
"304","","bandit","355","876931","0.0-317.0-0.0","82111764","wem/bandit_single","A1FV7GRQF2O7LY","pain","1","","75","K","2","","0","0","1","","0.210776847","false","280","","0.1622625537","main_expt","","0.04895059186","","0.210776847","","0.02326096521","","","","","",""
"143","","bandit","356","878838","0.0-318.0-0.0","82111764","wem/bandit_single","A1FV7GRQF2O7LY","pain","1","","75","K","2","","0","1","0","","0.1901401854","false","281","","0.2160365104","main_expt","","0.04598133094","","0.1901401854","","0.03290281633","","","","","",""
"152","","bandit","357","880753","0.0-319.0-0.0","82111764","wem/bandit_single","A1FV7GRQF2O7LY","pain","1","","75","K","2","","0","0","1","","0.1692674388","false","282","","0.2031844556","main_expt","","0.0454431083","","0.1692674388","","0.03647511751","","","","","",""
"12","","bandit","358","882528","0.0-320.0-0.0","82111764","wem/bandit_single","A1FV7GRQF2O7LY","pain","1","","75","K","2","","0","0","1","","0.1697823826","false","283","","0.236778666","main_expt","","0.0377119091","","0.1697823826","","0.0381479171","","","","","",""
"146","","bandit","359","884435","0.0-321.0-0.0","82111764","wem/bandit_single","A1FV7GRQF2O7LY","pain","1","","74","J","1","","0","0","1","","0.0346676025","false","284","","0.2082896542","main_expt","","0.0346676025","","0.1647860582","","0.04237273713","","","","","",""
"85","","bandit","360","886285","0.0-322.0-0.0","82111764","wem/bandit_single","A1FV7GRQF2O7LY","pain","1","","74","J","1","","0","0","1","","0.03394591187","false","285","","0.1682052712","main_expt","","0.03394591187","","0.2346467376","","0.08736605616","","","","","",""
"83","","bandit","361","888128","0.0-323.0-0.0","82111764","wem/bandit_single","A1FV7GRQF2O7LY","pain","1","","76","L","3","","0","0","1","","0.149418319","false","286","","0.1287852917","main_expt","","0.03437308726","","0.1651037306","","0.149418319","","","","","",""
"138","","bandit","362","890026","0.0-324.0-0.0","82111764","wem/bandit_single","A1FV7GRQF2O7LY","pain","1","","76","L","3","","0","0","1","","0.2149685411","false","287","","0.0739145169","main_expt","","0.043905831","","0.113933185","","0.2149685411","","","","","",""
"212","","bandit","363","892001","0.0-325.0-0.0","82111764","wem/bandit_single","A1FV7GRQF2O7LY","pain","1","","76","L","3","","0","0","1","","0.181398065","false","288","","0.08295252225","main_expt","","0.02064047927","","0.08260993421","","0.181398065","","","","","",""
"166","","bandit","364","893940","0.0-326.0-0.0","82111764","wem/bandit_single","A1FV7GRQF2O7LY","pain","1","","72","H","0","img/none_selected.jpg","0","0","1","","0.0479508895","false","289","","0.0479508895","main_expt","","0.0250169619","","0.07260323305","","0.1523032639","","","","","",""
"240","","bandit","365","895944","0.0-327.0-0.0","82111764","wem/bandit_single","A1FV7GRQF2O7LY","pain","1","","72","H","0","img/none_selected.jpg","0","0","1","","0.05498143303","false","290","","0.05498143303","main_expt","","0.04785043425","","0.06306400378","","0.1404761367","","","","","",""
"88","","bandit","366","897865","0.0-328.0-0.0","82111764","wem/bandit_single","A1FV7GRQF2O7LY","pain","1","","74","J","1","","0","0","1","","0.05997729544","false","291","","0.06238518006","main_expt","","0.05997729544","","0.06173149747","","0.1639955189","","","","","",""
"184","","bandit","367","899811","0.0-329.0-0.0","82111764","wem/bandit_single","A1FV7GRQF2O7LY","pain","1","","74","J","1","","0","0","1","","0.08013724224","false","292","","0.06246846358","main_expt","","0.08013724224","","0.049421281","","0.1365824739","","","","","",""
"94","","bandit","368","901665","0.0-330.0-0.0","82111764","wem/bandit_single","A1FV7GRQF2O7LY","pain","1","","75","K","2","","0","0","1","","0.04661139695","false","293","","0.0635142122","main_expt","","0.08257915178","","0.04661139695","","0.2190436779","","","","","",""
