"rt","responses","trial_type","trial_index","time_elapsed","internal_node_id","subjID","study","MID","cond","drift","key_press","respCharCode","respKey","respChoiceNum","respChoice","gems","bombs","no_reward","GemPrChosen","BombPrChosen","practice","trial_counter","WinPr_0","LosePr_0","trial_label","WinPr_1","LosePr_1","WinPr_2","LosePr_2","WinPr_3","LosePr_3","Q0","Q1","Q2","gender","age","ethnicity"
"25498","{""Q0"":""AQL960O0LTRI8""}","survey-text","0","25507","0.0-0.0","83071271","wem/bandit_single","AQL960O0LTRI8","pain","2","","","","","","","","","","","","","","","","","","","","","","","","","","",""
"2548","","text","1","29059","0.0-1.0","83071271","wem/bandit_single","AQL960O0LTRI8","pain","2","32","","","","","","","","","","","","","","","","","","","","","","","","","",""
"593","","text","2","29655","0.0-2.0","83071271","wem/bandit_single","AQL960O0LTRI8","pain","2","32","","","","","","","","","","","","","","","","","","","","","","","","","",""
"311","","text","3","29967","0.0-3.0","83071271","wem/bandit_single","AQL960O0LTRI8","pain","2","32","","","","","","","","","","","","","","","","","","","","","","","","","",""
"283","","text","4","30251","0.0-4.0","83071271","wem/bandit_single","AQL960O0LTRI8","pain","2","32","","","","","","","","","","","","","","","","","","","","","","","","","",""
"763","","text","5","31015","0.0-5.0","83071271","wem/bandit_single","AQL960O0LTRI8","pain","2","32","","","","","","","","","","","","","","","","","","","","","","","","","",""
"319","","text","6","31335","0.0-6.0","83071271","wem/bandit_single","AQL960O0LTRI8","pain","2","32","","","","","","","","","","","","","","","","","","","","","","","","","",""
"442","","text","7","31779","0.0-7.0","83071271","wem/bandit_single","AQL960O0LTRI8","pain","2","32","","","","","","","","","","","","","","","","","","","","","","","","","",""
"314","","text","8","32095","0.0-8.0","83071271","wem/bandit_single","AQL960O0LTRI8","pain","2","32","","","","","","","","","","","","","","","","","","","","","","","","","",""
"1343","","text","9","33439","0.0-9.0","83071271","wem/bandit_single","AQL960O0LTRI8","pain","2","32","","","","","","","","","","","","","","","","","","","","","","","","","",""
"978","","text","10","34419","0.0-10.0","83071271","wem/bandit_single","AQL960O0LTRI8","pain","2","32","","","","","","","","","","","","","","","","","","","","","","","","","",""
"9485","","text","11","43906","0.0-11.0","83071271","wem/bandit_single","AQL960O0LTRI8","pain","2","32","","","","","","","","","","","","","","","","","","","","","","","","","",""
"2080","","bandit","12","47494","0.0-12.0-0.0","83071271","wem/bandit_single","AQL960O0LTRI8","pain","2","","74","J","0","img/none_selected_demo.jpg","0","0","1","0","0","true","0","0","0","","","","","","","","","","","","",""
"1574","","bandit","13","50826","0.0-13.0-0.0","83071271","wem/bandit_single","AQL960O0LTRI8","pain","2","","75","K","0","img/none_selected_demo.jpg","0","0","1","0","0","true","0","0","0","","","","","","","","","","","","",""
"1484","","text","14","52562","0.0-14.0","83071271","wem/bandit_single","AQL960O0LTRI8","pain","2","32","","","","","","","","","","","","","","","","","","","","","","","","","",""
"2423","","text","15","54987","0.0-15.0","83071271","wem/bandit_single","AQL960O0LTRI8","pain","2","32","","","","","","","","","","","","","","","","","","","","","","","","","",""
"2547","","text","16","57536","0.0-16.0","83071271","wem/bandit_single","AQL960O0LTRI8","pain","2","32","","","","","","","","","","","","","","","","","","","","","","","","","",""
"3587","","text","17","61128","0.0-17.0","83071271","wem/bandit_single","AQL960O0LTRI8","pain","2","32","","","","","","","","","","","","","","","","","","","","","","","","","",""
"1661","","bandit","18","64300","0.0-18.0-0.0","83071271","wem/bandit_single","AQL960O0LTRI8","pain","2","","74","J","0","img/none_selected_demo.jpg","0","1","0","0","0.8","true","0","0","0.8","80_20_practice","0","0.2","","","","","","","","","",""
"175","","bandit","19","66238","0.0-18.0-1.0","83071271","wem/bandit_single","AQL960O0LTRI8","pain","2","","74","J","0","img/none_selected_demo.jpg","0","1","0","0","0.8","true","0","0","0.8","80_20_practice","0","0.2","","","","","","","","","",""
"361","","bandit","20","68358","0.0-18.0-2.0","83071271","wem/bandit_single","AQL960O0LTRI8","pain","2","","74","J","0","img/none_selected_demo.jpg","0","1","0","0","0.8","true","0","0","0.8","80_20_practice","0","0.2","","","","","","","","","",""
"54","","bandit","21","70168","0.0-18.0-3.0","83071271","wem/bandit_single","AQL960O0LTRI8","pain","2","","74","J","0","img/none_selected_demo.jpg","0","0","1","0","0.8","true","0","0","0.8","80_20_practice","0","0.2","","","","","","","","","",""
"80","","bandit","22","72006","0.0-18.0-4.0","83071271","wem/bandit_single","AQL960O0LTRI8","pain","2","","74","J","0","img/none_selected_demo.jpg","0","0","1","0","0.8","true","0","0","0.8","80_20_practice","0","0.2","","","","","","","","","",""
"823","","bandit","23","74586","0.0-18.0-5.0","83071271","wem/bandit_single","AQL960O0LTRI8","pain","2","","75","K","1","","0","1","0","0","0.2","true","0","0","0.8","80_20_practice","0","0.2","","","","","","","","","",""
"194","","bandit","24","76538","0.0-18.0-6.0","83071271","wem/bandit_single","AQL960O0LTRI8","pain","2","","75","K","1","","0","0","1","0","0.2","true","0","0","0.8","80_20_practice","0","0.2","","","","","","","","","",""
"3","","bandit","25","78296","0.0-18.0-7.0","83071271","wem/bandit_single","AQL960O0LTRI8","pain","2","","75","K","1","","0","0","1","0","0.2","true","0","0","0.8","80_20_practice","0","0.2","","","","","","","","","",""
"783","","bandit","26","80838","0.0-18.0-8.0","83071271","wem/bandit_single","AQL960O0LTRI8","pain","2","","74","J","0","img/none_selected_demo.jpg","0","1","0","0","0.8","true","0","0","0.8","80_20_practice","0","0.2","","","","","","","","","",""
"239","","bandit","27","82833","0.0-18.0-9.0","83071271","wem/bandit_single","AQL960O0LTRI8","pain","2","","74","J","0","img/none_selected_demo.jpg","0","1","0","0","0.8","true","0","0","0.8","80_20_practice","0","0.2","","","","","","","","","",""
"320","","bandit","28","84908","0.0-18.0-10.0","83071271","wem/bandit_single","AQL960O0LTRI8","pain","2","","74","J","0","img/none_selected_demo.jpg","0","1","0","0","0.8","true","0","0","0.8","80_20_practice","0","0.2","","","","","","","","","",""
"248","","bandit","29","86914","0.0-18.0-11.0","83071271","wem/bandit_single","AQL960O0LTRI8","pain","2","","74","J","0","img/none_selected_demo.jpg","0","1","0","0","0.8","true","0","0","0.8","80_20_practice","0","0.2","","","","","","","","","",""
"82","","bandit","30","88753","0.0-18.0-12.0","83071271","wem/bandit_single","AQL960O0LTRI8","pain","2","","74","J","0","img/none_selected_demo.jpg","0","0","1","0","0.8","true","0","0","0.8","80_20_practice","0","0.2","","","","","","","","","",""
"25","","bandit","31","90538","0.0-18.0-13.0","83071271","wem/bandit_single","AQL960O0LTRI8","pain","2","","74","J","0","img/none_selected_demo.jpg","0","1","0","0","0.8","true","0","0","0.8","80_20_practice","0","0.2","","","","","","","","","",""
"187","","bandit","32","92481","0.0-18.0-14.0","83071271","wem/bandit_single","AQL960O0LTRI8","pain","2","","74","J","0","img/none_selected_demo.jpg","0","1","0","0","0.8","true","0","0","0.8","80_20_practice","0","0.2","","","","","","","","","",""
"87","","bandit","33","94329","0.0-18.0-15.0","83071271","wem/bandit_single","AQL960O0LTRI8","pain","2","","74","J","0","img/none_selected_demo.jpg","0","1","0","0","0.8","true","0","0","0.8","80_20_practice","0","0.2","","","","","","","","","",""
"34","","bandit","34","96120","0.0-18.0-16.0","83071271","wem/bandit_single","AQL960O0LTRI8","pain","2","","74","J","0","img/none_selected_demo.jpg","0","1","0","0","0.8","true","0","0","0.8","80_20_practice","0","0.2","","","","","","","","","",""
"1422","","bandit","35","99301","0.0-18.0-17.0","83071271","wem/bandit_single","AQL960O0LTRI8","pain","2","","74","J","0","img/none_selected_demo.jpg","0","1","0","0","0.8","true","0","0","0.8","80_20_practice","0","0.2","","","","","","","","","",""
"63","","bandit","36","101121","0.0-18.0-18.0","83071271","wem/bandit_single","AQL960O0LTRI8","pain","2","","74","J","0","img/none_selected_demo.jpg","0","1","0","0","0.8","true","0","0","0.8","80_20_practice","0","0.2","","","","","","","","","",""
"208","","bandit","37","103084","0.0-18.0-19.0","83071271","wem/bandit_single","AQL960O0LTRI8","pain","2","","74","J","0","img/none_selected_demo.jpg","0","1","0","0","0.8","true","0","0","0.8","80_20_practice","0","0.2","","","","","","","","","",""
"3177","","text","38","106514","0.0-19.0","83071271","wem/bandit_single","AQL960O0LTRI8","pain","2","32","","","","","","","","","","","","","","","","","","","","","","","","","",""
"1345","","bandit","39","109364","0.0-20.0-0.0","83071271","wem/bandit_single","AQL960O0LTRI8","pain","2","","74","J","0","img/none_selected_demo.jpg","0","0","1","0","0","true","0","0","0","","0","0","","","","","","","","","",""
"6629","","text","40","116246","0.0-21.0","83071271","wem/bandit_single","AQL960O0LTRI8","pain","2","32","","","","","","","","","","","","","","","","","","","","","","","","","",""
"2643","","text","41","118895","0.0-22.0","83071271","wem/bandit_single","AQL960O0LTRI8","pain","2","32","","","","","","","","","","","","","","","","","","","","","","","","","",""
"2742","","text","42","121638","0.0-23.0","83071271","wem/bandit_single","AQL960O0LTRI8","pain","2","32","","","","","","","","","","","","","","","","","","","","","","","","","",""
"2305","","text","43","123946","0.0-24.0","83071271","wem/bandit_single","AQL960O0LTRI8","pain","2","32","","","","","","","","","","","","","","","","","","","","","","","","","",""
"6337","","text","44","130288","0.0-25.0","83071271","wem/bandit_single","AQL960O0LTRI8","pain","2","32","","","","","","","","","","","","","","","","","","","","","","","","","",""
"2436","","text","45","132728","0.0-26.0","83071271","wem/bandit_single","AQL960O0LTRI8","pain","2","32","","","","","","","","","","","","","","","","","","","","","","","","","",""
"5676","","text","46","138407","0.0-27.0","83071271","wem/bandit_single","AQL960O0LTRI8","pain","2","32","","","","","","","","","","","","","","","","","","","","","","","","","",""
"2085","","text","47","140495","0.0-28.0","83071271","wem/bandit_single","AQL960O0LTRI8","pain","2","32","","","","","","","","","","","","","","","","","","","","","","","","","",""
"3045","","text","48","143542","0.0-29.0","83071271","wem/bandit_single","AQL960O0LTRI8","pain","2","32","","","","","","","","","","","","","","","","","","","","","","","","","",""
"2122","","text","49","145667","0.0-30.0","83071271","wem/bandit_single","AQL960O0LTRI8","pain","2","32","","","","","","","","","","","","","","","","","","","","","","","","","",""
"5397","","text","50","151066","0.0-31.0","83071271","wem/bandit_single","AQL960O0LTRI8","pain","2","32","","","","","","","","","","","","","","","","","","","","","","","","","",""
"828","","bandit","51","153401","0.0-32.0-0.0","83071271","wem/bandit_single","AQL960O0LTRI8","pain","2","","72","H","0","img/none_selected.jpg","0","1","0","0","0.8","true","0","0","0.8","full_practice","0","0.2","0","0.6","0","0.2","","","","","",""
"53","","bandit","52","155213","0.0-32.0-1.0","83071271","wem/bandit_single","AQL960O0LTRI8","pain","2","","72","H","0","img/none_selected.jpg","0","1","0","0","0.8","true","0","0","0.8","full_practice","0","0.2","0","0.6","0","0.2","","","","","",""
"88","","bandit","53","157061","0.0-32.0-2.0","83071271","wem/bandit_single","AQL960O0LTRI8","pain","2","","72","H","0","img/none_selected.jpg","0","0","1","0","0.8","true","0","0","0.8","full_practice","0","0.2","0","0.6","0","0.2","","","","","",""
"2","","bandit","54","158820","0.0-32.0-3.0","83071271","wem/bandit_single","AQL960O0LTRI8","pain","2","","74","J","1","","0","1","0","0","0.2","true","0","0","0.8","full_practice","0","0.2","0","0.6","0","0.2","","","","","",""
"184","","bandit","55","160760","0.0-32.0-4.0","83071271","wem/bandit_single","AQL960O0LTRI8","pain","2","","74","J","1","","0","0","1","0","0.2","true","0","0","0.8","full_practice","0","0.2","0","0.6","0","0.2","","","","","",""
"44","","bandit","56","162562","0.0-32.0-5.0","83071271","wem/bandit_single","AQL960O0LTRI8","pain","2","","75","K","2","","0","1","0","0","0.6","true","0","0","0.8","full_practice","0","0.2","0","0.6","0","0.2","","","","","",""
"54","","bandit","57","164372","0.0-32.0-6.0","83071271","wem/bandit_single","AQL960O0LTRI8","pain","2","","75","K","2","","0","0","1","0","0.6","true","0","0","0.8","full_practice","0","0.2","0","0.6","0","0.2","","","","","",""
"30","","bandit","58","166160","0.0-32.0-7.0","83071271","wem/bandit_single","AQL960O0LTRI8","pain","2","","76","L","3","","0","0","1","0","0.2","true","0","0","0.8","full_practice","0","0.2","0","0.6","0","0.2","","","","","",""
"248","","bandit","59","168164","0.0-32.0-8.0","83071271","wem/bandit_single","AQL960O0LTRI8","pain","2","","75","K","2","","0","0","1","0","0.6","true","0","0","0.8","full_practice","0","0.2","0","0.6","0","0.2","","","","","",""
"284","","bandit","60","170204","0.0-32.0-9.0","83071271","wem/bandit_single","AQL960O0LTRI8","pain","2","","74","J","1","","0","0","1","0","0.2","true","0","0","0.8","full_practice","0","0.2","0","0.6","0","0.2","","","","","",""
"587","","bandit","61","172549","0.0-32.0-10.0","83071271","wem/bandit_single","AQL960O0LTRI8","pain","2","","72","H","0","img/none_selected.jpg","0","1","0","0","0.8","true","0","0","0.8","full_practice","0","0.2","0","0.6","0","0.2","","","","","",""
"50","","bandit","62","174357","0.0-32.0-11.0","83071271","wem/bandit_single","AQL960O0LTRI8","pain","2","","72","H","0","img/none_selected.jpg","0","1","0","0","0.8","true","0","0","0.8","full_practice","0","0.2","0","0.6","0","0.2","","","","","",""
"18","","bandit","63","176132","0.0-32.0-12.0","83071271","wem/bandit_single","AQL960O0LTRI8","pain","2","","72","H","0","img/none_selected.jpg","0","1","0","0","0.8","true","0","0","0.8","full_practice","0","0.2","0","0.6","0","0.2","","","","","",""
"57","","bandit","64","177948","0.0-32.0-13.0","83071271","wem/bandit_single","AQL960O0LTRI8","pain","2","","72","H","0","img/none_selected.jpg","0","1","0","0","0.8","true","0","0","0.8","full_practice","0","0.2","0","0.6","0","0.2","","","","","",""
"40","","bandit","65","179745","0.0-32.0-14.0","83071271","wem/bandit_single","AQL960O0LTRI8","pain","2","","72","H","0","img/none_selected.jpg","0","1","0","0","0.8","true","0","0","0.8","full_practice","0","0.2","0","0.6","0","0.2","","","","","",""
"13","","bandit","66","181516","0.0-32.0-15.0","83071271","wem/bandit_single","AQL960O0LTRI8","pain","2","","72","H","0","img/none_selected.jpg","0","1","0","0","0.8","true","0","0","0.8","full_practice","0","0.2","0","0.6","0","0.2","","","","","",""
"11","","bandit","67","183285","0.0-32.0-16.0","83071271","wem/bandit_single","AQL960O0LTRI8","pain","2","","72","H","0","img/none_selected.jpg","0","1","0","0","0.8","true","0","0","0.8","full_practice","0","0.2","0","0.6","0","0.2","","","","","",""
"51","","bandit","68","185097","0.0-32.0-17.0","83071271","wem/bandit_single","AQL960O0LTRI8","pain","2","","72","H","0","img/none_selected.jpg","0","1","0","0","0.8","true","0","0","0.8","full_practice","0","0.2","0","0.6","0","0.2","","","","","",""
"174","","bandit","69","187029","0.0-32.0-18.0","83071271","wem/bandit_single","AQL960O0LTRI8","pain","2","","72","H","0","img/none_selected.jpg","0","0","1","0","0.8","true","0","0","0.8","full_practice","0","0.2","0","0.6","0","0.2","","","","","",""
"770","","bandit","70","189555","0.0-32.0-19.0","83071271","wem/bandit_single","AQL960O0LTRI8","pain","2","","72","H","0","img/none_selected.jpg","0","1","0","0","0.8","true","0","0","0.8","full_practice","0","0.2","0","0.6","0","0.2","","","","","",""
"2033","","text","71","191846","0.0-33.0","83071271","wem/bandit_single","AQL960O0LTRI8","pain","2","32","","","","","","","","","","","","","","","","","","","","","","","","","",""
"8689","","text","72","201538","0.0-34.0","83071271","wem/bandit_single","AQL960O0LTRI8","pain","2","32","","","","","","","","","","","","","","","","","","","","","","","","","",""
"4305","","text","73","205846","0.0-35.0","83071271","wem/bandit_single","AQL960O0LTRI8","pain","2","32","","","","","","","","","","","","","","","","","","","","","","","","","",""
"4282","","text","74","210130","0.0-36.0","83071271","wem/bandit_single","AQL960O0LTRI8","pain","2","32","","","","","","","","","","","","","","","","","","","","","","","","","",""
"3536","","text","75","213670","0.0-37.0","83071271","wem/bandit_single","AQL960O0LTRI8","pain","2","32","","","","","","","","","","","","","","","","","","","","","","","","","",""
"1197","","bandit","76","216372","0.0-38.0-0.0","83071271","wem/bandit_single","AQL960O0LTRI8","pain","2","","72","H","0","img/none_selected.jpg","0","0","1","","0.03692567881","false","1","","0.03692567881","main_expt","","0.1196507759","","0.1047922924","","0.1473353724","","","","","",""
"51","","bandit","77","218179","0.0-39.0-0.0","83071271","wem/bandit_single","AQL960O0LTRI8","pain","2","","72","H","0","img/none_selected.jpg","0","0","1","","0.0535834513","false","2","","0.0535834513","main_expt","","0.1434551849","","0.09232691068","","0.1471364572","","","","","",""
"651","","bandit","78","220588","0.0-40.0-0.0","83071271","wem/bandit_single","AQL960O0LTRI8","pain","2","","74","J","1","","0","0","1","","0.1966750378","false","3","","0.06455495551","main_expt","","0.1966750378","","0.07878604621","","0.1792173289","","","","","",""
"18","","bandit","79","222365","0.0-41.0-0.0","83071271","wem/bandit_single","AQL960O0LTRI8","pain","2","","75","K","2","","0","0","1","","0.06180226224","false","4","","0.1075220519","main_expt","","0.1731728381","","0.06180226224","","0.2089457512","","","","","",""
"14","","bandit","80","224136","0.0-42.0-0.0","83071271","wem/bandit_single","AQL960O0LTRI8","pain","2","","76","L","3","","0","1","0","","0.2627176439","false","5","","0.1459974634","main_expt","","0.151671232","","0.05657605877","","0.2627176439","","","","","",""
"186","","bandit","81","226080","0.0-43.0-0.0","83071271","wem/bandit_single","AQL960O0LTRI8","pain","2","","76","L","3","","0","1","0","","0.2052823447","false","6","","0.1119865757","main_expt","","0.2201434377","","0.03926223851","","0.2052823447","","","","","",""
"46","","bandit","82","227883","0.0-44.0-0.0","83071271","wem/bandit_single","AQL960O0LTRI8","pain","2","","76","L","3","","0","1","0","","0.2424381104","false","7","","0.1135710889","main_expt","","0.1924323999","","0.02952185798","","0.2424381104","","","","","",""
"225","","bandit","83","229863","0.0-45.0-0.0","83071271","wem/bandit_single","AQL960O0LTRI8","pain","2","","76","L","3","","0","1","0","","0.2324683495","false","8","","0.148696524","main_expt","","0.187431757","","0.01847757052","","0.2324683495","","","","","",""
"83","","bandit","84","231704","0.0-46.0-0.0","83071271","wem/bandit_single","AQL960O0LTRI8","pain","2","","76","L","3","","0","1","0","","0.2440295668","false","9","","0.1181121295","main_expt","","0.197470847","","0.02695314055","","0.2440295668","","","","","",""
"131","","bandit","85","233592","0.0-47.0-0.0","83071271","wem/bandit_single","AQL960O0LTRI8","pain","2","","76","L","3","","0","0","1","","0.2465422232","false","10","","0.1082266346","main_expt","","0.2298270047","","0.02234311218","","0.2465422232","","","","","",""
"39","","bandit","86","235388","0.0-48.0-0.0","83071271","wem/bandit_single","AQL960O0LTRI8","pain","2","","76","L","3","","0","0","1","","0.1529972956","false","11","","0.1102162287","main_expt","","0.2124937163","","0.04960883058","","0.1529972956","","","","","",""
"3","","bandit","87","237147","0.0-49.0-0.0","83071271","wem/bandit_single","AQL960O0LTRI8","pain","2","","75","K","2","","0","0","1","","0.06086541187","false","12","","0.1420736562","main_expt","","0.2043121782","","0.06086541187","","0.1827224572","","","","","",""
"447","","bandit","88","239352","0.0-50.0-0.0","83071271","wem/bandit_single","AQL960O0LTRI8","pain","2","","74","J","1","","0","0","1","","0.2122729008","false","13","","0.1582971975","main_expt","","0.2122729008","","0.06603274732","","0.1973099221","","","","","",""
"26","","bandit","89","241135","0.0-51.0-0.0","83071271","wem/bandit_single","AQL960O0LTRI8","pain","2","","72","H","0","img/none_selected.jpg","0","0","1","","0.1278364912","false","14","","0.1278364912","main_expt","","0.1748916548","","0.06952645267","","0.2002936143","","","","","",""
"50","","bandit","90","242943","0.0-52.0-0.0","83071271","wem/bandit_single","AQL960O0LTRI8","pain","2","","74","J","1","","0","0","1","","0.1598041939","false","15","","0.1389591295","main_expt","","0.1598041939","","0.06705093019","","0.2100222876","","","","","",""
"27","","bandit","91","244729","0.0-53.0-0.0","83071271","wem/bandit_single","AQL960O0LTRI8","pain","2","","75","K","2","","0","0","1","","0.08739136862","false","16","","0.1087507618","main_expt","","0.1496559895","","0.08739136862","","0.192095419","","","","","",""
"593","","bandit","92","247079","0.0-54.0-0.0","83071271","wem/bandit_single","AQL960O0LTRI8","pain","2","","76","L","3","","0","1","0","","0.2057363858","false","17","","0.1591778588","main_expt","","0.1855105105","","0.0633177824","","0.2057363858","","","","","",""
"27","","bandit","93","248866","0.0-55.0-0.0","83071271","wem/bandit_single","AQL960O0LTRI8","pain","2","","76","L","3","","0","0","1","","0.2142317849","false","18","","0.1612769879","main_expt","","0.180786103","","0.05969087175","","0.2142317849","","","","","",""
"24","","bandit","94","250648","0.0-56.0-0.0","83071271","wem/bandit_single","AQL960O0LTRI8","pain","2","","76","L","3","","0","0","1","","0.2416868574","false","19","","0.1706614454","main_expt","","0.1867551017","","0.08316546351","","0.2416868574","","","","","",""
"379","","bandit","95","252783","0.0-57.0-0.0","83071271","wem/bandit_single","AQL960O0LTRI8","pain","2","","72","H","0","img/none_selected.jpg","0","0","1","","0.2173206475","false","20","","0.2173206475","main_expt","","0.2414580321","","0.08506169859","","0.2556662882","","","","","",""
"423","","bandit","96","254964","0.0-58.0-0.0","83071271","wem/bandit_single","AQL960O0LTRI8","pain","2","","72","H","0","img/none_selected.jpg","0","0","1","","0.2297715145","false","21","","0.2297715145","main_expt","","0.2552731096","","0.08337624199","","0.2484624222","","","","","",""
"193","","bandit","97","256915","0.0-59.0-0.0","83071271","wem/bandit_single","AQL960O0LTRI8","pain","2","","75","K","2","","0","0","1","","0.09400888178","false","22","","0.2893552095","main_expt","","0.2706059063","","0.09400888178","","0.3180013331","","","","","",""
"424","","bandit","98","259096","0.0-60.0-0.0","83071271","wem/bandit_single","AQL960O0LTRI8","pain","2","","74","J","1","","0","0","1","","0.2240124609","false","23","","0.1756353462","main_expt","","0.2240124609","","0.08373077729","","0.3018869565","","","","","",""
"278","","bandit","99","261132","0.0-61.0-0.0","83071271","wem/bandit_single","AQL960O0LTRI8","pain","2","","76","L","3","","0","0","1","","0.3479913718","false","24","","0.144307289","main_expt","","0.2337623096","","0.07394888686","","0.3479913718","","","","","",""
"15","","bandit","100","262904","0.0-62.0-0.0","83071271","wem/bandit_single","AQL960O0LTRI8","pain","2","","76","L","3","","0","0","1","","0.3851600672","false","25","","0.1103761204","main_expt","","0.1992837424","","0.1177231478","","0.3851600672","","","","","",""
"262","","bandit","101","264923","0.0-63.0-0.0","83071271","wem/bandit_single","AQL960O0LTRI8","pain","2","","75","K","2","","0","0","1","","0.1137187285","false","26","","0.09313295331","main_expt","","0.2273902023","","0.1137187285","","0.3771699284","","","","","",""
"79","","bandit","102","266759","0.0-64.0-0.0","83071271","wem/bandit_single","AQL960O0LTRI8","pain","2","","74","J","1","","0","0","1","","0.2020281611","false","27","","0.07841862492","main_expt","","0.2020281611","","0.1380279251","","0.3284072512","","","","","",""
"31","","bandit","103","268549","0.0-65.0-0.0","83071271","wem/bandit_single","AQL960O0LTRI8","pain","2","","72","H","0","img/none_selected.jpg","0","0","1","","0.0635621653","false","28","","0.0635621653","main_expt","","0.2121805601","","0.1926536066","","0.3708797381","","","","","",""
"53","","bandit","104","270360","0.0-66.0-0.0","83071271","wem/bandit_single","AQL960O0LTRI8","pain","2","","72","H","0","img/none_selected.jpg","0","0","1","","0.04349452081","false","29","","0.04349452081","main_expt","","0.1986823058","","0.1919064193","","0.3630760189","","","","","",""
"69","","bandit","105","272189","0.0-67.0-0.0","83071271","wem/bandit_single","AQL960O0LTRI8","pain","2","","76","L","3","","0","0","1","","0.3414786107","false","30","","0.06175929786","main_expt","","0.2674628916","","0.1767437005","","0.3414786107","","","","","",""
"398","","bandit","106","274344","0.0-68.0-0.0","83071271","wem/bandit_single","AQL960O0LTRI8","pain","2","","75","K","2","","0","0","1","","0.2417082081","false","31","","0.06380111671","main_expt","","0.2862820789","","0.2417082081","","0.3536929226","","","","","",""
"50","","bandit","107","276152","0.0-69.0-0.0","83071271","wem/bandit_single","AQL960O0LTRI8","pain","2","","75","K","2","","0","0","1","","0.2312742115","false","32","","0.08507033619","main_expt","","0.2895619367","","0.2312742115","","0.3238646006","","","","","",""
"34","","bandit","108","277943","0.0-70.0-0.0","83071271","wem/bandit_single","AQL960O0LTRI8","pain","2","","74","J","1","","0","1","0","","0.312502841","false","33","","0.1242974044","main_expt","","0.312502841","","0.2247834387","","0.3018803865","","","","","",""
"39","","bandit","109","279739","0.0-71.0-0.0","83071271","wem/bandit_single","AQL960O0LTRI8","pain","2","","74","J","1","","0","1","0","","0.2830864838","false","34","","0.158311101","main_expt","","0.2830864838","","0.1192543008","","0.2551449341","","","","","",""
"355","","bandit","110","281851","0.0-72.0-0.0","83071271","wem/bandit_single","AQL960O0LTRI8","pain","2","","74","J","1","","0","1","0","","0.2489219385","false","35","","0.1293969191","main_expt","","0.2489219385","","0.1336327135","","0.3200580053","","","","","",""
"119","","bandit","111","283728","0.0-73.0-0.0","83071271","wem/bandit_single","AQL960O0LTRI8","pain","2","","74","J","1","","0","0","1","","0.2090346537","false","36","","0.1800853883","main_expt","","0.2090346537","","0.09851205292","","0.3241899647","","","","","",""
"3","","bandit","112","285488","0.0-74.0-0.0","83071271","wem/bandit_single","AQL960O0LTRI8","pain","2","","74","J","1","","0","0","1","","0.210385238","false","37","","0.1025448258","main_expt","","0.210385238","","0.05943694951","","0.3029113802","","","","","",""
"410","","bandit","113","287656","0.0-75.0-0.0","83071271","wem/bandit_single","AQL960O0LTRI8","pain","2","","72","H","0","img/none_selected.jpg","0","0","1","","0.1604021245","false","38","","0.1604021245","main_expt","","0.162227856","","0.06217728149","","0.2958592888","","","","","",""
"766","","bandit","114","290180","0.0-76.0-0.0","83071271","wem/bandit_single","AQL960O0LTRI8","pain","2","","72","H","0","img/none_selected.jpg","0","0","1","","0.1336531769","false","39","","0.1336531769","main_expt","","0.1444893634","","0.08902833973","","0.2941945884","","","","","",""
"27","","bandit","115","291964","0.0-77.0-0.0","83071271","wem/bandit_single","AQL960O0LTRI8","pain","2","","75","K","2","","0","0","1","","0.1098655825","false","40","","0.1356889635","main_expt","","0.1340169349","","0.1098655825","","0.2784490849","","","","","",""
"62","","bandit","116","293783","0.0-78.0-0.0","83071271","wem/bandit_single","AQL960O0LTRI8","pain","2","","76","L","3","","0","0","1","","0.2943099773","false","41","","0.1434276379","main_expt","","0.1019114547","","0.125718056","","0.2943099773","","","","","",""
"147","","bandit","117","295687","0.0-79.0-0.0","83071271","wem/bandit_single","AQL960O0LTRI8","pain","2","","76","L","3","","0","0","1","","0.2502187242","false","42","","0.1432973755","main_expt","","0.07379386716","","0.07668278466","","0.2502187242","","","","","",""
"319","","bandit","118","297763","0.0-80.0-0.0","83071271","wem/bandit_single","AQL960O0LTRI8","pain","2","","74","J","1","","0","0","1","","0.08186566242","false","43","","0.1605884153","main_expt","","0.08186566242","","0.08403116819","","0.2691097515","","","","","",""
"27","","bandit","119","299547","0.0-81.0-0.0","83071271","wem/bandit_single","AQL960O0LTRI8","pain","2","","74","J","1","","0","0","1","","0.08692603594","false","44","","0.1396132557","main_expt","","0.08692603594","","0.08258467284","","0.2601206974","","","","","",""
"338","","bandit","120","301643","0.0-82.0-0.0","83071271","wem/bandit_single","AQL960O0LTRI8","pain","2","","72","H","0","img/none_selected.jpg","0","0","1","","0.2250933593","false","45","","0.2250933593","main_expt","","0.1212470101","","0.07253936928","","0.3222012474","","","","","",""
"39","","bandit","121","303439","0.0-83.0-0.0","83071271","wem/bandit_single","AQL960O0LTRI8","pain","2","","72","H","0","img/none_selected.jpg","0","0","1","","0.1826421925","false","46","","0.1826421925","main_expt","","0.134661007","","0.05374479905","","0.3060845752","","","","","",""
"87","","bandit","122","305283","0.0-84.0-0.0","83071271","wem/bandit_single","AQL960O0LTRI8","pain","2","","75","K","2","","0","0","1","","0.06764850751","false","47","","0.1706758886","main_expt","","0.1377890551","","0.06764850751","","0.290950603","","","","","",""
"447","","bandit","123","307487","0.0-85.0-0.0","83071271","wem/bandit_single","AQL960O0LTRI8","pain","2","","75","K","2","","0","0","1","","0.05656727153","false","48","","0.1686178854","main_expt","","0.1325860966","","0.05656727153","","0.329307254","","","","","",""
"107","","bandit","124","309351","0.0-86.0-0.0","83071271","wem/bandit_single","AQL960O0LTRI8","pain","2","","72","H","0","img/none_selected.jpg","0","0","1","","0.1822379713","false","49","","0.1822379713","main_expt","","0.1231750139","","0.08131597157","","0.405044281","","","","","",""
"25","","bandit","125","311135","0.0-87.0-0.0","83071271","wem/bandit_single","AQL960O0LTRI8","pain","2","","75","K","2","","0","0","1","","0.08274267654","false","50","","0.2513484478","main_expt","","0.1565964086","","0.08274267654","","0.4121919591","","","","","",""
"23","","bandit","126","312916","0.0-88.0-0.0","83071271","wem/bandit_single","AQL960O0LTRI8","pain","2","","76","L","3","","0","1","0","","0.4271607293","false","51","","0.2812942615","main_expt","","0.1464659706","","0.1154896937","","0.4271607293","","","","","",""
"37","","bandit","127","314711","0.0-89.0-0.0","83071271","wem/bandit_single","AQL960O0LTRI8","pain","2","","76","L","3","","0","1","0","","0.4249516559","false","52","","0.2224049931","main_expt","","0.1196909414","","0.07649260985","","0.4249516559","","","","","",""
"22","","bandit","128","316491","0.0-90.0-0.0","83071271","wem/bandit_single","AQL960O0LTRI8","pain","2","","76","L","3","","0","1","0","","0.414238899","false","53","","0.2135714686","main_expt","","0.1578713891","","0.06211708307","","0.414238899","","","","","",""
"3","","bandit","129","318252","0.0-91.0-0.0","83071271","wem/bandit_single","AQL960O0LTRI8","pain","2","","76","L","3","","0","1","0","","0.4404827494","false","54","","0.2471494284","main_expt","","0.1420893662","","0.05122165179","","0.4404827494","","","","","",""
"607","","bandit","130","320615","0.0-92.0-0.0","83071271","wem/bandit_single","AQL960O0LTRI8","pain","2","","76","L","3","","0","1","0","","0.4258944343","false","55","","0.26732004","main_expt","","0.1255118638","","0.05779626682","","0.4258944343","","","","","",""
"7","","bandit","131","322380","0.0-93.0-0.0","83071271","wem/bandit_single","AQL960O0LTRI8","pain","2","","76","L","3","","0","0","1","","0.4058732664","false","56","","0.258853447","main_expt","","0.1040792381","","0.06578325953","","0.4058732664","","","","","",""
"301","","bandit","132","324439","0.0-94.0-0.0","83071271","wem/bandit_single","AQL960O0LTRI8","pain","2","","76","L","3","","0","1","0","","0.4269212616","false","57","","0.247757255","main_expt","","0.1058118143","","0.07487929626","","0.4269212616","","","","","",""
"75","","bandit","133","326271","0.0-95.0-0.0","83071271","wem/bandit_single","AQL960O0LTRI8","pain","2","","76","L","3","","0","1","0","","0.4120073189","false","58","","0.2380046022","main_expt","","0.08107820888","","0.05601765109","","0.4120073189","","","","","",""
"73","","bandit","134","328103","0.0-96.0-0.0","83071271","wem/bandit_single","AQL960O0LTRI8","pain","2","","76","L","3","","0","0","1","","0.367464959","false","59","","0.273239949","main_expt","","0.115954585","","0.07158824907","","0.367464959","","","","","",""
"349","","bandit","135","330211","0.0-97.0-0.0","83071271","wem/bandit_single","AQL960O0LTRI8","pain","2","","76","L","3","","0","1","0","","0.3113576115","false","60","","0.314936794","main_expt","","0.190529156","","0.1021813758","","0.3113576115","","","","","",""
"158","","bandit","136","332127","0.0-98.0-0.0","83071271","wem/bandit_single","AQL960O0LTRI8","pain","2","","76","L","3","","0","1","0","","0.3217665369","false","61","","0.3361315769","main_expt","","0.2024767933","","0.1422244628","","0.3217665369","","","","","",""
"102","","bandit","137","333987","0.0-99.0-0.0","83071271","wem/bandit_single","AQL960O0LTRI8","pain","2","","76","L","3","","0","0","1","","0.3396020841","false","62","","0.3012470308","main_expt","","0.1478811465","","0.1543762338","","0.3396020841","","","","","",""
"629","","bandit","138","336375","0.0-100.0-0.0","83071271","wem/bandit_single","AQL960O0LTRI8","pain","2","","76","L","3","","0","0","1","","0.3326008901","false","63","","0.3035933772","main_expt","","0.1472080331","","0.1957871903","","0.3326008901","","","","","",""
"38","","bandit","139","338171","0.0-101.0-0.0","83071271","wem/bandit_single","AQL960O0LTRI8","pain","2","","76","L","3","","0","0","1","","0.2759567044","false","64","","0.3061864711","main_expt","","0.1523556625","","0.1998827037","","0.2759567044","","","","","",""
"77","","bandit","140","340007","0.0-102.0-0.0","83071271","wem/bandit_single","AQL960O0LTRI8","pain","2","","74","J","1","","0","0","1","","0.1640586258","false","65","","0.2795045379","main_expt","","0.1640586258","","0.2229124218","","0.330340259","","","","","",""
"86","","bandit","141","341852","0.0-103.0-0.0","83071271","wem/bandit_single","AQL960O0LTRI8","pain","2","","75","K","2","","0","0","1","","0.2821528041","false","66","","0.2624990872","main_expt","","0.1559289375","","0.2821528041","","0.394496842","","","","","",""
"42","","bandit","142","343652","0.0-104.0-0.0","83071271","wem/bandit_single","AQL960O0LTRI8","pain","2","","75","K","2","","0","1","0","","0.2228434199","false","67","","0.2316809648","main_expt","","0.09042099393","","0.2228434199","","0.3780229448","","","","","",""
"38","","bandit","143","345453","0.0-105.0-0.0","83071271","wem/bandit_single","AQL960O0LTRI8","pain","2","","75","K","2","","0","0","1","","0.2039549584","false","68","","0.2266776066","main_expt","","0.08874767337","","0.2039549584","","0.313258317","","","","","",""
"303","","bandit","144","347515","0.0-106.0-0.0","83071271","wem/bandit_single","AQL960O0LTRI8","pain","2","","75","K","2","","0","1","0","","0.1998164138","false","69","","0.1734363374","main_expt","","0.09103688118","","0.1998164138","","0.3466590849","","","","","",""
"151","","bandit","145","349423","0.0-107.0-0.0","83071271","wem/bandit_single","AQL960O0LTRI8","pain","2","","75","K","2","","0","0","1","","0.1936545157","false","70","","0.1469163378","main_expt","","0.139461016","","0.1936545157","","0.3389702644","","","","","",""
"98","","bandit","146","351280","0.0-108.0-0.0","83071271","wem/bandit_single","AQL960O0LTRI8","pain","2","","75","K","2","","0","0","1","","0.1875420319","false","71","","0.1903103683","main_expt","","0.1269809057","","0.1875420319","","0.3037518088","","","","","",""
"65","","bandit","147","353103","0.0-109.0-0.0","83071271","wem/bandit_single","AQL960O0LTRI8","pain","2","","75","K","2","","0","0","1","","0.2275961541","false","72","","0.2364630875","main_expt","","0.1541032278","","0.2275961541","","0.3007282465","","","","","",""
"42","","bandit","148","354904","0.0-110.0-0.0","83071271","wem/bandit_single","AQL960O0LTRI8","pain","2","","72","H","0","img/none_selected.jpg","0","0","1","","0.2715971604","false","73","","0.2715971604","main_expt","","0.1618198783","","0.2485431464","","0.2796446257","","","","","",""
"0","","bandit","149","356662","0.0-111.0-0.0","83071271","wem/bandit_single","AQL960O0LTRI8","pain","2","","76","L","3","","0","0","1","","0.2729876577","false","74","","0.2716254876","main_expt","","0.1428156761","","0.2394527842","","0.2729876577","","","","","",""
"278","","bandit","150","358699","0.0-112.0-0.0","83071271","wem/bandit_single","AQL960O0LTRI8","pain","2","","74","J","1","","0","0","1","","0.1312504708","false","75","","0.2998540279","main_expt","","0.1312504708","","0.2074684787","","0.2067723694","","","","","",""
"62","","bandit","151","360519","0.0-113.0-0.0","83071271","wem/bandit_single","AQL960O0LTRI8","pain","2","","74","J","1","","0","1","0","","0.1002429729","false","76","","0.3195890579","main_expt","","0.1002429729","","0.178133335","","0.2130899639","","","","","",""
"149","","bandit","152","362428","0.0-114.0-0.0","83071271","wem/bandit_single","AQL960O0LTRI8","pain","2","","74","J","1","","0","1","0","","0.07543037954","false","77","","0.2856322382","main_expt","","0.07543037954","","0.1788248706","","0.2109525889","","","","","",""
"73","","bandit","153","364258","0.0-115.0-0.0","83071271","wem/bandit_single","AQL960O0LTRI8","pain","2","","74","J","1","","0","0","1","","0.1153668935","false","78","","0.2919105172","main_expt","","0.1153668935","","0.1530293784","","0.1884332626","","","","","",""
"38","","bandit","154","366056","0.0-116.0-0.0","83071271","wem/bandit_single","AQL960O0LTRI8","pain","2","","74","J","1","","0","0","1","","0.07716777456","false","79","","0.2567181874","main_expt","","0.07716777456","","0.1593806387","","0.1883433777","","","","","",""
"40","","bandit","155","367855","0.0-117.0-0.0","83071271","wem/bandit_single","AQL960O0LTRI8","pain","2","","74","J","1","","0","0","1","","0.08058819474","false","80","","0.3200023444","main_expt","","0.08058819474","","0.1428411119","","0.1998795799","","","","","",""
"358","","bandit","156","369972","0.0-118.0-0.0","83071271","wem/bandit_single","AQL960O0LTRI8","pain","2","","76","L","3","","0","0","1","","0.1651756375","false","81","","0.3117755618","main_expt","","0.09856946308","","0.1982686668","","0.1651756375","","","","","",""
"325","","bandit","157","372055","0.0-119.0-0.0","83071271","wem/bandit_single","AQL960O0LTRI8","pain","2","","75","K","2","","0","0","1","","0.2291501313","false","82","","0.3379160562","main_expt","","0.1000946235","","0.2291501313","","0.2235829688","","","","","",""
"21","","bandit","158","373836","0.0-120.0-0.0","83071271","wem/bandit_single","AQL960O0LTRI8","pain","2","","72","H","0","img/none_selected.jpg","0","0","1","","0.3620865136","false","83","","0.3620865136","main_expt","","0.06687408093","","0.2259362275","","0.2456561592","","","","","",""
"31","","bandit","159","375627","0.0-121.0-0.0","83071271","wem/bandit_single","AQL960O0LTRI8","pain","2","","72","H","0","img/none_selected.jpg","0","0","1","","0.3904685548","false","84","","0.3904685548","main_expt","","0.06463964557","","0.1733031115","","0.2790354554","","","","","",""
"77","","bandit","160","377463","0.0-122.0-0.0","83071271","wem/bandit_single","AQL960O0LTRI8","pain","2","","76","L","3","","0","0","1","","0.2389339959","false","85","","0.4201611698","main_expt","","0.09044174456","","0.1577379057","","0.2389339959","","","","","",""
"60","","bandit","161","379283","0.0-123.0-0.0","83071271","wem/bandit_single","AQL960O0LTRI8","pain","2","","76","L","3","","0","0","1","","0.2905830411","false","86","","0.4544588035","main_expt","","0.07242924321","","0.1646880331","","0.2905830411","","","","","",""
"19","","bandit","162","381063","0.0-124.0-0.0","83071271","wem/bandit_single","AQL960O0LTRI8","pain","2","","75","K","2","","0","0","1","","0.157008097","false","87","","0.4444110865","main_expt","","0.06356931104","","0.157008097","","0.3336128518","","","","","",""
"597","","bandit","163","383419","0.0-125.0-0.0","83071271","wem/bandit_single","AQL960O0LTRI8","pain","2","","75","K","2","","0","0","1","","0.14663069","false","88","","0.4276611285","main_expt","","0.08819972964","","0.14663069","","0.3720796031","","","","","",""
"293","","bandit","164","385472","0.0-126.0-0.0","83071271","wem/bandit_single","AQL960O0LTRI8","pain","2","","74","J","1","","0","0","1","","0.09388884115","false","89","","0.395063318","main_expt","","0.09388884115","","0.1510377787","","0.3383028484","","","","","",""
"337","","bandit","165","387567","0.0-127.0-0.0","83071271","wem/bandit_single","AQL960O0LTRI8","pain","2","","74","J","1","","0","1","0","","0.1265583984","false","90","","0.3790569413","main_expt","","0.1265583984","","0.1600185234","","0.3550100304","","","","","",""
"129","","bandit","166","389455","0.0-128.0-0.0","83071271","wem/bandit_single","AQL960O0LTRI8","pain","2","","74","J","1","","0","0","1","","0.09433033469","false","91","","0.3763017738","main_expt","","0.09433033469","","0.1618321768","","0.4198742783","","","","","",""
"61","","bandit","167","391276","0.0-129.0-0.0","83071271","wem/bandit_single","AQL960O0LTRI8","pain","2","","74","J","1","","0","0","1","","0.05111462501","false","92","","0.3829045729","main_expt","","0.05111462501","","0.1408839615","","0.4522920775","","","","","",""
"13","","bandit","168","393047","0.0-130.0-0.0","83071271","wem/bandit_single","AQL960O0LTRI8","pain","2","","74","J","1","","0","0","1","","0.05378689714","false","93","","0.4155552038","main_expt","","0.05378689714","","0.1675332925","","0.4572096334","","","","","",""
"638","","bandit","169","395443","0.0-131.0-0.0","83071271","wem/bandit_single","AQL960O0LTRI8","pain","2","","76","L","3","","0","0","1","","0.457248447","false","94","","0.3964247486","main_expt","","0.04385487208","","0.2154783406","","0.457248447","","","","","",""
"17","","bandit","170","397219","0.0-132.0-0.0","83071271","wem/bandit_single","AQL960O0LTRI8","pain","2","","76","L","3","","0","0","1","","0.4284600246","false","95","","0.4028729744","main_expt","","0.02374316345","","0.2434825378","","0.4284600246","","","","","",""
"36","","bandit","171","399014","0.0-133.0-0.0","83071271","wem/bandit_single","AQL960O0LTRI8","pain","2","","76","L","3","","0","0","1","","0.4213934208","false","96","","0.3937220057","main_expt","","0.01119532444","","0.300751002","","0.4213934208","","","","","",""
"79","","bandit","172","400850","0.0-134.0-0.0","83071271","wem/bandit_single","AQL960O0LTRI8","pain","2","","75","K","2","","0","0","1","","0.2390268827","false","97","","0.3951408858","main_expt","","0.01205949719","","0.2390268827","","0.4093218277","","","","","",""
"17","","bandit","173","402626","0.0-135.0-0.0","83071271","wem/bandit_single","AQL960O0LTRI8","pain","2","","75","K","2","","0","0","1","","0.1872158766","false","98","","0.3872505806","main_expt","","0.02530753644","","0.1872158766","","0.4011771953","","","","","",""
"221","","bandit","174","404607","0.0-136.0-0.0","83071271","wem/bandit_single","AQL960O0LTRI8","pain","2","","75","K","2","","0","0","1","","0.2281726053","false","99","","0.3237376228","main_expt","","0.02318317113","","0.2281726053","","0.4319140629","","","","","",""
"69","","bandit","175","406435","0.0-137.0-0.0","83071271","wem/bandit_single","AQL960O0LTRI8","pain","2","","72","H","0","img/none_selected.jpg","0","0","1","","0.3840854176","false","100","","0.3840854176","main_expt","","0.01577819671","","0.2322026393","","0.4388591553","","","","","",""
"196","","bandit","176","408391","0.0-138.0-0.0","83071271","wem/bandit_single","AQL960O0LTRI8","pain","2","","72","H","0","img/none_selected.jpg","0","0","1","","0.4043087267","false","101","","0.4043087267","main_expt","","0.03767304301","","0.2675158553","","0.4405661836","","","","","",""
"97","","bandit","177","410246","0.0-139.0-0.0","83071271","wem/bandit_single","AQL960O0LTRI8","pain","2","","72","H","0","img/none_selected.jpg","0","0","1","","0.423372456","false","102","","0.423372456","main_expt","","0.03003558128","","0.2334450153","","0.4155134761","","","","","",""
"158","","bandit","178","412166","0.0-140.0-0.0","83071271","wem/bandit_single","AQL960O0LTRI8","pain","2","","74","J","1","","0","0","1","","0.04748945294","false","103","","0.4305794097","main_expt","","0.04748945294","","0.2546104349","","0.4079284656","","","","","",""
"21","","bandit","179","413947","0.0-141.0-0.0","83071271","wem/bandit_single","AQL960O0LTRI8","pain","2","","74","J","1","","0","0","1","","0.06674284653","false","104","","0.4515631957","main_expt","","0.06674284653","","0.2657782481","","0.3827156199","","","","","",""
"40","","bandit","180","415746","0.0-142.0-0.0","83071271","wem/bandit_single","AQL960O0LTRI8","pain","2","","74","J","1","","0","0","1","","0.0806059128","false","105","","0.454723383","main_expt","","0.0806059128","","0.2397797145","","0.3892206975","","","","","",""
"149","","bandit","181","417654","0.0-143.0-0.0","83071271","wem/bandit_single","AQL960O0LTRI8","pain","2","","76","L","3","","0","1","0","","0.3499671591","false","106","","0.4487898282","main_expt","","0.1147522423","","0.1744994936","","0.3499671591","","","","","",""
"385","","bandit","182","419799","0.0-144.0-0.0","83071271","wem/bandit_single","AQL960O0LTRI8","pain","2","","76","L","3","","0","1","0","","0.3378870415","false","107","","0.4300484018","main_expt","","0.1225979079","","0.2004436591","","0.3378870415","","","","","",""
"165","","bandit","183","421722","0.0-145.0-0.0","83071271","wem/bandit_single","AQL960O0LTRI8","pain","2","","76","L","3","","0","1","0","","0.3206855754","false","108","","0.4056187414","main_expt","","0.1808232933","","0.1781349215","","0.3206855754","","","","","",""
"89","","bandit","184","423570","0.0-146.0-0.0","83071271","wem/bandit_single","AQL960O0LTRI8","pain","2","","76","L","3","","0","1","0","","0.3412252333","false","109","","0.4145536126","main_expt","","0.2004688742","","0.1603989886","","0.3412252333","","","","","",""
"97","","bandit","185","425427","0.0-147.0-0.0","83071271","wem/bandit_single","AQL960O0LTRI8","pain","2","","76","L","3","","0","0","1","","0.3650365033","false","110","","0.3897928763","main_expt","","0.2261403934","","0.1300992081","","0.3650365033","","","","","",""
"267","","bandit","186","427454","0.0-148.0-0.0","83071271","wem/bandit_single","AQL960O0LTRI8","pain","2","","76","L","3","","0","1","0","","0.341048274","false","111","","0.4150540561","main_expt","","0.1612973213","","0.1740321776","","0.341048274","","","","","",""
"208","","bandit","187","429424","0.0-149.0-0.0","83071271","wem/bandit_single","AQL960O0LTRI8","pain","2","","76","L","3","","0","1","0","","0.3254027875","false","112","","0.4394636757","main_expt","","0.1655724556","","0.2444477537","","0.3254027875","","","","","",""
"52","","bandit","188","431235","0.0-150.0-0.0","83071271","wem/bandit_single","AQL960O0LTRI8","pain","2","","76","L","3","","0","1","0","","0.308059901","false","113","","0.4301961846","main_expt","","0.1319876284","","0.2195244909","","0.308059901","","","","","",""
"0","","bandit","189","432995","0.0-151.0-0.0","83071271","wem/bandit_single","AQL960O0LTRI8","pain","2","","76","L","3","","0","0","1","","0.3238695313","false","114","","0.4497687286","main_expt","","0.1147934267","","0.2719971232","","0.3238695313","","","","","",""
"28","","bandit","190","434783","0.0-152.0-0.0","83071271","wem/bandit_single","AQL960O0LTRI8","pain","2","","76","L","3","","0","0","1","","0.3315084933","false","115","","0.4448888627","main_expt","","0.1301750396","","0.2447677414","","0.3315084933","","","","","",""
"156","","bandit","191","436699","0.0-153.0-0.0","83071271","wem/bandit_single","AQL960O0LTRI8","pain","2","","76","L","3","","0","0","1","","0.3234657333","false","116","","0.3905844751","main_expt","","0.130185029","","0.2296513069","","0.3234657333","","","","","",""
"111","","bandit","192","438571","0.0-154.0-0.0","83071271","wem/bandit_single","AQL960O0LTRI8","pain","2","","76","L","3","","0","0","1","","0.300593156","false","117","","0.424359093","main_expt","","0.1548944576","","0.2151266314","","0.300593156","","","","","",""
"248","","bandit","193","440579","0.0-155.0-0.0","83071271","wem/bandit_single","AQL960O0LTRI8","pain","2","","76","L","3","","0","1","0","","0.3585138177","false","118","","0.4121010571","main_expt","","0.172903741","","0.1311834018","","0.3585138177","","","","","",""
"55","","bandit","194","442395","0.0-156.0-0.0","83071271","wem/bandit_single","AQL960O0LTRI8","pain","2","","76","L","3","","0","0","1","","0.3062020697","false","119","","0.4117558181","main_expt","","0.1707570171","","0.1190099868","","0.3062020697","","","","","",""
"20","","bandit","195","444174","0.0-157.0-0.0","83071271","wem/bandit_single","AQL960O0LTRI8","pain","2","","76","L","3","","0","0","1","","0.3312553157","false","120","","0.4275669698","main_expt","","0.1870802187","","0.1117686876","","0.3312553157","","","","","",""
"4","","bandit","196","445939","0.0-158.0-0.0","83071271","wem/bandit_single","AQL960O0LTRI8","pain","2","","76","L","3","","0","0","1","","0.3892509988","false","121","","0.4428986123","main_expt","","0.1870161021","","0.1415869423","","0.3892509988","","","","","",""
"24","","bandit","197","447723","0.0-159.0-0.0","83071271","wem/bandit_single","AQL960O0LTRI8","pain","2","","76","L","3","","0","0","1","","0.4330036483","false","122","","0.4376246318","main_expt","","0.1926804843","","0.1398412585","","0.4330036483","","","","","",""
"47","","bandit","198","449531","0.0-160.0-0.0","83071271","wem/bandit_single","AQL960O0LTRI8","pain","2","","74","J","1","","0","0","1","","0.2057615037","false","123","","0.4153394585","main_expt","","0.2057615037","","0.1163210087","","0.4555957022","","","","","",""
"7","","bandit","199","451298","0.0-161.0-0.0","83071271","wem/bandit_single","AQL960O0LTRI8","pain","2","","74","J","1","","0","1","0","","0.2639565913","false","124","","0.4203389285","main_expt","","0.2639565913","","0.07344578178","","0.4565029776","","","","","",""
"21","","bandit","200","453078","0.0-162.0-0.0","83071271","wem/bandit_single","AQL960O0LTRI8","pain","2","","74","J","1","","0","0","1","","0.3672341475","false","125","","0.3710029205","main_expt","","0.3672341475","","0.08752025541","","0.4511527373","","","","","",""
"52","","bandit","201","454890","0.0-163.0-0.0","83071271","wem/bandit_single","AQL960O0LTRI8","pain","2","","74","J","1","","0","1","0","","0.3606148775","false","126","","0.3465273485","main_expt","","0.3606148775","","0.1064058914","","0.4426171603","","","","","",""
"397","","bandit","202","457046","0.0-164.0-0.0","83071271","wem/bandit_single","AQL960O0LTRI8","pain","2","","74","J","1","","0","1","0","","0.4079700646","false","127","","0.4106613481","main_expt","","0.4079700646","","0.1103525866","","0.4259104728","","","","","",""
"25","","bandit","203","458830","0.0-165.0-0.0","83071271","wem/bandit_single","AQL960O0LTRI8","pain","2","","74","J","1","","0","1","0","","0.4204919645","false","128","","0.4377707947","main_expt","","0.4204919645","","0.1060480298","","0.4543754413","","","","","",""
"108","","bandit","204","460699","0.0-166.0-0.0","83071271","wem/bandit_single","AQL960O0LTRI8","pain","2","","74","J","1","","0","0","1","","0.4040923387","false","129","","0.4481781661","main_expt","","0.4040923387","","0.1332603285","","0.4587533269","","","","","",""
"139","","bandit","205","462599","0.0-167.0-0.0","83071271","wem/bandit_single","AQL960O0LTRI8","pain","2","","74","J","1","","0","0","1","","0.3906791758","false","130","","0.4301237728","main_expt","","0.3906791758","","0.09182468565","","0.4618517855","","","","","",""
"32","","bandit","206","464390","0.0-168.0-0.0","83071271","wem/bandit_single","AQL960O0LTRI8","pain","2","","74","J","1","","0","1","0","","0.380553204","false","131","","0.4457858875","main_expt","","0.380553204","","0.09388333002","","0.4622878414","","","","","",""
"684","","bandit","207","466834","0.0-169.0-0.0","83071271","wem/bandit_single","AQL960O0LTRI8","pain","2","","74","J","1","","0","0","1","","0.4000467043","false","132","","0.4732894157","main_expt","","0.4000467043","","0.07277513685","","0.4624711794","","","","","",""
"333","","bandit","208","468935","0.0-170.0-0.0","83071271","wem/bandit_single","AQL960O0LTRI8","pain","2","","74","J","1","","0","0","1","","0.3929100345","false","133","","0.4607838047","main_expt","","0.3929100345","","0.1108266248","","0.4794526202","","","","","",""
"826","","bandit","209","471522","0.0-171.0-0.0","83071271","wem/bandit_single","AQL960O0LTRI8","pain","2","","74","J","1","","0","1","0","","0.4009617203","false","134","","0.4663808264","main_expt","","0.4009617203","","0.1466671782","","0.481632873","","","","","",""
"8","","bandit","210","473291","0.0-172.0-0.0","83071271","wem/bandit_single","AQL960O0LTRI8","pain","2","","74","J","1","","0","0","1","","0.3859426802","false","135","","0.4625615306","main_expt","","0.3859426802","","0.1625995743","","0.4667599148","","","","","",""
"143","","bandit","211","475196","0.0-173.0-0.0","83071271","wem/bandit_single","AQL960O0LTRI8","pain","2","","74","J","1","","0","0","1","","0.4089350186","false","136","","0.4629143089","main_expt","","0.4089350186","","0.1555673637","","0.4468402508","","","","","",""
"90","","bandit","212","477045","0.0-174.0-0.0","83071271","wem/bandit_single","AQL960O0LTRI8","pain","2","","74","J","1","","0","0","1","","0.4009707033","false","137","","0.4644074349","main_expt","","0.4009707033","","0.1395554881","","0.4331537256","","","","","",""
"229","","bandit","213","479033","0.0-175.0-0.0","83071271","wem/bandit_single","AQL960O0LTRI8","pain","2","","76","L","3","","0","0","1","","0.4578477473","false","138","","0.4741213624","main_expt","","0.4116224971","","0.1387442451","","0.4578477473","","","","","",""
"5","","bandit","214","480798","0.0-176.0-0.0","83071271","wem/bandit_single","AQL960O0LTRI8","pain","2","","76","L","3","","0","0","1","","0.464919911","false","139","","0.4736492243","main_expt","","0.4129411324","","0.1693780048","","0.464919911","","","","","",""
"73","","bandit","215","482630","0.0-177.0-0.0","83071271","wem/bandit_single","AQL960O0LTRI8","pain","2","","76","L","3","","0","0","1","","0.4614371154","false","140","","0.4752570035","main_expt","","0.4494235083","","0.1753437518","","0.4614371154","","","","","",""
"36","","bandit","216","484426","0.0-178.0-0.0","83071271","wem/bandit_single","AQL960O0LTRI8","pain","2","","75","K","2","","0","0","1","","0.2288512635","false","141","","0.4857055712","main_expt","","0.4453484197","","0.2288512635","","0.4747872093","","","","","",""
"32","","bandit","217","486218","0.0-179.0-0.0","83071271","wem/bandit_single","AQL960O0LTRI8","pain","2","","75","K","2","","0","0","1","","0.2579513082","false","142","","0.4792724089","main_expt","","0.4604546146","","0.2579513082","","0.4513335087","","","","","",""
"42","","bandit","218","488022","0.0-180.0-0.0","83071271","wem/bandit_single","AQL960O0LTRI8","pain","2","","75","K","2","","0","0","1","","0.21432658","false","143","","0.48057755","main_expt","","0.4826245684","","0.21432658","","0.4198830698","","","","","",""
"404","","bandit","219","490186","0.0-181.0-0.0","83071271","wem/bandit_single","AQL960O0LTRI8","pain","2","","72","H","0","img/none_selected.jpg","0","1","0","","0.4777600445","false","144","","0.4777600445","main_expt","","0.4890981767","","0.1938021535","","0.3673231636","","","","","",""
"115","","bandit","220","492062","0.0-182.0-0.0","83071271","wem/bandit_single","AQL960O0LTRI8","pain","2","","72","H","0","img/none_selected.jpg","0","0","1","","0.4735071841","false","145","","0.4735071841","main_expt","","0.4680822138","","0.206497324","","0.3772368795","","","","","",""
"23","","bandit","221","493845","0.0-183.0-0.0","83071271","wem/bandit_single","AQL960O0LTRI8","pain","2","","72","H","0","img/none_selected.jpg","0","0","1","","0.4598241197","false","146","","0.4598241197","main_expt","","0.4660155258","","0.1857351915","","0.3767069828","","","","","",""
"5","","bandit","222","495609","0.0-184.0-0.0","83071271","wem/bandit_single","AQL960O0LTRI8","pain","2","","72","H","0","img/none_selected.jpg","0","1","0","","0.4279993213","false","147","","0.4279993213","main_expt","","0.4723880167","","0.1046475439","","0.4039806626","","","","","",""
"123","","bandit","223","497494","0.0-185.0-0.0","83071271","wem/bandit_single","AQL960O0LTRI8","pain","2","","72","H","0","img/none_selected.jpg","0","0","1","","0.4422782314","false","148","","0.4422782314","main_expt","","0.4692947112","","0.1098111678","","0.4178396587","","","","","",""
"76","","bandit","224","499331","0.0-186.0-0.0","83071271","wem/bandit_single","AQL960O0LTRI8","pain","2","","72","H","0","img/none_selected.jpg","0","0","1","","0.4514785706","false","149","","0.4514785706","main_expt","","0.4702562614","","0.1221971929","","0.3932004216","","","","","",""
"27","","bandit","225","501118","0.0-187.0-0.0","83071271","wem/bandit_single","AQL960O0LTRI8","pain","2","","72","H","0","img/none_selected.jpg","0","1","0","","0.4189864991","false","150","","0.4189864991","main_expt","","0.4714094479","","0.1354034315","","0.4103897693","","","","","",""
"56","","bandit","226","502934","0.0-188.0-0.0","83071271","wem/bandit_single","AQL960O0LTRI8","pain","2","","72","H","0","img/none_selected.jpg","0","0","1","","0.4389233528","false","151","","0.4389233528","main_expt","","0.4761401221","","0.1041822367","","0.4122179041","","","","","",""
"37","","bandit","227","504730","0.0-189.0-0.0","83071271","wem/bandit_single","AQL960O0LTRI8","pain","2","","72","H","0","img/none_selected.jpg","0","1","0","","0.4244236929","false","152","","0.4244236929","main_expt","","0.4697737123","","0.09038071171","","0.3952463752","","","","","",""
"286","","bandit","228","506779","0.0-190.0-0.0","83071271","wem/bandit_single","AQL960O0LTRI8","pain","2","","72","H","0","img/none_selected.jpg","0","0","1","","0.4476471014","false","153","","0.4476471014","main_expt","","0.446753433","","0.08460578514","","0.3877384472","","","","","",""
"58","","bandit","229","508599","0.0-191.0-0.0","83071271","wem/bandit_single","AQL960O0LTRI8","pain","2","","72","H","0","img/none_selected.jpg","0","0","1","","0.4505336387","false","154","","0.4505336387","main_expt","","0.4588815304","","0.06957086972","","0.3551427127","","","","","",""
"634","","bandit","230","510994","0.0-192.0-0.0","83071271","wem/bandit_single","AQL960O0LTRI8","pain","2","","72","H","0","img/none_selected.jpg","0","0","1","","0.466992112","false","155","","0.466992112","main_expt","","0.4483664475","","0.07570805595","","0.3027898514","","","","","",""
"19","","bandit","231","512774","0.0-193.0-0.0","83071271","wem/bandit_single","AQL960O0LTRI8","pain","2","","74","J","1","","0","1","0","","0.4383670719","false","156","","0.4383448919","main_expt","","0.4383670719","","0.1010055374","","0.3245978035","","","","","",""
"264","","bandit","232","514798","0.0-194.0-0.0","83071271","wem/bandit_single","AQL960O0LTRI8","pain","2","","74","J","1","","0","0","1","","0.42990192","false","157","","0.4181306447","main_expt","","0.42990192","","0.09959580587","","0.3293821827","","","","","",""
"323","","bandit","233","516882","0.0-195.0-0.0","83071271","wem/bandit_single","AQL960O0LTRI8","pain","2","","74","J","1","","0","0","1","","0.4112902825","false","158","","0.4322591637","main_expt","","0.4112902825","","0.09130540219","","0.3053991167","","","","","",""
"339","","bandit","234","518982","0.0-196.0-0.0","83071271","wem/bandit_single","AQL960O0LTRI8","pain","2","","74","J","1","","0","0","1","","0.4085113589","false","159","","0.4129829621","main_expt","","0.4085113589","","0.07080299429","","0.3475565739","","","","","",""
"42","","bandit","235","520786","0.0-197.0-0.0","83071271","wem/bandit_single","AQL960O0LTRI8","pain","2","","76","L","3","","0","0","1","","0.327393219","false","160","","0.4094933958","main_expt","","0.4079314082","","0.05017383151","","0.327393219","","","","","",""
"599","","bandit","236","523146","0.0-198.0-0.0","83071271","wem/bandit_single","AQL960O0LTRI8","pain","2","","76","L","3","","0","0","1","","0.303429729","false","161","","0.404058003","main_expt","","0.3631501835","","0.03820476969","","0.303429729","","","","","",""
"235","","bandit","237","525142","0.0-199.0-0.0","83071271","wem/bandit_single","AQL960O0LTRI8","pain","2","","75","K","2","","0","0","1","","0.02512507724","false","162","","0.3846726044","main_expt","","0.3470346279","","0.02512507724","","0.3079210788","","","","","",""
"43","","bandit","238","526946","0.0-200.0-0.0","83071271","wem/bandit_single","AQL960O0LTRI8","pain","2","","75","K","2","","0","0","1","","0.03932379445","false","163","","0.4016559577","main_expt","","0.372656257","","0.03932379445","","0.3004483846","","","","","",""
"51","","bandit","239","528759","0.0-201.0-0.0","83071271","wem/bandit_single","AQL960O0LTRI8","pain","2","","72","H","0","img/none_selected.jpg","0","1","0","","0.3566256613","false","164","","0.3566256613","main_expt","","0.3802753243","","0.01829840099","","0.2886014424","","","","","",""
"390","","bandit","240","530910","0.0-202.0-0.0","83071271","wem/bandit_single","AQL960O0LTRI8","pain","2","","72","H","0","img/none_selected.jpg","0","0","1","","0.3509524146","false","165","","0.3509524146","main_expt","","0.3881672334","","0.02415252971","","0.2088325088","","","","","",""
"36","","bandit","241","532707","0.0-203.0-0.0","83071271","wem/bandit_single","AQL960O0LTRI8","pain","2","","72","H","0","img/none_selected.jpg","0","0","1","","0.2773632025","false","166","","0.2773632025","main_expt","","0.359536632","","0.02185778449","","0.2160195985","","","","","",""
"59","","bandit","242","534526","0.0-204.0-0.0","83071271","wem/bandit_single","AQL960O0LTRI8","pain","2","","72","H","0","img/none_selected.jpg","0","0","1","","0.3022689801","false","167","","0.3022689801","main_expt","","0.3693034809","","0.02761124673","","0.1836534764","","","","","",""
"31","","bandit","243","536318","0.0-205.0-0.0","83071271","wem/bandit_single","AQL960O0LTRI8","pain","2","","72","H","0","img/none_selected.jpg","0","0","1","","0.2937690027","false","168","","0.2937690027","main_expt","","0.3449050916","","0.02160611799","","0.1701024481","","","","","",""
"124","","bandit","244","538202","0.0-206.0-0.0","83071271","wem/bandit_single","AQL960O0LTRI8","pain","2","","74","J","1","","0","0","1","","0.3515710367","false","169","","0.2488586406","main_expt","","0.3515710367","","0.02113437328","","0.1896079261","","","","","",""
"417","","bandit","245","540382","0.0-207.0-0.0","83071271","wem/bandit_single","AQL960O0LTRI8","pain","2","","72","H","0","img/none_selected.jpg","0","0","1","","0.2112819205","false","170","","0.2112819205","main_expt","","0.3233833909","","0.01292956957","","0.2377789273","","","","","",""
"340","","bandit","246","542482","0.0-208.0-0.0","83071271","wem/bandit_single","AQL960O0LTRI8","pain","2","","75","K","2","","0","0","1","","0.01989811998","false","171","","0.2217900108","main_expt","","0.2468086364","","0.01989811998","","0.2640247014","","","","","",""
"19","","bandit","247","544261","0.0-209.0-0.0","83071271","wem/bandit_single","AQL960O0LTRI8","pain","2","","76","L","3","","0","0","1","","0.2055846389","false","172","","0.2387596097","main_expt","","0.3408906282","","0.0296351857","","0.2055846389","","","","","",""
"83","","bandit","248","546106","0.0-210.0-0.0","83071271","wem/bandit_single","AQL960O0LTRI8","pain","2","","72","H","0","img/none_selected.jpg","0","0","1","","0.2602125502","false","173","","0.2602125502","main_expt","","0.3252944763","","0.03540771295","","0.2438181894","","","","","",""
"176","","bandit","249","548042","0.0-211.0-0.0","83071271","wem/bandit_single","AQL960O0LTRI8","pain","2","","76","L","3","","0","0","1","","0.2733147352","false","174","","0.2202846771","main_expt","","0.3200904142","","0.03725130304","","0.2733147352","","","","","",""
"291","","bandit","250","550094","0.0-212.0-0.0","83071271","wem/bandit_single","AQL960O0LTRI8","pain","2","","72","H","0","img/none_selected.jpg","0","0","1","","0.233285157","false","175","","0.233285157","main_expt","","0.3622659173","","0.03242602151","","0.2767671147","","","","","",""
"66","","bandit","251","551922","0.0-213.0-0.0","83071271","wem/bandit_single","AQL960O0LTRI8","pain","2","","74","J","1","","0","0","1","","0.2937007374","false","176","","0.2264555061","main_expt","","0.2937007374","","0.04697917163","","0.2195478827","","","","","",""
"14","","bandit","252","553699","0.0-214.0-0.0","83071271","wem/bandit_single","AQL960O0LTRI8","pain","2","","75","K","2","","0","1","0","","0.04124559051","false","177","","0.241841845","main_expt","","0.2513366018","","0.04124559051","","0.1515864758","","","","","",""
"17","","bandit","253","555479","0.0-215.0-0.0","83071271","wem/bandit_single","AQL960O0LTRI8","pain","2","","75","K","2","","0","0","1","","0.06205026603","false","178","","0.2423953475","main_expt","","0.3159509921","","0.06205026603","","0.1618037694","","","","","",""
"213","","bandit","254","557454","0.0-216.0-0.0","83071271","wem/bandit_single","AQL960O0LTRI8","pain","2","","75","K","2","","0","0","1","","0.08412795639","false","179","","0.2523089652","main_expt","","0.2899582247","","0.08412795639","","0.1653326191","","","","","",""
"110","","bandit","255","559325","0.0-217.0-0.0","83071271","wem/bandit_single","AQL960O0LTRI8","pain","2","","75","K","2","","0","0","1","","0.1304099397","false","180","","0.2223981335","main_expt","","0.3371390753","","0.1304099397","","0.1751853148","","","","","",""
"111","","bandit","256","561199","0.0-218.0-0.0","83071271","wem/bandit_single","AQL960O0LTRI8","pain","2","","75","K","2","","0","1","0","","0.1801801058","false","181","","0.2319473409","main_expt","","0.3365963609","","0.1801801058","","0.211978586","","","","","",""
"6","","bandit","257","562966","0.0-219.0-0.0","83071271","wem/bandit_single","AQL960O0LTRI8","pain","2","","75","K","2","","0","1","0","","0.1951504204","false","182","","0.2338578761","main_expt","","0.2643366398","","0.1951504204","","0.2323199139","","","","","",""
"54","","bandit","258","564782","0.0-220.0-0.0","83071271","wem/bandit_single","AQL960O0LTRI8","pain","2","","75","K","2","","0","0","1","","0.2330781564","false","183","","0.265472663","main_expt","","0.2464000872","","0.2330781564","","0.2252803731","","","","","",""
"22","","bandit","259","566566","0.0-221.0-0.0","83071271","wem/bandit_single","AQL960O0LTRI8","pain","2","","75","K","2","","0","0","1","","0.2711395555","false","184","","0.2826161147","main_expt","","0.3039071009","","0.2711395555","","0.1614269484","","","","","",""
"38","","bandit","260","568366","0.0-222.0-0.0","83071271","wem/bandit_single","AQL960O0LTRI8","pain","2","","75","K","2","","0","0","1","","0.2182249031","false","185","","0.2542525597","main_expt","","0.3100879913","","0.2182249031","","0.1636939604","","","","","",""
"150","","bandit","261","570278","0.0-223.0-0.0","83071271","wem/bandit_single","AQL960O0LTRI8","pain","2","","75","K","2","","0","0","1","","0.2609412602","false","186","","0.260460085","main_expt","","0.28505789","","0.2609412602","","0.1744134641","","","","","",""
"35","","bandit","262","572074","0.0-224.0-0.0","83071271","wem/bandit_single","AQL960O0LTRI8","pain","2","","75","K","2","","0","0","1","","0.2242136054","false","187","","0.2119714508","main_expt","","0.2698122055","","0.2242136054","","0.1955069844","","","","","",""
"221","","bandit","263","574057","0.0-225.0-0.0","83071271","wem/bandit_single","AQL960O0LTRI8","pain","2","","74","J","1","","0","0","1","","0.2270240414","false","188","","0.1887053186","main_expt","","0.2270240414","","0.2404864381","","0.2289740151","","","","","",""
"39","","bandit","264","575858","0.0-226.0-0.0","83071271","wem/bandit_single","AQL960O0LTRI8","pain","2","","74","J","1","","0","0","1","","0.2182158859","false","189","","0.1944753942","main_expt","","0.2182158859","","0.2177927796","","0.2495887903","","","","","",""
"27","","bandit","265","577646","0.0-227.0-0.0","83071271","wem/bandit_single","AQL960O0LTRI8","pain","2","","76","L","3","","0","0","1","","0.2815424982","false","190","","0.2163673671","main_expt","","0.2445882628","","0.2445379922","","0.2815424982","","","","","",""
"191","","bandit","266","579599","0.0-228.0-0.0","83071271","wem/bandit_single","AQL960O0LTRI8","pain","2","","72","H","0","img/none_selected.jpg","0","0","1","","0.2584180811","false","191","","0.2584180811","main_expt","","0.2733302752","","0.2910265903","","0.2401402076","","","","","",""
"110","","bandit","267","581469","0.0-229.0-0.0","83071271","wem/bandit_single","AQL960O0LTRI8","pain","2","","76","L","3","","0","0","1","","0.2510809658","false","192","","0.2555063139","main_expt","","0.2776932955","","0.3095983682","","0.2510809658","","","","","",""
"100","","bandit","268","583330","0.0-230.0-0.0","83071271","wem/bandit_single","AQL960O0LTRI8","pain","2","","72","H","0","img/none_selected.jpg","0","0","1","","0.2694863875","false","193","","0.2694863875","main_expt","","0.3335190616","","0.3217156539","","0.2875405407","","","","","",""
"46","","bandit","269","585138","0.0-231.0-0.0","83071271","wem/bandit_single","AQL960O0LTRI8","pain","2","","76","L","3","","0","1","0","","0.2183543786","false","194","","0.2894821148","main_expt","","0.3308991278","","0.278878796","","0.2183543786","","","","","",""
"254","","bandit","270","587154","0.0-232.0-0.0","83071271","wem/bandit_single","AQL960O0LTRI8","pain","2","","76","L","3","","0","1","0","","0.2626349305","false","195","","0.3028339589","main_expt","","0.3676749275","","0.2738334973","","0.2626349305","","","","","",""
"2","","bandit","271","588917","0.0-233.0-0.0","83071271","wem/bandit_single","AQL960O0LTRI8","pain","2","","76","L","3","","0","0","1","","0.2046446137","false","196","","0.3051171059","main_expt","","0.3523241719","","0.2494818112","","0.2046446137","","","","","",""
"6","","bandit","272","590686","0.0-234.0-0.0","83071271","wem/bandit_single","AQL960O0LTRI8","pain","2","","76","L","3","","0","0","1","","0.2122082762","false","197","","0.2901305303","main_expt","","0.3874168703","","0.2620473779","","0.2122082762","","","","","",""
"134","","bandit","273","592581","0.0-235.0-0.0","83071271","wem/bandit_single","AQL960O0LTRI8","pain","2","","76","L","3","","0","1","0","","0.1962120249","false","198","","0.2403600488","main_expt","","0.4072223947","","0.3153682745","","0.1962120249","","","","","",""
"86","","bandit","274","594430","0.0-236.0-0.0","83071271","wem/bandit_single","AQL960O0LTRI8","pain","2","","76","L","3","","0","0","1","","0.1840541487","false","199","","0.2034733728","main_expt","","0.4284861426","","0.2424407548","","0.1840541487","","","","","",""
"183","","bandit","275","596374","0.0-237.0-0.0","83071271","wem/bandit_single","AQL960O0LTRI8","pain","2","","76","L","3","","0","0","1","","0.1575563837","false","200","","0.2193557146","main_expt","","0.4181746593","","0.2692586032","","0.1575563837","","","","","",""
"74","","bandit","276","598209","0.0-238.0-0.0","83071271","wem/bandit_single","AQL960O0LTRI8","pain","2","","76","L","3","","0","0","1","","0.138860739","false","201","","0.2412650678","main_expt","","0.4134190678","","0.2605377594","","0.138860739","","","","","",""
"27","","bandit","277","599998","0.0-239.0-0.0","83071271","wem/bandit_single","AQL960O0LTRI8","pain","2","","76","L","3","","0","0","1","","0.1216759056","false","202","","0.2106041824","main_expt","","0.4255663607","","0.2372211354","","0.1216759056","","","","","",""
"74","","bandit","278","601833","0.0-240.0-0.0","83071271","wem/bandit_single","AQL960O0LTRI8","pain","2","","72","H","0","img/none_selected.jpg","0","0","1","","0.2182463191","false","203","","0.2182463191","main_expt","","0.4267176133","","0.20896917","","0.1085797693","","","","","",""
"222","","bandit","279","603818","0.0-241.0-0.0","83071271","wem/bandit_single","AQL960O0LTRI8","pain","2","","76","L","3","","0","0","1","","0.08750272662","false","204","","0.2060997213","main_expt","","0.460819217","","0.2277156902","","0.08750272662","","","","","",""
"49","","bandit","280","605629","0.0-242.0-0.0","83071271","wem/bandit_single","AQL960O0LTRI8","pain","2","","74","J","1","","0","1","0","","0.4797370756","false","205","","0.2179237498","main_expt","","0.4797370756","","0.2096017385","","0.1119911725","","","","","",""
"39","","bandit","281","607430","0.0-243.0-0.0","83071271","wem/bandit_single","AQL960O0LTRI8","pain","2","","74","J","1","","0","0","1","","0.4850202511","false","206","","0.194566176","main_expt","","0.4850202511","","0.2293009918","","0.105166696","","","","","",""
"165","","bandit","282","609358","0.0-244.0-0.0","83071271","wem/bandit_single","AQL960O0LTRI8","pain","2","","75","K","2","","0","1","0","","0.2613461541","false","207","","0.2540459421","main_expt","","0.4588339162","","0.2613461541","","0.07428909222","","","","","",""
"61","","bandit","283","611182","0.0-245.0-0.0","83071271","wem/bandit_single","AQL960O0LTRI8","pain","2","","75","K","2","","0","0","1","","0.2921374763","false","208","","0.2165425212","main_expt","","0.4704498371","","0.2921374763","","0.08415887516","","","","","",""
"256","","bandit","284","613201","0.0-246.0-0.0","83071271","wem/bandit_single","AQL960O0LTRI8","pain","2","","74","J","1","","0","1","0","","0.4498430745","false","209","","0.1808740619","main_expt","","0.4498430745","","0.2679345114","","0.05558253146","","","","","",""
"381","","bandit","285","615345","0.0-247.0-0.0","83071271","wem/bandit_single","AQL960O0LTRI8","pain","2","","74","J","1","","0","1","0","","0.4463117693","false","210","","0.2298827717","main_expt","","0.4463117693","","0.2356021564","","0.04914985493","","","","","",""
"94","","bandit","286","617202","0.0-248.0-0.0","83071271","wem/bandit_single","AQL960O0LTRI8","pain","2","","74","J","1","","0","0","1","","0.422163821","false","211","","0.2533880575","main_expt","","0.422163821","","0.2152320876","","0.03798033643","","","","","",""
"33","","bandit","287","618997","0.0-249.0-0.0","83071271","wem/bandit_single","AQL960O0LTRI8","pain","2","","75","K","2","","0","0","1","","0.2216595069","false","212","","0.2771241442","main_expt","","0.3852039581","","0.2216595069","","0.03974322714","","","","","",""
"45","","bandit","288","620806","0.0-250.0-0.0","83071271","wem/bandit_single","AQL960O0LTRI8","pain","2","","76","L","3","","0","0","1","","0.02384455773","false","213","","0.3010302337","main_expt","","0.3822954745","","0.2150176613","","0.02384455773","","","","","",""
"106","","bandit","289","622674","0.0-251.0-0.0","83071271","wem/bandit_single","AQL960O0LTRI8","pain","2","","72","H","0","img/none_selected.jpg","0","0","1","","0.3409008015","false","214","","0.3409008015","main_expt","","0.3608549874","","0.1772129937","","0.03216660231","","","","","",""
"24","","bandit","290","624461","0.0-252.0-0.0","83071271","wem/bandit_single","AQL960O0LTRI8","pain","2","","72","H","0","img/none_selected.jpg","0","0","1","","0.3227810677","false","215","","0.3227810677","main_expt","","0.3621739951","","0.1584975441","","0.03095464101","","","","","",""
"90","","bandit","291","626315","0.0-253.0-0.0","83071271","wem/bandit_single","AQL960O0LTRI8","pain","2","","72","H","0","img/none_selected.jpg","0","0","1","","0.3636386285","false","216","","0.3636386285","main_expt","","0.3733564142","","0.1256434713","","0.04011500866","","","","","",""
"111","","bandit","292","628190","0.0-254.0-0.0","83071271","wem/bandit_single","AQL960O0LTRI8","pain","2","","72","H","0","img/none_selected.jpg","0","1","0","","0.3649758886","false","217","","0.3649758886","main_expt","","0.3856473275","","0.1601534085","","0.02351309264","","","","","",""
"121","","bandit","293","630074","0.0-255.0-0.0","83071271","wem/bandit_single","AQL960O0LTRI8","pain","2","","72","H","0","img/none_selected.jpg","0","1","0","","0.3641131336","false","218","","0.3641131336","main_expt","","0.3645608201","","0.1514518834","","0.01650540734","","","","","",""
"129","","bandit","294","631966","0.0-256.0-0.0","83071271","wem/bandit_single","AQL960O0LTRI8","pain","2","","72","H","0","img/none_selected.jpg","0","0","1","","0.341156599","false","219","","0.341156599","main_expt","","0.3851453746","","0.2415223947","","0.03577324375","","","","","",""
"120","","bandit","295","633850","0.0-257.0-0.0","83071271","wem/bandit_single","AQL960O0LTRI8","pain","2","","72","H","0","img/none_selected.jpg","0","0","1","","0.266049218","false","220","","0.266049218","main_expt","","0.4075423229","","0.2248182851","","0.03655385126","","","","","",""
"100","","bandit","296","635714","0.0-258.0-0.0","83071271","wem/bandit_single","AQL960O0LTRI8","pain","2","","72","H","0","img/none_selected.jpg","0","0","1","","0.2359154628","false","221","","0.2359154628","main_expt","","0.4083347012","","0.2588925836","","0.03282050992","","","","","",""
"689","","bandit","297","638166","0.0-259.0-0.0","83071271","wem/bandit_single","AQL960O0LTRI8","pain","2","","72","H","0","img/none_selected.jpg","0","0","1","","0.2640726019","false","222","","0.2640726019","main_expt","","0.4083223781","","0.2025188389","","0.02558717114","","","","","",""
"100","","bandit","298","640030","0.0-260.0-0.0","83071271","wem/bandit_single","AQL960O0LTRI8","pain","2","","76","L","3","","0","0","1","","0.04788205671","false","223","","0.1860418506","main_expt","","0.4240474742","","0.1609755914","","0.04788205671","","","","","",""
"60","","bandit","299","641853","0.0-261.0-0.0","83071271","wem/bandit_single","AQL960O0LTRI8","pain","2","","75","K","2","","0","0","1","","0.2316748255","false","224","","0.151875944","main_expt","","0.4346876605","","0.2316748255","","0.05498715651","","","","","",""
"133","","bandit","300","643750","0.0-262.0-0.0","83071271","wem/bandit_single","AQL960O0LTRI8","pain","2","","74","J","1","","0","0","1","","0.4541072866","false","225","","0.1209973656","main_expt","","0.4541072866","","0.1605893144","","0.056476577","","","","","",""
"572","","bandit","301","646086","0.0-263.0-0.0","83071271","wem/bandit_single","AQL960O0LTRI8","pain","2","","75","K","2","","0","0","1","","0.1389366963","false","226","","0.1503457952","main_expt","","0.4239515892","","0.1389366963","","0.06361054401","","","","","",""
"112","","bandit","302","647962","0.0-264.0-0.0","83071271","wem/bandit_single","AQL960O0LTRI8","pain","2","","74","J","1","","0","1","0","","0.4122914309","false","227","","0.1784166707","main_expt","","0.4122914309","","0.09987042713","","0.03819722012","","","","","",""
"36","","bandit","303","649761","0.0-265.0-0.0","83071271","wem/bandit_single","AQL960O0LTRI8","pain","2","","74","J","1","","0","0","1","","0.4022765074","false","228","","0.1729157366","main_expt","","0.4022765074","","0.1511988136","","0.03706892342","","","","","",""
"140","","bandit","304","651665","0.0-266.0-0.0","83071271","wem/bandit_single","AQL960O0LTRI8","pain","2","","74","J","1","","0","1","0","","0.3991813765","false","229","","0.2035050609","main_expt","","0.3991813765","","0.1165125066","","0.05619366589","","","","","",""
"120","","bandit","305","653550","0.0-267.0-0.0","83071271","wem/bandit_single","AQL960O0LTRI8","pain","2","","74","J","1","","0","0","1","","0.3771825363","false","230","","0.1677195288","main_expt","","0.3771825363","","0.09058018373","","0.02398835026","","","","","",""
"44","","bandit","306","655357","0.0-268.0-0.0","83071271","wem/bandit_single","AQL960O0LTRI8","pain","2","","74","J","1","","0","0","1","","0.4081115595","false","231","","0.1568417205","main_expt","","0.4081115595","","0.1254599363","","0.01087418165","","","","","",""
"112","","bandit","307","657234","0.0-269.0-0.0","83071271","wem/bandit_single","AQL960O0LTRI8","pain","2","","74","J","1","","0","0","1","","0.4227202023","false","232","","0.1733774055","main_expt","","0.4227202023","","0.09699218641","","0.005667282796","","","","","",""
"17","","bandit","308","659014","0.0-270.0-0.0","83071271","wem/bandit_single","AQL960O0LTRI8","pain","2","","76","L","3","","0","0","1","","0.00711790457","false","233","","0.2318808439","main_expt","","0.4267606383","","0.07122003092","","0.00711790457","","","","","",""
"108","","bandit","309","660885","0.0-271.0-0.0","83071271","wem/bandit_single","AQL960O0LTRI8","pain","2","","72","H","0","img/none_selected.jpg","0","0","1","","0.2728484722","false","234","","0.2728484722","main_expt","","0.4076790224","","0.07078025717","","0.01087448681","","","","","",""
"45","","bandit","310","662693","0.0-272.0-0.0","83071271","wem/bandit_single","AQL960O0LTRI8","pain","2","","76","L","3","","0","0","1","","0.008183852991","false","235","","0.230842538","main_expt","","0.3750136452","","0.04546889639","","0.008183852991","","","","","",""
"2","","bandit","311","664458","0.0-273.0-0.0","83071271","wem/bandit_single","AQL960O0LTRI8","pain","2","","72","H","0","img/none_selected.jpg","0","1","0","","0.2565969246","false","236","","0.2565969246","main_expt","","0.3579900966","","0.07949547843","","0.00957014591","","","","","",""
"139","","bandit","312","666362","0.0-274.0-0.0","83071271","wem/bandit_single","AQL960O0LTRI8","pain","2","","72","H","0","img/none_selected.jpg","0","0","1","","0.2661079812","false","237","","0.2661079812","main_expt","","0.3685919787","","0.06498208703","","0.02345003211","","","","","",""
"53","","bandit","313","668177","0.0-275.0-0.0","83071271","wem/bandit_single","AQL960O0LTRI8","pain","2","","72","H","0","img/none_selected.jpg","0","0","1","","0.3192940022","false","238","","0.3192940022","main_expt","","0.3220789964","","0.07283675032","","0.02056264696","","","","","",""
"45","","bandit","314","669986","0.0-276.0-0.0","83071271","wem/bandit_single","AQL960O0LTRI8","pain","2","","72","H","0","img/none_selected.jpg","0","0","1","","0.3150738333","false","239","","0.3150738333","main_expt","","0.3059519391","","0.08723568047","","0.02436326326","","","","","",""
"24","","bandit","315","671773","0.0-277.0-0.0","83071271","wem/bandit_single","AQL960O0LTRI8","pain","2","","75","K","2","","0","0","1","","0.06404566497","false","240","","0.3008600842","main_expt","","0.3168560559","","0.06404566497","","0.0242835944","","","","","",""
"125","","bandit","316","673661","0.0-278.0-0.0","83071271","wem/bandit_single","AQL960O0LTRI8","pain","2","","74","J","1","","0","1","0","","0.269391424","false","241","","0.2677087501","main_expt","","0.269391424","","0.05187051438","","0.02652021178","","","","","",""
"108","","bandit","317","675533","0.0-279.0-0.0","83071271","wem/bandit_single","AQL960O0LTRI8","pain","2","","72","H","0","img/none_selected.jpg","0","0","1","","0.2645585527","false","242","","0.2645585527","main_expt","","0.2061132751","","0.04056120823","","0.0264543433","","","","","",""
"96","","bandit","318","677393","0.0-280.0-0.0","83071271","wem/bandit_single","AQL960O0LTRI8","pain","2","","76","L","3","","0","0","1","","0.02176476481","false","243","","0.2793098336","main_expt","","0.1996760118","","0.02806248696","","0.02176476481","","","","","",""
"789","","bandit","319","679946","0.0-281.0-0.0","83071271","wem/bandit_single","AQL960O0LTRI8","pain","2","","74","J","1","","0","0","1","","0.1719334629","false","244","","0.285685864","main_expt","","0.1719334629","","0.04063524207","","0.01301534777","","","","","",""
"333","","bandit","320","682041","0.0-282.0-0.0","83071271","wem/bandit_single","AQL960O0LTRI8","pain","2","","74","J","1","","0","0","1","","0.2264626889","false","245","","0.2792363563","main_expt","","0.2264626889","","0.03258124644","","0.02332936253","","","","","",""
"169","","bandit","321","683973","0.0-283.0-0.0","83071271","wem/bandit_single","AQL960O0LTRI8","pain","2","","74","J","1","","0","1","0","","0.2097999869","false","246","","0.2721020884","main_expt","","0.2097999869","","0.034431304","","0.02379131239","","","","","",""
"60","","bandit","322","685797","0.0-284.0-0.0","83071271","wem/bandit_single","AQL960O0LTRI8","pain","2","","74","J","1","","0","0","1","","0.2190078117","false","247","","0.2784836582","main_expt","","0.2190078117","","0.0335896152","","0.02988301985","","","","","",""
"68","","bandit","323","687630","0.0-285.0-0.0","83071271","wem/bandit_single","AQL960O0LTRI8","pain","2","","74","J","1","","0","1","0","","0.214739415","false","248","","0.2155360038","main_expt","","0.214739415","","0.0373608022","","0.04121629219","","","","","",""
"208","","bandit","324","689602","0.0-286.0-0.0","83071271","wem/bandit_single","AQL960O0LTRI8","pain","2","","74","J","1","","0","0","1","","0.2361668487","false","249","","0.2182269439","main_expt","","0.2361668487","","0.04629433077","","0.03081548873","","","","","",""
"143","","bandit","325","691509","0.0-287.0-0.0","83071271","wem/bandit_single","AQL960O0LTRI8","pain","2","","74","J","1","","0","0","1","","0.2730147117","false","250","","0.2794373206","main_expt","","0.2730147117","","0.04794370872","","0.02831669856","","","","","",""
"196","","bandit","326","693470","0.0-288.0-0.0","83071271","wem/bandit_single","AQL960O0LTRI8","pain","2","","74","J","1","","0","0","1","","0.2591269664","false","251","","0.2925698281","main_expt","","0.2591269664","","0.06568157066","","0.02600870455","","","","","",""
"23","","bandit","327","695257","0.0-289.0-0.0","83071271","wem/bandit_single","AQL960O0LTRI8","pain","2","","74","J","1","","0","0","1","","0.3091321407","false","252","","0.2727886948","main_expt","","0.3091321407","","0.07567030371","","0.02705961599","","","","","",""
"294","","bandit","328","697318","0.0-290.0-0.0","83071271","wem/bandit_single","AQL960O0LTRI8","pain","2","","74","J","1","","0","0","1","","0.2284010385","false","253","","0.2470803404","main_expt","","0.2284010385","","0.06628052114","","0.01805963102","","","","","",""
"251","","bandit","329","699333","0.0-291.0-0.0","83071271","wem/bandit_single","AQL960O0LTRI8","pain","2","","74","J","1","","0","0","1","","0.2452739286","false","254","","0.3366881304","main_expt","","0.2452739286","","0.08321976201","","0.01631706542","","","","","",""
"63","","bandit","330","701162","0.0-292.0-0.0","83071271","wem/bandit_single","AQL960O0LTRI8","pain","2","","76","L","3","","0","0","1","","0.01966147099","false","255","","0.3781216995","main_expt","","0.2769296881","","0.1379446817","","0.01966147099","","","","","",""
"30","","bandit","331","702957","0.0-293.0-0.0","83071271","wem/bandit_single","AQL960O0LTRI8","pain","2","","72","H","0","img/none_selected.jpg","0","1","0","","0.3565974786","false","256","","0.3565974786","main_expt","","0.222598086","","0.1104053019","","0.02801527349","","","","","",""
"325","","bandit","332","705045","0.0-294.0-0.0","83071271","wem/bandit_single","AQL960O0LTRI8","pain","2","","72","H","0","img/none_selected.jpg","0","0","1","","0.3668333327","false","257","","0.3668333327","main_expt","","0.2497605863","","0.110095483","","0.02393064904","","","","","",""
"300","","bandit","333","707109","0.0-295.0-0.0","83071271","wem/bandit_single","AQL960O0LTRI8","pain","2","","74","J","1","","0","0","1","","0.248028097","false","258","","0.3978392262","main_expt","","0.248028097","","0.09250214804","","0.01715644076","","","","","",""
"33","","bandit","334","708905","0.0-296.0-0.0","83071271","wem/bandit_single","AQL960O0LTRI8","pain","2","","72","H","0","img/none_selected.jpg","0","1","0","","0.3892622443","false","259","","0.3892622443","main_expt","","0.210079309","","0.1288972452","","0.01812234738","","","","","",""
"253","","bandit","335","710922","0.0-297.0-0.0","83071271","wem/bandit_single","AQL960O0LTRI8","pain","2","","72","H","0","img/none_selected.jpg","0","0","1","","0.3787635018","false","260","","0.3787635018","main_expt","","0.1785868889","","0.127844668","","0.01699252537","","","","","",""
"67","","bandit","336","712754","0.0-298.0-0.0","83071271","wem/bandit_single","AQL960O0LTRI8","pain","2","","74","J","1","","0","1","0","","0.1855690742","false","261","","0.4151771386","main_expt","","0.1855690742","","0.1408125104","","0.02027773674","","","","","",""
"95","","bandit","337","714613","0.0-299.0-0.0","83071271","wem/bandit_single","AQL960O0LTRI8","pain","2","","74","J","1","","0","0","1","","0.2454672077","false","262","","0.4184001904","main_expt","","0.2454672077","","0.1423762304","","0.008159173947","","","","","",""
"15","","bandit","338","716392","0.0-300.0-0.0","83071271","wem/bandit_single","AQL960O0LTRI8","pain","2","","72","H","0","img/none_selected.jpg","0","0","1","","0.4397427278","false","263","","0.4397427278","main_expt","","0.2423041147","","0.1237094287","","0.00730364875","","","","","",""
"41","","bandit","339","718198","0.0-301.0-0.0","83071271","wem/bandit_single","AQL960O0LTRI8","pain","2","","74","J","1","","0","0","1","","0.2771483686","false","264","","0.4308816061","main_expt","","0.2771483686","","0.1110826985","","0.008891010149","","","","","",""
"137","","bandit","340","720101","0.0-302.0-0.0","83071271","wem/bandit_single","AQL960O0LTRI8","pain","2","","74","J","1","","0","0","1","","0.2066329382","false","265","","0.4310956018","main_expt","","0.2066329382","","0.09816719149","","0.009434589262","","","","","",""
"92","","bandit","341","721956","0.0-303.0-0.0","83071271","wem/bandit_single","AQL960O0LTRI8","pain","2","","72","H","0","img/none_selected.jpg","0","1","0","","0.4462346174","false","266","","0.4462346174","main_expt","","0.1954640054","","0.1313615454","","0.009503255165","","","","","",""
"0","","bandit","342","723721","0.0-304.0-0.0","83071271","wem/bandit_single","AQL960O0LTRI8","pain","2","","72","H","0","img/none_selected.jpg","0","1","0","","0.4649068607","false","267","","0.4649068607","main_expt","","0.132533774","","0.1039649444","","0.01294763698","","","","","",""
"285","","bandit","343","725769","0.0-305.0-0.0","83071271","wem/bandit_single","AQL960O0LTRI8","pain","2","","72","H","0","img/none_selected.jpg","0","1","0","","0.4499385749","false","268","","0.4499385749","main_expt","","0.1212355483","","0.0758663636","","0.01002763249","","","","","",""
"24","","bandit","344","727557","0.0-306.0-0.0","83071271","wem/bandit_single","AQL960O0LTRI8","pain","2","","72","H","0","img/none_selected.jpg","0","0","1","","0.4702815535","false","269","","0.4702815535","main_expt","","0.1363236216","","0.08641939852","","0.009339874814","","","","","",""
"56","","bandit","345","729376","0.0-307.0-0.0","83071271","wem/bandit_single","AQL960O0LTRI8","pain","2","","72","H","0","img/none_selected.jpg","0","0","1","","0.4738293899","false","270","","0.4738293899","main_expt","","0.1061923246","","0.08694739741","","0.0101894737","","","","","",""
"137","","bandit","346","731277","0.0-308.0-0.0","83071271","wem/bandit_single","AQL960O0LTRI8","pain","2","","74","J","1","","0","1","0","","0.09682021381","false","271","","0.4552130477","main_expt","","0.09682021381","","0.07507278363","","0.0101062795","","","","","",""
"452","","bandit","347","733493","0.0-309.0-0.0","83071271","wem/bandit_single","AQL960O0LTRI8","pain","2","","74","J","1","","0","0","1","","0.0728164368","false","272","","0.4571227508","main_expt","","0.0728164368","","0.09002305832","","0.009276773287","","","","","",""
"104","","bandit","348","735360","0.0-310.0-0.0","83071271","wem/bandit_single","AQL960O0LTRI8","pain","2","","74","J","1","","0","0","1","","0.1026255411","false","273","","0.4262778794","main_expt","","0.1026255411","","0.07941117108","","0.0113492324","","","","","",""
"128","","bandit","349","737253","0.0-311.0-0.0","83071271","wem/bandit_single","AQL960O0LTRI8","pain","2","","72","H","0","img/none_selected.jpg","0","0","1","","0.4017895895","false","274","","0.4017895895","main_expt","","0.08683802548","","0.09301171309","","0.005483919941","","","","","",""
"60","","bandit","350","739077","0.0-312.0-0.0","83071271","wem/bandit_single","AQL960O0LTRI8","pain","2","","74","J","1","","0","0","1","","0.08250982893","false","275","","0.4017548056","main_expt","","0.08250982893","","0.1012072593","","0.00462874381","","","","","",""
"140","","bandit","351","740981","0.0-313.0-0.0","83071271","wem/bandit_single","AQL960O0LTRI8","pain","2","","72","H","0","img/none_selected.jpg","0","1","0","","0.4072561249","false","276","","0.4072561249","main_expt","","0.06031930624","","0.1230964009","","0.009610611089","","","","","",""
"79","","bandit","352","742825","0.0-314.0-0.0","83071271","wem/bandit_single","AQL960O0LTRI8","pain","2","","72","H","0","img/none_selected.jpg","0","0","1","","0.3248287115","false","277","","0.3248287115","main_expt","","0.07169075363","","0.1320105939","","0.01319252808","","","","","",""
"52","","bandit","353","744642","0.0-315.0-0.0","83071271","wem/bandit_single","AQL960O0LTRI8","pain","2","","72","H","0","img/none_selected.jpg","0","1","0","","0.2954662343","false","278","","0.2954662343","main_expt","","0.119525529","","0.100271112","","0.008560453299","","","","","",""
"126","","bandit","354","746533","0.0-316.0-0.0","83071271","wem/bandit_single","AQL960O0LTRI8","pain","2","","72","H","0","img/none_selected.jpg","0","1","0","","0.3430788315","false","279","","0.3430788315","main_expt","","0.05136608794","","0.0752783975","","0.02270234009","","","","","",""
"80","","bandit","355","748376","0.0-317.0-0.0","83071271","wem/bandit_single","AQL960O0LTRI8","pain","2","","72","H","0","img/none_selected.jpg","0","1","0","","0.298888987","false","280","","0.298888987","main_expt","","0.06692305053","","0.04609407158","","0.01842994591","","","","","",""
"100","","bandit","356","750241","0.0-318.0-0.0","83071271","wem/bandit_single","AQL960O0LTRI8","pain","2","","72","H","0","img/none_selected.jpg","0","0","1","","0.317374049","false","281","","0.317374049","main_expt","","0.08594942048","","0.05874754036","","0.01750385803","","","","","",""
"28","","bandit","357","752032","0.0-319.0-0.0","83071271","wem/bandit_single","AQL960O0LTRI8","pain","2","","74","J","1","","0","0","1","","0.08562343316","false","282","","0.2905756231","main_expt","","0.08562343316","","0.05911354127","","0.01075771148","","","","","",""
"84","","bandit","358","753881","0.0-320.0-0.0","83071271","wem/bandit_single","AQL960O0LTRI8","pain","2","","74","J","1","","0","0","1","","0.06507866554","false","283","","0.335540713","main_expt","","0.06507866554","","0.0444902615","","0.009487342711","","","","","",""
"163","","bandit","359","755809","0.0-321.0-0.0","83071271","wem/bandit_single","AQL960O0LTRI8","pain","2","","72","H","0","img/none_selected.jpg","0","0","1","","0.3569674754","false","284","","0.3569674754","main_expt","","0.05738126215","","0.03666520406","","0.01035814212","","","","","",""
"47","","bandit","360","757621","0.0-322.0-0.0","83071271","wem/bandit_single","AQL960O0LTRI8","pain","2","","75","K","2","","0","1","0","","0.02451873239","false","285","","0.4068019922","main_expt","","0.06337296056","","0.02451873239","","0.01056818013","","","","","",""
"83","","bandit","361","759469","0.0-323.0-0.0","83071271","wem/bandit_single","AQL960O0LTRI8","pain","2","","75","K","2","","0","0","1","","0.02877547985","false","286","","0.432978486","main_expt","","0.04649068967","","0.02877547985","","0.007821227136","","","","","",""
"372","","bandit","362","761606","0.0-324.0-0.0","83071271","wem/bandit_single","AQL960O0LTRI8","pain","2","","76","L","3","","0","0","1","","0.01039042452","false","287","","0.4213006965","main_expt","","0.04946639224","","0.03331393821","","0.01039042452","","","","","",""
"342","","bandit","363","763713","0.0-325.0-0.0","83071271","wem/bandit_single","AQL960O0LTRI8","pain","2","","75","K","2","","0","0","1","","0.02363643209","false","288","","0.4094413186","main_expt","","0.03962947871","","0.02363643209","","0.02141961277","","","","","",""
"7","","bandit","364","765485","0.0-326.0-0.0","83071271","wem/bandit_single","AQL960O0LTRI8","pain","2","","74","J","1","","0","0","1","","0.05295486238","false","289","","0.3731302572","main_expt","","0.05295486238","","0.0366455232","","0.02062414181","","","","","",""
"2","","bandit","365","767253","0.0-327.0-0.0","83071271","wem/bandit_single","AQL960O0LTRI8","pain","2","","72","H","0","img/none_selected.jpg","0","0","1","","0.4076032329","false","290","","0.4076032329","main_expt","","0.06311332932","","0.04887184979","","0.01411690602","","","","","",""
"347","","bandit","366","769365","0.0-328.0-0.0","83071271","wem/bandit_single","AQL960O0LTRI8","pain","2","","72","H","0","img/none_selected.jpg","0","1","0","","0.4134699565","false","291","","0.4134699565","main_expt","","0.07741633782","","0.03783642248","","0.03188260643","","","","","",""
"114","","bandit","367","771245","0.0-329.0-0.0","83071271","wem/bandit_single","AQL960O0LTRI8","pain","2","","72","H","0","img/none_selected.jpg","0","0","1","","0.3827884258","false","292","","0.3827884258","main_expt","","0.09064252153","","0.07820299584","","0.03429620073","","","","","",""
"102","","bandit","368","773114","0.0-330.0-0.0","83071271","wem/bandit_single","AQL960O0LTRI8","pain","2","","74","J","1","","0","0","1","","0.07659126906","false","293","","0.4162015812","main_expt","","0.07659126906","","0.07060894185","","0.030392347","","","","","",""
"306","","bandit","369","775185","0.0-331.0-0.0","83071271","wem/bandit_single","AQL960O0LTRI8","pain","2","","72","H","0","img/none_selected.jpg","0","0","1","","0.447674372","false","294","","0.447674372","main_expt","","0.08042624432","","0.1051632986","","0.04782046051","","","","","",""
"14","","bandit","370","776964","0.0-332.0-0.0","83071271","wem/bandit_single","AQL960O0LTRI8","pain","2","","75","K","2","","0","0","1","","0.06624019153","false","295","","0.4402126752","main_expt","","0.1216640212","","0.06624019153","","0.06309063339","","","","","",""
"249","","bandit","371","778977","0.0-333.0-0.0","83071271","wem/bandit_single","AQL960O0LTRI8","pain","2","","76","L","3","","0","1","0","","0.09511663338","false","296","","0.4378891161","main_expt","","0.1058257345","","0.07088700909","","0.09511663338","","","","","",""
"11","","bandit","372","780753","0.0-334.0-0.0","83071271","wem/bandit_single","AQL960O0LTRI8","pain","2","","76","L","3","","0","0","1","","0.07325770628","false","297","","0.468153315","main_expt","","0.1101311263","","0.0529580871","","0.07325770628","","","","","",""
"35","","bandit","373","782554","0.0-335.0-0.0","83071271","wem/bandit_single","AQL960O0LTRI8","pain","2","","76","L","3","","0","0","1","","0.06352452747","false","298","","0.4538992283","main_expt","","0.1117004815","","0.04256970448","","0.06352452747","","","","","",""
