"rt","responses","trial_type","trial_index","time_elapsed","internal_node_id","subjID","study","MID","cond","drift","key_press","respCharCode","respKey","respChoiceNum","respChoice","gems","bombs","no_reward","GemPrChosen","BombPrChosen","practice","trial_counter","WinPr_0","LosePr_0","trial_label","WinPr_1","LosePr_1","WinPr_2","LosePr_2","WinPr_3","LosePr_3","Q0","Q1","Q2","gender","age","ethnicity"
"11149","{""Q0"":""A3J5KTBHZI60H""}","survey-text","0","11155","0.0-0.0","83747052","wem/bandit_single","A3J5KTBHZI60H","pain","7","","","","","","","","","","","","","","","","","","","","","","","","","","",""
"1085","","text","1","13244","0.0-1.0","83747052","wem/bandit_single","A3J5KTBHZI60H","pain","7","32","","","","","","","","","","","","","","","","","","","","","","","","","",""
"9224","","text","2","22469","0.0-2.0","83747052","wem/bandit_single","A3J5KTBHZI60H","pain","7","32","","","","","","","","","","","","","","","","","","","","","","","","","",""
"23495","","text","3","45966","0.0-3.0","83747052","wem/bandit_single","A3J5KTBHZI60H","pain","7","32","","","","","","","","","","","","","","","","","","","","","","","","","",""
"18073","","text","4","64041","0.0-4.0","83747052","wem/bandit_single","A3J5KTBHZI60H","pain","7","32","","","","","","","","","","","","","","","","","","","","","","","","","",""
"10215","","text","5","74257","0.0-5.0","83747052","wem/bandit_single","A3J5KTBHZI60H","pain","7","32","","","","","","","","","","","","","","","","","","","","","","","","","",""
"17042","","text","6","91301","0.0-6.0","83747052","wem/bandit_single","A3J5KTBHZI60H","pain","7","32","","","","","","","","","","","","","","","","","","","","","","","","","",""
"4104","","text","7","95406","0.0-7.0","83747052","wem/bandit_single","A3J5KTBHZI60H","pain","7","32","","","","","","","","","","","","","","","","","","","","","","","","","",""
"3697","","text","8","99105","0.0-8.0","83747052","wem/bandit_single","A3J5KTBHZI60H","pain","7","32","","","","","","","","","","","","","","","","","","","","","","","","","",""
"5108","","text","9","104214","0.0-9.0","83747052","wem/bandit_single","A3J5KTBHZI60H","pain","7","32","","","","","","","","","","","","","","","","","","","","","","","","","",""
"7433","","text","10","111649","0.0-10.0","83747052","wem/bandit_single","A3J5KTBHZI60H","pain","7","32","","","","","","","","","","","","","","","","","","","","","","","","","",""
"6302","","text","11","117952","0.0-11.0","83747052","wem/bandit_single","A3J5KTBHZI60H","pain","7","32","","","","","","","","","","","","","","","","","","","","","","","","","",""
"2666","","bandit","12","122128","0.0-12.0-0.0","83747052","wem/bandit_single","A3J5KTBHZI60H","pain","7","","74","J","0","img/none_selected_demo.jpg","0","0","1","0","0","true","0","0","0","","","","","","","","","","","","",""
"612","","bandit","13","124498","0.0-13.0-0.0","83747052","wem/bandit_single","A3J5KTBHZI60H","pain","7","","75","K","0","img/none_selected_demo.jpg","0","0","1","0","0","true","0","0","0","","","","","","","","","","","","",""
"1762","","text","14","126513","0.0-14.0","83747052","wem/bandit_single","A3J5KTBHZI60H","pain","7","32","","","","","","","","","","","","","","","","","","","","","","","","","",""
"1373","","text","15","127888","0.0-15.0","83747052","wem/bandit_single","A3J5KTBHZI60H","pain","7","32","","","","","","","","","","","","","","","","","","","","","","","","","",""
"3165","","text","16","131055","0.0-16.0","83747052","wem/bandit_single","A3J5KTBHZI60H","pain","7","32","","","","","","","","","","","","","","","","","","","","","","","","","",""
"2043","","text","17","133099","0.0-17.0","83747052","wem/bandit_single","A3J5KTBHZI60H","pain","7","32","","","","","","","","","","","","","","","","","","","","","","","","","",""
"2107","","bandit","18","136710","0.0-18.0-0.0","83747052","wem/bandit_single","A3J5KTBHZI60H","pain","7","","74","J","0","img/none_selected_demo.jpg","0","1","0","0","0.8","true","0","0","0.8","80_20_practice","0","0.2","","","","","","","","","",""
"3","","bandit","19","138470","0.0-18.0-1.0","83747052","wem/bandit_single","A3J5KTBHZI60H","pain","7","","74","J","0","img/none_selected_demo.jpg","0","1","0","0","0.8","true","0","0","0.8","80_20_practice","0","0.2","","","","","","","","","",""
"505","","bandit","20","140734","0.0-18.0-2.0","83747052","wem/bandit_single","A3J5KTBHZI60H","pain","7","","74","J","0","img/none_selected_demo.jpg","0","0","1","0","0.8","true","0","0","0.8","80_20_practice","0","0.2","","","","","","","","","",""
"364","","bandit","21","142853","0.0-18.0-3.0","83747052","wem/bandit_single","A3J5KTBHZI60H","pain","7","","75","K","1","","0","0","1","0","0.2","true","0","0","0.8","80_20_practice","0","0.2","","","","","","","","","",""
"200","","bandit","22","144809","0.0-18.0-4.0","83747052","wem/bandit_single","A3J5KTBHZI60H","pain","7","","75","K","1","","0","0","1","0","0.2","true","0","0","0.8","80_20_practice","0","0.2","","","","","","","","","",""
"152","","bandit","23","146716","0.0-18.0-5.0","83747052","wem/bandit_single","A3J5KTBHZI60H","pain","7","","74","J","0","img/none_selected_demo.jpg","0","1","0","0","0.8","true","0","0","0.8","80_20_practice","0","0.2","","","","","","","","","",""
"154","","bandit","24","148626","0.0-18.0-6.0","83747052","wem/bandit_single","A3J5KTBHZI60H","pain","7","","74","J","0","img/none_selected_demo.jpg","0","1","0","0","0.8","true","0","0","0.8","80_20_practice","0","0.2","","","","","","","","","",""
"54","","bandit","25","150437","0.0-18.0-7.0","83747052","wem/bandit_single","A3J5KTBHZI60H","pain","7","","74","J","0","img/none_selected_demo.jpg","0","0","1","0","0.8","true","0","0","0.8","80_20_practice","0","0.2","","","","","","","","","",""
"102","","bandit","26","152297","0.0-18.0-8.0","83747052","wem/bandit_single","A3J5KTBHZI60H","pain","7","","74","J","0","img/none_selected_demo.jpg","0","0","1","0","0.8","true","0","0","0.8","80_20_practice","0","0.2","","","","","","","","","",""
"99","","bandit","27","154153","0.0-18.0-9.0","83747052","wem/bandit_single","A3J5KTBHZI60H","pain","7","","74","J","0","img/none_selected_demo.jpg","0","1","0","0","0.8","true","0","0","0.8","80_20_practice","0","0.2","","","","","","","","","",""
"4","","bandit","28","155913","0.0-18.0-10.0","83747052","wem/bandit_single","A3J5KTBHZI60H","pain","7","","74","J","0","img/none_selected_demo.jpg","0","1","0","0","0.8","true","0","0","0.8","80_20_practice","0","0.2","","","","","","","","","",""
"86","","bandit","29","157757","0.0-18.0-11.0","83747052","wem/bandit_single","A3J5KTBHZI60H","pain","7","","74","J","0","img/none_selected_demo.jpg","0","0","1","0","0.8","true","0","0","0.8","80_20_practice","0","0.2","","","","","","","","","",""
"3057","","bandit","30","162571","0.0-18.0-12.0","83747052","wem/bandit_single","A3J5KTBHZI60H","pain","7","","75","K","1","","0","1","0","0","0.2","true","0","0","0.8","80_20_practice","0","0.2","","","","","","","","","",""
"259","","bandit","31","164587","0.0-18.0-13.0","83747052","wem/bandit_single","A3J5KTBHZI60H","pain","7","","75","K","1","","0","0","1","0","0.2","true","0","0","0.8","80_20_practice","0","0.2","","","","","","","","","",""
"111","","bandit","32","166455","0.0-18.0-14.0","83747052","wem/bandit_single","A3J5KTBHZI60H","pain","7","","75","K","1","","0","0","1","0","0.2","true","0","0","0.8","80_20_practice","0","0.2","","","","","","","","","",""
"13","","bandit","33","168222","0.0-18.0-15.0","83747052","wem/bandit_single","A3J5KTBHZI60H","pain","7","","75","K","1","","0","0","1","0","0.2","true","0","0","0.8","80_20_practice","0","0.2","","","","","","","","","",""
"34","","bandit","34","170011","0.0-18.0-16.0","83747052","wem/bandit_single","A3J5KTBHZI60H","pain","7","","74","J","0","img/none_selected_demo.jpg","0","1","0","0","0.8","true","0","0","0.8","80_20_practice","0","0.2","","","","","","","","","",""
"0","","bandit","35","171768","0.0-18.0-17.0","83747052","wem/bandit_single","A3J5KTBHZI60H","pain","7","","74","J","0","img/none_selected_demo.jpg","0","1","0","0","0.8","true","0","0","0.8","80_20_practice","0","0.2","","","","","","","","","",""
"54","","bandit","36","173580","0.0-18.0-18.0","83747052","wem/bandit_single","A3J5KTBHZI60H","pain","7","","74","J","0","img/none_selected_demo.jpg","0","0","1","0","0.8","true","0","0","0.8","80_20_practice","0","0.2","","","","","","","","","",""
"47","","bandit","37","175384","0.0-18.0-19.0","83747052","wem/bandit_single","A3J5KTBHZI60H","pain","7","","74","J","0","img/none_selected_demo.jpg","0","1","0","0","0.8","true","0","0","0.8","80_20_practice","0","0.2","","","","","","","","","",""
"6372","","text","38","182008","0.0-19.0","83747052","wem/bandit_single","A3J5KTBHZI60H","pain","7","32","","","","","","","","","","","","","","","","","","","","","","","","","",""
"2712","","bandit","39","186225","0.0-20.0-0.0","83747052","wem/bandit_single","A3J5KTBHZI60H","pain","7","","74","J","0","img/none_selected_demo.jpg","0","0","1","0","0","true","0","0","0","","0","0","","","","","","","","","",""
"6030","","text","40","192509","0.0-21.0","83747052","wem/bandit_single","A3J5KTBHZI60H","pain","7","32","","","","","","","","","","","","","","","","","","","","","","","","","",""
"2899","","text","41","195411","0.0-22.0","83747052","wem/bandit_single","A3J5KTBHZI60H","pain","7","32","","","","","","","","","","","","","","","","","","","","","","","","","",""
"2830","","text","42","198243","0.0-23.0","83747052","wem/bandit_single","A3J5KTBHZI60H","pain","7","32","","","","","","","","","","","","","","","","","","","","","","","","","",""
"5527","","text","43","203772","0.0-24.0","83747052","wem/bandit_single","A3J5KTBHZI60H","pain","7","32","","","","","","","","","","","","","","","","","","","","","","","","","",""
"1436","","text","44","205211","0.0-25.0","83747052","wem/bandit_single","A3J5KTBHZI60H","pain","7","32","","","","","","","","","","","","","","","","","","","","","","","","","",""
"1682","","text","45","206895","0.0-26.0","83747052","wem/bandit_single","A3J5KTBHZI60H","pain","7","32","","","","","","","","","","","","","","","","","","","","","","","","","",""
"782","","text","46","207679","0.0-27.0","83747052","wem/bandit_single","A3J5KTBHZI60H","pain","7","32","","","","","","","","","","","","","","","","","","","","","","","","","",""
"654","","text","47","208335","0.0-28.0","83747052","wem/bandit_single","A3J5KTBHZI60H","pain","7","32","","","","","","","","","","","","","","","","","","","","","","","","","",""
"840","","text","48","209179","0.0-29.0","83747052","wem/bandit_single","A3J5KTBHZI60H","pain","7","32","","","","","","","","","","","","","","","","","","","","","","","","","",""
"1291","","text","49","210471","0.0-30.0","83747052","wem/bandit_single","A3J5KTBHZI60H","pain","7","32","","","","","","","","","","","","","","","","","","","","","","","","","",""
"12329","","text","50","222802","0.0-31.0","83747052","wem/bandit_single","A3J5KTBHZI60H","pain","7","32","","","","","","","","","","","","","","","","","","","","","","","","","",""
"457","","bandit","51","224763","0.0-32.0-0.0","83747052","wem/bandit_single","A3J5KTBHZI60H","pain","7","","72","H","0","img/none_selected.jpg","0","1","0","0","0.8","true","0","0","0.8","full_practice","0","0.2","0","0.6","0","0.2","","","","","",""
"33","","bandit","52","226552","0.0-32.0-1.0","83747052","wem/bandit_single","A3J5KTBHZI60H","pain","7","","74","J","1","","0","1","0","0","0.2","true","0","0","0.8","full_practice","0","0.2","0","0.6","0","0.2","","","","","",""
"331","","bandit","53","228641","0.0-32.0-2.0","83747052","wem/bandit_single","A3J5KTBHZI60H","pain","7","","75","K","2","","0","1","0","0","0.6","true","0","0","0.8","full_practice","0","0.2","0","0.6","0","0.2","","","","","",""
"40","","bandit","54","230439","0.0-32.0-3.0","83747052","wem/bandit_single","A3J5KTBHZI60H","pain","7","","76","L","3","","0","0","1","0","0.2","true","0","0","0.8","full_practice","0","0.2","0","0.6","0","0.2","","","","","",""
"512","","bandit","55","232707","0.0-32.0-4.0","83747052","wem/bandit_single","A3J5KTBHZI60H","pain","7","","72","H","0","img/none_selected.jpg","0","1","0","0","0.8","true","0","0","0.8","full_practice","0","0.2","0","0.6","0","0.2","","","","","",""
"331","","bandit","56","234794","0.0-32.0-5.0","83747052","wem/bandit_single","A3J5KTBHZI60H","pain","7","","74","J","1","","0","0","1","0","0.2","true","0","0","0.8","full_practice","0","0.2","0","0.6","0","0.2","","","","","",""
"28","","bandit","57","236580","0.0-32.0-6.0","83747052","wem/bandit_single","A3J5KTBHZI60H","pain","7","","72","H","0","img/none_selected.jpg","0","1","0","0","0.8","true","0","0","0.8","full_practice","0","0.2","0","0.6","0","0.2","","","","","",""
"14","","bandit","58","238349","0.0-32.0-7.0","83747052","wem/bandit_single","A3J5KTBHZI60H","pain","7","","72","H","0","img/none_selected.jpg","0","1","0","0","0.8","true","0","0","0.8","full_practice","0","0.2","0","0.6","0","0.2","","","","","",""
"266","","bandit","59","240371","0.0-32.0-8.0","83747052","wem/bandit_single","A3J5KTBHZI60H","pain","7","","72","H","0","img/none_selected.jpg","0","1","0","0","0.8","true","0","0","0.8","full_practice","0","0.2","0","0.6","0","0.2","","","","","",""
"104","","bandit","60","242231","0.0-32.0-9.0","83747052","wem/bandit_single","A3J5KTBHZI60H","pain","7","","72","H","0","img/none_selected.jpg","0","1","0","0","0.8","true","0","0","0.8","full_practice","0","0.2","0","0.6","0","0.2","","","","","",""
"3","","bandit","61","243990","0.0-32.0-10.0","83747052","wem/bandit_single","A3J5KTBHZI60H","pain","7","","72","H","0","img/none_selected.jpg","0","1","0","0","0.8","true","0","0","0.8","full_practice","0","0.2","0","0.6","0","0.2","","","","","",""
"8","","bandit","62","245755","0.0-32.0-11.0","83747052","wem/bandit_single","A3J5KTBHZI60H","pain","7","","72","H","0","img/none_selected.jpg","0","1","0","0","0.8","true","0","0","0.8","full_practice","0","0.2","0","0.6","0","0.2","","","","","",""
"14","","bandit","63","247526","0.0-32.0-12.0","83747052","wem/bandit_single","A3J5KTBHZI60H","pain","7","","72","H","0","img/none_selected.jpg","0","1","0","0","0.8","true","0","0","0.8","full_practice","0","0.2","0","0.6","0","0.2","","","","","",""
"47","","bandit","64","249331","0.0-32.0-13.0","83747052","wem/bandit_single","A3J5KTBHZI60H","pain","7","","72","H","0","img/none_selected.jpg","0","1","0","0","0.8","true","0","0","0.8","full_practice","0","0.2","0","0.6","0","0.2","","","","","",""
"11","","bandit","65","251100","0.0-32.0-14.0","83747052","wem/bandit_single","A3J5KTBHZI60H","pain","7","","72","H","0","img/none_selected.jpg","0","0","1","0","0.8","true","0","0","0.8","full_practice","0","0.2","0","0.6","0","0.2","","","","","",""
"88","","bandit","66","252947","0.0-32.0-15.0","83747052","wem/bandit_single","A3J5KTBHZI60H","pain","7","","74","J","1","","0","0","1","0","0.2","true","0","0","0.8","full_practice","0","0.2","0","0.6","0","0.2","","","","","",""
"63","","bandit","67","254766","0.0-32.0-16.0","83747052","wem/bandit_single","A3J5KTBHZI60H","pain","7","","75","K","2","","0","1","0","0","0.6","true","0","0","0.8","full_practice","0","0.2","0","0.6","0","0.2","","","","","",""
"37","","bandit","68","256563","0.0-32.0-17.0","83747052","wem/bandit_single","A3J5KTBHZI60H","pain","7","","75","K","2","","0","0","1","0","0.6","true","0","0","0.8","full_practice","0","0.2","0","0.6","0","0.2","","","","","",""
"38","","bandit","69","258358","0.0-32.0-18.0","83747052","wem/bandit_single","A3J5KTBHZI60H","pain","7","","75","K","2","","0","1","0","0","0.6","true","0","0","0.8","full_practice","0","0.2","0","0.6","0","0.2","","","","","",""
"38","","bandit","70","260153","0.0-32.0-19.0","83747052","wem/bandit_single","A3J5KTBHZI60H","pain","7","","75","K","2","","0","1","0","0","0.6","true","0","0","0.8","full_practice","0","0.2","0","0.6","0","0.2","","","","","",""
"2153","","text","71","262563","0.0-33.0","83747052","wem/bandit_single","A3J5KTBHZI60H","pain","7","32","","","","","","","","","","","","","","","","","","","","","","","","","",""
"1776","","text","72","265343","0.0-34.0","83747052","wem/bandit_single","A3J5KTBHZI60H","pain","7","32","","","","","","","","","","","","","","","","","","","","","","","","","",""
"924","","text","73","266271","0.0-35.0","83747052","wem/bandit_single","A3J5KTBHZI60H","pain","7","32","","","","","","","","","","","","","","","","","","","","","","","","","",""
"842","","text","74","267117","0.0-36.0","83747052","wem/bandit_single","A3J5KTBHZI60H","pain","7","32","","","","","","","","","","","","","","","","","","","","","","","","","",""
"2339","","text","75","269459","0.0-37.0","83747052","wem/bandit_single","A3J5KTBHZI60H","pain","7","32","","","","","","","","","","","","","","","","","","","","","","","","","",""
"859","","bandit","76","271827","0.0-38.0-0.0","83747052","wem/bandit_single","A3J5KTBHZI60H","pain","7","","72","H","0","img/none_selected.jpg","0","0","1","","0.05137684772","false","1","","0.05137684772","main_expt","","0.2046929885","","0.4656663819","","0.182860278","","","","","",""
"356","","bandit","77","273939","0.0-39.0-0.0","83747052","wem/bandit_single","A3J5KTBHZI60H","pain","7","","72","H","0","img/none_selected.jpg","0","0","1","","0.07150319997","false","2","","0.07150319997","main_expt","","0.1903203277","","0.4696156166","","0.1824128093","","","","","",""
"238","","bandit","78","275932","0.0-40.0-0.0","83747052","wem/bandit_single","A3J5KTBHZI60H","pain","7","","75","K","2","","0","1","0","","0.477042595","false","3","","0.080703679","main_expt","","0.1806567389","","0.477042595","","0.1671989933","","","","","",""
"15","","bandit","79","277704","0.0-41.0-0.0","83747052","wem/bandit_single","A3J5KTBHZI60H","pain","7","","75","K","2","","0","1","0","","0.4833388502","false","4","","0.09206073837","main_expt","","0.1746643784","","0.4833388502","","0.1769774761","","","","","",""
"331","","bandit","80","279791","0.0-42.0-0.0","83747052","wem/bandit_single","A3J5KTBHZI60H","pain","7","","75","K","2","","0","0","1","","0.4679643189","false","5","","0.09846378213","main_expt","","0.1575849224","","0.4679643189","","0.1847579949","","","","","",""
"28","","bandit","81","281576","0.0-43.0-0.0","83747052","wem/bandit_single","A3J5KTBHZI60H","pain","7","","75","K","2","","0","0","1","","0.4728114282","false","6","","0.07982937149","main_expt","","0.1848921601","","0.4728114282","","0.2263389119","","","","","",""
"111","","bandit","82","283443","0.0-44.0-0.0","83747052","wem/bandit_single","A3J5KTBHZI60H","pain","7","","76","L","3","","0","0","1","","0.233500047","false","7","","0.08361087011","main_expt","","0.2090417599","","0.4763129956","","0.233500047","","","","","",""
"176","","bandit","83","285376","0.0-45.0-0.0","83747052","wem/bandit_single","A3J5KTBHZI60H","pain","7","","72","H","0","img/none_selected.jpg","0","0","1","","0.1210475052","false","8","","0.1210475052","main_expt","","0.2340345007","","0.4605171502","","0.2213385325","","","","","",""
"1586","","bandit","84","288720","0.0-46.0-0.0","83747052","wem/bandit_single","A3J5KTBHZI60H","pain","7","","74","J","1","","0","0","1","","0.2388832632","false","9","","0.1023248189","main_expt","","0.2388832632","","0.457599345","","0.216727727","","","","","",""
"1054","","bandit","85","291532","0.0-47.0-0.0","83747052","wem/bandit_single","A3J5KTBHZI60H","pain","7","","72","H","0","img/none_selected.jpg","0","0","1","","0.1311876697","false","10","","0.1311876697","main_expt","","0.2336568073","","0.4514273669","","0.1757193701","","","","","",""
"64","","bandit","86","293353","0.0-48.0-0.0","83747052","wem/bandit_single","A3J5KTBHZI60H","pain","7","","74","J","1","","0","0","1","","0.2682397485","false","11","","0.1171839072","main_expt","","0.2682397485","","0.461109344","","0.221687112","","","","","",""
"150","","bandit","87","295260","0.0-49.0-0.0","83747052","wem/bandit_single","A3J5KTBHZI60H","pain","7","","76","L","3","","0","0","1","","0.1693148256","false","12","","0.09103905321","main_expt","","0.2855743842","","0.4750360261","","0.1693148256","","","","","",""
"94","","bandit","88","297110","0.0-50.0-0.0","83747052","wem/bandit_single","A3J5KTBHZI60H","pain","7","","76","L","3","","0","0","1","","0.1861997022","false","13","","0.08195125901","main_expt","","0.2877368863","","0.4882900813","","0.1861997022","","","","","",""
"311","","bandit","89","299179","0.0-51.0-0.0","83747052","wem/bandit_single","A3J5KTBHZI60H","pain","7","","72","H","0","img/none_selected.jpg","0","0","1","","0.1022478824","false","14","","0.1022478824","main_expt","","0.2904717711","","0.4836145896","","0.2056371894","","","","","",""
"124","","bandit","90","301059","0.0-52.0-0.0","83747052","wem/bandit_single","A3J5KTBHZI60H","pain","7","","74","J","1","","0","1","0","","0.3145527135","false","15","","0.1295923723","main_expt","","0.3145527135","","0.4841526839","","0.207651467","","","","","",""
"135","","bandit","91","302952","0.0-53.0-0.0","83747052","wem/bandit_single","A3J5KTBHZI60H","pain","7","","74","J","1","","0","0","1","","0.2919685568","false","16","","0.1259026636","main_expt","","0.2919685568","","0.4733209008","","0.264879833","","","","","",""
"13","","bandit","92","304722","0.0-54.0-0.0","83747052","wem/bandit_single","A3J5KTBHZI60H","pain","7","","74","J","1","","0","0","1","","0.2437915417","false","17","","0.08714849596","main_expt","","0.2437915417","","0.4548629562","","0.301226273","","","","","",""
"59","","bandit","93","306539","0.0-55.0-0.0","83747052","wem/bandit_single","A3J5KTBHZI60H","pain","7","","74","J","1","","0","0","1","","0.2139729843","false","18","","0.06082296625","main_expt","","0.2139729843","","0.4423108412","","0.3355017989","","","","","",""
"123","","bandit","94","308419","0.0-56.0-0.0","83747052","wem/bandit_single","A3J5KTBHZI60H","pain","7","","74","J","1","","0","0","1","","0.2117718275","false","19","","0.04376078701","main_expt","","0.2117718275","","0.4510346454","","0.4066928382","","","","","",""
"10","","bandit","95","310187","0.0-57.0-0.0","83747052","wem/bandit_single","A3J5KTBHZI60H","pain","7","","75","K","2","","0","1","0","","0.4522943673","false","20","","0.0431273538","main_expt","","0.2128214431","","0.4522943673","","0.4152799178","","","","","",""
"119","","bandit","96","312063","0.0-58.0-0.0","83747052","wem/bandit_single","A3J5KTBHZI60H","pain","7","","75","K","2","","0","1","0","","0.4213917452","false","21","","0.05700218709","main_expt","","0.2557511999","","0.4213917452","","0.4005545413","","","","","",""
"74","","bandit","97","313894","0.0-59.0-0.0","83747052","wem/bandit_single","A3J5KTBHZI60H","pain","7","","75","K","2","","0","1","0","","0.4055738921","false","22","","0.03008320558","main_expt","","0.2240556206","","0.4055738921","","0.4065945052","","","","","",""
"9","","bandit","98","315661","0.0-60.0-0.0","83747052","wem/bandit_single","A3J5KTBHZI60H","pain","7","","75","K","2","","0","0","1","","0.4102744642","false","23","","0.04675245401","main_expt","","0.1913455436","","0.4102744642","","0.4396923884","","","","","",""
"875","","bandit","99","318295","0.0-61.0-0.0","83747052","wem/bandit_single","A3J5KTBHZI60H","pain","7","","75","K","2","","0","0","1","","0.4215519413","false","24","","0.02664245213","main_expt","","0.1767964116","","0.4215519413","","0.4414607804","","","","","",""
"306","","bandit","100","320357","0.0-62.0-0.0","83747052","wem/bandit_single","A3J5KTBHZI60H","pain","7","","74","J","1","","0","0","1","","0.1667721477","false","25","","0.02443183667","main_expt","","0.1667721477","","0.4076768117","","0.430597795","","","","","",""
"145","","bandit","101","322257","0.0-63.0-0.0","83747052","wem/bandit_single","A3J5KTBHZI60H","pain","7","","76","L","3","","0","0","1","","0.4049624372","false","26","","0.02765515704","main_expt","","0.132468293","","0.3563873355","","0.4049624372","","","","","",""
"48","","bandit","102","324062","0.0-64.0-0.0","83747052","wem/bandit_single","A3J5KTBHZI60H","pain","7","","72","H","0","img/none_selected.jpg","0","0","1","","0.05751586542","false","27","","0.05751586542","main_expt","","0.1283549716","","0.3305608977","","0.3959859591","","","","","",""
"92","","bandit","103","325912","0.0-65.0-0.0","83747052","wem/bandit_single","A3J5KTBHZI60H","pain","7","","72","H","0","img/none_selected.jpg","0","0","1","","0.1046410472","false","28","","0.1046410472","main_expt","","0.1218888314","","0.323916825","","0.4316273603","","","","","",""
"72","","bandit","104","327742","0.0-66.0-0.0","83747052","wem/bandit_single","A3J5KTBHZI60H","pain","7","","74","J","1","","0","0","1","","0.08739650486","false","29","","0.1174110135","main_expt","","0.08739650486","","0.3256975875","","0.4618757987","","","","","",""
"27","","bandit","105","329525","0.0-67.0-0.0","83747052","wem/bandit_single","A3J5KTBHZI60H","pain","7","","76","L","3","","0","0","1","","0.4764599947","false","30","","0.09344635718","main_expt","","0.1113113005","","0.3590663193","","0.4764599947","","","","","",""
"51","","bandit","106","331333","0.0-68.0-0.0","83747052","wem/bandit_single","A3J5KTBHZI60H","pain","7","","76","L","3","","0","1","0","","0.4870567238","false","31","","0.07228097062","main_expt","","0.1234593762","","0.2794303661","","0.4870567238","","","","","",""
"109","","bandit","107","333201","0.0-69.0-0.0","83747052","wem/bandit_single","A3J5KTBHZI60H","pain","7","","76","L","3","","0","1","0","","0.4744541924","false","32","","0.06660380695","main_expt","","0.1204693509","","0.2725021833","","0.4744541924","","","","","",""
"41","","bandit","108","335001","0.0-70.0-0.0","83747052","wem/bandit_single","A3J5KTBHZI60H","pain","7","","76","L","3","","0","0","1","","0.4595636441","false","33","","0.06161000393","main_expt","","0.1525092538","","0.2662358977","","0.4595636441","","","","","",""
"133","","bandit","109","336895","0.0-71.0-0.0","83747052","wem/bandit_single","A3J5KTBHZI60H","pain","7","","72","H","0","img/none_selected.jpg","0","0","1","","0.08245015188","false","34","","0.08245015188","main_expt","","0.0933794629","","0.3062719381","","0.4700794195","","","","","",""
"93","","bandit","110","338745","0.0-72.0-0.0","83747052","wem/bandit_single","A3J5KTBHZI60H","pain","7","","74","J","1","","0","0","1","","0.06693018499","false","35","","0.08195488018","main_expt","","0.06693018499","","0.3199342551","","0.46481425","","","","","",""
"96","","bandit","111","340596","0.0-73.0-0.0","83747052","wem/bandit_single","A3J5KTBHZI60H","pain","7","","75","K","2","","0","0","1","","0.3039619122","false","36","","0.1004102013","main_expt","","0.09916465935","","0.3039619122","","0.4518384169","","","","","",""
"323","","bandit","112","342676","0.0-74.0-0.0","83747052","wem/bandit_single","A3J5KTBHZI60H","pain","7","","76","L","3","","0","1","0","","0.439581627","false","37","","0.1390326598","main_expt","","0.08872434017","","0.2927636057","","0.439581627","","","","","",""
"134","","bandit","113","344569","0.0-75.0-0.0","83747052","wem/bandit_single","A3J5KTBHZI60H","pain","7","","76","L","3","","0","0","1","","0.3994664239","false","38","","0.143322519","main_expt","","0.08103487055","","0.3513205482","","0.3994664239","","","","","",""
"37","","bandit","114","346364","0.0-76.0-0.0","83747052","wem/bandit_single","A3J5KTBHZI60H","pain","7","","76","L","3","","0","0","1","","0.399239641","false","39","","0.1439849427","main_expt","","0.09262773223","","0.3199725693","","0.399239641","","","","","",""
"10","","bandit","115","348133","0.0-77.0-0.0","83747052","wem/bandit_single","A3J5KTBHZI60H","pain","7","","76","L","3","","0","0","1","","0.3842971785","false","40","","0.1813186375","main_expt","","0.08276392867","","0.2899826696","","0.3842971785","","","","","",""
"37","","bandit","116","349929","0.0-78.0-0.0","83747052","wem/bandit_single","A3J5KTBHZI60H","pain","7","","75","K","2","","0","0","1","","0.2470457707","false","41","","0.182623784","main_expt","","0.07889170896","","0.2470457707","","0.3584077127","","","","","",""
"2","","bandit","117","351688","0.0-79.0-0.0","83747052","wem/bandit_single","A3J5KTBHZI60H","pain","7","","75","K","2","","0","0","1","","0.2860815649","false","42","","0.1310997782","main_expt","","0.1007082374","","0.2860815649","","0.2940512223","","","","","",""
"384","","bandit","118","353832","0.0-80.0-0.0","83747052","wem/bandit_single","A3J5KTBHZI60H","pain","7","","74","J","1","","0","0","1","","0.04983151166","false","43","","0.1211351308","main_expt","","0.04983151166","","0.3649324249","","0.3274682868","","","","","",""
"46","","bandit","119","355637","0.0-81.0-0.0","83747052","wem/bandit_single","A3J5KTBHZI60H","pain","7","","72","H","0","img/none_selected.jpg","0","0","1","","0.1032393721","false","44","","0.1032393721","main_expt","","0.06772206808","","0.3722884938","","0.3105097628","","","","","",""
"109","","bandit","120","357504","0.0-82.0-0.0","83747052","wem/bandit_single","A3J5KTBHZI60H","pain","7","","72","H","0","img/none_selected.jpg","0","0","1","","0.145243047","false","45","","0.145243047","main_expt","","0.07082322934","","0.3589666793","","0.3253779088","","","","","",""
"42","","bandit","121","359304","0.0-83.0-0.0","83747052","wem/bandit_single","A3J5KTBHZI60H","pain","7","","72","H","0","img/none_selected.jpg","0","0","1","","0.1871821161","false","46","","0.1871821161","main_expt","","0.08302100682","","0.309469461","","0.2907447256","","","","","",""
"82","","bandit","122","361144","0.0-84.0-0.0","83747052","wem/bandit_single","A3J5KTBHZI60H","pain","7","","72","H","0","img/none_selected.jpg","0","0","1","","0.1827431821","false","47","","0.1827431821","main_expt","","0.04947507936","","0.3486132663","","0.2922490699","","","","","",""
"233","","bandit","123","363135","0.0-85.0-0.0","83747052","wem/bandit_single","A3J5KTBHZI60H","pain","7","","76","L","3","","0","0","1","","0.3012354267","false","48","","0.1863443356","main_expt","","0.05970491685","","0.3613151755","","0.3012354267","","","","","",""
"32","","bandit","124","364927","0.0-86.0-0.0","83747052","wem/bandit_single","A3J5KTBHZI60H","pain","7","","75","K","2","","0","0","1","","0.3810076255","false","49","","0.2089920758","main_expt","","0.05846806591","","0.3810076255","","0.3199255499","","","","","",""
"269","","bandit","125","366955","0.0-87.0-0.0","83747052","wem/bandit_single","A3J5KTBHZI60H","pain","7","","74","J","1","","0","0","1","","0.08078022322","false","50","","0.2204805957","main_expt","","0.08078022322","","0.3528158806","","0.3246792682","","","","","",""
"97","","bandit","126","368811","0.0-88.0-0.0","83747052","wem/bandit_single","A3J5KTBHZI60H","pain","7","","74","J","1","","0","0","1","","0.08366705542","false","51","","0.2796788854","main_expt","","0.08366705542","","0.4127521961","","0.3158487008","","","","","",""
"68","","bandit","127","370639","0.0-89.0-0.0","83747052","wem/bandit_single","A3J5KTBHZI60H","pain","7","","74","J","1","","0","0","1","","0.1365111474","false","52","","0.2870992152","main_expt","","0.1365111474","","0.4034362436","","0.2764666405","","","","","",""
"3","","bandit","128","372403","0.0-90.0-0.0","83747052","wem/bandit_single","A3J5KTBHZI60H","pain","7","","74","J","1","","0","0","1","","0.1238361543","false","53","","0.3176469779","main_expt","","0.1238361543","","0.4268522392","","0.2740398937","","","","","",""
"104","","bandit","129","374265","0.0-91.0-0.0","83747052","wem/bandit_single","A3J5KTBHZI60H","pain","7","","74","J","1","","0","1","0","","0.1150058699","false","54","","0.3407727651","main_expt","","0.1150058699","","0.4471231168","","0.2499565254","","","","","",""
"113","","bandit","130","376136","0.0-92.0-0.0","83747052","wem/bandit_single","A3J5KTBHZI60H","pain","7","","74","J","1","","0","1","0","","0.1498695165","false","55","","0.380871147","main_expt","","0.1498695165","","0.4397300441","","0.221305586","","","","","",""
"70","","bandit","131","377966","0.0-93.0-0.0","83747052","wem/bandit_single","A3J5KTBHZI60H","pain","7","","74","J","1","","0","0","1","","0.1559096332","false","56","","0.3614982187","main_expt","","0.1559096332","","0.4266514607","","0.2513729962","","","","","",""
"172","","bandit","132","379898","0.0-94.0-0.0","83747052","wem/bandit_single","A3J5KTBHZI60H","pain","7","","74","J","1","","0","0","1","","0.139260175","false","57","","0.3219973572","main_expt","","0.139260175","","0.4351066669","","0.254621842","","","","","",""
"606","","bandit","133","382262","0.0-95.0-0.0","83747052","wem/bandit_single","A3J5KTBHZI60H","pain","7","","74","J","1","","0","1","0","","0.1101041774","false","58","","0.3136466855","main_expt","","0.1101041774","","0.4114765848","","0.2911199408","","","","","",""
"172","","bandit","134","384192","0.0-96.0-0.0","83747052","wem/bandit_single","A3J5KTBHZI60H","pain","7","","74","J","1","","0","0","1","","0.1619704935","false","59","","0.3553654786","main_expt","","0.1619704935","","0.4331866813","","0.3260103257","","","","","",""
"66","","bandit","135","386017","0.0-97.0-0.0","83747052","wem/bandit_single","A3J5KTBHZI60H","pain","7","","74","J","1","","0","0","1","","0.1023472493","false","60","","0.302494743","main_expt","","0.1023472493","","0.4452666195","","0.3801831719","","","","","",""
"161","","bandit","136","387937","0.0-98.0-0.0","83747052","wem/bandit_single","A3J5KTBHZI60H","pain","7","","74","J","1","","0","0","1","","0.1659923055","false","61","","0.3194951829","main_expt","","0.1659923055","","0.4533212266","","0.4097171909","","","","","",""
"33","","bandit","137","389730","0.0-99.0-0.0","83747052","wem/bandit_single","A3J5KTBHZI60H","pain","7","","74","J","1","","0","1","0","","0.1773336283","false","62","","0.3491175101","main_expt","","0.1773336283","","0.4546633602","","0.4297251169","","","","","",""
"5","","bandit","138","391493","0.0-100.0-0.0","83747052","wem/bandit_single","A3J5KTBHZI60H","pain","7","","74","J","1","","0","1","0","","0.1838898345","false","63","","0.3618657485","main_expt","","0.1838898345","","0.431915851","","0.4523537282","","","","","",""
"207","","bandit","139","393457","0.0-101.0-0.0","83747052","wem/bandit_single","A3J5KTBHZI60H","pain","7","","74","J","1","","0","0","1","","0.1535376321","false","64","","0.3331995431","main_expt","","0.1535376321","","0.4397857724","","0.4577822331","","","","","",""
"154","","bandit","140","395370","0.0-102.0-0.0","83747052","wem/bandit_single","A3J5KTBHZI60H","pain","7","","74","J","1","","0","0","1","","0.1696059705","false","65","","0.3222916502","main_expt","","0.1696059705","","0.3803141428","","0.4366397349","","","","","",""
"77","","bandit","141","397208","0.0-103.0-0.0","83747052","wem/bandit_single","A3J5KTBHZI60H","pain","7","","74","J","1","","0","0","1","","0.1747776373","false","66","","0.2935747005","main_expt","","0.1747776373","","0.4318665216","","0.4223045317","","","","","",""
"377","","bandit","142","399344","0.0-104.0-0.0","83747052","wem/bandit_single","A3J5KTBHZI60H","pain","7","","74","J","1","","0","0","1","","0.1880318686","false","67","","0.272098099","main_expt","","0.1880318686","","0.3783394243","","0.453094409","","","","","",""
"116","","bandit","143","401220","0.0-105.0-0.0","83747052","wem/bandit_single","A3J5KTBHZI60H","pain","7","","75","K","2","","0","0","1","","0.3424409758","false","68","","0.2839543474","main_expt","","0.1703396733","","0.3424409758","","0.4441165928","","","","","",""
"642","","bandit","144","403621","0.0-106.0-0.0","83747052","wem/bandit_single","A3J5KTBHZI60H","pain","7","","76","L","3","","0","1","0","","0.437102529","false","69","","0.3106529802","main_expt","","0.2041307244","","0.3825588005","","0.437102529","","","","","",""
"76","","bandit","145","405451","0.0-107.0-0.0","83747052","wem/bandit_single","A3J5KTBHZI60H","pain","7","","76","L","3","","0","0","1","","0.463010405","false","70","","0.2152651325","main_expt","","0.2380468473","","0.4019939479","","0.463010405","","","","","",""
"74","","bandit","146","407285","0.0-108.0-0.0","83747052","wem/bandit_single","A3J5KTBHZI60H","pain","7","","76","L","3","","0","1","0","","0.4511055106","false","71","","0.2150247356","main_expt","","0.2540220497","","0.3995375499","","0.4511055106","","","","","",""
"52","","bandit","147","409096","0.0-109.0-0.0","83747052","wem/bandit_single","A3J5KTBHZI60H","pain","7","","76","L","3","","0","0","1","","0.456238914","false","72","","0.2196699897","main_expt","","0.2877519017","","0.3655493795","","0.456238914","","","","","",""
"21","","bandit","148","410876","0.0-110.0-0.0","83747052","wem/bandit_single","A3J5KTBHZI60H","pain","7","","76","L","3","","0","1","0","","0.4499554287","false","73","","0.2086164273","main_expt","","0.3090267326","","0.3443296275","","0.4499554287","","","","","",""
"51","","bandit","149","412688","0.0-111.0-0.0","83747052","wem/bandit_single","A3J5KTBHZI60H","pain","7","","76","L","3","","0","0","1","","0.4439780401","false","74","","0.2226006448","main_expt","","0.3400901674","","0.3647916216","","0.4439780401","","","","","",""
"88","","bandit","150","414535","0.0-112.0-0.0","83747052","wem/bandit_single","A3J5KTBHZI60H","pain","7","","76","L","3","","0","1","0","","0.4332341766","false","75","","0.2015377479","main_expt","","0.3519214117","","0.3531956798","","0.4332341766","","","","","",""
"154","","bandit","151","416448","0.0-113.0-0.0","83747052","wem/bandit_single","A3J5KTBHZI60H","pain","7","","76","L","3","","0","0","1","","0.4241516559","false","76","","0.2614433548","main_expt","","0.3621584499","","0.3375826797","","0.4241516559","","","","","",""
"41","","bandit","152","418248","0.0-114.0-0.0","83747052","wem/bandit_single","A3J5KTBHZI60H","pain","7","","76","L","3","","0","0","1","","0.404580079","false","77","","0.3216300101","main_expt","","0.3919288513","","0.3389323042","","0.404580079","","","","","",""
"91","","bandit","153","420099","0.0-115.0-0.0","83747052","wem/bandit_single","A3J5KTBHZI60H","pain","7","","76","L","3","","0","0","1","","0.4291019186","false","78","","0.3253900192","main_expt","","0.3733142104","","0.3633343286","","0.4291019186","","","","","",""
"186","","bandit","154","422043","0.0-116.0-0.0","83747052","wem/bandit_single","A3J5KTBHZI60H","pain","7","","76","L","3","","0","0","1","","0.4431072694","false","79","","0.3253799771","main_expt","","0.3594898906","","0.35510173","","0.4431072694","","","","","",""
"142","","bandit","155","423942","0.0-117.0-0.0","83747052","wem/bandit_single","A3J5KTBHZI60H","pain","7","","74","J","1","","0","0","1","","0.3740263767","false","80","","0.321449248","main_expt","","0.3740263767","","0.3313699227","","0.4443251544","","","","","",""
"21","","bandit","156","425723","0.0-118.0-0.0","83747052","wem/bandit_single","A3J5KTBHZI60H","pain","7","","74","J","1","","0","0","1","","0.4031190442","false","81","","0.3644617874","main_expt","","0.4031190442","","0.3545786091","","0.4222806544","","","","","",""
"217","","bandit","157","427701","0.0-119.0-0.0","83747052","wem/bandit_single","A3J5KTBHZI60H","pain","7","","75","K","2","","0","0","1","","0.36958943","false","82","","0.3646727683","main_expt","","0.397551472","","0.36958943","","0.4348184101","","","","","",""
"91","","bandit","158","429551","0.0-120.0-0.0","83747052","wem/bandit_single","A3J5KTBHZI60H","pain","7","","72","H","0","img/none_selected.jpg","0","1","0","","0.3823543101","false","83","","0.3823543101","main_expt","","0.4251589807","","0.3818301908","","0.4237956171","","","","","",""
"47","","bandit","159","431358","0.0-121.0-0.0","83747052","wem/bandit_single","A3J5KTBHZI60H","pain","7","","72","H","0","img/none_selected.jpg","0","0","1","","0.3927357351","false","84","","0.3927357351","main_expt","","0.406460911","","0.3841316884","","0.4255820551","","","","","",""
"96","","bandit","160","433214","0.0-122.0-0.0","83747052","wem/bandit_single","A3J5KTBHZI60H","pain","7","","72","H","0","img/none_selected.jpg","0","1","0","","0.3242792488","false","85","","0.3242792488","main_expt","","0.4190094225","","0.3769873451","","0.4407045426","","","","","",""
"143","","bandit","161","435115","0.0-123.0-0.0","83747052","wem/bandit_single","A3J5KTBHZI60H","pain","7","","72","H","0","img/none_selected.jpg","0","0","1","","0.3257651096","false","86","","0.3257651096","main_expt","","0.4006115864","","0.3624331431","","0.4276882268","","","","","",""
"1096","","bandit","162","437968","0.0-124.0-0.0","83747052","wem/bandit_single","A3J5KTBHZI60H","pain","7","","72","H","0","img/none_selected.jpg","0","0","1","","0.3768973447","false","87","","0.3768973447","main_expt","","0.3761684651","","0.356636023","","0.4430021271","","","","","",""
"159","","bandit","163","439886","0.0-125.0-0.0","83747052","wem/bandit_single","A3J5KTBHZI60H","pain","7","","74","J","1","","0","0","1","","0.3935355307","false","88","","0.3333804566","main_expt","","0.3935355307","","0.392705536","","0.4259892117","","","","","",""
"12","","bandit","164","441659","0.0-126.0-0.0","83747052","wem/bandit_single","A3J5KTBHZI60H","pain","7","","72","H","0","img/none_selected.jpg","0","1","0","","0.3326985542","false","89","","0.3326985542","main_expt","","0.3870426381","","0.39579544","","0.4451393147","","","","","",""
"98","","bandit","165","443514","0.0-127.0-0.0","83747052","wem/bandit_single","A3J5KTBHZI60H","pain","7","","72","H","0","img/none_selected.jpg","0","0","1","","0.3392082427","false","90","","0.3392082427","main_expt","","0.3838573884","","0.3832348421","","0.4450202473","","","","","",""
"78","","bandit","166","445351","0.0-128.0-0.0","83747052","wem/bandit_single","A3J5KTBHZI60H","pain","7","","72","H","0","img/none_selected.jpg","0","0","1","","0.2686139101","false","91","","0.2686139101","main_expt","","0.376063899","","0.4009824957","","0.428726471","","","","","",""
"16","","bandit","167","447131","0.0-129.0-0.0","83747052","wem/bandit_single","A3J5KTBHZI60H","pain","7","","72","H","0","img/none_selected.jpg","0","1","0","","0.247120026","false","92","","0.247120026","main_expt","","0.3877690924","","0.360902971","","0.4207086611","","","","","",""
"139","","bandit","168","449029","0.0-130.0-0.0","83747052","wem/bandit_single","A3J5KTBHZI60H","pain","7","","72","H","0","img/none_selected.jpg","0","0","1","","0.1945967668","false","93","","0.1945967668","main_expt","","0.3832772702","","0.4098322422","","0.4271109851","","","","","",""
"149","","bandit","169","450937","0.0-131.0-0.0","83747052","wem/bandit_single","A3J5KTBHZI60H","pain","7","","72","H","0","img/none_selected.jpg","0","0","1","","0.2059940606","false","94","","0.2059940606","main_expt","","0.3569295009","","0.365685068","","0.3988025755","","","","","",""
"144","","bandit","170","452842","0.0-132.0-0.0","83747052","wem/bandit_single","A3J5KTBHZI60H","pain","7","","74","J","1","","0","0","1","","0.3462427099","false","95","","0.2276463074","main_expt","","0.3462427099","","0.3246475432","","0.3413505888","","","","","",""
"89","","bandit","171","454690","0.0-133.0-0.0","83747052","wem/bandit_single","A3J5KTBHZI60H","pain","7","","75","K","2","","0","0","1","","0.3155220288","false","96","","0.3088064785","main_expt","","0.2902370181","","0.3155220288","","0.2791034264","","","","","",""
"71","","bandit","172","456522","0.0-134.0-0.0","83747052","wem/bandit_single","A3J5KTBHZI60H","pain","7","","72","H","0","img/none_selected.jpg","0","0","1","","0.3167474357","false","97","","0.3167474357","main_expt","","0.2679909325","","0.2920368253","","0.2300358144","","","","","",""
"1091","","bandit","173","459369","0.0-135.0-0.0","83747052","wem/bandit_single","A3J5KTBHZI60H","pain","7","","76","L","3","","0","0","1","","0.245913642","false","98","","0.3311058144","main_expt","","0.1827708427","","0.3060047135","","0.245913642","","","","","",""
"20","","bandit","174","461149","0.0-136.0-0.0","83747052","wem/bandit_single","A3J5KTBHZI60H","pain","7","","76","L","3","","0","1","0","","0.1977736678","false","99","","0.2831383079","main_expt","","0.1847148603","","0.2834300817","","0.1977736678","","","","","",""
"133","","bandit","175","463040","0.0-137.0-0.0","83747052","wem/bandit_single","A3J5KTBHZI60H","pain","7","","76","L","3","","0","0","1","","0.2300987319","false","100","","0.2697282324","main_expt","","0.230590463","","0.3094748938","","0.2300987319","","","","","",""
"82","","bandit","176","464882","0.0-138.0-0.0","83747052","wem/bandit_single","A3J5KTBHZI60H","pain","7","","76","L","3","","0","0","1","","0.2375929523","false","101","","0.2908511313","main_expt","","0.2036778932","","0.2776834174","","0.2375929523","","","","","",""
"16","","bandit","177","466658","0.0-139.0-0.0","83747052","wem/bandit_single","A3J5KTBHZI60H","pain","7","","76","L","3","","0","0","1","","0.2034833152","false","102","","0.3371086545","main_expt","","0.2146692458","","0.2649828438","","0.2034833152","","","","","",""
"257","","bandit","178","468675","0.0-140.0-0.0","83747052","wem/bandit_single","A3J5KTBHZI60H","pain","7","","75","K","2","","0","0","1","","0.1977849252","false","103","","0.2925399581","main_expt","","0.2194044235","","0.1977849252","","0.2510503681","","","","","",""
"3","","bandit","179","470437","0.0-141.0-0.0","83747052","wem/bandit_single","A3J5KTBHZI60H","pain","7","","75","K","2","","0","0","1","","0.164180841","false","104","","0.229866195","main_expt","","0.2869514305","","0.164180841","","0.2563420723","","","","","",""
"75","","bandit","180","472274","0.0-142.0-0.0","83747052","wem/bandit_single","A3J5KTBHZI60H","pain","7","","74","J","1","","0","0","1","","0.2577924419","false","105","","0.2786648232","main_expt","","0.2577924419","","0.1410880488","","0.2025228913","","","","","",""
"283","","bandit","181","474316","0.0-143.0-0.0","83747052","wem/bandit_single","A3J5KTBHZI60H","pain","7","","74","J","1","","0","0","1","","0.2984789445","false","106","","0.2907959635","main_expt","","0.2984789445","","0.2151151798","","0.2288818116","","","","","",""
"421","","bandit","182","476496","0.0-144.0-0.0","83747052","wem/bandit_single","A3J5KTBHZI60H","pain","7","","76","L","3","","0","0","1","","0.2725684277","false","107","","0.2934471614","main_expt","","0.2483059356","","0.2068678097","","0.2725684277","","","","","",""
"78","","bandit","183","478332","0.0-145.0-0.0","83747052","wem/bandit_single","A3J5KTBHZI60H","pain","7","","76","L","3","","0","0","1","","0.2725367566","false","108","","0.2761460559","main_expt","","0.2177203031","","0.1775779384","","0.2725367566","","","","","",""
"192","","bandit","184","480285","0.0-146.0-0.0","83747052","wem/bandit_single","A3J5KTBHZI60H","pain","7","","76","L","3","","0","1","0","","0.2645412755","false","109","","0.3154055318","main_expt","","0.2155336726","","0.1633907035","","0.2645412755","","","","","",""
"296","","bandit","185","482340","0.0-147.0-0.0","83747052","wem/bandit_single","A3J5KTBHZI60H","pain","7","","76","L","3","","0","0","1","","0.2537238549","false","110","","0.3375256398","main_expt","","0.2012134729","","0.1918139944","","0.2537238549","","","","","",""
"34","","bandit","186","484132","0.0-148.0-0.0","83747052","wem/bandit_single","A3J5KTBHZI60H","pain","7","","76","L","3","","0","0","1","","0.2404930496","false","111","","0.3575411602","main_expt","","0.1362677005","","0.1512725872","","0.2404930496","","","","","",""
"80","","bandit","187","485973","0.0-149.0-0.0","83747052","wem/bandit_single","A3J5KTBHZI60H","pain","7","","76","L","3","","0","0","1","","0.2031918028","false","112","","0.3357984678","main_expt","","0.1146466799","","0.1579322392","","0.2031918028","","","","","",""
"4","","bandit","188","487736","0.0-150.0-0.0","83747052","wem/bandit_single","A3J5KTBHZI60H","pain","7","","75","K","2","","0","0","1","","0.1638150459","false","113","","0.2950954247","main_expt","","0.1503083978","","0.1638150459","","0.2649243105","","","","","",""
"59","","bandit","189","489556","0.0-151.0-0.0","83747052","wem/bandit_single","A3J5KTBHZI60H","pain","7","","74","J","1","","0","0","1","","0.1750780752","false","114","","0.3242299597","main_expt","","0.1750780752","","0.1913716077","","0.2669290767","","","","","",""
"259","","bandit","190","491572","0.0-152.0-0.0","83747052","wem/bandit_single","A3J5KTBHZI60H","pain","7","","72","H","0","img/none_selected.jpg","0","0","1","","0.3224166769","false","115","","0.3224166769","main_expt","","0.1486636943","","0.1762938339","","0.2538219684","","","","","",""
"13","","bandit","191","493343","0.0-153.0-0.0","83747052","wem/bandit_single","A3J5KTBHZI60H","pain","7","","74","J","1","","0","0","1","","0.149377163","false","116","","0.3512221687","main_expt","","0.149377163","","0.1696576366","","0.2987800907","","","","","",""
"30","","bandit","192","495134","0.0-154.0-0.0","83747052","wem/bandit_single","A3J5KTBHZI60H","pain","7","","72","H","0","img/none_selected.jpg","0","0","1","","0.3854596622","false","117","","0.3854596622","main_expt","","0.1255156769","","0.1743908607","","0.2863147972","","","","","",""
"14","","bandit","193","496907","0.0-155.0-0.0","83747052","wem/bandit_single","A3J5KTBHZI60H","pain","7","","74","J","1","","0","0","1","","0.09405737873","false","118","","0.3311459155","main_expt","","0.09405737873","","0.2187419408","","0.2863485017","","","","","",""
"288","","bandit","194","498956","0.0-156.0-0.0","83747052","wem/bandit_single","A3J5KTBHZI60H","pain","7","","72","H","0","img/none_selected.jpg","0","0","1","","0.3243143835","false","119","","0.3243143835","main_expt","","0.0580133569","","0.2602037773","","0.2704451175","","","","","",""
"67","","bandit","195","500784","0.0-157.0-0.0","83747052","wem/bandit_single","A3J5KTBHZI60H","pain","7","","74","J","1","","0","0","1","","0.04965982272","false","120","","0.3830596167","main_expt","","0.04965982272","","0.2665240463","","0.2545920365","","","","","",""
"496","","bandit","196","503038","0.0-158.0-0.0","83747052","wem/bandit_single","A3J5KTBHZI60H","pain","7","","76","L","3","","0","0","1","","0.323502768","false","121","","0.4451194006","main_expt","","0.05452098248","","0.2300357123","","0.323502768","","","","","",""
"17","","bandit","197","504815","0.0-159.0-0.0","83747052","wem/bandit_single","A3J5KTBHZI60H","pain","7","","76","L","3","","0","1","0","","0.3380353075","false","122","","0.4636898934","main_expt","","0.0475995955","","0.2071140152","","0.3380353075","","","","","",""
"252","","bandit","198","506827","0.0-160.0-0.0","83747052","wem/bandit_single","A3J5KTBHZI60H","pain","7","","76","L","3","","0","0","1","","0.341491638","false","123","","0.4384370655","main_expt","","0.04799769062","","0.2590656513","","0.341491638","","","","","",""
"14","","bandit","199","508602","0.0-161.0-0.0","83747052","wem/bandit_single","A3J5KTBHZI60H","pain","7","","76","L","3","","0","1","0","","0.3269941981","false","124","","0.456933673","main_expt","","0.06454195205","","0.2492473134","","0.3269941981","","","","","",""
"33","","bandit","200","510395","0.0-162.0-0.0","83747052","wem/bandit_single","A3J5KTBHZI60H","pain","7","","76","L","3","","0","0","1","","0.3263020805","false","125","","0.4834692703","main_expt","","0.0570469748","","0.2569957816","","0.3263020805","","","","","",""
"17","","bandit","201","512174","0.0-163.0-0.0","83747052","wem/bandit_single","A3J5KTBHZI60H","pain","7","","76","L","3","","0","0","1","","0.3377655475","false","126","","0.4895912119","main_expt","","0.06214194377","","0.2715808503","","0.3377655475","","","","","",""
"164","","bandit","202","514098","0.0-164.0-0.0","83747052","wem/bandit_single","A3J5KTBHZI60H","pain","7","","76","L","3","","0","0","1","","0.3489319456","false","127","","0.4791977258","main_expt","","0.06219251386","","0.3260406689","","0.3489319456","","","","","",""
"68","","bandit","203","515926","0.0-165.0-0.0","83747052","wem/bandit_single","A3J5KTBHZI60H","pain","7","","76","L","3","","0","1","0","","0.3450526125","false","128","","0.4772399827","main_expt","","0.06192095676","","0.3487232841","","0.3450526125","","","","","",""
"67","","bandit","204","517755","0.0-166.0-0.0","83747052","wem/bandit_single","A3J5KTBHZI60H","pain","7","","76","L","3","","0","0","1","","0.3297424559","false","129","","0.4688955373","main_expt","","0.03846933599","","0.3601162145","","0.3297424559","","","","","",""
"7","","bandit","205","519521","0.0-167.0-0.0","83747052","wem/bandit_single","A3J5KTBHZI60H","pain","7","","76","L","3","","0","1","0","","0.3731420779","false","130","","0.4651179545","main_expt","","0.02330960587","","0.4185413006","","0.3731420779","","","","","",""
"317","","bandit","206","521598","0.0-168.0-0.0","83747052","wem/bandit_single","A3J5KTBHZI60H","pain","7","","76","L","3","","0","1","0","","0.325638262","false","131","","0.4794739162","main_expt","","0.03495479357","","0.4537663544","","0.325638262","","","","","",""
"364","","bandit","207","523723","0.0-169.0-0.0","83747052","wem/bandit_single","A3J5KTBHZI60H","pain","7","","76","L","3","","0","0","1","","0.3132782049","false","132","","0.4679846252","main_expt","","0.02752519027","","0.4489861829","","0.3132782049","","","","","",""
"49","","bandit","208","525533","0.0-170.0-0.0","83747052","wem/bandit_single","A3J5KTBHZI60H","pain","7","","76","L","3","","0","0","1","","0.3552481716","false","133","","0.4636487781","main_expt","","0.03239645132","","0.4465240103","","0.3552481716","","","","","",""
"91","","bandit","209","527382","0.0-171.0-0.0","83747052","wem/bandit_single","A3J5KTBHZI60H","pain","7","","76","L","3","","0","0","1","","0.3478795997","false","134","","0.4578614037","main_expt","","0.02361228775","","0.4286255731","","0.3478795997","","","","","",""
"46","","bandit","210","529188","0.0-172.0-0.0","83747052","wem/bandit_single","A3J5KTBHZI60H","pain","7","","74","J","1","","0","0","1","","0.01378345967","false","135","","0.4339873336","main_expt","","0.01378345967","","0.3969320342","","0.3394088604","","","","","",""
"223","","bandit","211","531172","0.0-173.0-0.0","83747052","wem/bandit_single","A3J5KTBHZI60H","pain","7","","72","H","0","img/none_selected.jpg","0","1","0","","0.4091277288","false","136","","0.4091277288","main_expt","","0.01349892684","","0.3975573163","","0.3739095734","","","","","",""
"8","","bandit","212","532941","0.0-174.0-0.0","83747052","wem/bandit_single","A3J5KTBHZI60H","pain","7","","72","H","0","img/none_selected.jpg","0","0","1","","0.4024864596","false","137","","0.4024864596","main_expt","","0.01373747566","","0.4226438881","","0.3319731639","","","","","",""
"35","","bandit","213","534737","0.0-175.0-0.0","83747052","wem/bandit_single","A3J5KTBHZI60H","pain","7","","72","H","0","img/none_selected.jpg","0","0","1","","0.3793932322","false","138","","0.3793932322","main_expt","","0.009346923256","","0.383622376","","0.3427854578","","","","","",""
"15","","bandit","214","536514","0.0-176.0-0.0","83747052","wem/bandit_single","A3J5KTBHZI60H","pain","7","","74","J","1","","0","0","1","","0.005947695369","false","139","","0.3940691536","main_expt","","0.005947695369","","0.3892077266","","0.2804250852","","","","","",""
"263","","bandit","215","538536","0.0-177.0-0.0","83747052","wem/bandit_single","A3J5KTBHZI60H","pain","7","","72","H","0","img/none_selected.jpg","0","0","1","","0.3878174143","false","140","","0.3878174143","main_expt","","0.003062149202","","0.3721285976","","0.294489168","","","","","",""
"7","","bandit","216","540304","0.0-178.0-0.0","83747052","wem/bandit_single","A3J5KTBHZI60H","pain","7","","72","H","0","img/none_selected.jpg","0","1","0","","0.3671315422","false","141","","0.3671315422","main_expt","","0.003723800288","","0.403063379","","0.2849233321","","","","","",""
"4","","bandit","217","542070","0.0-179.0-0.0","83747052","wem/bandit_single","A3J5KTBHZI60H","pain","7","","72","H","0","img/none_selected.jpg","0","0","1","","0.338830911","false","142","","0.338830911","main_expt","","0.003048460602","","0.3916907223","","0.2605380125","","","","","",""
"18","","bandit","218","543849","0.0-180.0-0.0","83747052","wem/bandit_single","A3J5KTBHZI60H","pain","7","","72","H","0","img/none_selected.jpg","0","0","1","","0.2709557481","false","143","","0.2709557481","main_expt","","0.002664125267","","0.4212357341","","0.3030740536","","","","","",""
"427","","bandit","219","546036","0.0-181.0-0.0","83747052","wem/bandit_single","A3J5KTBHZI60H","pain","7","","76","L","3","","0","0","1","","0.29766321","false","144","","0.249986241","main_expt","","0.0015633636","","0.3944164323","","0.29766321","","","","","",""
"35","","bandit","220","547833","0.0-182.0-0.0","83747052","wem/bandit_single","A3J5KTBHZI60H","pain","7","","72","H","0","img/none_selected.jpg","0","0","1","","0.2694710106","false","145","","0.2694710106","main_expt","","0.002084593646","","0.4129391908","","0.2862291296","","","","","",""
"159","","bandit","221","549754","0.0-183.0-0.0","83747052","wem/bandit_single","A3J5KTBHZI60H","pain","7","","76","L","3","","0","0","1","","0.3151642481","false","146","","0.3099728414","main_expt","","0.0008356934022","","0.4027876266","","0.3151642481","","","","","",""
"12","","bandit","222","551527","0.0-184.0-0.0","83747052","wem/bandit_single","A3J5KTBHZI60H","pain","7","","74","J","1","","0","0","1","","0.00187417998","false","147","","0.3010760093","main_expt","","0.00187417998","","0.3906291495","","0.3261334855","","","","","",""
"335","","bandit","223","553624","0.0-185.0-0.0","83747052","wem/bandit_single","A3J5KTBHZI60H","pain","7","","75","K","2","","0","0","1","","0.3718958907","false","148","","0.2861733563","main_expt","","0.001549413081","","0.3718958907","","0.3605999671","","","","","",""
"57","","bandit","224","555439","0.0-186.0-0.0","83747052","wem/bandit_single","A3J5KTBHZI60H","pain","7","","72","H","0","img/none_selected.jpg","0","1","0","","0.2613296644","false","149","","0.2613296644","main_expt","","0.002318569837","","0.3513552953","","0.3848975894","","","","","",""
"350","","bandit","225","557551","0.0-187.0-0.0","83747052","wem/bandit_single","A3J5KTBHZI60H","pain","7","","72","H","0","img/none_selected.jpg","0","0","1","","0.2955554784","false","150","","0.2955554784","main_expt","","0.002401941109","","0.3796712552","","0.3680345664","","","","","",""
"34","","bandit","226","559343","0.0-188.0-0.0","83747052","wem/bandit_single","A3J5KTBHZI60H","pain","7","","72","H","0","img/none_selected.jpg","0","1","0","","0.2928365899","false","151","","0.2928365899","main_expt","","0.002416650241","","0.4275550045","","0.3517559312","","","","","",""
"2","","bandit","227","561107","0.0-189.0-0.0","83747052","wem/bandit_single","A3J5KTBHZI60H","pain","7","","72","H","0","img/none_selected.jpg","0","1","0","","0.3000067833","false","152","","0.3000067833","main_expt","","0.002533271813","","0.4266807854","","0.3963282571","","","","","",""
"112","","bandit","228","562980","0.0-190.0-0.0","83747052","wem/bandit_single","A3J5KTBHZI60H","pain","7","","72","H","0","img/none_selected.jpg","0","0","1","","0.2757802357","false","153","","0.2757802357","main_expt","","0.00322942279","","0.4633151701","","0.432842039","","","","","",""
"80","","bandit","229","564819","0.0-191.0-0.0","83747052","wem/bandit_single","A3J5KTBHZI60H","pain","7","","72","H","0","img/none_selected.jpg","0","0","1","","0.3252288772","false","154","","0.3252288772","main_expt","","0.003404333974","","0.4723469507","","0.4134551824","","","","","",""
"95","","bandit","230","566676","0.0-192.0-0.0","83747052","wem/bandit_single","A3J5KTBHZI60H","pain","7","","72","H","0","img/none_selected.jpg","0","0","1","","0.2746928085","false","155","","0.2746928085","main_expt","","0.008925030754","","0.4829251431","","0.426737857","","","","","",""
"254","","bandit","231","568691","0.0-193.0-0.0","83747052","wem/bandit_single","A3J5KTBHZI60H","pain","7","","76","L","3","","0","0","1","","0.4289541051","false","156","","0.2881451241","main_expt","","0.005317619152","","0.4753947098","","0.4289541051","","","","","",""
"250","","bandit","232","570703","0.0-194.0-0.0","83747052","wem/bandit_single","A3J5KTBHZI60H","pain","7","","76","L","3","","0","1","0","","0.4593738684","false","157","","0.2861132768","main_expt","","0.002657446392","","0.4686295074","","0.4593738684","","","","","",""
"81","","bandit","233","572543","0.0-195.0-0.0","83747052","wem/bandit_single","A3J5KTBHZI60H","pain","7","","76","L","3","","0","0","1","","0.4716769587","false","158","","0.2382703247","main_expt","","0.005349678466","","0.4746137902","","0.4716769587","","","","","",""
"164","","bandit","234","574471","0.0-196.0-0.0","83747052","wem/bandit_single","A3J5KTBHZI60H","pain","7","","76","L","3","","0","1","0","","0.4566829936","false","159","","0.2650616746","main_expt","","0.00353293949","","0.4626257703","","0.4566829936","","","","","",""
"58","","bandit","235","576290","0.0-197.0-0.0","83747052","wem/bandit_single","A3J5KTBHZI60H","pain","7","","76","L","3","","0","1","0","","0.4684401337","false","160","","0.2841227011","main_expt","","0.004525880368","","0.4690497323","","0.4684401337","","","","","",""
"36","","bandit","236","578087","0.0-198.0-0.0","83747052","wem/bandit_single","A3J5KTBHZI60H","pain","7","","76","L","3","","0","1","0","","0.4327192474","false","161","","0.3103310899","main_expt","","0.00364468733","","0.4605728382","","0.4327192474","","","","","",""
"391","","bandit","237","580239","0.0-199.0-0.0","83747052","wem/bandit_single","A3J5KTBHZI60H","pain","7","","76","L","3","","0","0","1","","0.4158578039","false","162","","0.2990864795","main_expt","","0.004567203872","","0.4663204896","","0.4158578039","","","","","",""
"99","","bandit","238","582098","0.0-200.0-0.0","83747052","wem/bandit_single","A3J5KTBHZI60H","pain","7","","76","L","3","","0","1","0","","0.4206849782","false","163","","0.2650304997","main_expt","","0.003538815","","0.4626626357","","0.4206849782","","","","","",""
"90","","bandit","239","583951","0.0-201.0-0.0","83747052","wem/bandit_single","A3J5KTBHZI60H","pain","7","","76","L","3","","0","0","1","","0.4276923589","false","164","","0.2877519924","main_expt","","0.002896615325","","0.4672680551","","0.4276923589","","","","","",""
"349","","bandit","240","586059","0.0-202.0-0.0","83747052","wem/bandit_single","A3J5KTBHZI60H","pain","7","","76","L","3","","0","0","1","","0.4204466813","false","165","","0.2818109827","main_expt","","0.004500484281","","0.455015491","","0.4204466813","","","","","",""
"83","","bandit","241","587904","0.0-203.0-0.0","83747052","wem/bandit_single","A3J5KTBHZI60H","pain","7","","76","L","3","","0","0","1","","0.4229734844","false","166","","0.324785045","main_expt","","0.01017739848","","0.4201800218","","0.4229734844","","","","","",""
"289","","bandit","242","589953","0.0-204.0-0.0","83747052","wem/bandit_single","A3J5KTBHZI60H","pain","7","","72","H","0","img/none_selected.jpg","0","0","1","","0.3339304688","false","167","","0.3339304688","main_expt","","0.0129517719","","0.4430085171","","0.4474449943","","","","","",""
"33","","bandit","243","591750","0.0-205.0-0.0","83747052","wem/bandit_single","A3J5KTBHZI60H","pain","7","","74","J","1","","0","0","1","","0.009045291763","false","168","","0.3351003476","main_expt","","0.009045291763","","0.4526671473","","0.4458086367","","","","","",""
"160","","bandit","244","593671","0.0-206.0-0.0","83747052","wem/bandit_single","A3J5KTBHZI60H","pain","7","","76","L","3","","0","1","0","","0.4619433307","false","169","","0.3556935824","main_expt","","0.01553154223","","0.4477525289","","0.4619433307","","","","","",""
"73","","bandit","245","595506","0.0-207.0-0.0","83747052","wem/bandit_single","A3J5KTBHZI60H","pain","7","","76","L","3","","0","0","1","","0.4703570947","false","170","","0.3690608098","main_expt","","0.01787531072","","0.41154262","","0.4703570947","","","","","",""
"79","","bandit","246","597345","0.0-208.0-0.0","83747052","wem/bandit_single","A3J5KTBHZI60H","pain","7","","76","L","3","","0","0","1","","0.474742395","false","171","","0.3631266209","main_expt","","0.01316551092","","0.37868858","","0.474742395","","","","","",""
"210","","bandit","247","599317","0.0-209.0-0.0","83747052","wem/bandit_single","A3J5KTBHZI60H","pain","7","","76","L","3","","0","0","1","","0.4773845315","false","172","","0.3392191481","main_expt","","0.0172037691","","0.3971498268","","0.4773845315","","","","","",""
"266","","bandit","248","601346","0.0-210.0-0.0","83747052","wem/bandit_single","A3J5KTBHZI60H","pain","7","","76","L","3","","0","1","0","","0.4680058345","false","173","","0.2931772585","main_expt","","0.01427011775","","0.4319579383","","0.4680058345","","","","","",""
"9","","bandit","249","603116","0.0-211.0-0.0","83747052","wem/bandit_single","A3J5KTBHZI60H","pain","7","","76","L","3","","0","1","0","","0.4561145842","false","174","","0.2750831853","main_expt","","0.01057019218","","0.4174714043","","0.4561145842","","","","","",""
"424","","bandit","250","605301","0.0-212.0-0.0","83747052","wem/bandit_single","A3J5KTBHZI60H","pain","7","","76","L","3","","0","0","1","","0.472279608","false","175","","0.2997345097","main_expt","","0.007255369755","","0.3846013355","","0.472279608","","","","","",""
"20","","bandit","251","607085","0.0-213.0-0.0","83747052","wem/bandit_single","A3J5KTBHZI60H","pain","7","","76","L","3","","0","0","1","","0.4602447812","false","176","","0.3402413884","main_expt","","0.01305273867","","0.4019342833","","0.4602447812","","","","","",""
"106","","bandit","252","608952","0.0-214.0-0.0","83747052","wem/bandit_single","A3J5KTBHZI60H","pain","7","","76","L","3","","0","0","1","","0.4343313091","false","177","","0.3099882557","main_expt","","0.0133150908","","0.4211485366","","0.4343313091","","","","","",""
"94","","bandit","253","610808","0.0-215.0-0.0","83747052","wem/bandit_single","A3J5KTBHZI60H","pain","7","","76","L","3","","0","0","1","","0.4048428007","false","178","","0.2761175095","main_expt","","0.01259822705","","0.4133977621","","0.4048428007","","","","","",""
"6","","bandit","254","612577","0.0-216.0-0.0","83747052","wem/bandit_single","A3J5KTBHZI60H","pain","7","","76","L","3","","0","1","0","","0.3826353834","false","179","","0.3053987856","main_expt","","0.008971211221","","0.4395013083","","0.3826353834","","","","","",""
"32","","bandit","255","614372","0.0-217.0-0.0","83747052","wem/bandit_single","A3J5KTBHZI60H","pain","7","","76","L","3","","0","0","1","","0.3352628501","false","180","","0.291880519","main_expt","","0.01053614943","","0.4385200931","","0.3352628501","","","","","",""
"87","","bandit","256","616217","0.0-218.0-0.0","83747052","wem/bandit_single","A3J5KTBHZI60H","pain","7","","76","L","3","","0","1","0","","0.2990499081","false","181","","0.298429346","main_expt","","0.01184041186","","0.4225113135","","0.2990499081","","","","","",""
"128","","bandit","257","618108","0.0-219.0-0.0","83747052","wem/bandit_single","A3J5KTBHZI60H","pain","7","","76","L","3","","0","0","1","","0.3698835663","false","182","","0.3343264324","main_expt","","0.03042574256","","0.3723799893","","0.3698835663","","","","","",""
"115","","bandit","258","619988","0.0-220.0-0.0","83747052","wem/bandit_single","A3J5KTBHZI60H","pain","7","","76","L","3","","0","1","0","","0.3849917371","false","183","","0.2890729732","main_expt","","0.03286829004","","0.3790924375","","0.3849917371","","","","","",""
"1","","bandit","259","621753","0.0-221.0-0.0","83747052","wem/bandit_single","A3J5KTBHZI60H","pain","7","","76","L","3","","0","0","1","","0.3560661239","false","184","","0.1975841231","main_expt","","0.05565884368","","0.4122006093","","0.3560661239","","","","","",""
"100","","bandit","260","623617","0.0-222.0-0.0","83747052","wem/bandit_single","A3J5KTBHZI60H","pain","7","","76","L","3","","0","0","1","","0.3637043243","false","185","","0.213981158","main_expt","","0.05703602855","","0.3681720139","","0.3637043243","","","","","",""
"73","","bandit","261","625451","0.0-223.0-0.0","83747052","wem/bandit_single","A3J5KTBHZI60H","pain","7","","76","L","3","","0","0","1","","0.370254809","false","186","","0.1690135127","main_expt","","0.08167625523","","0.3735732413","","0.370254809","","","","","",""
"19","","bandit","262","627228","0.0-224.0-0.0","83747052","wem/bandit_single","A3J5KTBHZI60H","pain","7","","76","L","3","","0","0","1","","0.3451477914","false","187","","0.2606776113","main_expt","","0.08146612985","","0.3763431734","","0.3451477914","","","","","",""
"72","","bandit","263","629063","0.0-225.0-0.0","83747052","wem/bandit_single","A3J5KTBHZI60H","pain","7","","76","L","3","","0","0","1","","0.3939300048","false","188","","0.2431197375","main_expt","","0.09365986726","","0.3515668436","","0.3939300048","","","","","",""
"109","","bandit","264","630935","0.0-226.0-0.0","83747052","wem/bandit_single","A3J5KTBHZI60H","pain","7","","72","H","0","img/none_selected.jpg","0","0","1","","0.2308206277","false","189","","0.2308206277","main_expt","","0.09268069957","","0.3343836861","","0.4136030152","","","","","",""
"97","","bandit","265","632796","0.0-227.0-0.0","83747052","wem/bandit_single","A3J5KTBHZI60H","pain","7","","76","L","3","","0","0","1","","0.4261376259","false","190","","0.2025271702","main_expt","","0.08594859785","","0.2525345787","","0.4261376259","","","","","",""
"99","","bandit","266","634658","0.0-228.0-0.0","83747052","wem/bandit_single","A3J5KTBHZI60H","pain","7","","74","J","1","","0","0","1","","0.08932588753","false","191","","0.2751540988","main_expt","","0.08932588753","","0.2685183708","","0.3908696756","","","","","",""
"164","","bandit","267","636588","0.0-229.0-0.0","83747052","wem/bandit_single","A3J5KTBHZI60H","pain","7","","75","K","2","","0","0","1","","0.2572514827","false","192","","0.2569606715","main_expt","","0.1064261942","","0.2572514827","","0.4106222578","","","","","",""
"26","","bandit","268","638374","0.0-230.0-0.0","83747052","wem/bandit_single","A3J5KTBHZI60H","pain","7","","72","H","0","img/none_selected.jpg","0","0","1","","0.2874900681","false","193","","0.2874900681","main_expt","","0.1536879749","","0.1969756064","","0.4282135821","","","","","",""
"50","","bandit","269","640186","0.0-231.0-0.0","83747052","wem/bandit_single","A3J5KTBHZI60H","pain","7","","76","L","3","","0","0","1","","0.4423695223","false","194","","0.1735349233","main_expt","","0.1389913839","","0.2134952627","","0.4423695223","","","","","",""
"318","","bandit","270","642264","0.0-232.0-0.0","83747052","wem/bandit_single","A3J5KTBHZI60H","pain","7","","72","H","0","img/none_selected.jpg","0","0","1","","0.1922880567","false","195","","0.1922880567","main_expt","","0.1439418744","","0.1620875807","","0.4594299266","","","","","",""
"185","","bandit","271","644211","0.0-233.0-0.0","83747052","wem/bandit_single","A3J5KTBHZI60H","pain","7","","72","H","0","img/none_selected.jpg","0","0","1","","0.180833075","false","196","","0.180833075","main_expt","","0.131143091","","0.166822232","","0.4446405127","","","","","",""
"202","","bandit","272","646175","0.0-234.0-0.0","83747052","wem/bandit_single","A3J5KTBHZI60H","pain","7","","72","H","0","img/none_selected.jpg","0","0","1","","0.2213655201","false","197","","0.2213655201","main_expt","","0.1358316141","","0.1951417713","","0.4559667881","","","","","",""
"164","","bandit","273","648102","0.0-235.0-0.0","83747052","wem/bandit_single","A3J5KTBHZI60H","pain","7","","72","H","0","img/none_selected.jpg","0","1","0","","0.1886922679","false","198","","0.1886922679","main_expt","","0.1271866158","","0.1946571809","","0.4760465659","","","","","",""
"145","","bandit","274","650010","0.0-236.0-0.0","83747052","wem/bandit_single","A3J5KTBHZI60H","pain","7","","72","H","0","img/none_selected.jpg","0","1","0","","0.1960792333","false","199","","0.1960792333","main_expt","","0.1427164763","","0.125569753","","0.4682530898","","","","","",""
"125","","bandit","275","651898","0.0-237.0-0.0","83747052","wem/bandit_single","A3J5KTBHZI60H","pain","7","","72","H","0","img/none_selected.jpg","0","1","0","","0.2093645874","false","200","","0.2093645874","main_expt","","0.1465126473","","0.110010897","","0.4722721777","","","","","",""
"210","","bandit","276","653873","0.0-238.0-0.0","83747052","wem/bandit_single","A3J5KTBHZI60H","pain","7","","72","H","0","img/none_selected.jpg","0","0","1","","0.1673165995","false","201","","0.1673165995","main_expt","","0.1271257608","","0.1280762957","","0.4739800601","","","","","",""
"293","","bandit","277","655929","0.0-239.0-0.0","83747052","wem/bandit_single","A3J5KTBHZI60H","pain","7","","72","H","0","img/none_selected.jpg","0","0","1","","0.2086438453","false","202","","0.2086438453","main_expt","","0.08657179739","","0.1402913484","","0.479726886","","","","","",""
"89","","bandit","278","657777","0.0-240.0-0.0","83747052","wem/bandit_single","A3J5KTBHZI60H","pain","7","","72","H","0","img/none_selected.jpg","0","1","0","","0.1973992815","false","203","","0.1973992815","main_expt","","0.09313456927","","0.2217412738","","0.4642372742","","","","","",""
"154","","bandit","279","659693","0.0-241.0-0.0","83747052","wem/bandit_single","A3J5KTBHZI60H","pain","7","","72","H","0","img/none_selected.jpg","0","0","1","","0.2256674954","false","204","","0.2256674954","main_expt","","0.1497906572","","0.2231628045","","0.4560882558","","","","","",""
"43","","bandit","280","661494","0.0-242.0-0.0","83747052","wem/bandit_single","A3J5KTBHZI60H","pain","7","","72","H","0","img/none_selected.jpg","0","0","1","","0.2163874892","false","205","","0.2163874892","main_expt","","0.1829644856","","0.2170181201","","0.4525737262","","","","","",""
"139","","bandit","281","663397","0.0-243.0-0.0","83747052","wem/bandit_single","A3J5KTBHZI60H","pain","7","","76","L","3","","0","0","1","","0.4550624295","false","206","","0.2197086186","main_expt","","0.1612057882","","0.2796725078","","0.4550624295","","","","","",""
"2","","bandit","282","665161","0.0-244.0-0.0","83747052","wem/bandit_single","A3J5KTBHZI60H","pain","7","","76","L","3","","0","0","1","","0.4723612306","false","207","","0.2065154411","main_expt","","0.1697938272","","0.2817680811","","0.4723612306","","","","","",""
"158","","bandit","283","667082","0.0-245.0-0.0","83747052","wem/bandit_single","A3J5KTBHZI60H","pain","7","","76","L","3","","0","0","1","","0.4766034411","false","208","","0.1685179651","main_expt","","0.1559958766","","0.2823403198","","0.4766034411","","","","","",""
"97","","bandit","284","668940","0.0-246.0-0.0","83747052","wem/bandit_single","A3J5KTBHZI60H","pain","7","","76","L","3","","0","1","0","","0.483515399","false","209","","0.138461816","main_expt","","0.1446830505","","0.3618902866","","0.483515399","","","","","",""
"98","","bandit","285","670797","0.0-247.0-0.0","83747052","wem/bandit_single","A3J5KTBHZI60H","pain","7","","76","L","3","","0","1","0","","0.4880418707","false","210","","0.1494322788","main_expt","","0.1231196185","","0.373554641","","0.4880418707","","","","","",""
"98","","bandit","286","672656","0.0-248.0-0.0","83747052","wem/bandit_single","A3J5KTBHZI60H","pain","7","","76","L","3","","0","1","0","","0.4802592994","false","211","","0.1799359977","main_expt","","0.1456244431","","0.4160488284","","0.4802592994","","","","","",""
"61","","bandit","287","674480","0.0-249.0-0.0","83747052","wem/bandit_single","A3J5KTBHZI60H","pain","7","","76","L","3","","0","0","1","","0.4738887763","false","212","","0.1810857181","main_expt","","0.1656867557","","0.381710399","","0.4738887763","","","","","",""
"152","","bandit","288","676397","0.0-250.0-0.0","83747052","wem/bandit_single","A3J5KTBHZI60H","pain","7","","76","L","3","","0","0","1","","0.4808850683","false","213","","0.1615137558","main_expt","","0.224977978","","0.3769148707","","0.4808850683","","","","","",""
"9","","bandit","289","678164","0.0-251.0-0.0","83747052","wem/bandit_single","A3J5KTBHZI60H","pain","7","","76","L","3","","0","0","1","","0.4825694391","false","214","","0.1650702933","main_expt","","0.307554285","","0.3476207329","","0.4825694391","","","","","",""
"49","","bandit","290","679973","0.0-252.0-0.0","83747052","wem/bandit_single","A3J5KTBHZI60H","pain","7","","72","H","0","img/none_selected.jpg","0","0","1","","0.1804791034","false","215","","0.1804791034","main_expt","","0.3638187162","","0.3089741626","","0.4847107186","","","","","",""
"912","","bandit","291","682645","0.0-253.0-0.0","83747052","wem/bandit_single","A3J5KTBHZI60H","pain","7","","72","H","0","img/none_selected.jpg","0","0","1","","0.1573161505","false","216","","0.1573161505","main_expt","","0.3543809852","","0.3674618518","","0.4809007894","","","","","",""
"517","","bandit","292","684924","0.0-254.0-0.0","83747052","wem/bandit_single","A3J5KTBHZI60H","pain","7","","72","H","0","img/none_selected.jpg","0","0","1","","0.1434716653","false","217","","0.1434716653","main_expt","","0.3301156576","","0.3283657719","","0.4741770765","","","","","",""
"52","","bandit","293","686740","0.0-255.0-0.0","83747052","wem/bandit_single","A3J5KTBHZI60H","pain","7","","76","L","3","","0","1","0","","0.4819245576","false","218","","0.1911838451","main_expt","","0.3132999057","","0.3302734852","","0.4819245576","","","","","",""
"1","","bandit","294","688503","0.0-256.0-0.0","83747052","wem/bandit_single","A3J5KTBHZI60H","pain","7","","76","L","3","","0","1","0","","0.4793241995","false","219","","0.1441129831","main_expt","","0.2205266592","","0.3554571327","","0.4793241995","","","","","",""
"65","","bandit","295","690330","0.0-257.0-0.0","83747052","wem/bandit_single","A3J5KTBHZI60H","pain","7","","76","L","3","","0","0","1","","0.4713672071","false","220","","0.1920309772","main_expt","","0.2167078271","","0.319330444","","0.4713672071","","","","","",""
"86","","bandit","296","692179","0.0-258.0-0.0","83747052","wem/bandit_single","A3J5KTBHZI60H","pain","7","","76","L","3","","0","0","1","","0.4728071858","false","221","","0.1770810464","main_expt","","0.2038989409","","0.3105046037","","0.4728071858","","","","","",""
"160","","bandit","297","694104","0.0-259.0-0.0","83747052","wem/bandit_single","A3J5KTBHZI60H","pain","7","","76","L","3","","0","1","0","","0.4742115633","false","222","","0.1726735039","main_expt","","0.18760722","","0.2971369975","","0.4742115633","","","","","",""
"163","","bandit","298","696032","0.0-260.0-0.0","83747052","wem/bandit_single","A3J5KTBHZI60H","pain","7","","76","L","3","","0","1","0","","0.4606319974","false","223","","0.1935596247","main_expt","","0.1794058889","","0.2924153056","","0.4606319974","","","","","",""
"177","","bandit","299","697968","0.0-261.0-0.0","83747052","wem/bandit_single","A3J5KTBHZI60H","pain","7","","76","L","3","","0","0","1","","0.4796626282","false","224","","0.184290804","main_expt","","0.1973287288","","0.3251713444","","0.4796626282","","","","","",""
"1040","","bandit","300","700771","0.0-262.0-0.0","83747052","wem/bandit_single","A3J5KTBHZI60H","pain","7","","76","L","3","","0","0","1","","0.4770938662","false","225","","0.1182631535","main_expt","","0.1657141015","","0.3191667618","","0.4770938662","","","","","",""
"454","","bandit","301","702987","0.0-263.0-0.0","83747052","wem/bandit_single","A3J5KTBHZI60H","pain","7","","76","L","3","","0","0","1","","0.4753940461","false","226","","0.1243406576","main_expt","","0.1333985498","","0.3163975521","","0.4753940461","","","","","",""
"5","","bandit","302","704756","0.0-264.0-0.0","83747052","wem/bandit_single","A3J5KTBHZI60H","pain","7","","72","H","0","img/none_selected.jpg","0","0","1","","0.1887705619","false","227","","0.1887705619","main_expt","","0.1426718429","","0.3153023093","","0.4692559414","","","","","",""
"1340","","bandit","303","707860","0.0-265.0-0.0","83747052","wem/bandit_single","A3J5KTBHZI60H","pain","7","","72","H","0","img/none_selected.jpg","0","0","1","","0.1594511678","false","228","","0.1594511678","main_expt","","0.1510234048","","0.252814401","","0.4549715312","","","","","",""
"55","","bandit","304","709678","0.0-266.0-0.0","83747052","wem/bandit_single","A3J5KTBHZI60H","pain","7","","72","H","0","img/none_selected.jpg","0","0","1","","0.1582092687","false","229","","0.1582092687","main_expt","","0.1786638104","","0.2830586582","","0.4818432606","","","","","",""
"632","","bandit","305","712070","0.0-267.0-0.0","83747052","wem/bandit_single","A3J5KTBHZI60H","pain","7","","76","L","3","","0","1","0","","0.4542350274","false","230","","0.149178519","main_expt","","0.1564383184","","0.2124451555","","0.4542350274","","","","","",""
"897","","bandit","306","714731","0.0-268.0-0.0","83747052","wem/bandit_single","A3J5KTBHZI60H","pain","7","","76","L","3","","0","1","0","","0.4646494747","false","231","","0.2063022429","main_expt","","0.1398607303","","0.1175217461","","0.4646494747","","","","","",""
"1170","","bandit","307","717666","0.0-269.0-0.0","83747052","wem/bandit_single","A3J5KTBHZI60H","pain","7","","76","L","3","","0","1","0","","0.4617677548","false","232","","0.2424934828","main_expt","","0.1323980205","","0.144677577","","0.4617677548","","","","","",""
"245","","bandit","308","719671","0.0-270.0-0.0","83747052","wem/bandit_single","A3J5KTBHZI60H","pain","7","","76","L","3","","0","0","1","","0.4535872836","false","233","","0.2404462099","main_expt","","0.1510374747","","0.1555092754","","0.4535872836","","","","","",""
"103","","bandit","309","721539","0.0-271.0-0.0","83747052","wem/bandit_single","A3J5KTBHZI60H","pain","7","","76","L","3","","0","1","0","","0.4297764401","false","234","","0.1830028502","main_expt","","0.133247495","","0.1250762939","","0.4297764401","","","","","",""
"106","","bandit","310","723410","0.0-272.0-0.0","83747052","wem/bandit_single","A3J5KTBHZI60H","pain","7","","76","L","3","","0","0","1","","0.4335441617","false","235","","0.2197419317","main_expt","","0.1666928205","","0.1094925358","","0.4335441617","","","","","",""
"149","","bandit","311","725322","0.0-273.0-0.0","83747052","wem/bandit_single","A3J5KTBHZI60H","pain","7","","76","L","3","","0","0","1","","0.4390497594","false","236","","0.2537285896","main_expt","","0.1772374327","","0.09099935704","","0.4390497594","","","","","",""
"136","","bandit","312","727217","0.0-274.0-0.0","83747052","wem/bandit_single","A3J5KTBHZI60H","pain","7","","76","L","3","","0","1","0","","0.4557250369","false","237","","0.2967198922","main_expt","","0.2093850131","","0.07445530481","","0.4557250369","","","","","",""
"32","","bandit","313","729013","0.0-275.0-0.0","83747052","wem/bandit_single","A3J5KTBHZI60H","pain","7","","76","L","3","","0","0","1","","0.4712934341","false","238","","0.2716881628","main_expt","","0.2323540058","","0.1160826651","","0.4712934341","","","","","",""
"4","","bandit","314","730782","0.0-276.0-0.0","83747052","wem/bandit_single","A3J5KTBHZI60H","pain","7","","76","L","3","","0","0","1","","0.4744109467","false","239","","0.2840113657","main_expt","","0.2527052166","","0.1935594103","","0.4744109467","","","","","",""
"19","","bandit","315","732564","0.0-277.0-0.0","83747052","wem/bandit_single","A3J5KTBHZI60H","pain","7","","76","L","3","","0","1","0","","0.4856904038","false","240","","0.3274134878","main_expt","","0.2429338356","","0.2305108235","","0.4856904038","","","","","",""
"129","","bandit","316","734456","0.0-278.0-0.0","83747052","wem/bandit_single","A3J5KTBHZI60H","pain","7","","76","L","3","","0","0","1","","0.474377245","false","241","","0.3106351565","main_expt","","0.2422046893","","0.23744922","","0.474377245","","","","","",""
"52","","bandit","317","736273","0.0-279.0-0.0","83747052","wem/bandit_single","A3J5KTBHZI60H","pain","7","","76","L","3","","0","0","1","","0.4699498903","false","242","","0.276301991","main_expt","","0.1974588069","","0.2644088126","","0.4699498903","","","","","",""
"49","","bandit","318","738090","0.0-280.0-0.0","83747052","wem/bandit_single","A3J5KTBHZI60H","pain","7","","76","L","3","","0","0","1","","0.4696131401","false","243","","0.2682550828","main_expt","","0.1697106736","","0.3029471314","","0.4696131401","","","","","",""
"27","","bandit","319","739876","0.0-281.0-0.0","83747052","wem/bandit_single","A3J5KTBHZI60H","pain","7","","76","L","3","","0","1","0","","0.4519085084","false","244","","0.2717267912","main_expt","","0.1495066821","","0.2869027424","","0.4519085084","","","","","",""
"115","","bandit","320","741753","0.0-282.0-0.0","83747052","wem/bandit_single","A3J5KTBHZI60H","pain","7","","76","L","3","","0","1","0","","0.4620487724","false","245","","0.2480355477","main_expt","","0.1664551864","","0.2928347339","","0.4620487724","","","","","",""
"130","","bandit","321","743641","0.0-283.0-0.0","83747052","wem/bandit_single","A3J5KTBHZI60H","pain","7","","76","L","3","","0","0","1","","0.4553277256","false","246","","0.2978011657","main_expt","","0.1660340973","","0.2537870262","","0.4553277256","","","","","",""
"1","","bandit","322","745406","0.0-284.0-0.0","83747052","wem/bandit_single","A3J5KTBHZI60H","pain","7","","76","L","3","","0","0","1","","0.4470790686","false","247","","0.3183795364","main_expt","","0.2232834288","","0.220788829","","0.4470790686","","","","","",""
"33","","bandit","323","747205","0.0-285.0-0.0","83747052","wem/bandit_single","A3J5KTBHZI60H","pain","7","","76","L","3","","0","0","1","","0.4370243233","false","248","","0.3496285813","main_expt","","0.2337066106","","0.2260039815","","0.4370243233","","","","","",""
"244","","bandit","324","749212","0.0-286.0-0.0","83747052","wem/bandit_single","A3J5KTBHZI60H","pain","7","","72","H","0","img/none_selected.jpg","0","0","1","","0.3450691196","false","249","","0.3450691196","main_expt","","0.2555848542","","0.2536259712","","0.4344986606","","","","","",""
"107","","bandit","325","751084","0.0-287.0-0.0","83747052","wem/bandit_single","A3J5KTBHZI60H","pain","7","","72","H","0","img/none_selected.jpg","0","0","1","","0.3451339369","false","250","","0.3451339369","main_expt","","0.2423579198","","0.2748463286","","0.4418367533","","","","","",""
"62","","bandit","326","752908","0.0-288.0-0.0","83747052","wem/bandit_single","A3J5KTBHZI60H","pain","7","","72","H","0","img/none_selected.jpg","0","1","0","","0.3928119302","false","251","","0.3928119302","main_expt","","0.2275025436","","0.2623633266","","0.4227475224","","","","","",""
"99","","bandit","327","754773","0.0-289.0-0.0","83747052","wem/bandit_single","A3J5KTBHZI60H","pain","7","","72","H","0","img/none_selected.jpg","0","0","1","","0.3926241496","false","252","","0.3926241496","main_expt","","0.2868871138","","0.3173920108","","0.423648384","","","","","",""
"10","","bandit","328","756551","0.0-290.0-0.0","83747052","wem/bandit_single","A3J5KTBHZI60H","pain","7","","72","H","0","img/none_selected.jpg","0","1","0","","0.4074069762","false","253","","0.4074069762","main_expt","","0.2719675916","","0.3172059241","","0.4321428437","","","","","",""
"97","","bandit","329","758411","0.0-291.0-0.0","83747052","wem/bandit_single","A3J5KTBHZI60H","pain","7","","72","H","0","img/none_selected.jpg","0","0","1","","0.3831412703","false","254","","0.3831412703","main_expt","","0.3118638267","","0.3200237469","","0.4621147124","","","","","",""
"226","","bandit","330","760402","0.0-292.0-0.0","83747052","wem/bandit_single","A3J5KTBHZI60H","pain","7","","72","H","0","img/none_selected.jpg","0","0","1","","0.3639457665","false","255","","0.3639457665","main_expt","","0.2103897122","","0.3358809316","","0.4586218194","","","","","",""
"36","","bandit","331","762206","0.0-293.0-0.0","83747052","wem/bandit_single","A3J5KTBHZI60H","pain","7","","72","H","0","img/none_selected.jpg","0","1","0","","0.3353936822","false","256","","0.3353936822","main_expt","","0.2053105091","","0.3288682213","","0.4661438042","","","","","",""
"138","","bandit","332","764110","0.0-294.0-0.0","83747052","wem/bandit_single","A3J5KTBHZI60H","pain","7","","72","H","0","img/none_selected.jpg","0","1","0","","0.3457786028","false","257","","0.3457786028","main_expt","","0.2101260802","","0.3298558235","","0.4746145216","","","","","",""
"61","","bandit","333","765934","0.0-295.0-0.0","83747052","wem/bandit_single","A3J5KTBHZI60H","pain","7","","72","H","0","img/none_selected.jpg","0","0","1","","0.3336199161","false","258","","0.3336199161","main_expt","","0.251470712","","0.3544886593","","0.479590246","","","","","",""
"84","","bandit","334","767784","0.0-296.0-0.0","83747052","wem/bandit_single","A3J5KTBHZI60H","pain","7","","72","H","0","img/none_selected.jpg","0","0","1","","0.3182937175","false","259","","0.3182937175","main_expt","","0.2320991284","","0.3380036538","","0.4543592645","","","","","",""
"9","","bandit","335","769551","0.0-297.0-0.0","83747052","wem/bandit_single","A3J5KTBHZI60H","pain","7","","72","H","0","img/none_selected.jpg","0","1","0","","0.3004718715","false","260","","0.3004718715","main_expt","","0.2850429488","","0.2797544445","","0.4591910344","","","","","",""
"11","","bandit","336","771325","0.0-298.0-0.0","83747052","wem/bandit_single","A3J5KTBHZI60H","pain","7","","72","H","0","img/none_selected.jpg","0","0","1","","0.2969538951","false","261","","0.2969538951","main_expt","","0.3396488321","","0.2594239605","","0.4416244086","","","","","",""
"94","","bandit","337","773180","0.0-299.0-0.0","83747052","wem/bandit_single","A3J5KTBHZI60H","pain","7","","72","H","0","img/none_selected.jpg","0","0","1","","0.336502974","false","262","","0.336502974","main_expt","","0.243241633","","0.2804023839","","0.410126596","","","","","",""
"101","","bandit","338","775046","0.0-300.0-0.0","83747052","wem/bandit_single","A3J5KTBHZI60H","pain","7","","72","H","0","img/none_selected.jpg","0","1","0","","0.3417757729","false","263","","0.3417757729","main_expt","","0.221101122","","0.2526654216","","0.3852167719","","","","","",""
"155","","bandit","339","776967","0.0-301.0-0.0","83747052","wem/bandit_single","A3J5KTBHZI60H","pain","7","","72","H","0","img/none_selected.jpg","0","0","1","","0.3288238543","false","264","","0.3288238543","main_expt","","0.2475963948","","0.2262009497","","0.4048243192","","","","","",""
"84","","bandit","340","778814","0.0-302.0-0.0","83747052","wem/bandit_single","A3J5KTBHZI60H","pain","7","","72","H","0","img/none_selected.jpg","0","0","1","","0.2661945806","false","265","","0.2661945806","main_expt","","0.2472156829","","0.2111455706","","0.3671025299","","","","","",""
"633","","bandit","341","781210","0.0-303.0-0.0","83747052","wem/bandit_single","A3J5KTBHZI60H","pain","7","","72","H","0","img/none_selected.jpg","0","0","1","","0.2831053071","false","266","","0.2831053071","main_expt","","0.2257792125","","0.1816972253","","0.366792141","","","","","",""
"252","","bandit","342","783227","0.0-304.0-0.0","83747052","wem/bandit_single","A3J5KTBHZI60H","pain","7","","72","H","0","img/none_selected.jpg","0","0","1","","0.2814616526","false","267","","0.2814616526","main_expt","","0.2434052149","","0.08996407949","","0.3187551676","","","","","",""
"154","","bandit","343","785142","0.0-305.0-0.0","83747052","wem/bandit_single","A3J5KTBHZI60H","pain","7","","76","L","3","","0","1","0","","0.2992927481","false","268","","0.2698532634","main_expt","","0.2472891614","","0.08316088703","","0.2992927481","","","","","",""
"136","","bandit","344","787041","0.0-306.0-0.0","83747052","wem/bandit_single","A3J5KTBHZI60H","pain","7","","76","L","3","","0","1","0","","0.3158706852","false","269","","0.332936287","main_expt","","0.2592343403","","0.132755096","","0.3158706852","","","","","",""
"78","","bandit","345","788885","0.0-307.0-0.0","83747052","wem/bandit_single","A3J5KTBHZI60H","pain","7","","76","L","3","","0","0","1","","0.3399881701","false","270","","0.3520051328","main_expt","","0.2626766442","","0.1295257529","","0.3399881701","","","","","",""
"93","","bandit","346","790741","0.0-308.0-0.0","83747052","wem/bandit_single","A3J5KTBHZI60H","pain","7","","76","L","3","","0","1","0","","0.3425846673","false","271","","0.319936882","main_expt","","0.2889536683","","0.1243547369","","0.3425846673","","","","","",""
"133","","bandit","347","792637","0.0-309.0-0.0","83747052","wem/bandit_single","A3J5KTBHZI60H","pain","7","","76","L","3","","0","1","0","","0.3661992365","false","272","","0.3526338178","main_expt","","0.3519527746","","0.1129401117","","0.3661992365","","","","","",""
"66","","bandit","348","794470","0.0-310.0-0.0","83747052","wem/bandit_single","A3J5KTBHZI60H","pain","7","","76","L","3","","0","0","1","","0.3548292996","false","273","","0.3661190652","main_expt","","0.3142239271","","0.07602588951","","0.3548292996","","","","","",""
"603","","bandit","349","796838","0.0-311.0-0.0","83747052","wem/bandit_single","A3J5KTBHZI60H","pain","7","","76","L","3","","0","0","1","","0.3015993901","false","274","","0.3531355024","main_expt","","0.2858465014","","0.08326080211","","0.3015993901","","","","","",""
"209","","bandit","350","798810","0.0-312.0-0.0","83747052","wem/bandit_single","A3J5KTBHZI60H","pain","7","","76","L","3","","0","0","1","","0.3074537736","false","275","","0.3710682781","main_expt","","0.2833142968","","0.1117875064","","0.3074537736","","","","","",""
"83","","bandit","351","800657","0.0-313.0-0.0","83747052","wem/bandit_single","A3J5KTBHZI60H","pain","7","","76","L","3","","0","1","0","","0.2995557441","false","276","","0.3039620657","main_expt","","0.303505508","","0.1087564456","","0.2995557441","","","","","",""
"115","","bandit","352","802538","0.0-314.0-0.0","83747052","wem/bandit_single","A3J5KTBHZI60H","pain","7","","76","L","3","","0","1","0","","0.3372524479","false","277","","0.3661174243","main_expt","","0.2503405658","","0.1402577261","","0.3372524479","","","","","",""
"92","","bandit","353","804391","0.0-315.0-0.0","83747052","wem/bandit_single","A3J5KTBHZI60H","pain","7","","76","L","3","","0","0","1","","0.3941332117","false","278","","0.3603903852","main_expt","","0.2575241406","","0.1639331241","","0.3941332117","","","","","",""
"81","","bandit","354","806237","0.0-316.0-0.0","83747052","wem/bandit_single","A3J5KTBHZI60H","pain","7","","76","L","3","","0","1","0","","0.369807449","false","279","","0.3865241344","main_expt","","0.2537993043","","0.08855821706","","0.369807449","","","","","",""
"12","","bandit","355","808012","0.0-317.0-0.0","83747052","wem/bandit_single","A3J5KTBHZI60H","pain","7","","76","L","3","","0","0","1","","0.3726167961","false","280","","0.3941828848","main_expt","","0.1734094061","","0.1116659285","","0.3726167961","","","","","",""
"177","","bandit","356","809952","0.0-318.0-0.0","83747052","wem/bandit_single","A3J5KTBHZI60H","pain","7","","76","L","3","","0","0","1","","0.3849966858","false","281","","0.4060440919","main_expt","","0.1846732939","","0.1032088387","","0.3849966858","","","","","",""
"15","","bandit","357","811728","0.0-319.0-0.0","83747052","wem/bandit_single","A3J5KTBHZI60H","pain","7","","76","L","3","","0","0","1","","0.4081920515","false","282","","0.3855255831","main_expt","","0.1808782366","","0.1449157137","","0.4081920515","","","","","",""
"1","","bandit","358","813491","0.0-320.0-0.0","83747052","wem/bandit_single","A3J5KTBHZI60H","pain","7","","72","H","0","img/none_selected.jpg","0","0","1","","0.3694157076","false","283","","0.3694157076","main_expt","","0.1375342675","","0.1649674285","","0.3930572229","","","","","",""
"217","","bandit","359","815473","0.0-321.0-0.0","83747052","wem/bandit_single","A3J5KTBHZI60H","pain","7","","72","H","0","img/none_selected.jpg","0","1","0","","0.4137550783","false","284","","0.4137550783","main_expt","","0.1029306966","","0.1373277791","","0.379410926","","","","","",""
"123","","bandit","360","817356","0.0-322.0-0.0","83747052","wem/bandit_single","A3J5KTBHZI60H","pain","7","","72","H","0","img/none_selected.jpg","0","1","0","","0.4268254387","false","285","","0.4268254387","main_expt","","0.08821361919","","0.1616488504","","0.3947179778","","","","","",""
"10","","bandit","361","819132","0.0-323.0-0.0","83747052","wem/bandit_single","A3J5KTBHZI60H","pain","7","","72","H","0","img/none_selected.jpg","0","1","0","","0.4115685589","false","286","","0.4115685589","main_expt","","0.08321279743","","0.1306737704","","0.4036344472","","","","","",""
"205","","bandit","362","821101","0.0-324.0-0.0","83747052","wem/bandit_single","A3J5KTBHZI60H","pain","7","","72","H","0","img/none_selected.jpg","0","0","1","","0.3828423493","false","287","","0.3828423493","main_expt","","0.0595967864","","0.2059275786","","0.4025981517","","","","","",""
"86","","bandit","363","822952","0.0-325.0-0.0","83747052","wem/bandit_single","A3J5KTBHZI60H","pain","7","","72","H","0","img/none_selected.jpg","0","0","1","","0.4121581376","false","288","","0.4121581376","main_expt","","0.06539189492","","0.1892738114","","0.4183513528","","","","","",""
"78","","bandit","364","824795","0.0-326.0-0.0","83747052","wem/bandit_single","A3J5KTBHZI60H","pain","7","","72","H","0","img/none_selected.jpg","0","0","1","","0.4227758831","false","289","","0.4227758831","main_expt","","0.06484578344","","0.1656659279","","0.4516793017","","","","","",""
"251","","bandit","365","826811","0.0-327.0-0.0","83747052","wem/bandit_single","A3J5KTBHZI60H","pain","7","","72","H","0","img/none_selected.jpg","0","0","1","","0.4149367164","false","290","","0.4149367164","main_expt","","0.06626982825","","0.1814252587","","0.4112115972","","","","","",""
"179","","bandit","366","828755","0.0-328.0-0.0","83747052","wem/bandit_single","A3J5KTBHZI60H","pain","7","","76","L","3","","0","0","1","","0.4372982331","false","291","","0.399757838","main_expt","","0.1096348163","","0.2385479929","","0.4372982331","","","","","",""
"273","","bandit","367","830788","0.0-329.0-0.0","83747052","wem/bandit_single","A3J5KTBHZI60H","pain","7","","76","L","3","","0","0","1","","0.4238416902","false","292","","0.3846886596","main_expt","","0.1604398542","","0.2322046479","","0.4238416902","","","","","",""
"149","","bandit","368","832702","0.0-330.0-0.0","83747052","wem/bandit_single","A3J5KTBHZI60H","pain","7","","76","L","3","","0","1","0","","0.4034354509","false","293","","0.3364000065","main_expt","","0.1714651471","","0.223393304","","0.4034354509","","","","","",""
"13","","bandit","369","834475","0.0-331.0-0.0","83747052","wem/bandit_single","A3J5KTBHZI60H","pain","7","","76","L","3","","0","0","1","","0.4093667064","false","294","","0.3545739736","main_expt","","0.1378543876","","0.2290093083","","0.4093667064","","","","","",""
"34","","bandit","370","836276","0.0-332.0-0.0","83747052","wem/bandit_single","A3J5KTBHZI60H","pain","7","","76","L","3","","0","0","1","","0.4294791191","false","295","","0.2891777922","main_expt","","0.1243446737","","0.2875464899","","0.4294791191","","","","","",""
"258","","bandit","371","838299","0.0-333.0-0.0","83747052","wem/bandit_single","A3J5KTBHZI60H","pain","7","","76","L","3","","0","0","1","","0.4289259587","false","296","","0.2084544567","main_expt","","0.1831574145","","0.2880416719","","0.4289259587","","","","","",""
"64","","bandit","372","840123","0.0-334.0-0.0","83747052","wem/bandit_single","A3J5KTBHZI60H","pain","7","","72","H","0","img/none_selected.jpg","0","0","1","","0.2481546198","false","297","","0.2481546198","main_expt","","0.1645554297","","0.2144640116","","0.4073385017","","","","","",""
"117","","bandit","373","842003","0.0-335.0-0.0","83747052","wem/bandit_single","A3J5KTBHZI60H","pain","7","","72","H","0","img/none_selected.jpg","0","0","1","","0.2961938921","false","298","","0.2961938921","main_expt","","0.1424629524","","0.2150894671","","0.3914212946","","","","","",""
