"rt","responses","trial_type","trial_index","time_elapsed","internal_node_id","subjID","study","MID","cond","drift","key_press","respCharCode","respKey","respChoiceNum","respChoice","gems","bombs","no_reward","GemPrChosen","BombPrChosen","practice","trial_counter","WinPr_0","LosePr_0","trial_label","WinPr_1","LosePr_1","WinPr_2","LosePr_2","WinPr_3","LosePr_3","Q0","Q1","Q2","gender","age","ethnicity"
"20848","{""Q0"":""A1GXFMAC759VRM""}","survey-text","0","20859","0.0-0.0","85163684","wem/bandit_single","A1GXFMAC759VRM","pain","5","","","","","","","","","","","","","","","","","","","","","","","","","","",""
"1637","","text","1","23505","0.0-1.0","85163684","wem/bandit_single","A1GXFMAC759VRM","pain","5","32","","","","","","","","","","","","","","","","","","","","","","","","","",""
"3944","","text","2","27452","0.0-2.0","85163684","wem/bandit_single","A1GXFMAC759VRM","pain","5","32","","","","","","","","","","","","","","","","","","","","","","","","","",""
"22471","","text","3","49928","0.0-3.0","85163684","wem/bandit_single","A1GXFMAC759VRM","pain","5","32","","","","","","","","","","","","","","","","","","","","","","","","","",""
"15715","","text","4","65649","0.0-4.0","85163684","wem/bandit_single","A1GXFMAC759VRM","pain","5","32","","","","","","","","","","","","","","","","","","","","","","","","","",""
"7561","","text","5","73213","0.0-5.0","85163684","wem/bandit_single","A1GXFMAC759VRM","pain","5","32","","","","","","","","","","","","","","","","","","","","","","","","","",""
"6813","","text","6","80028","0.0-6.0","85163684","wem/bandit_single","A1GXFMAC759VRM","pain","5","32","","","","","","","","","","","","","","","","","","","","","","","","","",""
"3421","","text","7","83452","0.0-7.0","85163684","wem/bandit_single","A1GXFMAC759VRM","pain","5","32","","","","","","","","","","","","","","","","","","","","","","","","","",""
"4006","","text","8","87461","0.0-8.0","85163684","wem/bandit_single","A1GXFMAC759VRM","pain","5","32","","","","","","","","","","","","","","","","","","","","","","","","","",""
"2398","","text","9","89861","0.0-9.0","85163684","wem/bandit_single","A1GXFMAC759VRM","pain","5","32","","","","","","","","","","","","","","","","","","","","","","","","","",""
"5213","","text","10","95076","0.0-10.0","85163684","wem/bandit_single","A1GXFMAC759VRM","pain","5","32","","","","","","","","","","","","","","","","","","","","","","","","","",""
"9854","","text","11","104933","0.0-11.0","85163684","wem/bandit_single","A1GXFMAC759VRM","pain","5","32","","","","","","","","","","","","","","","","","","","","","","","","","",""
"1152","","bandit","12","107601","0.0-12.0-0.0","85163684","wem/bandit_single","A1GXFMAC759VRM","pain","5","","74","J","0","img/none_selected_demo.jpg","0","0","1","0","0","true","0","0","0","","","","","","","","","","","","",""
"1040","","bandit","13","110417","0.0-13.0-0.0","85163684","wem/bandit_single","A1GXFMAC759VRM","pain","5","","75","K","0","img/none_selected_demo.jpg","0","0","1","0","0","true","0","0","0","","","","","","","","","","","","",""
"2806","","text","14","113478","0.0-14.0","85163684","wem/bandit_single","A1GXFMAC759VRM","pain","5","32","","","","","","","","","","","","","","","","","","","","","","","","","",""
"1308","","text","15","114788","0.0-15.0","85163684","wem/bandit_single","A1GXFMAC759VRM","pain","5","32","","","","","","","","","","","","","","","","","","","","","","","","","",""
"2975","","text","16","117766","0.0-16.0","85163684","wem/bandit_single","A1GXFMAC759VRM","pain","5","32","","","","","","","","","","","","","","","","","","","","","","","","","",""
"3051","","text","17","120821","0.0-17.0","85163684","wem/bandit_single","A1GXFMAC759VRM","pain","5","32","","","","","","","","","","","","","","","","","","","","","","","","","",""
"826","","bandit","18","123157","0.0-18.0-0.0","85163684","wem/bandit_single","A1GXFMAC759VRM","pain","5","","74","J","0","img/none_selected_demo.jpg","0","1","0","0","0.8","true","0","0","0.8","80_20_practice","0","0.2","","","","","","","","","",""
"14","","bandit","19","124930","0.0-18.0-1.0","85163684","wem/bandit_single","A1GXFMAC759VRM","pain","5","","74","J","0","img/none_selected_demo.jpg","0","1","0","0","0.8","true","0","0","0.8","80_20_practice","0","0.2","","","","","","","","","",""
"25","","bandit","20","126717","0.0-18.0-2.0","85163684","wem/bandit_single","A1GXFMAC759VRM","pain","5","","74","J","0","img/none_selected_demo.jpg","0","0","1","0","0.8","true","0","0","0.8","80_20_practice","0","0.2","","","","","","","","","",""
"6","","bandit","21","128483","0.0-18.0-3.0","85163684","wem/bandit_single","A1GXFMAC759VRM","pain","5","","74","J","0","img/none_selected_demo.jpg","0","0","1","0","0.8","true","0","0","0.8","80_20_practice","0","0.2","","","","","","","","","",""
"1137","","bandit","22","131381","0.0-18.0-4.0","85163684","wem/bandit_single","A1GXFMAC759VRM","pain","5","","74","J","0","img/none_selected_demo.jpg","0","0","1","0","0.8","true","0","0","0.8","80_20_practice","0","0.2","","","","","","","","","",""
"372","","bandit","23","133516","0.0-18.0-5.0","85163684","wem/bandit_single","A1GXFMAC759VRM","pain","5","","75","K","1","","0","0","1","0","0.2","true","0","0","0.8","80_20_practice","0","0.2","","","","","","","","","",""
"647","","bandit","24","135923","0.0-18.0-6.0","85163684","wem/bandit_single","A1GXFMAC759VRM","pain","5","","75","K","1","","0","0","1","0","0.2","true","0","0","0.8","80_20_practice","0","0.2","","","","","","","","","",""
"2","","bandit","25","137684","0.0-18.0-7.0","85163684","wem/bandit_single","A1GXFMAC759VRM","pain","5","","75","K","1","","0","0","1","0","0.2","true","0","0","0.8","80_20_practice","0","0.2","","","","","","","","","",""
"1","","bandit","26","139447","0.0-18.0-8.0","85163684","wem/bandit_single","A1GXFMAC759VRM","pain","5","","74","J","0","img/none_selected_demo.jpg","0","1","0","0","0.8","true","0","0","0.8","80_20_practice","0","0.2","","","","","","","","","",""
"523","","bandit","27","141735","0.0-18.0-9.0","85163684","wem/bandit_single","A1GXFMAC759VRM","pain","5","","74","J","0","img/none_selected_demo.jpg","0","1","0","0","0.8","true","0","0","0.8","80_20_practice","0","0.2","","","","","","","","","",""
"258","","bandit","28","143757","0.0-18.0-10.0","85163684","wem/bandit_single","A1GXFMAC759VRM","pain","5","","74","J","0","img/none_selected_demo.jpg","0","1","0","0","0.8","true","0","0","0.8","80_20_practice","0","0.2","","","","","","","","","",""
"68","","bandit","29","145587","0.0-18.0-11.0","85163684","wem/bandit_single","A1GXFMAC759VRM","pain","5","","74","J","0","img/none_selected_demo.jpg","0","1","0","0","0.8","true","0","0","0.8","80_20_practice","0","0.2","","","","","","","","","",""
"96","","bandit","30","147445","0.0-18.0-12.0","85163684","wem/bandit_single","A1GXFMAC759VRM","pain","5","","74","J","0","img/none_selected_demo.jpg","0","1","0","0","0.8","true","0","0","0.8","80_20_practice","0","0.2","","","","","","","","","",""
"40","","bandit","31","149246","0.0-18.0-13.0","85163684","wem/bandit_single","A1GXFMAC759VRM","pain","5","","74","J","0","img/none_selected_demo.jpg","0","0","1","0","0.8","true","0","0","0.8","80_20_practice","0","0.2","","","","","","","","","",""
"59","","bandit","32","151078","0.0-18.0-14.0","85163684","wem/bandit_single","A1GXFMAC759VRM","pain","5","","75","K","1","","0","0","1","0","0.2","true","0","0","0.8","80_20_practice","0","0.2","","","","","","","","","",""
"492","","bandit","33","153332","0.0-18.0-15.0","85163684","wem/bandit_single","A1GXFMAC759VRM","pain","5","","74","J","0","img/none_selected_demo.jpg","0","1","0","0","0.8","true","0","0","0.8","80_20_practice","0","0.2","","","","","","","","","",""
"85","","bandit","34","155182","0.0-18.0-16.0","85163684","wem/bandit_single","A1GXFMAC759VRM","pain","5","","74","J","0","img/none_selected_demo.jpg","0","1","0","0","0.8","true","0","0","0.8","80_20_practice","0","0.2","","","","","","","","","",""
"64","","bandit","35","157065","0.0-18.0-17.0","85163684","wem/bandit_single","A1GXFMAC759VRM","pain","5","","74","J","0","img/none_selected_demo.jpg","0","1","0","0","0.8","true","0","0","0.8","80_20_practice","0","0.2","","","","","","","","","",""
"89","","bandit","36","158915","0.0-18.0-18.0","85163684","wem/bandit_single","A1GXFMAC759VRM","pain","5","","74","J","0","img/none_selected_demo.jpg","0","1","0","0","0.8","true","0","0","0.8","80_20_practice","0","0.2","","","","","","","","","",""
"88","","bandit","37","160764","0.0-18.0-19.0","85163684","wem/bandit_single","A1GXFMAC759VRM","pain","5","","74","J","0","img/none_selected_demo.jpg","0","1","0","0","0.8","true","0","0","0.8","80_20_practice","0","0.2","","","","","","","","","",""
"4259","","text","38","165339","0.0-19.0","85163684","wem/bandit_single","A1GXFMAC759VRM","pain","5","32","","","","","","","","","","","","","","","","","","","","","","","","","",""
"1777","","bandit","39","168628","0.0-20.0-0.0","85163684","wem/bandit_single","A1GXFMAC759VRM","pain","5","","74","J","0","img/none_selected_demo.jpg","0","0","1","0","0","true","0","0","0","","0","0","","","","","","","","","",""
"3226","","text","40","172110","0.0-21.0","85163684","wem/bandit_single","A1GXFMAC759VRM","pain","5","32","","","","","","","","","","","","","","","","","","","","","","","","","",""
"3220","","text","41","175333","0.0-22.0","85163684","wem/bandit_single","A1GXFMAC759VRM","pain","5","32","","","","","","","","","","","","","","","","","","","","","","","","","",""
"2493","","text","42","177829","0.0-23.0","85163684","wem/bandit_single","A1GXFMAC759VRM","pain","5","32","","","","","","","","","","","","","","","","","","","","","","","","","",""
"5767","","text","43","183599","0.0-24.0","85163684","wem/bandit_single","A1GXFMAC759VRM","pain","5","32","","","","","","","","","","","","","","","","","","","","","","","","","",""
"8353","","text","44","191958","0.0-25.0","85163684","wem/bandit_single","A1GXFMAC759VRM","pain","5","32","","","","","","","","","","","","","","","","","","","","","","","","","",""
"2949","","text","45","194911","0.0-26.0","85163684","wem/bandit_single","A1GXFMAC759VRM","pain","5","32","","","","","","","","","","","","","","","","","","","","","","","","","",""
"6321","","text","46","201235","0.0-27.0","85163684","wem/bandit_single","A1GXFMAC759VRM","pain","5","32","","","","","","","","","","","","","","","","","","","","","","","","","",""
"3095","","text","47","204333","0.0-28.0","85163684","wem/bandit_single","A1GXFMAC759VRM","pain","5","32","","","","","","","","","","","","","","","","","","","","","","","","","",""
"4303","","text","48","208641","0.0-29.0","85163684","wem/bandit_single","A1GXFMAC759VRM","pain","5","32","","","","","","","","","","","","","","","","","","","","","","","","","",""
"2409","","text","49","211052","0.0-30.0","85163684","wem/bandit_single","A1GXFMAC759VRM","pain","5","32","","","","","","","","","","","","","","","","","","","","","","","","","",""
"3057","","text","50","214113","0.0-31.0","85163684","wem/bandit_single","A1GXFMAC759VRM","pain","5","32","","","","","","","","","","","","","","","","","","","","","","","","","",""
"767","","bandit","51","216396","0.0-32.0-0.0","85163684","wem/bandit_single","A1GXFMAC759VRM","pain","5","","72","H","0","img/none_selected.jpg","0","1","0","0","0.8","true","0","0","0.8","full_practice","0","0.2","0","0.6","0","0.2","","","","","",""
"587","","bandit","52","218743","0.0-32.0-1.0","85163684","wem/bandit_single","A1GXFMAC759VRM","pain","5","","72","H","0","img/none_selected.jpg","0","1","0","0","0.8","true","0","0","0.8","full_practice","0","0.2","0","0.6","0","0.2","","","","","",""
"380","","bandit","53","220960","0.0-32.0-2.0","85163684","wem/bandit_single","A1GXFMAC759VRM","pain","5","","72","H","0","img/none_selected.jpg","0","1","0","0","0.8","true","0","0","0.8","full_practice","0","0.2","0","0.6","0","0.2","","","","","",""
"303","","bandit","54","223124","0.0-32.0-3.0","85163684","wem/bandit_single","A1GXFMAC759VRM","pain","5","","72","H","0","img/none_selected.jpg","0","1","0","0","0.8","true","0","0","0.8","full_practice","0","0.2","0","0.6","0","0.2","","","","","",""
"156","","bandit","55","225082","0.0-32.0-4.0","85163684","wem/bandit_single","A1GXFMAC759VRM","pain","5","","72","H","0","img/none_selected.jpg","0","1","0","0","0.8","true","0","0","0.8","full_practice","0","0.2","0","0.6","0","0.2","","","","","",""
"116","","bandit","56","226961","0.0-32.0-5.0","85163684","wem/bandit_single","A1GXFMAC759VRM","pain","5","","72","H","0","img/none_selected.jpg","0","1","0","0","0.8","true","0","0","0.8","full_practice","0","0.2","0","0.6","0","0.2","","","","","",""
"172","","bandit","57","228896","0.0-32.0-6.0","85163684","wem/bandit_single","A1GXFMAC759VRM","pain","5","","72","H","0","img/none_selected.jpg","0","1","0","0","0.8","true","0","0","0.8","full_practice","0","0.2","0","0.6","0","0.2","","","","","",""
"144","","bandit","58","230801","0.0-32.0-7.0","85163684","wem/bandit_single","A1GXFMAC759VRM","pain","5","","72","H","0","img/none_selected.jpg","0","1","0","0","0.8","true","0","0","0.8","full_practice","0","0.2","0","0.6","0","0.2","","","","","",""
"76","","bandit","59","232665","0.0-32.0-8.0","85163684","wem/bandit_single","A1GXFMAC759VRM","pain","5","","72","H","0","img/none_selected.jpg","0","1","0","0","0.8","true","0","0","0.8","full_practice","0","0.2","0","0.6","0","0.2","","","","","",""
"13","","bandit","60","234440","0.0-32.0-9.0","85163684","wem/bandit_single","A1GXFMAC759VRM","pain","5","","72","H","0","img/none_selected.jpg","0","1","0","0","0.8","true","0","0","0.8","full_practice","0","0.2","0","0.6","0","0.2","","","","","",""
"37","","bandit","61","236241","0.0-32.0-10.0","85163684","wem/bandit_single","A1GXFMAC759VRM","pain","5","","72","H","0","img/none_selected.jpg","0","1","0","0","0.8","true","0","0","0.8","full_practice","0","0.2","0","0.6","0","0.2","","","","","",""
"53","","bandit","62","238086","0.0-32.0-11.0","85163684","wem/bandit_single","A1GXFMAC759VRM","pain","5","","72","H","0","img/none_selected.jpg","0","1","0","0","0.8","true","0","0","0.8","full_practice","0","0.2","0","0.6","0","0.2","","","","","",""
"18","","bandit","63","239865","0.0-32.0-12.0","85163684","wem/bandit_single","A1GXFMAC759VRM","pain","5","","72","H","0","img/none_selected.jpg","0","1","0","0","0.8","true","0","0","0.8","full_practice","0","0.2","0","0.6","0","0.2","","","","","",""
"15","","bandit","64","241641","0.0-32.0-13.0","85163684","wem/bandit_single","A1GXFMAC759VRM","pain","5","","72","H","0","img/none_selected.jpg","0","1","0","0","0.8","true","0","0","0.8","full_practice","0","0.2","0","0.6","0","0.2","","","","","",""
"27","","bandit","65","243432","0.0-32.0-14.0","85163684","wem/bandit_single","A1GXFMAC759VRM","pain","5","","72","H","0","img/none_selected.jpg","0","1","0","0","0.8","true","0","0","0.8","full_practice","0","0.2","0","0.6","0","0.2","","","","","",""
"68","","bandit","66","245264","0.0-32.0-15.0","85163684","wem/bandit_single","A1GXFMAC759VRM","pain","5","","72","H","0","img/none_selected.jpg","0","0","1","0","0.8","true","0","0","0.8","full_practice","0","0.2","0","0.6","0","0.2","","","","","",""
"109","","bandit","67","247135","0.0-32.0-16.0","85163684","wem/bandit_single","A1GXFMAC759VRM","pain","5","","75","K","2","","0","1","0","0","0.6","true","0","0","0.8","full_practice","0","0.2","0","0.6","0","0.2","","","","","",""
"92","","bandit","68","249000","0.0-32.0-17.0","85163684","wem/bandit_single","A1GXFMAC759VRM","pain","5","","75","K","2","","0","0","1","0","0.6","true","0","0","0.8","full_practice","0","0.2","0","0.6","0","0.2","","","","","",""
"133","","bandit","69","250893","0.0-32.0-18.0","85163684","wem/bandit_single","A1GXFMAC759VRM","pain","5","","76","L","3","","0","0","1","0","0.2","true","0","0","0.8","full_practice","0","0.2","0","0.6","0","0.2","","","","","",""
"130","","bandit","70","252787","0.0-32.0-19.0","85163684","wem/bandit_single","A1GXFMAC759VRM","pain","5","","74","J","1","","0","1","0","0","0.2","true","0","0","0.8","full_practice","0","0.2","0","0.6","0","0.2","","","","","",""
"2622","","text","71","255703","0.0-33.0","85163684","wem/bandit_single","A1GXFMAC759VRM","pain","5","32","","","","","","","","","","","","","","","","","","","","","","","","","",""
"9157","","text","72","265865","0.0-34.0","85163684","wem/bandit_single","A1GXFMAC759VRM","pain","5","32","","","","","","","","","","","","","","","","","","","","","","","","","",""
"9572","","text","73","275440","0.0-35.0","85163684","wem/bandit_single","A1GXFMAC759VRM","pain","5","32","","","","","","","","","","","","","","","","","","","","","","","","","",""
"5968","","text","74","281413","0.0-36.0","85163684","wem/bandit_single","A1GXFMAC759VRM","pain","5","32","","","","","","","","","","","","","","","","","","","","","","","","","",""
"4251","","text","75","285668","0.0-37.0","85163684","wem/bandit_single","A1GXFMAC759VRM","pain","5","32","","","","","","","","","","","","","","","","","","","","","","","","","",""
"2287","","bandit","76","289470","0.0-38.0-0.0","85163684","wem/bandit_single","A1GXFMAC759VRM","pain","5","","74","J","1","","0","0","1","","0.3811303016","false","1","","0.1478184891","main_expt","","0.3811303016","","0.04962883862","","0.4657241486","","","","","",""
"187","","bandit","77","291420","0.0-39.0-0.0","85163684","wem/bandit_single","A1GXFMAC759VRM","pain","5","","75","K","2","","0","0","1","","0.03569255153","false","2","","0.2081060842","main_expt","","0.350111504","","0.03569255153","","0.4660849779","","","","","",""
"12","","bandit","78","293196","0.0-40.0-0.0","85163684","wem/bandit_single","A1GXFMAC759VRM","pain","5","","72","H","0","img/none_selected.jpg","0","0","1","","0.1722167697","false","3","","0.1722167697","main_expt","","0.3436486883","","0.02901958263","","0.4687539887","","","","","",""
"45","","bandit","79","295057","0.0-41.0-0.0","85163684","wem/bandit_single","A1GXFMAC759VRM","pain","5","","76","L","3","","0","1","0","","0.48401473","false","4","","0.1424145416","main_expt","","0.3419997506","","0.04894390993","","0.48401473","","","","","",""
"20","","bandit","80","296838","0.0-42.0-0.0","85163684","wem/bandit_single","A1GXFMAC759VRM","pain","5","","76","L","3","","0","0","1","","0.4755123677","false","5","","0.1446667298","main_expt","","0.3692180445","","0.04206610475","","0.4755123677","","","","","",""
"28","","bandit","81","298628","0.0-43.0-0.0","85163684","wem/bandit_single","A1GXFMAC759VRM","pain","5","","76","L","3","","0","0","1","","0.4802482158","false","6","","0.1447199692","main_expt","","0.3602257359","","0.04292771587","","0.4802482158","","","","","",""
"4","","bandit","82","300396","0.0-44.0-0.0","85163684","wem/bandit_single","A1GXFMAC759VRM","pain","5","","76","L","3","","0","0","1","","0.4780438684","false","7","","0.1001258446","main_expt","","0.3568498895","","0.06035830385","","0.4780438684","","","","","",""
"17","","bandit","83","302181","0.0-45.0-0.0","85163684","wem/bandit_single","A1GXFMAC759VRM","pain","5","","72","H","0","img/none_selected.jpg","0","0","1","","0.1244671667","false","8","","0.1244671667","main_expt","","0.294604339","","0.09727842944","","0.4575173044","","","","","",""
"468","","bandit","84","304411","0.0-46.0-0.0","85163684","wem/bandit_single","A1GXFMAC759VRM","pain","5","","74","J","1","","0","1","0","","0.3802768622","false","9","","0.1293804987","main_expt","","0.3802768622","","0.07952196982","","0.4525933246","","","","","",""
"229","","bandit","85","306402","0.0-47.0-0.0","85163684","wem/bandit_single","A1GXFMAC759VRM","pain","5","","74","J","1","","0","0","1","","0.3530595227","false","10","","0.1606810952","main_expt","","0.3530595227","","0.1049852556","","0.4476408152","","","","","",""
"15","","bandit","86","308179","0.0-48.0-0.0","85163684","wem/bandit_single","A1GXFMAC759VRM","pain","5","","74","J","1","","0","0","1","","0.358648576","false","11","","0.1585385462","main_expt","","0.358648576","","0.1118692116","","0.4484644352","","","","","",""
"405","","bandit","87","310348","0.0-49.0-0.0","85163684","wem/bandit_single","A1GXFMAC759VRM","pain","5","","75","K","2","","0","0","1","","0.1270372311","false","12","","0.1492634201","main_expt","","0.3382469396","","0.1270372311","","0.4466341879","","","","","",""
"35","","bandit","88","312146","0.0-50.0-0.0","85163684","wem/bandit_single","A1GXFMAC759VRM","pain","5","","75","K","2","","0","0","1","","0.1278892577","false","13","","0.1106465011","main_expt","","0.3092021245","","0.1278892577","","0.4642511008","","","","","",""
"400","","bandit","89","314310","0.0-51.0-0.0","85163684","wem/bandit_single","A1GXFMAC759VRM","pain","5","","74","J","1","","0","0","1","","0.3532484784","false","14","","0.1232346967","main_expt","","0.3532484784","","0.1024725346","","0.4615970843","","","","","",""
"25","","bandit","90","316100","0.0-52.0-0.0","85163684","wem/bandit_single","A1GXFMAC759VRM","pain","5","","74","J","1","","0","0","1","","0.3371384495","false","15","","0.1323340596","main_expt","","0.3371384495","","0.1234109619","","0.4692442536","","","","","",""
"0","","bandit","91","317863","0.0-53.0-0.0","85163684","wem/bandit_single","A1GXFMAC759VRM","pain","5","","74","J","1","","0","0","1","","0.3282622062","false","16","","0.1410223318","main_expt","","0.3282622062","","0.1360550169","","0.4755425263","","","","","",""
"338","","bandit","92","319964","0.0-54.0-0.0","85163684","wem/bandit_single","A1GXFMAC759VRM","pain","5","","76","L","3","","0","1","0","","0.4828633911","false","17","","0.1498636582","main_expt","","0.3032164303","","0.1070219664","","0.4828633911","","","","","",""
"53","","bandit","93","321780","0.0-55.0-0.0","85163684","wem/bandit_single","A1GXFMAC759VRM","pain","5","","76","L","3","","0","0","1","","0.4784959143","false","18","","0.1132842199","main_expt","","0.2834034058","","0.09318331203","","0.4784959143","","","","","",""
"198","","bandit","94","323741","0.0-56.0-0.0","85163684","wem/bandit_single","A1GXFMAC759VRM","pain","5","","76","L","3","","0","0","1","","0.4645747316","false","19","","0.08554013857","main_expt","","0.376157017","","0.08644374764","","0.4645747316","","","","","",""
"106","","bandit","95","325613","0.0-57.0-0.0","85163684","wem/bandit_single","A1GXFMAC759VRM","pain","5","","76","L","3","","0","0","1","","0.4441513352","false","20","","0.1176407844","main_expt","","0.3718288413","","0.1066513301","","0.4441513352","","","","","",""
"27","","bandit","96","327401","0.0-58.0-0.0","85163684","wem/bandit_single","A1GXFMAC759VRM","pain","5","","72","H","0","img/none_selected.jpg","0","0","1","","0.09701455477","false","21","","0.09701455477","main_expt","","0.3755251961","","0.1143532382","","0.4281495132","","","","","",""
"23","","bandit","97","329186","0.0-59.0-0.0","85163684","wem/bandit_single","A1GXFMAC759VRM","pain","5","","72","H","0","img/none_selected.jpg","0","0","1","","0.08683592795","false","22","","0.08683592795","main_expt","","0.3536603278","","0.111858438","","0.4374563715","","","","","",""
"61","","bandit","98","331010","0.0-60.0-0.0","85163684","wem/bandit_single","A1GXFMAC759VRM","pain","5","","72","H","0","img/none_selected.jpg","0","0","1","","0.1062952262","false","23","","0.1062952262","main_expt","","0.3908816919","","0.09088087914","","0.4408316507","","","","","",""
"48","","bandit","99","332819","0.0-61.0-0.0","85163684","wem/bandit_single","A1GXFMAC759VRM","pain","5","","76","L","3","","0","0","1","","0.4249736282","false","24","","0.1320295984","main_expt","","0.3639752867","","0.1045917755","","0.4249736282","","","","","",""
"69","","bandit","100","334658","0.0-62.0-0.0","85163684","wem/bandit_single","A1GXFMAC759VRM","pain","5","","76","L","3","","0","1","0","","0.4542404639","false","25","","0.18562956","main_expt","","0.3569796848","","0.107118439","","0.4542404639","","","","","",""
"40","","bandit","101","336462","0.0-63.0-0.0","85163684","wem/bandit_single","A1GXFMAC759VRM","pain","5","","76","L","3","","0","0","1","","0.4707756245","false","26","","0.1589772959","main_expt","","0.3466804264","","0.08847958778","","0.4707756245","","","","","",""
"48","","bandit","102","338275","0.0-64.0-0.0","85163684","wem/bandit_single","A1GXFMAC759VRM","pain","5","","76","L","3","","0","0","1","","0.4492807888","false","27","","0.1361305173","main_expt","","0.3487144915","","0.105958259","","0.4492807888","","","","","",""
"12","","bandit","103","340089","0.0-65.0-0.0","85163684","wem/bandit_single","A1GXFMAC759VRM","pain","5","","76","L","3","","0","0","1","","0.4630254912","false","28","","0.1517112547","main_expt","","0.31872733","","0.09976229861","","0.4630254912","","","","","",""
"15","","bandit","104","341867","0.0-66.0-0.0","85163684","wem/bandit_single","A1GXFMAC759VRM","pain","5","","76","L","3","","0","1","0","","0.4582460064","false","29","","0.1207272987","main_expt","","0.3351256986","","0.1117783291","","0.4582460064","","","","","",""
"22","","bandit","105","343651","0.0-67.0-0.0","85163684","wem/bandit_single","A1GXFMAC759VRM","pain","5","","76","L","3","","0","0","1","","0.44398484","false","30","","0.06619286558","main_expt","","0.3165147827","","0.104708879","","0.44398484","","","","","",""
"9","","bandit","106","345426","0.0-68.0-0.0","85163684","wem/bandit_single","A1GXFMAC759VRM","pain","5","","76","L","3","","0","0","1","","0.4662875842","false","31","","0.08172424971","main_expt","","0.3587164307","","0.1168740313","","0.4662875842","","","","","",""
"13","","bandit","107","347204","0.0-69.0-0.0","85163684","wem/bandit_single","A1GXFMAC759VRM","pain","5","","76","L","3","","0","1","0","","0.4823207571","false","32","","0.1118972321","main_expt","","0.384091524","","0.1193100679","","0.4823207571","","","","","",""
"2","","bandit","108","348969","0.0-70.0-0.0","85163684","wem/bandit_single","A1GXFMAC759VRM","pain","5","","76","L","3","","0","0","1","","0.4887640326","false","33","","0.07764728595","main_expt","","0.3410562849","","0.1160378653","","0.4887640326","","","","","",""
"96","","bandit","109","350827","0.0-71.0-0.0","85163684","wem/bandit_single","A1GXFMAC759VRM","pain","5","","76","L","3","","0","0","1","","0.4871413525","false","34","","0.1021677232","main_expt","","0.3772037995","","0.1240203414","","0.4871413525","","","","","",""
"37","","bandit","110","352657","0.0-72.0-0.0","85163684","wem/bandit_single","A1GXFMAC759VRM","pain","5","","75","K","2","","0","0","1","","0.1568527985","false","35","","0.09263198197","main_expt","","0.3601610849","","0.1568527985","","0.472467875","","","","","",""
"29","","bandit","111","354449","0.0-73.0-0.0","85163684","wem/bandit_single","A1GXFMAC759VRM","pain","5","","75","K","2","","0","0","1","","0.1887398002","false","36","","0.1395706987","main_expt","","0.3199141994","","0.1887398002","","0.4801988656","","","","","",""
"429","","bandit","112","356641","0.0-74.0-0.0","85163684","wem/bandit_single","A1GXFMAC759VRM","pain","5","","75","K","2","","0","0","1","","0.1567271146","false","37","","0.1166343238","main_expt","","0.3022128767","","0.1567271146","","0.4658101737","","","","","",""
"12","","bandit","113","358451","0.0-75.0-0.0","85163684","wem/bandit_single","A1GXFMAC759VRM","pain","5","","74","J","1","","0","0","1","","0.220841548","false","38","","0.1344783462","main_expt","","0.220841548","","0.1213003185","","0.4725237643","","","","","",""
"365","","bandit","114","360579","0.0-76.0-0.0","85163684","wem/bandit_single","A1GXFMAC759VRM","pain","5","","72","H","0","img/none_selected.jpg","0","0","1","","0.1132701409","false","39","","0.1132701409","main_expt","","0.2273815274","","0.1129188575","","0.4863678522","","","","","",""
"308","","bandit","115","362650","0.0-77.0-0.0","85163684","wem/bandit_single","A1GXFMAC759VRM","pain","5","","76","L","3","","0","0","1","","0.4756100127","false","40","","0.1269330716","main_expt","","0.2216047912","","0.1490040727","","0.4756100127","","","","","",""
"366","","bandit","116","364779","0.0-78.0-0.0","85163684","wem/bandit_single","A1GXFMAC759VRM","pain","5","","76","L","3","","0","0","1","","0.4644843691","false","41","","0.1043764639","main_expt","","0.1790357129","","0.20555416","","0.4644843691","","","","","",""
"331","","bandit","117","366921","0.0-79.0-0.0","85163684","wem/bandit_single","A1GXFMAC759VRM","pain","5","","76","L","3","","0","0","1","","0.4595487669","false","42","","0.123259557","main_expt","","0.1124402831","","0.2458082757","","0.4595487669","","","","","",""
"16","","bandit","118","368700","0.0-80.0-0.0","85163684","wem/bandit_single","A1GXFMAC759VRM","pain","5","","76","L","3","","0","1","0","","0.4598563523","false","43","","0.1523094635","main_expt","","0.1309909921","","0.1980967925","","0.4598563523","","","","","",""
"74","","bandit","119","370536","0.0-81.0-0.0","85163684","wem/bandit_single","A1GXFMAC759VRM","pain","5","","76","L","3","","0","1","0","","0.4444935065","false","44","","0.1438901127","main_expt","","0.1620245532","","0.2011817551","","0.4444935065","","","","","",""
"110","","bandit","120","372410","0.0-82.0-0.0","85163684","wem/bandit_single","A1GXFMAC759VRM","pain","5","","76","L","3","","0","0","1","","0.4201454787","false","45","","0.1381896233","main_expt","","0.1962154431","","0.1908172103","","0.4201454787","","","","","",""
"62","","bandit","121","374234","0.0-83.0-0.0","85163684","wem/bandit_single","A1GXFMAC759VRM","pain","5","","76","L","3","","0","0","1","","0.4420567968","false","46","","0.08118013389","main_expt","","0.1548021256","","0.1682898959","","0.4420567968","","","","","",""
"28","","bandit","122","376063","0.0-84.0-0.0","85163684","wem/bandit_single","A1GXFMAC759VRM","pain","5","","76","L","3","","0","1","0","","0.4454115659","false","47","","0.08279503272","main_expt","","0.155425446","","0.114950809","","0.4454115659","","","","","",""
"209","","bandit","123","378076","0.0-85.0-0.0","85163684","wem/bandit_single","A1GXFMAC759VRM","pain","5","","76","L","3","","0","0","1","","0.4409121906","false","48","","0.09757227309","main_expt","","0.2368850053","","0.1231508501","","0.4409121906","","","","","",""
"21","","bandit","124","379861","0.0-86.0-0.0","85163684","wem/bandit_single","A1GXFMAC759VRM","pain","5","","76","L","3","","0","1","0","","0.4640555105","false","49","","0.1407466139","main_expt","","0.1712995484","","0.1264715503","","0.4640555105","","","","","",""
"56","","bandit","125","381681","0.0-87.0-0.0","85163684","wem/bandit_single","A1GXFMAC759VRM","pain","5","","76","L","3","","0","0","1","","0.4619625264","false","50","","0.1128896644","main_expt","","0.2371897999","","0.1119267987","","0.4619625264","","","","","",""
"131","","bandit","126","383576","0.0-88.0-0.0","85163684","wem/bandit_single","A1GXFMAC759VRM","pain","5","","76","L","3","","0","0","1","","0.4686499241","false","51","","0.1292206793","main_expt","","0.2520952739","","0.1192285775","","0.4686499241","","","","","",""
"54","","bandit","127","385393","0.0-89.0-0.0","85163684","wem/bandit_single","A1GXFMAC759VRM","pain","5","","76","L","3","","0","1","0","","0.4721244997","false","52","","0.117204758","main_expt","","0.2201249325","","0.1536714506","","0.4721244997","","","","","",""
"117","","bandit","128","387274","0.0-90.0-0.0","85163684","wem/bandit_single","A1GXFMAC759VRM","pain","5","","76","L","3","","0","1","0","","0.4776765754","false","53","","0.1180232867","main_expt","","0.2019083534","","0.1817289366","","0.4776765754","","","","","",""
"200","","bandit","129","389242","0.0-91.0-0.0","85163684","wem/bandit_single","A1GXFMAC759VRM","pain","5","","76","L","3","","0","1","0","","0.4788042678","false","54","","0.09503139185","main_expt","","0.2133100918","","0.1664376657","","0.4788042678","","","","","",""
"110","","bandit","130","391115","0.0-92.0-0.0","85163684","wem/bandit_single","A1GXFMAC759VRM","pain","5","","76","L","3","","0","1","0","","0.4852168201","false","55","","0.1238025275","main_expt","","0.2210295122","","0.1219288973","","0.4852168201","","","","","",""
"76","","bandit","131","392954","0.0-93.0-0.0","85163684","wem/bandit_single","A1GXFMAC759VRM","pain","5","","76","L","3","","0","0","1","","0.4860946669","false","56","","0.1544257673","main_expt","","0.1728424853","","0.1392062569","","0.4860946669","","","","","",""
"91","","bandit","132","394810","0.0-94.0-0.0","85163684","wem/bandit_single","A1GXFMAC759VRM","pain","5","","76","L","3","","0","1","0","","0.4859962979","false","57","","0.1492478473","main_expt","","0.2301797189","","0.2060247316","","0.4859962979","","","","","",""
"124","","bandit","133","396696","0.0-95.0-0.0","85163684","wem/bandit_single","A1GXFMAC759VRM","pain","5","","76","L","3","","0","1","0","","0.4751013025","false","58","","0.1392181034","main_expt","","0.2820892606","","0.1723567799","","0.4751013025","","","","","",""
"4","","bandit","134","398466","0.0-96.0-0.0","85163684","wem/bandit_single","A1GXFMAC759VRM","pain","5","","76","L","3","","0","0","1","","0.4816883425","false","59","","0.1854998728","main_expt","","0.308641684","","0.16345501","","0.4816883425","","","","","",""
"372","","bandit","135","400601","0.0-97.0-0.0","85163684","wem/bandit_single","A1GXFMAC759VRM","pain","5","","76","L","3","","0","1","0","","0.4846541976","false","60","","0.1306651225","main_expt","","0.3012287428","","0.1552759559","","0.4846541976","","","","","",""
"36","","bandit","136","402403","0.0-98.0-0.0","85163684","wem/bandit_single","A1GXFMAC759VRM","pain","5","","76","L","3","","0","1","0","","0.4848840061","false","61","","0.1567024934","main_expt","","0.263166603","","0.1652193455","","0.4848840061","","","","","",""
"59","","bandit","137","404225","0.0-99.0-0.0","85163684","wem/bandit_single","A1GXFMAC759VRM","pain","5","","76","L","3","","0","1","0","","0.4856292504","false","62","","0.1622246099","main_expt","","0.2428038775","","0.1813222976","","0.4856292504","","","","","",""
"36","","bandit","138","406041","0.0-100.0-0.0","85163684","wem/bandit_single","A1GXFMAC759VRM","pain","5","","76","L","3","","0","1","0","","0.4865153319","false","63","","0.2196770705","main_expt","","0.2843805899","","0.1727004114","","0.4865153319","","","","","",""
"13","","bandit","139","407817","0.0-101.0-0.0","85163684","wem/bandit_single","A1GXFMAC759VRM","pain","5","","76","L","3","","0","1","0","","0.4874146034","false","64","","0.218319606","main_expt","","0.2895992306","","0.2105999223","","0.4874146034","","","","","",""
"182","","bandit","140","409769","0.0-102.0-0.0","85163684","wem/bandit_single","A1GXFMAC759VRM","pain","5","","76","L","3","","0","1","0","","0.4781609215","false","65","","0.2278721313","main_expt","","0.3847688","","0.240225816","","0.4781609215","","","","","",""
"153","","bandit","141","411754","0.0-103.0-0.0","85163684","wem/bandit_single","A1GXFMAC759VRM","pain","5","","76","L","3","","0","1","0","","0.4848714892","false","66","","0.1599393353","main_expt","","0.4083751038","","0.2924754864","","0.4848714892","","","","","",""
"393","","bandit","142","413962","0.0-104.0-0.0","85163684","wem/bandit_single","A1GXFMAC759VRM","pain","5","","76","L","3","","0","1","0","","0.4872204599","false","67","","0.1647045883","main_expt","","0.4036944211","","0.2363072125","","0.4872204599","","","","","",""
"67","","bandit","143","415793","0.0-105.0-0.0","85163684","wem/bandit_single","A1GXFMAC759VRM","pain","5","","76","L","3","","0","1","0","","0.4749956953","false","68","","0.1442333851","main_expt","","0.3910329043","","0.264359064","","0.4749956953","","","","","",""
"333","","bandit","144","417887","0.0-106.0-0.0","85163684","wem/bandit_single","A1GXFMAC759VRM","pain","5","","76","L","3","","0","0","1","","0.4776093432","false","69","","0.1757685765","main_expt","","0.3438989047","","0.2755227552","","0.4776093432","","","","","",""
"46","","bandit","145","419696","0.0-107.0-0.0","85163684","wem/bandit_single","A1GXFMAC759VRM","pain","5","","76","L","3","","0","1","0","","0.4550183311","false","70","","0.1995177274","main_expt","","0.3282106587","","0.2978365432","","0.4550183311","","","","","",""
"121","","bandit","146","421581","0.0-108.0-0.0","85163684","wem/bandit_single","A1GXFMAC759VRM","pain","5","","76","L","3","","0","1","0","","0.4466984445","false","71","","0.2429348876","main_expt","","0.3085852942","","0.2788476436","","0.4466984445","","","","","",""
"73","","bandit","147","423416","0.0-109.0-0.0","85163684","wem/bandit_single","A1GXFMAC759VRM","pain","5","","76","L","3","","0","0","1","","0.453817204","false","72","","0.2134703404","main_expt","","0.317066931","","0.2983184618","","0.453817204","","","","","",""
"373","","bandit","148","425555","0.0-110.0-0.0","85163684","wem/bandit_single","A1GXFMAC759VRM","pain","5","","76","L","3","","0","1","0","","0.4421557619","false","73","","0.2779115064","main_expt","","0.3118309255","","0.3235064893","","0.4421557619","","","","","",""
"169","","bandit","149","427487","0.0-111.0-0.0","85163684","wem/bandit_single","A1GXFMAC759VRM","pain","5","","76","L","3","","0","0","1","","0.4340536998","false","74","","0.2696493969","main_expt","","0.3442292265","","0.2605282151","","0.4340536998","","","","","",""
"46","","bandit","150","429295","0.0-112.0-0.0","85163684","wem/bandit_single","A1GXFMAC759VRM","pain","5","","76","L","3","","0","0","1","","0.4148912722","false","75","","0.2929582525","main_expt","","0.3392290825","","0.3081503464","","0.4148912722","","","","","",""
"14","","bandit","151","431078","0.0-113.0-0.0","85163684","wem/bandit_single","A1GXFMAC759VRM","pain","5","","76","L","3","","0","0","1","","0.4049452856","false","76","","0.2925997362","main_expt","","0.3019050266","","0.3793773342","","0.4049452856","","","","","",""
"19","","bandit","152","432866","0.0-114.0-0.0","85163684","wem/bandit_single","A1GXFMAC759VRM","pain","5","","72","H","0","img/none_selected.jpg","0","0","1","","0.2402419665","false","77","","0.2402419665","main_expt","","0.3346778491","","0.4108459626","","0.3804311168","","","","","",""
"10","","bandit","153","434641","0.0-115.0-0.0","85163684","wem/bandit_single","A1GXFMAC759VRM","pain","5","","74","J","1","","0","1","0","","0.2858281516","false","78","","0.2662288132","main_expt","","0.2858281516","","0.432197644","","0.4076768351","","","","","",""
"198","","bandit","154","436601","0.0-116.0-0.0","85163684","wem/bandit_single","A1GXFMAC759VRM","pain","5","","74","J","1","","0","0","1","","0.2601805687","false","79","","0.2946750364","main_expt","","0.2601805687","","0.4681634707","","0.4322729224","","","","","",""
"2","","bandit","155","438368","0.0-117.0-0.0","85163684","wem/bandit_single","A1GXFMAC759VRM","pain","5","","74","J","1","","0","0","1","","0.2494540003","false","80","","0.3142603933","main_expt","","0.2494540003","","0.4487514359","","0.4344903628","","","","","",""
"53","","bandit","156","440184","0.0-118.0-0.0","85163684","wem/bandit_single","A1GXFMAC759VRM","pain","5","","74","J","1","","0","0","1","","0.2029748002","false","81","","0.3045476359","main_expt","","0.2029748002","","0.4278748425","","0.4128510282","","","","","",""
"3","","bandit","157","441951","0.0-119.0-0.0","85163684","wem/bandit_single","A1GXFMAC759VRM","pain","5","","74","J","1","","0","0","1","","0.1459008349","false","82","","0.2481672469","main_expt","","0.1459008349","","0.3873338363","","0.3473788204","","","","","",""
"7","","bandit","158","443720","0.0-120.0-0.0","85163684","wem/bandit_single","A1GXFMAC759VRM","pain","5","","75","K","2","","0","0","1","","0.3676955993","false","83","","0.2366474468","main_expt","","0.1792892234","","0.3676955993","","0.3964685929","","","","","",""
"114","","bandit","159","445597","0.0-121.0-0.0","85163684","wem/bandit_single","A1GXFMAC759VRM","pain","5","","75","K","2","","0","0","1","","0.3494013457","false","84","","0.2327145127","main_expt","","0.1384159538","","0.3494013457","","0.4058457219","","","","","",""
"33","","bandit","160","447394","0.0-122.0-0.0","85163684","wem/bandit_single","A1GXFMAC759VRM","pain","5","","75","K","2","","0","1","0","","0.3484693071","false","85","","0.2276425053","main_expt","","0.1569521301","","0.3484693071","","0.419702676","","","","","",""
"215","","bandit","161","449378","0.0-123.0-0.0","85163684","wem/bandit_single","A1GXFMAC759VRM","pain","5","","75","K","2","","0","1","0","","0.3738623358","false","86","","0.1932648708","main_expt","","0.2111509195","","0.3738623358","","0.3584641731","","","","","",""
"431","","bandit","162","451572","0.0-124.0-0.0","85163684","wem/bandit_single","A1GXFMAC759VRM","pain","5","","75","K","2","","0","0","1","","0.3635865115","false","87","","0.1554886006","main_expt","","0.1855749087","","0.3635865115","","0.3362954576","","","","","",""
"40","","bandit","163","453376","0.0-125.0-0.0","85163684","wem/bandit_single","A1GXFMAC759VRM","pain","5","","75","K","2","","0","0","1","","0.28993028","false","88","","0.1288388744","main_expt","","0.1260067519","","0.28993028","","0.3495778317","","","","","",""
"26","","bandit","164","455168","0.0-126.0-0.0","85163684","wem/bandit_single","A1GXFMAC759VRM","pain","5","","75","K","2","","0","0","1","","0.2529053562","false","89","","0.1672252434","main_expt","","0.1930097593","","0.2529053562","","0.3337998134","","","","","",""
"3","","bandit","165","456938","0.0-127.0-0.0","85163684","wem/bandit_single","A1GXFMAC759VRM","pain","5","","75","K","2","","0","1","0","","0.2239223254","false","90","","0.1379373657","main_expt","","0.2016869017","","0.2239223254","","0.3254710898","","","","","",""
"65","","bandit","166","458769","0.0-128.0-0.0","85163684","wem/bandit_single","A1GXFMAC759VRM","pain","5","","75","K","2","","0","0","1","","0.1874521573","false","91","","0.1296834551","main_expt","","0.2283296651","","0.1874521573","","0.3248617863","","","","","",""
"2","","bandit","167","460536","0.0-129.0-0.0","85163684","wem/bandit_single","A1GXFMAC759VRM","pain","5","","75","K","2","","0","0","1","","0.1464907128","false","92","","0.1601432093","main_expt","","0.2253008126","","0.1464907128","","0.3290731597","","","","","",""
"45","","bandit","168","462345","0.0-130.0-0.0","85163684","wem/bandit_single","A1GXFMAC759VRM","pain","5","","75","K","2","","0","0","1","","0.1817498408","false","93","","0.1976873148","main_expt","","0.1826671142","","0.1817498408","","0.2947126164","","","","","",""
"402","","bandit","169","464513","0.0-131.0-0.0","85163684","wem/bandit_single","A1GXFMAC759VRM","pain","5","","75","K","2","","0","0","1","","0.1967130988","false","94","","0.2296862911","main_expt","","0.1650727581","","0.1967130988","","0.2762739163","","","","","",""
"276","","bandit","170","466552","0.0-132.0-0.0","85163684","wem/bandit_single","A1GXFMAC759VRM","pain","5","","72","H","0","img/none_selected.jpg","0","0","1","","0.1990842867","false","95","","0.1990842867","main_expt","","0.1971582392","","0.2294656294","","0.3184689772","","","","","",""
"67","","bandit","171","468384","0.0-133.0-0.0","85163684","wem/bandit_single","A1GXFMAC759VRM","pain","5","","72","H","0","img/none_selected.jpg","0","0","1","","0.258496532","false","96","","0.258496532","main_expt","","0.1791402521","","0.2966343553","","0.281027734","","","","","",""
"395","","bandit","172","470544","0.0-134.0-0.0","85163684","wem/bandit_single","A1GXFMAC759VRM","pain","5","","72","H","0","img/none_selected.jpg","0","0","1","","0.2766566169","false","97","","0.2766566169","main_expt","","0.1516442175","","0.3346257274","","0.2474299406","","","","","",""
"25","","bandit","173","472336","0.0-135.0-0.0","85163684","wem/bandit_single","A1GXFMAC759VRM","pain","5","","72","H","0","img/none_selected.jpg","0","0","1","","0.2377114848","false","98","","0.2377114848","main_expt","","0.2200018313","","0.3139493976","","0.2217126022","","","","","",""
"44","","bandit","174","474143","0.0-136.0-0.0","85163684","wem/bandit_single","A1GXFMAC759VRM","pain","5","","74","J","1","","0","0","1","","0.2752547205","false","99","","0.3124158187","main_expt","","0.2752547205","","0.2478490566","","0.2677278576","","","","","",""
"13","","bandit","175","475920","0.0-137.0-0.0","85163684","wem/bandit_single","A1GXFMAC759VRM","pain","5","","74","J","1","","0","0","1","","0.252850905","false","100","","0.2059987679","main_expt","","0.252850905","","0.2602221343","","0.3271916833","","","","","",""
"2","","bandit","176","477688","0.0-138.0-0.0","85163684","wem/bandit_single","A1GXFMAC759VRM","pain","5","","74","J","1","","0","1","0","","0.1867047362","false","101","","0.1758265216","main_expt","","0.1867047362","","0.2584762291","","0.3066156257","","","","","",""
"482","","bandit","177","479937","0.0-139.0-0.0","85163684","wem/bandit_single","A1GXFMAC759VRM","pain","5","","74","J","1","","0","0","1","","0.1175578895","false","102","","0.2262322791","main_expt","","0.1175578895","","0.282093771","","0.3260250896","","","","","",""
"73","","bandit","178","481776","0.0-140.0-0.0","85163684","wem/bandit_single","A1GXFMAC759VRM","pain","5","","74","J","1","","0","0","1","","0.09132094505","false","103","","0.2018281434","main_expt","","0.09132094505","","0.2725256196","","0.3731136732","","","","","",""
"53","","bandit","179","483622","0.0-141.0-0.0","85163684","wem/bandit_single","A1GXFMAC759VRM","pain","5","","75","K","2","","0","1","0","","0.2243623384","false","104","","0.1447482012","main_expt","","0.1422553795","","0.2243623384","","0.3941656488","","","","","",""
"246","","bandit","180","485631","0.0-142.0-0.0","85163684","wem/bandit_single","A1GXFMAC759VRM","pain","5","","75","K","2","","0","0","1","","0.2403200944","false","105","","0.2104813725","main_expt","","0.1390697773","","0.2403200944","","0.4030151573","","","","","",""
"11","","bandit","181","487406","0.0-143.0-0.0","85163684","wem/bandit_single","A1GXFMAC759VRM","pain","5","","75","K","2","","0","0","1","","0.2332798071","false","106","","0.2492378957","main_expt","","0.1155807694","","0.2332798071","","0.3715193073","","","","","",""
"0","","bandit","182","489170","0.0-144.0-0.0","85163684","wem/bandit_single","A1GXFMAC759VRM","pain","5","","74","J","1","","0","0","1","","0.105728532","false","107","","0.217404121","main_expt","","0.105728532","","0.181620067","","0.3837270358","","","","","",""
"41","","bandit","183","490974","0.0-145.0-0.0","85163684","wem/bandit_single","A1GXFMAC759VRM","pain","5","","75","K","2","","0","0","1","","0.2173069915","false","108","","0.2142202377","main_expt","","0.08831090648","","0.2173069915","","0.3908875135","","","","","",""
"1","","bandit","184","492743","0.0-146.0-0.0","85163684","wem/bandit_single","A1GXFMAC759VRM","pain","5","","74","J","1","","0","0","1","","0.1043724426","false","109","","0.2683226389","main_expt","","0.1043724426","","0.226697077","","0.3774052568","","","","","",""
"8","","bandit","185","494518","0.0-147.0-0.0","85163684","wem/bandit_single","A1GXFMAC759VRM","pain","5","","75","K","2","","0","1","0","","0.2695419639","false","110","","0.2619142817","main_expt","","0.07530108238","","0.2695419639","","0.3601275089","","","","","",""
"27","","bandit","186","496311","0.0-148.0-0.0","85163684","wem/bandit_single","A1GXFMAC759VRM","pain","5","","75","K","2","","0","1","0","","0.2635727161","false","111","","0.2754039507","main_expt","","0.05159845725","","0.2635727161","","0.3880855357","","","","","",""
"43","","bandit","187","498118","0.0-149.0-0.0","85163684","wem/bandit_single","A1GXFMAC759VRM","pain","5","","75","K","2","","0","1","0","","0.3202716687","false","112","","0.2721436228","main_expt","","0.08116028731","","0.3202716687","","0.3864248384","","","","","",""
"53","","bandit","188","499934","0.0-150.0-0.0","85163684","wem/bandit_single","A1GXFMAC759VRM","pain","5","","75","K","2","","0","0","1","","0.3546461764","false","113","","0.2598768298","main_expt","","0.08538759299","","0.3546461764","","0.339569604","","","","","",""
"21","","bandit","189","501718","0.0-151.0-0.0","85163684","wem/bandit_single","A1GXFMAC759VRM","pain","5","","75","K","2","","0","1","0","","0.3339806629","false","114","","0.2271708717","main_expt","","0.106551095","","0.3339806629","","0.3612744832","","","","","",""
"312","","bandit","190","503866","0.0-152.0-0.0","85163684","wem/bandit_single","A1GXFMAC759VRM","pain","5","","75","K","2","","0","1","0","","0.3175163572","false","115","","0.2382373761","main_expt","","0.1120532439","","0.3175163572","","0.3616298021","","","","","",""
"18","","bandit","191","505648","0.0-153.0-0.0","85163684","wem/bandit_single","A1GXFMAC759VRM","pain","5","","75","K","2","","0","0","1","","0.3626291523","false","116","","0.2092397162","main_expt","","0.07206247825","","0.3626291523","","0.3886586702","","","","","",""
"81","","bandit","192","507493","0.0-154.0-0.0","85163684","wem/bandit_single","A1GXFMAC759VRM","pain","5","","75","K","2","","0","0","1","","0.4005972513","false","117","","0.1790603663","main_expt","","0.05990892348","","0.4005972513","","0.3837198657","","","","","",""
"1","","bandit","193","509255","0.0-155.0-0.0","85163684","wem/bandit_single","A1GXFMAC759VRM","pain","5","","75","K","2","","0","0","1","","0.3994725347","false","118","","0.2515048449","main_expt","","0.07349038746","","0.3994725347","","0.3831944796","","","","","",""
"10","","bandit","194","511040","0.0-156.0-0.0","85163684","wem/bandit_single","A1GXFMAC759VRM","pain","5","","75","K","2","","0","0","1","","0.3690387214","false","119","","0.2591845625","main_expt","","0.0880416307","","0.3690387214","","0.3200080389","","","","","",""
"435","","bandit","195","513238","0.0-157.0-0.0","85163684","wem/bandit_single","A1GXFMAC759VRM","pain","5","","75","K","2","","0","1","0","","0.3553033444","false","120","","0.2719994365","main_expt","","0.08832912692","","0.3553033444","","0.3498825307","","","","","",""
"22","","bandit","196","515080","0.0-158.0-0.0","85163684","wem/bandit_single","A1GXFMAC759VRM","pain","5","","75","K","2","","0","1","0","","0.3558993888","false","121","","0.2511552987","main_expt","","0.08322673311","","0.3558993888","","0.3150568547","","","","","",""
"335","","bandit","197","517184","0.0-159.0-0.0","85163684","wem/bandit_single","A1GXFMAC759VRM","pain","5","","75","K","2","","0","0","1","","0.3539125929","false","122","","0.246059836","main_expt","","0.1027924146","","0.3539125929","","0.332296042","","","","","",""
"193","","bandit","198","519143","0.0-160.0-0.0","85163684","wem/bandit_single","A1GXFMAC759VRM","pain","5","","75","K","2","","0","0","1","","0.2756210624","false","123","","0.201637063","main_expt","","0.1112730508","","0.2756210624","","0.3023892254","","","","","",""
"386","","bandit","199","521294","0.0-161.0-0.0","85163684","wem/bandit_single","A1GXFMAC759VRM","pain","5","","75","K","2","","0","0","1","","0.2924451827","false","124","","0.2424225803","main_expt","","0.1401536705","","0.2924451827","","0.2971441903","","","","","",""
"12","","bandit","200","523071","0.0-162.0-0.0","85163684","wem/bandit_single","A1GXFMAC759VRM","pain","5","","75","K","2","","0","0","1","","0.3283550958","false","125","","0.2663511033","main_expt","","0.170676821","","0.3283550958","","0.2989687221","","","","","",""
"9","","bandit","201","524848","0.0-163.0-0.0","85163684","wem/bandit_single","A1GXFMAC759VRM","pain","5","","75","K","2","","0","0","1","","0.3561713316","false","126","","0.2214557307","main_expt","","0.2239131839","","0.3561713316","","0.3470717071","","","","","",""
"16","","bandit","202","526632","0.0-164.0-0.0","85163684","wem/bandit_single","A1GXFMAC759VRM","pain","5","","75","K","2","","0","0","1","","0.3093512765","false","127","","0.2274120533","main_expt","","0.1828765327","","0.3093512765","","0.3399927284","","","","","",""
"39","","bandit","203","528438","0.0-165.0-0.0","85163684","wem/bandit_single","A1GXFMAC759VRM","pain","5","","74","J","1","","0","0","1","","0.2182936746","false","128","","0.2035603578","main_expt","","0.2182936746","","0.3682433617","","0.3039142281","","","","","",""
"18","","bandit","204","530222","0.0-166.0-0.0","85163684","wem/bandit_single","A1GXFMAC759VRM","pain","5","","74","J","1","","0","0","1","","0.2206976306","false","129","","0.1571118888","main_expt","","0.2206976306","","0.3485983391","","0.331948561","","","","","",""
"26","","bandit","205","532049","0.0-167.0-0.0","85163684","wem/bandit_single","A1GXFMAC759VRM","pain","5","","76","L","3","","0","0","1","","0.3512730473","false","130","","0.08617346002","main_expt","","0.1657145536","","0.3907345736","","0.3512730473","","","","","",""
"8","","bandit","206","533821","0.0-168.0-0.0","85163684","wem/bandit_single","A1GXFMAC759VRM","pain","5","","72","H","0","img/none_selected.jpg","0","0","1","","0.1196539686","false","131","","0.1196539686","main_expt","","0.2555784817","","0.3697977754","","0.3617370935","","","","","",""
"421","","bandit","207","536034","0.0-169.0-0.0","85163684","wem/bandit_single","A1GXFMAC759VRM","pain","5","","72","H","0","img/none_selected.jpg","0","1","0","","0.1111227042","false","132","","0.1111227042","main_expt","","0.287060772","","0.3916621277","","0.3520165756","","","","","",""
"16","","bandit","208","537815","0.0-170.0-0.0","85163684","wem/bandit_single","A1GXFMAC759VRM","pain","5","","72","H","0","img/none_selected.jpg","0","0","1","","0.1223368092","false","133","","0.1223368092","main_expt","","0.238965149","","0.3437671512","","0.3863989014","","","","","",""
"27","","bandit","209","539605","0.0-171.0-0.0","85163684","wem/bandit_single","A1GXFMAC759VRM","pain","5","","72","H","0","img/none_selected.jpg","0","1","0","","0.1001486166","false","134","","0.1001486166","main_expt","","0.2457001749","","0.3636108046","","0.3391859262","","","","","",""
"122","","bandit","210","541492","0.0-172.0-0.0","85163684","wem/bandit_single","A1GXFMAC759VRM","pain","5","","72","H","0","img/none_selected.jpg","0","0","1","","0.1179747861","false","135","","0.1179747861","main_expt","","0.2499382958","","0.3251377881","","0.3700101905","","","","","",""
"19","","bandit","211","543277","0.0-173.0-0.0","85163684","wem/bandit_single","A1GXFMAC759VRM","pain","5","","72","H","0","img/none_selected.jpg","0","0","1","","0.1167775935","false","136","","0.1167775935","main_expt","","0.2553087313","","0.3838305716","","0.3002558999","","","","","",""
"387","","bandit","212","545429","0.0-174.0-0.0","85163684","wem/bandit_single","A1GXFMAC759VRM","pain","5","","72","H","0","img/none_selected.jpg","0","0","1","","0.1459170178","false","137","","0.1459170178","main_expt","","0.2517181947","","0.374624825","","0.3242357935","","","","","",""
"365","","bandit","213","547559","0.0-175.0-0.0","85163684","wem/bandit_single","A1GXFMAC759VRM","pain","5","","72","H","0","img/none_selected.jpg","0","0","1","","0.1403776257","false","138","","0.1403776257","main_expt","","0.2531469116","","0.36903936","","0.3413485239","","","","","",""
"40","","bandit","214","549366","0.0-176.0-0.0","85163684","wem/bandit_single","A1GXFMAC759VRM","pain","5","","72","H","0","img/none_selected.jpg","0","0","1","","0.1647502834","false","139","","0.1647502834","main_expt","","0.2810662396","","0.3757762965","","0.3172825342","","","","","",""
"42","","bandit","215","551174","0.0-177.0-0.0","85163684","wem/bandit_single","A1GXFMAC759VRM","pain","5","","74","J","1","","0","1","0","","0.2226737135","false","140","","0.2135508935","main_expt","","0.2226737135","","0.3240643918","","0.3683668128","","","","","",""
"67","","bandit","216","553051","0.0-178.0-0.0","85163684","wem/bandit_single","A1GXFMAC759VRM","pain","5","","74","J","1","","0","1","0","","0.2330331678","false","141","","0.2286669107","main_expt","","0.2330331678","","0.342151626","","0.2976824498","","","","","",""
"15","","bandit","217","554829","0.0-179.0-0.0","85163684","wem/bandit_single","A1GXFMAC759VRM","pain","5","","74","J","1","","0","0","1","","0.1833347363","false","142","","0.1870561284","main_expt","","0.1833347363","","0.3576151309","","0.3424177608","","","","","",""
"44","","bandit","218","556638","0.0-180.0-0.0","85163684","wem/bandit_single","A1GXFMAC759VRM","pain","5","","74","J","1","","0","0","1","","0.2063127673","false","143","","0.220851353","main_expt","","0.2063127673","","0.3075624404","","0.3367953268","","","","","",""
"72","","bandit","219","558477","0.0-181.0-0.0","85163684","wem/bandit_single","A1GXFMAC759VRM","pain","5","","74","J","1","","0","0","1","","0.24054226","false","144","","0.1581776843","main_expt","","0.24054226","","0.3666812205","","0.3446852995","","","","","",""
"37","","bandit","220","560279","0.0-182.0-0.0","85163684","wem/bandit_single","A1GXFMAC759VRM","pain","5","","74","J","1","","0","1","0","","0.3397881996","false","145","","0.1562309797","main_expt","","0.3397881996","","0.373264243","","0.3569090532","","","","","",""
"34","","bandit","221","562077","0.0-183.0-0.0","85163684","wem/bandit_single","A1GXFMAC759VRM","pain","5","","74","J","1","","0","0","1","","0.334771558","false","146","","0.201277092","main_expt","","0.334771558","","0.3588440804","","0.3546691234","","","","","",""
"475","","bandit","222","564318","0.0-184.0-0.0","85163684","wem/bandit_single","A1GXFMAC759VRM","pain","5","","74","J","1","","0","0","1","","0.3135854179","false","147","","0.2014254916","main_expt","","0.3135854179","","0.3848898601","","0.3346193534","","","","","",""
"7","","bandit","223","566092","0.0-185.0-0.0","85163684","wem/bandit_single","A1GXFMAC759VRM","pain","5","","74","J","1","","0","1","0","","0.2601716543","false","148","","0.1783642851","main_expt","","0.2601716543","","0.4049875018","","0.3481099765","","","","","",""
"63","","bandit","224","567926","0.0-186.0-0.0","85163684","wem/bandit_single","A1GXFMAC759VRM","pain","5","","74","J","1","","0","0","1","","0.2449203511","false","149","","0.2394621943","main_expt","","0.2449203511","","0.3644303146","","0.3473239498","","","","","",""
"168","","bandit","225","569858","0.0-187.0-0.0","85163684","wem/bandit_single","A1GXFMAC759VRM","pain","5","","74","J","1","","0","1","0","","0.2679682766","false","150","","0.2009439561","main_expt","","0.2679682766","","0.3820895465","","0.3457177179","","","","","",""
"47","","bandit","226","571673","0.0-188.0-0.0","85163684","wem/bandit_single","A1GXFMAC759VRM","pain","5","","74","J","1","","0","0","1","","0.2811524043","false","151","","0.1783838281","main_expt","","0.2811524043","","0.3715335383","","0.3131990842","","","","","",""
"123","","bandit","227","573564","0.0-189.0-0.0","85163684","wem/bandit_single","A1GXFMAC759VRM","pain","5","","74","J","1","","0","0","1","","0.2320671432","false","152","","0.2357029213","main_expt","","0.2320671432","","0.3270427106","","0.2632978047","","","","","",""
"329","","bandit","228","575660","0.0-190.0-0.0","85163684","wem/bandit_single","A1GXFMAC759VRM","pain","5","","74","J","1","","0","0","1","","0.2655606304","false","153","","0.1701289497","main_expt","","0.2655606304","","0.3117301263","","0.2782579121","","","","","",""
"11","","bandit","229","577436","0.0-191.0-0.0","85163684","wem/bandit_single","A1GXFMAC759VRM","pain","5","","74","J","1","","0","1","0","","0.3485425359","false","154","","0.1613436629","main_expt","","0.3485425359","","0.2860829053","","0.2212449789","","","","","",""
"19","","bandit","230","579220","0.0-192.0-0.0","85163684","wem/bandit_single","A1GXFMAC759VRM","pain","5","","74","J","1","","0","0","1","","0.3302543019","false","155","","0.1419994917","main_expt","","0.3302543019","","0.2412247214","","0.1944586175","","","","","",""
"389","","bandit","231","581383","0.0-193.0-0.0","85163684","wem/bandit_single","A1GXFMAC759VRM","pain","5","","74","J","1","","0","0","1","","0.2696600886","false","156","","0.2076402971","main_expt","","0.2696600886","","0.2505935016","","0.2035424954","","","","","",""
"8","","bandit","232","583158","0.0-194.0-0.0","85163684","wem/bandit_single","A1GXFMAC759VRM","pain","5","","74","J","1","","0","1","0","","0.3095791192","false","157","","0.2253974945","main_expt","","0.3095791192","","0.2677381881","","0.2039725598","","","","","",""
"98","","bandit","233","585060","0.0-195.0-0.0","85163684","wem/bandit_single","A1GXFMAC759VRM","pain","5","","74","J","1","","0","0","1","","0.3427908005","false","158","","0.3173726248","main_expt","","0.3427908005","","0.228073272","","0.1610126092","","","","","",""
"45","","bandit","234","586871","0.0-196.0-0.0","85163684","wem/bandit_single","A1GXFMAC759VRM","pain","5","","74","J","1","","0","0","1","","0.3459652535","false","159","","0.2929560982","main_expt","","0.3459652535","","0.2181731157","","0.2244023171","","","","","",""
"78","","bandit","235","588717","0.0-197.0-0.0","85163684","wem/bandit_single","A1GXFMAC759VRM","pain","5","","74","J","1","","0","0","1","","0.3277363444","false","160","","0.2599130114","main_expt","","0.3277363444","","0.2483475363","","0.2550463449","","","","","",""
"18","","bandit","236","590500","0.0-198.0-0.0","85163684","wem/bandit_single","A1GXFMAC759VRM","pain","5","","74","J","1","","0","0","1","","0.3043896987","false","161","","0.3006759107","main_expt","","0.3043896987","","0.2287268475","","0.1988840894","","","","","",""
"3","","bandit","237","592267","0.0-199.0-0.0","85163684","wem/bandit_single","A1GXFMAC759VRM","pain","5","","72","H","0","img/none_selected.jpg","0","0","1","","0.3359074288","false","162","","0.3359074288","main_expt","","0.3013302692","","0.2118340618","","0.3208820199","","","","","",""
"178","","bandit","238","594212","0.0-200.0-0.0","85163684","wem/bandit_single","A1GXFMAC759VRM","pain","5","","75","K","2","","0","0","1","","0.2467500447","false","163","","0.3248254093","main_expt","","0.3359404133","","0.2467500447","","0.3416291965","","","","","",""
"289","","bandit","239","596271","0.0-201.0-0.0","85163684","wem/bandit_single","A1GXFMAC759VRM","pain","5","","72","H","0","img/none_selected.jpg","0","0","1","","0.2480447101","false","164","","0.2480447101","main_expt","","0.3449747326","","0.2745506496","","0.3531125991","","","","","",""
"39","","bandit","240","598077","0.0-202.0-0.0","85163684","wem/bandit_single","A1GXFMAC759VRM","pain","5","","72","H","0","img/none_selected.jpg","0","1","0","","0.2291527929","false","165","","0.2291527929","main_expt","","0.3388680014","","0.2893970703","","0.3329293945","","","","","",""
"274","","bandit","241","600118","0.0-203.0-0.0","85163684","wem/bandit_single","A1GXFMAC759VRM","pain","5","","72","H","0","img/none_selected.jpg","0","0","1","","0.2408823094","false","166","","0.2408823094","main_expt","","0.3565097084","","0.326956194","","0.368824295","","","","","",""
"67","","bandit","242","601955","0.0-204.0-0.0","85163684","wem/bandit_single","A1GXFMAC759VRM","pain","5","","72","H","0","img/none_selected.jpg","0","1","0","","0.1852653973","false","167","","0.1852653973","main_expt","","0.3807311224","","0.2562538154","","0.3528049135","","","","","",""
"59","","bandit","243","603781","0.0-205.0-0.0","85163684","wem/bandit_single","A1GXFMAC759VRM","pain","5","","72","H","0","img/none_selected.jpg","0","1","0","","0.1123614246","false","168","","0.1123614246","main_expt","","0.4157533759","","0.259707785","","0.3530437727","","","","","",""
"59","","bandit","244","605654","0.0-206.0-0.0","85163684","wem/bandit_single","A1GXFMAC759VRM","pain","5","","72","H","0","img/none_selected.jpg","0","0","1","","0.1289140747","false","169","","0.1289140747","main_expt","","0.3990846218","","0.305903145","","0.3619584092","","","","","",""
"124","","bandit","245","607543","0.0-207.0-0.0","85163684","wem/bandit_single","A1GXFMAC759VRM","pain","5","","72","H","0","img/none_selected.jpg","0","0","1","","0.1082073398","false","170","","0.1082073398","main_expt","","0.3840903594","","0.2780458482","","0.3851568221","","","","","",""
"7","","bandit","246","609316","0.0-208.0-0.0","85163684","wem/bandit_single","A1GXFMAC759VRM","pain","5","","72","H","0","img/none_selected.jpg","0","0","1","","0.09560917383","false","171","","0.09560917383","main_expt","","0.4279034191","","0.2754425626","","0.369821393","","","","","",""
"16","","bandit","247","611101","0.0-209.0-0.0","85163684","wem/bandit_single","A1GXFMAC759VRM","pain","5","","72","H","0","img/none_selected.jpg","0","0","1","","0.09002122866","false","172","","0.09002122866","main_expt","","0.4277210969","","0.2801866594","","0.3238500873","","","","","",""
"482","","bandit","248","613350","0.0-210.0-0.0","85163684","wem/bandit_single","A1GXFMAC759VRM","pain","5","","72","H","0","img/none_selected.jpg","0","0","1","","0.06359212806","false","173","","0.06359212806","main_expt","","0.4177409887","","0.2903169923","","0.371178543","","","","","",""
"306","","bandit","249","615429","0.0-211.0-0.0","85163684","wem/bandit_single","A1GXFMAC759VRM","pain","5","","76","L","3","","0","1","0","","0.364968973","false","174","","0.07897407323","main_expt","","0.4149019111","","0.3135769273","","0.364968973","","","","","",""
"338","","bandit","250","617535","0.0-212.0-0.0","85163684","wem/bandit_single","A1GXFMAC759VRM","pain","5","","76","L","3","","0","1","0","","0.4172857806","false","175","","0.05374651045","main_expt","","0.3890834012","","0.3205535054","","0.4172857806","","","","","",""
"138","","bandit","251","619451","0.0-213.0-0.0","85163684","wem/bandit_single","A1GXFMAC759VRM","pain","5","","76","L","3","","0","1","0","","0.3931137538","false","176","","0.05298342689","main_expt","","0.3775492635","","0.3548310205","","0.3931137538","","","","","",""
"82","","bandit","252","621301","0.0-214.0-0.0","85163684","wem/bandit_single","A1GXFMAC759VRM","pain","5","","76","L","3","","0","1","0","","0.4118750583","false","177","","0.04117570961","main_expt","","0.2763311933","","0.3374760958","","0.4118750583","","","","","",""
"248","","bandit","253","623317","0.0-215.0-0.0","85163684","wem/bandit_single","A1GXFMAC759VRM","pain","5","","76","L","3","","0","0","1","","0.4019835374","false","178","","0.0682688674","main_expt","","0.2117274321","","0.3045899674","","0.4019835374","","","","","",""
"33","","bandit","254","625115","0.0-216.0-0.0","85163684","wem/bandit_single","A1GXFMAC759VRM","pain","5","","76","L","3","","0","1","0","","0.3943962464","false","179","","0.0699035784","main_expt","","0.2071796451","","0.2701203387","","0.3943962464","","","","","",""
"164","","bandit","255","627060","0.0-217.0-0.0","85163684","wem/bandit_single","A1GXFMAC759VRM","pain","5","","76","L","3","","0","1","0","","0.3879360396","false","180","","0.08066818268","main_expt","","0.2237333922","","0.3010541938","","0.3879360396","","","","","",""
"229","","bandit","256","629077","0.0-218.0-0.0","85163684","wem/bandit_single","A1GXFMAC759VRM","pain","5","","76","L","3","","0","1","0","","0.3516035239","false","181","","0.06418194011","main_expt","","0.1462221579","","0.2685782119","","0.3516035239","","","","","",""
"122","","bandit","257","630963","0.0-219.0-0.0","85163684","wem/bandit_single","A1GXFMAC759VRM","pain","5","","76","L","3","","0","1","0","","0.3544849886","false","182","","0.05948248489","main_expt","","0.1745001591","","0.2333395507","","0.3544849886","","","","","",""
"32","","bandit","258","632764","0.0-220.0-0.0","85163684","wem/bandit_single","A1GXFMAC759VRM","pain","5","","76","L","3","","0","0","1","","0.3239224462","false","183","","0.04249263759","main_expt","","0.1840457003","","0.1817222791","","0.3239224462","","","","","",""
"106","","bandit","259","634636","0.0-221.0-0.0","85163684","wem/bandit_single","A1GXFMAC759VRM","pain","5","","75","K","2","","0","0","1","","0.1946528514","false","184","","0.05174265856","main_expt","","0.1684271963","","0.1946528514","","0.3437575642","","","","","",""
"28","","bandit","260","636427","0.0-222.0-0.0","85163684","wem/bandit_single","A1GXFMAC759VRM","pain","5","","76","L","3","","0","0","1","","0.3584643827","false","185","","0.04700335152","main_expt","","0.1820742113","","0.1998780622","","0.3584643827","","","","","",""
"340","","bandit","261","638531","0.0-223.0-0.0","85163684","wem/bandit_single","A1GXFMAC759VRM","pain","5","","76","L","3","","0","0","1","","0.3968797112","false","186","","0.0651928762","main_expt","","0.2156320388","","0.2674223733","","0.3968797112","","","","","",""
"8","","bandit","262","640309","0.0-224.0-0.0","85163684","wem/bandit_single","A1GXFMAC759VRM","pain","5","","76","L","3","","0","0","1","","0.3851297664","false","187","","0.1006801651","main_expt","","0.2805416817","","0.2625155344","","0.3851297664","","","","","",""
"46","","bandit","263","642124","0.0-225.0-0.0","85163684","wem/bandit_single","A1GXFMAC759VRM","pain","5","","74","J","1","","0","0","1","","0.255869765","false","188","","0.1650650448","main_expt","","0.255869765","","0.2428845682","","0.3861445831","","","","","",""
"26","","bandit","264","643914","0.0-226.0-0.0","85163684","wem/bandit_single","A1GXFMAC759VRM","pain","5","","72","H","0","img/none_selected.jpg","0","0","1","","0.1545550266","false","189","","0.1545550266","main_expt","","0.1757761595","","0.2017656849","","0.3904601473","","","","","",""
"196","","bandit","265","645875","0.0-227.0-0.0","85163684","wem/bandit_single","A1GXFMAC759VRM","pain","5","","72","H","0","img/none_selected.jpg","0","0","1","","0.187471884","false","190","","0.187471884","main_expt","","0.1346649685","","0.2163316772","","0.430863334","","","","","",""
"363","","bandit","266","648058","0.0-228.0-0.0","85163684","wem/bandit_single","A1GXFMAC759VRM","pain","5","","72","H","0","img/none_selected.jpg","0","0","1","","0.1611513775","false","191","","0.1611513775","main_expt","","0.1132332922","","0.2055350187","","0.4113524325","","","","","",""
"20","","bandit","267","649843","0.0-229.0-0.0","85163684","wem/bandit_single","A1GXFMAC759VRM","pain","5","","74","J","1","","0","0","1","","0.1208943264","false","192","","0.1777959463","main_expt","","0.1208943264","","0.1895719249","","0.4039805352","","","","","",""
"21","","bandit","268","651630","0.0-230.0-0.0","85163684","wem/bandit_single","A1GXFMAC759VRM","pain","5","","74","J","1","","0","1","0","","0.1939792015","false","193","","0.1871499601","main_expt","","0.1939792015","","0.1748526562","","0.4245567291","","","","","",""
"183","","bandit","269","653580","0.0-231.0-0.0","85163684","wem/bandit_single","A1GXFMAC759VRM","pain","5","","74","J","1","","0","0","1","","0.16637132","false","194","","0.1876497678","main_expt","","0.16637132","","0.1474168317","","0.3947968319","","","","","",""
"81","","bandit","270","655428","0.0-232.0-0.0","85163684","wem/bandit_single","A1GXFMAC759VRM","pain","5","","74","J","1","","0","0","1","","0.1730885183","false","195","","0.1091892437","main_expt","","0.1730885183","","0.192031623","","0.4142863389","","","","","",""
"55","","bandit","271","657252","0.0-233.0-0.0","85163684","wem/bandit_single","A1GXFMAC759VRM","pain","5","","74","J","1","","0","0","1","","0.215114198","false","196","","0.1617114059","main_expt","","0.215114198","","0.2058404012","","0.4233691667","","","","","",""
"25","","bandit","272","659050","0.0-234.0-0.0","85163684","wem/bandit_single","A1GXFMAC759VRM","pain","5","","74","J","1","","0","0","1","","0.2080771369","false","197","","0.1704243662","main_expt","","0.2080771369","","0.2424759238","","0.3910113043","","","","","",""
"106","","bandit","273","660924","0.0-235.0-0.0","85163684","wem/bandit_single","A1GXFMAC759VRM","pain","5","","75","K","2","","0","0","1","","0.2209877853","false","198","","0.1547158464","main_expt","","0.2349601263","","0.2209877853","","0.4036427912","","","","","",""
"74","","bandit","274","662766","0.0-236.0-0.0","85163684","wem/bandit_single","A1GXFMAC759VRM","pain","5","","75","K","2","","0","0","1","","0.2167038869","false","199","","0.1871633293","main_expt","","0.2603506135","","0.2167038869","","0.4211573591","","","","","",""
"43","","bandit","275","664580","0.0-237.0-0.0","85163684","wem/bandit_single","A1GXFMAC759VRM","pain","5","","75","K","2","","0","0","1","","0.1923465651","false","200","","0.2044595191","main_expt","","0.3238520586","","0.1923465651","","0.4279321675","","","","","",""
"92","","bandit","276","666444","0.0-238.0-0.0","85163684","wem/bandit_single","A1GXFMAC759VRM","pain","5","","76","L","3","","0","0","1","","0.4164542871","false","201","","0.2260370877","main_expt","","0.3006478669","","0.2292217674","","0.4164542871","","","","","",""
"105","","bandit","277","668316","0.0-239.0-0.0","85163684","wem/bandit_single","A1GXFMAC759VRM","pain","5","","76","L","3","","0","1","0","","0.4304584766","false","202","","0.2543806879","main_expt","","0.2728804465","","0.2458551357","","0.4304584766","","","","","",""
"158","","bandit","278","670243","0.0-240.0-0.0","85163684","wem/bandit_single","A1GXFMAC759VRM","pain","5","","76","L","3","","0","0","1","","0.4301844238","false","203","","0.248330882","main_expt","","0.3070028205","","0.2388066436","","0.4301844238","","","","","",""
"122","","bandit","279","672131","0.0-241.0-0.0","85163684","wem/bandit_single","A1GXFMAC759VRM","pain","5","","76","L","3","","0","1","0","","0.3900297032","false","204","","0.272777159","main_expt","","0.2937269753","","0.2087278664","","0.3900297032","","","","","",""
"52","","bandit","280","674061","0.0-242.0-0.0","85163684","wem/bandit_single","A1GXFMAC759VRM","pain","5","","76","L","3","","0","0","1","","0.3928583167","false","205","","0.3434557908","main_expt","","0.2378968556","","0.1498191458","","0.3928583167","","","","","",""
"57","","bandit","281","675882","0.0-243.0-0.0","85163684","wem/bandit_single","A1GXFMAC759VRM","pain","5","","76","L","3","","0","1","0","","0.4066069638","false","206","","0.3670462125","main_expt","","0.2621799838","","0.1173401749","","0.4066069638","","","","","",""
"50","","bandit","282","677700","0.0-244.0-0.0","85163684","wem/bandit_single","A1GXFMAC759VRM","pain","5","","76","L","3","","0","0","1","","0.3973448409","false","207","","0.3762900352","main_expt","","0.2751860601","","0.131911627","","0.3973448409","","","","","",""
"322","","bandit","283","679861","0.0-245.0-0.0","85163684","wem/bandit_single","A1GXFMAC759VRM","pain","5","","76","L","3","","0","0","1","","0.4149937731","false","208","","0.3619644859","main_expt","","0.2449975294","","0.121614138","","0.4149937731","","","","","",""
"20","","bandit","284","681650","0.0-246.0-0.0","85163684","wem/bandit_single","A1GXFMAC759VRM","pain","5","","76","L","3","","0","1","0","","0.4174336027","false","209","","0.3487947413","main_expt","","0.2260792918","","0.1301565943","","0.4174336027","","","","","",""
"137","","bandit","285","683554","0.0-247.0-0.0","85163684","wem/bandit_single","A1GXFMAC759VRM","pain","5","","76","L","3","","0","0","1","","0.3969791934","false","210","","0.3019817091","main_expt","","0.2506868781","","0.09603783024","","0.3969791934","","","","","",""
"250","","bandit","286","685573","0.0-248.0-0.0","85163684","wem/bandit_single","A1GXFMAC759VRM","pain","5","","76","L","3","","0","0","1","","0.4109689779","false","211","","0.3322841588","main_expt","","0.2364470615","","0.09853312819","","0.4109689779","","","","","",""
"29","","bandit","287","687371","0.0-249.0-0.0","85163684","wem/bandit_single","A1GXFMAC759VRM","pain","5","","76","L","3","","0","0","1","","0.3870841375","false","212","","0.3257981887","main_expt","","0.2097336517","","0.08497623984","","0.3870841375","","","","","",""
"79","","bandit","288","689219","0.0-250.0-0.0","85163684","wem/bandit_single","A1GXFMAC759VRM","pain","5","","76","L","3","","0","0","1","","0.3702451026","false","213","","0.299150427","main_expt","","0.223293056","","0.0690536233","","0.3702451026","","","","","",""
"41","","bandit","289","691100","0.0-251.0-0.0","85163684","wem/bandit_single","A1GXFMAC759VRM","pain","5","","76","L","3","","0","0","1","","0.4052473305","false","214","","0.2841516905","main_expt","","0.2797804449","","0.05607702273","","0.4052473305","","","","","",""
"368","","bandit","290","693234","0.0-252.0-0.0","85163684","wem/bandit_single","A1GXFMAC759VRM","pain","5","","76","L","3","","0","1","0","","0.4003088938","false","215","","0.2421432752","main_expt","","0.3307304153","","0.0612243178","","0.4003088938","","","","","",""
"81","","bandit","291","695102","0.0-253.0-0.0","85163684","wem/bandit_single","A1GXFMAC759VRM","pain","5","","76","L","3","","0","0","1","","0.4087675299","false","216","","0.1705338946","main_expt","","0.3341057131","","0.03010565971","","0.4087675299","","","","","",""
"46","","bandit","292","696916","0.0-254.0-0.0","85163684","wem/bandit_single","A1GXFMAC759VRM","pain","5","","76","L","3","","0","1","0","","0.3947963157","false","217","","0.219014384","main_expt","","0.3086359365","","0.05034411961","","0.3947963157","","","","","",""
"167","","bandit","293","698850","0.0-255.0-0.0","85163684","wem/bandit_single","A1GXFMAC759VRM","pain","5","","76","L","3","","0","0","1","","0.4200256015","false","218","","0.2135739311","main_expt","","0.370061562","","0.03278593655","","0.4200256015","","","","","",""
"0","","bandit","294","700622","0.0-256.0-0.0","85163684","wem/bandit_single","A1GXFMAC759VRM","pain","5","","76","L","3","","0","0","1","","0.3845181055","false","219","","0.1719688778","main_expt","","0.3425962001","","0.02968551415","","0.3845181055","","","","","",""
"44","","bandit","295","702434","0.0-257.0-0.0","85163684","wem/bandit_single","A1GXFMAC759VRM","pain","5","","76","L","3","","0","0","1","","0.3200105211","false","220","","0.1017501311","main_expt","","0.3200162658","","0.03392365282","","0.3200105211","","","","","",""
"10","","bandit","296","704210","0.0-258.0-0.0","85163684","wem/bandit_single","A1GXFMAC759VRM","pain","5","","76","L","3","","0","1","0","","0.297673658","false","221","","0.1121412156","main_expt","","0.3209906652","","0.03139192041","","0.297673658","","","","","",""
"24","","bandit","297","706042","0.0-259.0-0.0","85163684","wem/bandit_single","A1GXFMAC759VRM","pain","5","","76","L","3","","0","0","1","","0.2963768597","false","222","","0.1091313961","main_expt","","0.3013890172","","0.02842311261","","0.2963768597","","","","","",""
"74","","bandit","298","707882","0.0-260.0-0.0","85163684","wem/bandit_single","A1GXFMAC759VRM","pain","5","","76","L","3","","0","1","0","","0.2927297303","false","223","","0.09983876589","main_expt","","0.2614115174","","0.0287580325","","0.2927297303","","","","","",""
"4","","bandit","299","709658","0.0-261.0-0.0","85163684","wem/bandit_single","A1GXFMAC759VRM","pain","5","","76","L","3","","0","0","1","","0.2751498343","false","224","","0.1018501693","main_expt","","0.2490141009","","0.02300930076","","0.2751498343","","","","","",""
"16","","bandit","300","711441","0.0-262.0-0.0","85163684","wem/bandit_single","A1GXFMAC759VRM","pain","5","","76","L","3","","0","0","1","","0.2377617529","false","225","","0.1222407881","main_expt","","0.263459589","","0.02989568437","","0.2377617529","","","","","",""
"11","","bandit","301","713217","0.0-263.0-0.0","85163684","wem/bandit_single","A1GXFMAC759VRM","pain","5","","76","L","3","","0","1","0","","0.2137681397","false","226","","0.1332846515","main_expt","","0.2828917593","","0.04233903912","","0.2137681397","","","","","",""
"27","","bandit","302","715058","0.0-264.0-0.0","85163684","wem/bandit_single","A1GXFMAC759VRM","pain","5","","76","L","3","","0","0","1","","0.1830623781","false","227","","0.1606351014","main_expt","","0.2635957152","","0.0317259717","","0.1830623781","","","","","",""
"353","","bandit","303","717178","0.0-265.0-0.0","85163684","wem/bandit_single","A1GXFMAC759VRM","pain","5","","76","L","3","","0","0","1","","0.1665925442","false","228","","0.1292420082","main_expt","","0.259674247","","0.04253553249","","0.1665925442","","","","","",""
"32","","bandit","304","719060","0.0-266.0-0.0","85163684","wem/bandit_single","A1GXFMAC759VRM","pain","5","","76","L","3","","0","0","1","","0.2136718414","false","229","","0.1281284096","main_expt","","0.2737318667","","0.06761640147","","0.2136718414","","","","","",""
"144","","bandit","305","720971","0.0-267.0-0.0","85163684","wem/bandit_single","A1GXFMAC759VRM","pain","5","","76","L","3","","0","0","1","","0.2435987791","false","230","","0.0791291566","main_expt","","0.3195589589","","0.08572380951","","0.2435987791","","","","","",""
"27","","bandit","306","722770","0.0-268.0-0.0","85163684","wem/bandit_single","A1GXFMAC759VRM","pain","5","","76","L","3","","0","0","1","","0.2566168121","false","231","","0.10920453","main_expt","","0.3304270948","","0.07272236896","","0.2566168121","","","","","",""
"7","","bandit","307","724546","0.0-269.0-0.0","85163684","wem/bandit_single","A1GXFMAC759VRM","pain","5","","76","L","3","","0","0","1","","0.2152843379","false","232","","0.167261158","main_expt","","0.2806951239","","0.0735724775","","0.2152843379","","","","","",""
"40","","bandit","308","726353","0.0-270.0-0.0","85163684","wem/bandit_single","A1GXFMAC759VRM","pain","5","","76","L","3","","0","1","0","","0.2361400262","false","233","","0.1078973024","main_expt","","0.3115261247","","0.06465645962","","0.2361400262","","","","","",""
"48","","bandit","309","728168","0.0-271.0-0.0","85163684","wem/bandit_single","A1GXFMAC759VRM","pain","5","","76","L","3","","0","1","0","","0.2575526348","false","234","","0.2366146445","main_expt","","0.3001083946","","0.04279198238","","0.2575526348","","","","","",""
"9","","bandit","310","729947","0.0-272.0-0.0","85163684","wem/bandit_single","A1GXFMAC759VRM","pain","5","","76","L","3","","0","0","1","","0.2828430508","false","235","","0.2393051992","main_expt","","0.2768541542","","0.06672803397","","0.2828430508","","","","","",""
"43","","bandit","311","731762","0.0-273.0-0.0","85163684","wem/bandit_single","A1GXFMAC759VRM","pain","5","","74","J","1","","0","0","1","","0.332362789","false","236","","0.2976693115","main_expt","","0.332362789","","0.07100342573","","0.2860482958","","","","","",""
"329","","bandit","312","733889","0.0-274.0-0.0","85163684","wem/bandit_single","A1GXFMAC759VRM","pain","5","","74","J","1","","0","0","1","","0.3408832027","false","237","","0.2674299269","main_expt","","0.3408832027","","0.03680589181","","0.2783023894","","","","","",""
"2","","bandit","313","735658","0.0-275.0-0.0","85163684","wem/bandit_single","A1GXFMAC759VRM","pain","5","","74","J","1","","0","0","1","","0.362117859","false","238","","0.2647207175","main_expt","","0.362117859","","0.02733344458","","0.2644861187","","","","","",""
"281","","bandit","314","737704","0.0-276.0-0.0","85163684","wem/bandit_single","A1GXFMAC759VRM","pain","5","","74","J","1","","0","1","0","","0.3574250999","false","239","","0.1936342125","main_expt","","0.3574250999","","0.01831396817","","0.3186717024","","","","","",""
"10","","bandit","315","739481","0.0-277.0-0.0","85163684","wem/bandit_single","A1GXFMAC759VRM","pain","5","","74","J","1","","0","0","1","","0.290436356","false","240","","0.2382432393","main_expt","","0.290436356","","0.01383764992","","0.3360375491","","","","","",""
"3","","bandit","316","741250","0.0-278.0-0.0","85163684","wem/bandit_single","A1GXFMAC759VRM","pain","5","","75","K","2","","0","0","1","","0.0277662638","false","241","","0.2984572788","main_expt","","0.3414967811","","0.0277662638","","0.3386213473","","","","","",""
"383","","bandit","317","743403","0.0-279.0-0.0","85163684","wem/bandit_single","A1GXFMAC759VRM","pain","5","","75","K","2","","0","0","1","","0.04064120638","false","242","","0.2927867707","main_expt","","0.3778608287","","0.04064120638","","0.3523037021","","","","","",""
"173","","bandit","318","745345","0.0-280.0-0.0","85163684","wem/bandit_single","A1GXFMAC759VRM","pain","5","","75","K","2","","0","0","1","","0.04640587852","false","243","","0.2870713985","main_expt","","0.3552630766","","0.04640587852","","0.360543067","","","","","",""
"26","","bandit","319","747138","0.0-281.0-0.0","85163684","wem/bandit_single","A1GXFMAC759VRM","pain","5","","72","H","0","img/none_selected.jpg","0","1","0","","0.2882437102","false","244","","0.2882437102","main_expt","","0.3538674815","","0.06567084485","","0.3728786331","","","","","",""
"64","","bandit","320","748969","0.0-282.0-0.0","85163684","wem/bandit_single","A1GXFMAC759VRM","pain","5","","72","H","0","img/none_selected.jpg","0","0","1","","0.3125457984","false","245","","0.3125457984","main_expt","","0.3592745223","","0.1069305933","","0.3736501537","","","","","",""
"48","","bandit","321","750786","0.0-283.0-0.0","85163684","wem/bandit_single","A1GXFMAC759VRM","pain","5","","72","H","0","img/none_selected.jpg","0","0","1","","0.2949331023","false","246","","0.2949331023","main_expt","","0.3784559109","","0.07318543846","","0.3880614915","","","","","",""
"39","","bandit","322","752595","0.0-284.0-0.0","85163684","wem/bandit_single","A1GXFMAC759VRM","pain","5","","72","H","0","img/none_selected.jpg","0","1","0","","0.3557375168","false","247","","0.3557375168","main_expt","","0.3871101473","","0.06866628372","","0.3906355486","","","","","",""
"34","","bandit","323","754401","0.0-285.0-0.0","85163684","wem/bandit_single","A1GXFMAC759VRM","pain","5","","72","H","0","img/none_selected.jpg","0","1","0","","0.3190142928","false","248","","0.3190142928","main_expt","","0.366594806","","0.06101724449","","0.3713177951","","","","","",""
"64","","bandit","324","756233","0.0-286.0-0.0","85163684","wem/bandit_single","A1GXFMAC759VRM","pain","5","","72","H","0","img/none_selected.jpg","0","1","0","","0.2946857214","false","249","","0.2946857214","main_expt","","0.35265903","","0.07132197128","","0.2887643678","","","","","",""
"64","","bandit","325","758064","0.0-287.0-0.0","85163684","wem/bandit_single","A1GXFMAC759VRM","pain","5","","72","H","0","img/none_selected.jpg","0","0","1","","0.285145352","false","250","","0.285145352","main_expt","","0.3725690128","","0.04991986053","","0.3503459773","","","","","",""
"93","","bandit","326","759921","0.0-288.0-0.0","85163684","wem/bandit_single","A1GXFMAC759VRM","pain","5","","72","H","0","img/none_selected.jpg","0","0","1","","0.2572530626","false","251","","0.2572530626","main_expt","","0.3516217444","","0.087584861","","0.3900307368","","","","","",""
"55","","bandit","327","761745","0.0-289.0-0.0","85163684","wem/bandit_single","A1GXFMAC759VRM","pain","5","","72","H","0","img/none_selected.jpg","0","0","1","","0.206609756","false","252","","0.206609756","main_expt","","0.3478664427","","0.1089760904","","0.3998204568","","","","","",""
"417","","bandit","328","763953","0.0-290.0-0.0","85163684","wem/bandit_single","A1GXFMAC759VRM","pain","5","","72","H","0","img/none_selected.jpg","0","0","1","","0.2526850855","false","253","","0.2526850855","main_expt","","0.2845216812","","0.1389783028","","0.4062214202","","","","","",""
"41","","bandit","329","765759","0.0-291.0-0.0","85163684","wem/bandit_single","A1GXFMAC759VRM","pain","5","","72","H","0","img/none_selected.jpg","0","0","1","","0.2143143283","false","254","","0.2143143283","main_expt","","0.3395138109","","0.1438582992","","0.434330363","","","","","",""
"116","","bandit","330","767683","0.0-292.0-0.0","85163684","wem/bandit_single","A1GXFMAC759VRM","pain","5","","72","H","0","img/none_selected.jpg","0","0","1","","0.2330346229","false","255","","0.2330346229","main_expt","","0.284072963","","0.1341592381","","0.463361135","","","","","",""
"86","","bandit","331","769538","0.0-293.0-0.0","85163684","wem/bandit_single","A1GXFMAC759VRM","pain","5","","74","J","1","","0","1","0","","0.2791977035","false","256","","0.1707848091","main_expt","","0.2791977035","","0.1539827047","","0.4513325925","","","","","",""
"141","","bandit","332","771449","0.0-294.0-0.0","85163684","wem/bandit_single","A1GXFMAC759VRM","pain","5","","74","J","1","","0","0","1","","0.2827618753","false","257","","0.204762461","main_expt","","0.2827618753","","0.1067893116","","0.4493477618","","","","","",""
"41","","bandit","333","773257","0.0-295.0-0.0","85163684","wem/bandit_single","A1GXFMAC759VRM","pain","5","","74","J","1","","0","0","1","","0.2367173663","false","258","","0.1678630312","main_expt","","0.2367173663","","0.05021154971","","0.4586876348","","","","","",""
"271","","bandit","334","775297","0.0-296.0-0.0","85163684","wem/bandit_single","A1GXFMAC759VRM","pain","5","","75","K","2","","0","0","1","","0.04357518244","false","259","","0.1739170557","main_expt","","0.2715647874","","0.04357518244","","0.45931789","","","","","",""
"60","","bandit","335","777131","0.0-297.0-0.0","85163684","wem/bandit_single","A1GXFMAC759VRM","pain","5","","76","L","3","","0","1","0","","0.4583289396","false","260","","0.1848885371","main_expt","","0.2310951927","","0.05606835832","","0.4583289396","","","","","",""
"0","","bandit","336","778899","0.0-298.0-0.0","85163684","wem/bandit_single","A1GXFMAC759VRM","pain","5","","76","L","3","","0","0","1","","0.4470277171","false","261","","0.2258440324","main_expt","","0.2297288133","","0.05035703518","","0.4470277171","","","","","",""
"116","","bandit","337","780785","0.0-299.0-0.0","85163684","wem/bandit_single","A1GXFMAC759VRM","pain","5","","76","L","3","","0","0","1","","0.457772586","false","262","","0.2167220908","main_expt","","0.2072969611","","0.04352905051","","0.457772586","","","","","",""
"37","","bandit","338","782593","0.0-300.0-0.0","85163684","wem/bandit_single","A1GXFMAC759VRM","pain","5","","76","L","3","","0","0","1","","0.417694616","false","263","","0.2118780444","main_expt","","0.2427077321","","0.0373968872","","0.417694616","","","","","",""
"31","","bandit","339","784391","0.0-301.0-0.0","85163684","wem/bandit_single","A1GXFMAC759VRM","pain","5","","76","L","3","","0","1","0","","0.4214939516","false","264","","0.1870566281","main_expt","","0.3052561595","","0.04440415955","","0.4214939516","","","","","",""
"68","","bandit","340","786226","0.0-302.0-0.0","85163684","wem/bandit_single","A1GXFMAC759VRM","pain","5","","76","L","3","","0","1","0","","0.413465883","false","265","","0.1706127143","main_expt","","0.3000319327","","0.0139225964","","0.413465883","","","","","",""
"46","","bandit","341","788045","0.0-303.0-0.0","85163684","wem/bandit_single","A1GXFMAC759VRM","pain","5","","76","L","3","","0","0","1","","0.4116424673","false","266","","0.1693140566","main_expt","","0.3134404232","","0.01259799349","","0.4116424673","","","","","",""
"4","","bandit","342","789816","0.0-304.0-0.0","85163684","wem/bandit_single","A1GXFMAC759VRM","pain","5","","76","L","3","","0","1","0","","0.3863145418","false","267","","0.1753800763","main_expt","","0.3066387991","","0.00740451457","","0.3863145418","","","","","",""
"16","","bandit","343","791603","0.0-305.0-0.0","85163684","wem/bandit_single","A1GXFMAC759VRM","pain","5","","76","L","3","","0","1","0","","0.4265221664","false","268","","0.1918786918","main_expt","","0.3058482798","","0.004693585052","","0.4265221664","","","","","",""
"259","","bandit","344","793633","0.0-306.0-0.0","85163684","wem/bandit_single","A1GXFMAC759VRM","pain","5","","76","L","3","","0","1","0","","0.4515898034","false","269","","0.1999989265","main_expt","","0.2523051309","","0.004824061053","","0.4515898034","","","","","",""
"200","","bandit","345","795599","0.0-307.0-0.0","85163684","wem/bandit_single","A1GXFMAC759VRM","pain","5","","76","L","3","","0","0","1","","0.4467147125","false","270","","0.2211747839","main_expt","","0.2663701485","","0.006174480496","","0.4467147125","","","","","",""
"42","","bandit","346","797411","0.0-308.0-0.0","85163684","wem/bandit_single","A1GXFMAC759VRM","pain","5","","76","L","3","","0","0","1","","0.4582909467","false","271","","0.2404792593","main_expt","","0.2485798686","","0.00832103917","","0.4582909467","","","","","",""
"135","","bandit","347","799322","0.0-309.0-0.0","85163684","wem/bandit_single","A1GXFMAC759VRM","pain","5","","76","L","3","","0","1","0","","0.4709209778","false","272","","0.2558589782","main_expt","","0.2345495347","","0.00728594366","","0.4709209778","","","","","",""
"0","","bandit","348","801093","0.0-310.0-0.0","85163684","wem/bandit_single","A1GXFMAC759VRM","pain","5","","76","L","3","","0","0","1","","0.4660917397","false","273","","0.1700432942","main_expt","","0.2137032991","","0.01114453755","","0.4660917397","","","","","",""
"35","","bandit","349","802896","0.0-311.0-0.0","85163684","wem/bandit_single","A1GXFMAC759VRM","pain","5","","76","L","3","","0","0","1","","0.4639522763","false","274","","0.2452429789","main_expt","","0.2108512091","","0.01390500062","","0.4639522763","","","","","",""
"40","","bandit","350","804704","0.0-312.0-0.0","85163684","wem/bandit_single","A1GXFMAC759VRM","pain","5","","76","L","3","","0","0","1","","0.4559735555","false","275","","0.2540496776","main_expt","","0.1817434844","","0.01307999715","","0.4559735555","","","","","",""
"135","","bandit","351","806607","0.0-313.0-0.0","85163684","wem/bandit_single","A1GXFMAC759VRM","pain","5","","76","L","3","","0","1","0","","0.4246507461","false","276","","0.2816965905","main_expt","","0.2037179719","","0.01650166306","","0.4246507461","","","","","",""
"402","","bandit","352","808776","0.0-314.0-0.0","85163684","wem/bandit_single","A1GXFMAC759VRM","pain","5","","76","L","3","","0","1","0","","0.4061878557","false","277","","0.2757967379","main_expt","","0.211691867","","0.02228120093","","0.4061878557","","","","","",""
"14","","bandit","353","810560","0.0-315.0-0.0","85163684","wem/bandit_single","A1GXFMAC759VRM","pain","5","","76","L","3","","0","0","1","","0.4185559707","false","278","","0.3233086266","main_expt","","0.1725584367","","0.01609054627","","0.4185559707","","","","","",""
"32","","bandit","354","812359","0.0-316.0-0.0","85163684","wem/bandit_single","A1GXFMAC759VRM","pain","5","","76","L","3","","0","1","0","","0.4048416859","false","279","","0.3447853064","main_expt","","0.1976152383","","0.03276024715","","0.4048416859","","","","","",""
"62","","bandit","355","814192","0.0-317.0-0.0","85163684","wem/bandit_single","A1GXFMAC759VRM","pain","5","","76","L","3","","0","0","1","","0.3930733378","false","280","","0.2944080033","main_expt","","0.2245419331","","0.045813934","","0.3930733378","","","","","",""
"0","","bandit","356","815960","0.0-318.0-0.0","85163684","wem/bandit_single","A1GXFMAC759VRM","pain","5","","76","L","3","","0","0","1","","0.3722539572","false","281","","0.3455536282","main_expt","","0.2649095144","","0.07680660156","","0.3722539572","","","","","",""
"42","","bandit","357","817766","0.0-319.0-0.0","85163684","wem/bandit_single","A1GXFMAC759VRM","pain","5","","76","L","3","","0","0","1","","0.392640689","false","282","","0.3002636441","main_expt","","0.2440542309","","0.08989395926","","0.392640689","","","","","",""
"52","","bandit","358","819601","0.0-320.0-0.0","85163684","wem/bandit_single","A1GXFMAC759VRM","pain","5","","72","H","0","img/none_selected.jpg","0","1","0","","0.2433385189","false","283","","0.2433385189","main_expt","","0.3074658718","","0.1096048843","","0.3657249804","","","","","",""
"166","","bandit","359","821538","0.0-321.0-0.0","85163684","wem/bandit_single","A1GXFMAC759VRM","pain","5","","72","H","0","img/none_selected.jpg","0","0","1","","0.2108667552","false","284","","0.2108667552","main_expt","","0.3224089974","","0.1082817284","","0.3625644972","","","","","",""
"64","","bandit","360","823375","0.0-322.0-0.0","85163684","wem/bandit_single","A1GXFMAC759VRM","pain","5","","72","H","0","img/none_selected.jpg","0","0","1","","0.2340218901","false","285","","0.2340218901","main_expt","","0.3022873968","","0.1629804938","","0.3054288932","","","","","",""
"29","","bandit","361","825174","0.0-323.0-0.0","85163684","wem/bandit_single","A1GXFMAC759VRM","pain","5","","72","H","0","img/none_selected.jpg","0","0","1","","0.2499238339","false","286","","0.2499238339","main_expt","","0.2889410052","","0.1852598429","","0.3391155559","","","","","",""
"24","","bandit","362","826967","0.0-324.0-0.0","85163684","wem/bandit_single","A1GXFMAC759VRM","pain","5","","74","J","1","","0","0","1","","0.3151816804","false","287","","0.2334780882","main_expt","","0.3151816804","","0.2065414002","","0.3328791194","","","","","",""
"22","","bandit","363","828759","0.0-325.0-0.0","85163684","wem/bandit_single","A1GXFMAC759VRM","pain","5","","74","J","1","","0","1","0","","0.3489654206","false","288","","0.2784320663","main_expt","","0.3489654206","","0.1811366591","","0.3011075564","","","","","",""
"219","","bandit","364","830745","0.0-326.0-0.0","85163684","wem/bandit_single","A1GXFMAC759VRM","pain","5","","74","J","1","","0","1","0","","0.3673528387","false","289","","0.2751214951","main_expt","","0.3673528387","","0.1202209304","","0.3326814497","","","","","",""
"217","","bandit","365","832727","0.0-327.0-0.0","85163684","wem/bandit_single","A1GXFMAC759VRM","pain","5","","74","J","1","","0","1","0","","0.3156989172","false","290","","0.304381699","main_expt","","0.3156989172","","0.1453470377","","0.3289320066","","","","","",""
"168","","bandit","366","834665","0.0-328.0-0.0","85163684","wem/bandit_single","A1GXFMAC759VRM","pain","5","","74","J","1","","0","0","1","","0.3731423443","false","291","","0.2447169523","main_expt","","0.3731423443","","0.1477070836","","0.3074380044","","","","","",""
"11","","bandit","367","836447","0.0-329.0-0.0","85163684","wem/bandit_single","A1GXFMAC759VRM","pain","5","","74","J","1","","0","0","1","","0.3819638953","false","292","","0.2422140582","main_expt","","0.3819638953","","0.1442574827","","0.247625386","","","","","",""
"47","","bandit","368","838264","0.0-330.0-0.0","85163684","wem/bandit_single","A1GXFMAC759VRM","pain","5","","74","J","1","","0","0","1","","0.3709780048","false","293","","0.1480972705","main_expt","","0.3709780048","","0.1219757373","","0.2438381571","","","","","",""
"25","","bandit","369","840071","0.0-331.0-0.0","85163684","wem/bandit_single","A1GXFMAC759VRM","pain","5","","74","J","1","","0","0","1","","0.4013541824","false","294","","0.1338078997","main_expt","","0.4013541824","","0.149249144","","0.2772308066","","","","","",""
"62","","bandit","370","841895","0.0-332.0-0.0","85163684","wem/bandit_single","A1GXFMAC759VRM","pain","5","","74","J","1","","0","0","1","","0.4203470877","false","295","","0.1452417655","main_expt","","0.4203470877","","0.1066825056","","0.2386370059","","","","","",""
"370","","bandit","371","844043","0.0-333.0-0.0","85163684","wem/bandit_single","A1GXFMAC759VRM","pain","5","","74","J","1","","0","1","0","","0.4006598815","false","296","","0.12995508","main_expt","","0.4006598815","","0.06692503618","","0.2322267342","","","","","",""
"50","","bandit","372","845861","0.0-334.0-0.0","85163684","wem/bandit_single","A1GXFMAC759VRM","pain","5","","74","J","1","","0","1","0","","0.4189250697","false","297","","0.1079814357","main_expt","","0.4189250697","","0.08806334149","","0.2930795043","","","","","",""
"49","","bandit","373","847680","0.0-335.0-0.0","85163684","wem/bandit_single","A1GXFMAC759VRM","pain","5","","74","J","1","","0","0","1","","0.4204303011","false","298","","0.08396844466","main_expt","","0.4204303011","","0.0708541643","","0.3168190842","","","","","",""
"101","","bandit","374","849549","0.0-336.0-0.0","85163684","wem/bandit_single","A1GXFMAC759VRM","pain","5","","74","J","1","","0","0","1","","0.3955170021","false","299","","0.08942466987","main_expt","","0.3955170021","","0.07807128628","","0.3251331367","","","","","",""
"96","","bandit","375","851414","0.0-337.0-0.0","85163684","wem/bandit_single","A1GXFMAC759VRM","pain","5","","74","J","1","","0","1","0","","0.3580479124","false","300","","0.09399158568","main_expt","","0.3580479124","","0.09051803512","","0.3253714703","","","","","",""
