"rt","responses","trial_type","trial_index","time_elapsed","internal_node_id","subjID","study","MID","cond","drift","key_press","respCharCode","respKey","respChoiceNum","respChoice","gems","bombs","no_reward","GemPrChosen","BombPrChosen","practice","trial_counter","WinPr_0","LosePr_0","trial_label","WinPr_1","LosePr_1","WinPr_2","LosePr_2","WinPr_3","LosePr_3","Q0","Q1","Q2","gender","age","ethnicity"
"93913","{""Q0"":""AK3H5QRAROFGP""}","survey-text","0","93922","0.0-0.0","85432434","wem/bandit_single","AK3H5QRAROFGP","gain","7","","","","","","","","","","","","","","","","","","","","","","","","","","",""
"1586","","text","1","96515","0.0-1.0","85432434","wem/bandit_single","AK3H5QRAROFGP","gain","7","32","","","","","","","","","","","","","","","","","","","","","","","","","",""
"9516","","text","2","106033","0.0-2.0","85432434","wem/bandit_single","AK3H5QRAROFGP","gain","7","32","","","","","","","","","","","","","","","","","","","","","","","","","",""
"32216","","text","3","138251","0.0-3.0","85432434","wem/bandit_single","AK3H5QRAROFGP","gain","7","32","","","","","","","","","","","","","","","","","","","","","","","","","",""
"25689","","text","4","163940","0.0-4.0","85432434","wem/bandit_single","AK3H5QRAROFGP","gain","7","32","","","","","","","","","","","","","","","","","","","","","","","","","",""
"23143","","text","5","187084","0.0-5.0","85432434","wem/bandit_single","AK3H5QRAROFGP","gain","7","32","","","","","","","","","","","","","","","","","","","","","","","","","",""
"6978","","text","6","194063","0.0-6.0","85432434","wem/bandit_single","AK3H5QRAROFGP","gain","7","32","","","","","","","","","","","","","","","","","","","","","","","","","",""
"4523","","text","7","198588","0.0-7.0","85432434","wem/bandit_single","AK3H5QRAROFGP","gain","7","32","","","","","","","","","","","","","","","","","","","","","","","","","",""
"3674","","text","8","202263","0.0-8.0","85432434","wem/bandit_single","AK3H5QRAROFGP","gain","7","32","","","","","","","","","","","","","","","","","","","","","","","","","",""
"4901","","text","9","207165","0.0-9.0","85432434","wem/bandit_single","AK3H5QRAROFGP","gain","7","32","","","","","","","","","","","","","","","","","","","","","","","","","",""
"5895","","text","10","213061","0.0-10.0","85432434","wem/bandit_single","AK3H5QRAROFGP","gain","7","32","","","","","","","","","","","","","","","","","","","","","","","","","",""
"7249","","text","11","220311","0.0-11.0","85432434","wem/bandit_single","AK3H5QRAROFGP","gain","7","32","","","","","","","","","","","","","","","","","","","","","","","","","",""
"1779","","bandit","12","223596","0.0-12.0-0.0","85432434","wem/bandit_single","AK3H5QRAROFGP","gain","7","","74","J","0","img/none_selected_demo.jpg","0","0","1","0","0","true","0","0","0","","","","","","","","","","","","",""
"954","","bandit","13","226306","0.0-13.0-0.0","85432434","wem/bandit_single","AK3H5QRAROFGP","gain","7","","75","K","0","img/none_selected_demo.jpg","0","0","1","0","0","true","0","0","0","","","","","","","","","","","","",""
"2336","","text","14","228894","0.0-14.0","85432434","wem/bandit_single","AK3H5QRAROFGP","gain","7","32","","","","","","","","","","","","","","","","","","","","","","","","","",""
"2600","","text","15","231496","0.0-15.0","85432434","wem/bandit_single","AK3H5QRAROFGP","gain","7","32","","","","","","","","","","","","","","","","","","","","","","","","","",""
"4270","","text","16","235767","0.0-16.0","85432434","wem/bandit_single","AK3H5QRAROFGP","gain","7","32","","","","","","","","","","","","","","","","","","","","","","","","","",""
"3786","","text","17","239554","0.0-17.0","85432434","wem/bandit_single","AK3H5QRAROFGP","gain","7","32","","","","","","","","","","","","","","","","","","","","","","","","","",""
"1489","","bandit","18","242558","0.0-18.0-0.0","85432434","wem/bandit_single","AK3H5QRAROFGP","gain","7","","74","J","0","img/none_selected_demo.jpg","1","0","0","0.8","0","true","0","0.8","0","80_20_practice","0.2","0","","","","","","","","","",""
"384","","bandit","19","244699","0.0-18.0-1.0","85432434","wem/bandit_single","AK3H5QRAROFGP","gain","7","","74","J","0","img/none_selected_demo.jpg","1","0","0","0.8","0","true","0","0.8","0","80_20_practice","0.2","0","","","","","","","","","",""
"215","","bandit","20","246713","0.0-18.0-2.0","85432434","wem/bandit_single","AK3H5QRAROFGP","gain","7","","74","J","0","img/none_selected_demo.jpg","1","0","0","0.8","0","true","0","0.8","0","80_20_practice","0.2","0","","","","","","","","","",""
"170","","bandit","21","248641","0.0-18.0-3.0","85432434","wem/bandit_single","AK3H5QRAROFGP","gain","7","","74","J","0","img/none_selected_demo.jpg","0","0","1","0.8","0","true","0","0.8","0","80_20_practice","0.2","0","","","","","","","","","",""
"108","","bandit","22","250509","0.0-18.0-4.0","85432434","wem/bandit_single","AK3H5QRAROFGP","gain","7","","74","J","0","img/none_selected_demo.jpg","1","0","0","0.8","0","true","0","0.8","0","80_20_practice","0.2","0","","","","","","","","","",""
"120","","bandit","23","252386","0.0-18.0-5.0","85432434","wem/bandit_single","AK3H5QRAROFGP","gain","7","","74","J","0","img/none_selected_demo.jpg","1","0","0","0.8","0","true","0","0.8","0","80_20_practice","0.2","0","","","","","","","","","",""
"32","","bandit","24","254175","0.0-18.0-6.0","85432434","wem/bandit_single","AK3H5QRAROFGP","gain","7","","74","J","0","img/none_selected_demo.jpg","1","0","0","0.8","0","true","0","0.8","0","80_20_practice","0.2","0","","","","","","","","","",""
"162","","bandit","25","256092","0.0-18.0-7.0","85432434","wem/bandit_single","AK3H5QRAROFGP","gain","7","","74","J","0","img/none_selected_demo.jpg","0","0","1","0.8","0","true","0","0.8","0","80_20_practice","0.2","0","","","","","","","","","",""
"176","","bandit","26","258037","0.0-18.0-8.0","85432434","wem/bandit_single","AK3H5QRAROFGP","gain","7","","74","J","0","img/none_selected_demo.jpg","1","0","0","0.8","0","true","0","0.8","0","80_20_practice","0.2","0","","","","","","","","","",""
"92","","bandit","27","259898","0.0-18.0-9.0","85432434","wem/bandit_single","AK3H5QRAROFGP","gain","7","","74","J","0","img/none_selected_demo.jpg","1","0","0","0.8","0","true","0","0.8","0","80_20_practice","0.2","0","","","","","","","","","",""
"75","","bandit","28","261730","0.0-18.0-10.0","85432434","wem/bandit_single","AK3H5QRAROFGP","gain","7","","74","J","0","img/none_selected_demo.jpg","1","0","0","0.8","0","true","0","0.8","0","80_20_practice","0.2","0","","","","","","","","","",""
"87","","bandit","29","263574","0.0-18.0-11.0","85432434","wem/bandit_single","AK3H5QRAROFGP","gain","7","","74","J","0","img/none_selected_demo.jpg","1","0","0","0.8","0","true","0","0.8","0","80_20_practice","0.2","0","","","","","","","","","",""
"165","","bandit","30","265496","0.0-18.0-12.0","85432434","wem/bandit_single","AK3H5QRAROFGP","gain","7","","74","J","0","img/none_selected_demo.jpg","0","0","1","0.8","0","true","0","0.8","0","80_20_practice","0.2","0","","","","","","","","","",""
"214","","bandit","31","267466","0.0-18.0-13.0","85432434","wem/bandit_single","AK3H5QRAROFGP","gain","7","","74","J","0","img/none_selected_demo.jpg","1","0","0","0.8","0","true","0","0.8","0","80_20_practice","0.2","0","","","","","","","","","",""
"114","","bandit","32","269336","0.0-18.0-14.0","85432434","wem/bandit_single","AK3H5QRAROFGP","gain","7","","74","J","0","img/none_selected_demo.jpg","1","0","0","0.8","0","true","0","0.8","0","80_20_practice","0.2","0","","","","","","","","","",""
"35","","bandit","33","271141","0.0-18.0-15.0","85432434","wem/bandit_single","AK3H5QRAROFGP","gain","7","","74","J","0","img/none_selected_demo.jpg","1","0","0","0.8","0","true","0","0.8","0","80_20_practice","0.2","0","","","","","","","","","",""
"48","","bandit","34","272947","0.0-18.0-16.0","85432434","wem/bandit_single","AK3H5QRAROFGP","gain","7","","74","J","0","img/none_selected_demo.jpg","1","0","0","0.8","0","true","0","0.8","0","80_20_practice","0.2","0","","","","","","","","","",""
"144","","bandit","35","274861","0.0-18.0-17.0","85432434","wem/bandit_single","AK3H5QRAROFGP","gain","7","","74","J","0","img/none_selected_demo.jpg","0","0","1","0.8","0","true","0","0.8","0","80_20_practice","0.2","0","","","","","","","","","",""
"149","","bandit","36","276767","0.0-18.0-18.0","85432434","wem/bandit_single","AK3H5QRAROFGP","gain","7","","74","J","0","img/none_selected_demo.jpg","1","0","0","0.8","0","true","0","0.8","0","80_20_practice","0.2","0","","","","","","","","","",""
"33","","bandit","37","278566","0.0-18.0-19.0","85432434","wem/bandit_single","AK3H5QRAROFGP","gain","7","","74","J","0","img/none_selected_demo.jpg","1","0","0","0.8","0","true","0","0.8","0","80_20_practice","0.2","0","","","","","","","","","",""
"10183","","text","38","289003","0.0-19.0","85432434","wem/bandit_single","AK3H5QRAROFGP","gain","7","32","","","","","","","","","","","","","","","","","","","","","","","","","",""
"2840","","bandit","39","293347","0.0-20.0-0.0","85432434","wem/bandit_single","AK3H5QRAROFGP","gain","7","","74","J","0","img/none_selected_demo.jpg","0","0","1","0","0","true","0","0","0","","0","0","","","","","","","","","",""
"8582","","text","40","302183","0.0-21.0","85432434","wem/bandit_single","AK3H5QRAROFGP","gain","7","32","","","","","","","","","","","","","","","","","","","","","","","","","",""
"4190","","text","41","306375","0.0-22.0","85432434","wem/bandit_single","AK3H5QRAROFGP","gain","7","32","","","","","","","","","","","","","","","","","","","","","","","","","",""
"4209","","text","42","310587","0.0-23.0","85432434","wem/bandit_single","AK3H5QRAROFGP","gain","7","32","","","","","","","","","","","","","","","","","","","","","","","","","",""
"3385","","text","43","313974","0.0-24.0","85432434","wem/bandit_single","AK3H5QRAROFGP","gain","7","32","","","","","","","","","","","","","","","","","","","","","","","","","",""
"14313","","text","44","328289","0.0-25.0","85432434","wem/bandit_single","AK3H5QRAROFGP","gain","7","32","","","","","","","","","","","","","","","","","","","","","","","","","",""
"9797","","text","45","338088","0.0-26.0","85432434","wem/bandit_single","AK3H5QRAROFGP","gain","7","32","","","","","","","","","","","","","","","","","","","","","","","","","",""
"7878","","text","46","345968","0.0-27.0","85432434","wem/bandit_single","AK3H5QRAROFGP","gain","7","32","","","","","","","","","","","","","","","","","","","","","","","","","",""
"4613","","text","47","350583","0.0-28.0","85432434","wem/bandit_single","AK3H5QRAROFGP","gain","7","32","","","","","","","","","","","","","","","","","","","","","","","","","",""
"6126","","text","48","356712","0.0-29.0","85432434","wem/bandit_single","AK3H5QRAROFGP","gain","7","32","","","","","","","","","","","","","","","","","","","","","","","","","",""
"3630","","text","49","360346","0.0-30.0","85432434","wem/bandit_single","AK3H5QRAROFGP","gain","7","32","","","","","","","","","","","","","","","","","","","","","","","","","",""
"3356","","text","50","363705","0.0-31.0","85432434","wem/bandit_single","AK3H5QRAROFGP","gain","7","32","","","","","","","","","","","","","","","","","","","","","","","","","",""
"1055","","bandit","51","366272","0.0-32.0-0.0","85432434","wem/bandit_single","AK3H5QRAROFGP","gain","7","","72","H","0","img/none_selected.jpg","1","0","0","0.8","0","true","0","0.8","0","full_practice","0.2","0","0.6","0","0.2","0","","","","","",""
"275","","bandit","52","368301","0.0-32.0-1.0","85432434","wem/bandit_single","AK3H5QRAROFGP","gain","7","","72","H","0","img/none_selected.jpg","1","0","0","0.8","0","true","0","0.8","0","full_practice","0.2","0","0.6","0","0.2","0","","","","","",""
"138","","bandit","53","370194","0.0-32.0-2.0","85432434","wem/bandit_single","AK3H5QRAROFGP","gain","7","","72","H","0","img/none_selected.jpg","1","0","0","0.8","0","true","0","0.8","0","full_practice","0.2","0","0.6","0","0.2","0","","","","","",""
"103","","bandit","54","372054","0.0-32.0-3.0","85432434","wem/bandit_single","AK3H5QRAROFGP","gain","7","","72","H","0","img/none_selected.jpg","1","0","0","0.8","0","true","0","0.8","0","full_practice","0.2","0","0.6","0","0.2","0","","","","","",""
"109","","bandit","55","373918","0.0-32.0-4.0","85432434","wem/bandit_single","AK3H5QRAROFGP","gain","7","","72","H","0","img/none_selected.jpg","1","0","0","0.8","0","true","0","0.8","0","full_practice","0.2","0","0.6","0","0.2","0","","","","","",""
"100","","bandit","56","375774","0.0-32.0-5.0","85432434","wem/bandit_single","AK3H5QRAROFGP","gain","7","","72","H","0","img/none_selected.jpg","1","0","0","0.8","0","true","0","0.8","0","full_practice","0.2","0","0.6","0","0.2","0","","","","","",""
"62","","bandit","57","377594","0.0-32.0-6.0","85432434","wem/bandit_single","AK3H5QRAROFGP","gain","7","","72","H","0","img/none_selected.jpg","0","0","1","0.8","0","true","0","0.8","0","full_practice","0.2","0","0.6","0","0.2","0","","","","","",""
"112","","bandit","58","379461","0.0-32.0-7.0","85432434","wem/bandit_single","AK3H5QRAROFGP","gain","7","","72","H","0","img/none_selected.jpg","1","0","0","0.8","0","true","0","0.8","0","full_practice","0.2","0","0.6","0","0.2","0","","","","","",""
"169","","bandit","59","381387","0.0-32.0-8.0","85432434","wem/bandit_single","AK3H5QRAROFGP","gain","7","","72","H","0","img/none_selected.jpg","0","0","1","0.8","0","true","0","0.8","0","full_practice","0.2","0","0.6","0","0.2","0","","","","","",""
"122","","bandit","60","383264","0.0-32.0-9.0","85432434","wem/bandit_single","AK3H5QRAROFGP","gain","7","","72","H","0","img/none_selected.jpg","1","0","0","0.8","0","true","0","0.8","0","full_practice","0.2","0","0.6","0","0.2","0","","","","","",""
"110","","bandit","61","385130","0.0-32.0-10.0","85432434","wem/bandit_single","AK3H5QRAROFGP","gain","7","","72","H","0","img/none_selected.jpg","0","0","1","0.8","0","true","0","0.8","0","full_practice","0.2","0","0.6","0","0.2","0","","","","","",""
"199","","bandit","62","387083","0.0-32.0-11.0","85432434","wem/bandit_single","AK3H5QRAROFGP","gain","7","","74","J","1","","0","0","1","0.2","0","true","0","0.8","0","full_practice","0.2","0","0.6","0","0.2","0","","","","","",""
"44","","bandit","63","388884","0.0-32.0-12.0","85432434","wem/bandit_single","AK3H5QRAROFGP","gain","7","","75","K","2","","0","0","1","0.6","0","true","0","0.8","0","full_practice","0.2","0","0.6","0","0.2","0","","","","","",""
"359","","bandit","64","391011","0.0-32.0-13.0","85432434","wem/bandit_single","AK3H5QRAROFGP","gain","7","","76","L","3","","0","0","1","0.2","0","true","0","0.8","0","full_practice","0.2","0","0.6","0","0.2","0","","","","","",""
"194","","bandit","65","392964","0.0-32.0-14.0","85432434","wem/bandit_single","AK3H5QRAROFGP","gain","7","","72","H","0","img/none_selected.jpg","1","0","0","0.8","0","true","0","0.8","0","full_practice","0.2","0","0.6","0","0.2","0","","","","","",""
"117","","bandit","66","394838","0.0-32.0-15.0","85432434","wem/bandit_single","AK3H5QRAROFGP","gain","7","","72","H","0","img/none_selected.jpg","1","0","0","0.8","0","true","0","0.8","0","full_practice","0.2","0","0.6","0","0.2","0","","","","","",""
"79","","bandit","67","396675","0.0-32.0-16.0","85432434","wem/bandit_single","AK3H5QRAROFGP","gain","7","","72","H","0","img/none_selected.jpg","1","0","0","0.8","0","true","0","0.8","0","full_practice","0.2","0","0.6","0","0.2","0","","","","","",""
"107","","bandit","68","398539","0.0-32.0-17.0","85432434","wem/bandit_single","AK3H5QRAROFGP","gain","7","","72","H","0","img/none_selected.jpg","1","0","0","0.8","0","true","0","0.8","0","full_practice","0.2","0","0.6","0","0.2","0","","","","","",""
"197","","bandit","69","400491","0.0-32.0-18.0","85432434","wem/bandit_single","AK3H5QRAROFGP","gain","7","","72","H","0","img/none_selected.jpg","1","0","0","0.8","0","true","0","0.8","0","full_practice","0.2","0","0.6","0","0.2","0","","","","","",""
"71","","bandit","70","402322","0.0-32.0-19.0","85432434","wem/bandit_single","AK3H5QRAROFGP","gain","7","","72","H","0","img/none_selected.jpg","0","0","1","0.8","0","true","0","0.8","0","full_practice","0.2","0","0.6","0","0.2","0","","","","","",""
"3218","","text","71","405797","0.0-33.0","85432434","wem/bandit_single","AK3H5QRAROFGP","gain","7","32","","","","","","","","","","","","","","","","","","","","","","","","","",""
"12851","","text","72","419651","0.0-34.0","85432434","wem/bandit_single","AK3H5QRAROFGP","gain","7","32","","","","","","","","","","","","","","","","","","","","","","","","","",""
"8068","","text","73","427722","0.0-35.0","85432434","wem/bandit_single","AK3H5QRAROFGP","gain","7","32","","","","","","","","","","","","","","","","","","","","","","","","","",""
"8241","","text","74","435966","0.0-36.0","85432434","wem/bandit_single","AK3H5QRAROFGP","gain","7","32","","","","","","","","","","","","","","","","","","","","","","","","","",""
"6102","","text","75","442070","0.0-37.0","85432434","wem/bandit_single","AK3H5QRAROFGP","gain","7","32","","","","","","","","","","","","","","","","","","","","","","","","","",""
"1285","","bandit","76","444861","0.0-38.0-0.0","85432434","wem/bandit_single","AK3H5QRAROFGP","gain","7","","72","H","0","img/none_selected.jpg","1","0","0","0.182860278","","false","1","0.182860278","","main_expt","0.4656663819","","0.05137684772","","0.2046929885","","","","","","",""
"50","","bandit","77","446669","0.0-39.0-0.0","85432434","wem/bandit_single","AK3H5QRAROFGP","gain","7","","72","H","0","img/none_selected.jpg","0","0","1","0.1824128093","","false","2","0.1824128093","","main_expt","0.4696156166","","0.07150319997","","0.1903203277","","","","","","",""
"115","","bandit","78","448540","0.0-40.0-0.0","85432434","wem/bandit_single","AK3H5QRAROFGP","gain","7","","72","H","0","img/none_selected.jpg","0","0","1","0.1671989933","","false","3","0.1671989933","","main_expt","0.477042595","","0.080703679","","0.1806567389","","","","","","",""
"115","","bandit","79","450412","0.0-41.0-0.0","85432434","wem/bandit_single","AK3H5QRAROFGP","gain","7","","74","J","1","","1","0","0","0.4833388502","","false","4","0.1769774761","","main_expt","0.4833388502","","0.09206073837","","0.1746643784","","","","","","",""
"100","","bandit","80","452286","0.0-42.0-0.0","85432434","wem/bandit_single","AK3H5QRAROFGP","gain","7","","74","J","1","","0","0","1","0.4679643189","","false","5","0.1847579949","","main_expt","0.4679643189","","0.09846378213","","0.1575849224","","","","","","",""
"98","","bandit","81","454140","0.0-43.0-0.0","85432434","wem/bandit_single","AK3H5QRAROFGP","gain","7","","74","J","1","","0","0","1","0.4728114282","","false","6","0.2263389119","","main_expt","0.4728114282","","0.07982937149","","0.1848921601","","","","","","",""
"14","","bandit","82","455911","0.0-44.0-0.0","85432434","wem/bandit_single","AK3H5QRAROFGP","gain","7","","75","K","2","","0","0","1","0.08361087011","","false","7","0.233500047","","main_expt","0.4763129956","","0.08361087011","","0.2090417599","","","","","","",""
"93","","bandit","83","457760","0.0-45.0-0.0","85432434","wem/bandit_single","AK3H5QRAROFGP","gain","7","","75","K","2","","0","0","1","0.1210475052","","false","8","0.2213385325","","main_expt","0.4605171502","","0.1210475052","","0.2340345007","","","","","","",""
"233","","bandit","84","459755","0.0-46.0-0.0","85432434","wem/bandit_single","AK3H5QRAROFGP","gain","7","","76","L","3","","0","0","1","0.2388832632","","false","9","0.216727727","","main_expt","0.457599345","","0.1023248189","","0.2388832632","","","","","","",""
"90","","bandit","85","461601","0.0-47.0-0.0","85432434","wem/bandit_single","AK3H5QRAROFGP","gain","7","","76","L","3","","0","0","1","0.2336568073","","false","10","0.1757193701","","main_expt","0.4514273669","","0.1311876697","","0.2336568073","","","","","","",""
"257","","bandit","86","463617","0.0-48.0-0.0","85432434","wem/bandit_single","AK3H5QRAROFGP","gain","7","","72","H","0","img/none_selected.jpg","0","0","1","0.221687112","","false","11","0.221687112","","main_expt","0.461109344","","0.1171839072","","0.2682397485","","","","","","",""
"66","","bandit","87","465438","0.0-49.0-0.0","85432434","wem/bandit_single","AK3H5QRAROFGP","gain","7","","72","H","0","img/none_selected.jpg","0","0","1","0.1693148256","","false","12","0.1693148256","","main_expt","0.4750360261","","0.09103905321","","0.2855743842","","","","","","",""
"48","","bandit","88","467244","0.0-50.0-0.0","85432434","wem/bandit_single","AK3H5QRAROFGP","gain","7","","74","J","1","","1","0","0","0.4882900813","","false","13","0.1861997022","","main_expt","0.4882900813","","0.08195125901","","0.2877368863","","","","","","",""
"68","","bandit","89","469070","0.0-51.0-0.0","85432434","wem/bandit_single","AK3H5QRAROFGP","gain","7","","74","J","1","","1","0","0","0.4836145896","","false","14","0.2056371894","","main_expt","0.4836145896","","0.1022478824","","0.2904717711","","","","","","",""
"52","","bandit","90","470880","0.0-52.0-0.0","85432434","wem/bandit_single","AK3H5QRAROFGP","gain","7","","74","J","1","","0","0","1","0.4841526839","","false","15","0.207651467","","main_expt","0.4841526839","","0.1295923723","","0.3145527135","","","","","","",""
"1229","","bandit","91","473891","0.0-53.0-0.0","85432434","wem/bandit_single","AK3H5QRAROFGP","gain","7","","74","J","1","","0","0","1","0.4733209008","","false","16","0.264879833","","main_expt","0.4733209008","","0.1259026636","","0.2919685568","","","","","","",""
"91","","bandit","92","475739","0.0-54.0-0.0","85432434","wem/bandit_single","AK3H5QRAROFGP","gain","7","","74","J","1","","0","0","1","0.4548629562","","false","17","0.301226273","","main_expt","0.4548629562","","0.08714849596","","0.2437915417","","","","","","",""
"69","","bandit","93","477566","0.0-55.0-0.0","85432434","wem/bandit_single","AK3H5QRAROFGP","gain","7","","75","K","2","","0","0","1","0.06082296625","","false","18","0.3355017989","","main_expt","0.4423108412","","0.06082296625","","0.2139729843","","","","","","",""
"104","","bandit","94","479427","0.0-56.0-0.0","85432434","wem/bandit_single","AK3H5QRAROFGP","gain","7","","75","K","2","","0","0","1","0.04376078701","","false","19","0.4066928382","","main_expt","0.4510346454","","0.04376078701","","0.2117718275","","","","","","",""
"28","","bandit","95","481223","0.0-57.0-0.0","85432434","wem/bandit_single","AK3H5QRAROFGP","gain","7","","76","L","3","","0","0","1","0.2128214431","","false","20","0.4152799178","","main_expt","0.4522943673","","0.0431273538","","0.2128214431","","","","","","",""
"117","","bandit","96","483096","0.0-58.0-0.0","85432434","wem/bandit_single","AK3H5QRAROFGP","gain","7","","76","L","3","","0","0","1","0.2557511999","","false","21","0.4005545413","","main_expt","0.4213917452","","0.05700218709","","0.2557511999","","","","","","",""
"120","","bandit","97","484976","0.0-59.0-0.0","85432434","wem/bandit_single","AK3H5QRAROFGP","gain","7","","72","H","0","img/none_selected.jpg","0","0","1","0.4065945052","","false","22","0.4065945052","","main_expt","0.4055738921","","0.03008320558","","0.2240556206","","","","","","",""
"89","","bandit","98","486826","0.0-60.0-0.0","85432434","wem/bandit_single","AK3H5QRAROFGP","gain","7","","72","H","0","img/none_selected.jpg","1","0","0","0.4396923884","","false","23","0.4396923884","","main_expt","0.4102744642","","0.04675245401","","0.1913455436","","","","","","",""
"91","","bandit","99","488676","0.0-61.0-0.0","85432434","wem/bandit_single","AK3H5QRAROFGP","gain","7","","72","H","0","img/none_selected.jpg","0","0","1","0.4414607804","","false","24","0.4414607804","","main_expt","0.4215519413","","0.02664245213","","0.1767964116","","","","","","",""
"627","","bandit","100","491061","0.0-62.0-0.0","85432434","wem/bandit_single","AK3H5QRAROFGP","gain","7","","72","H","0","img/none_selected.jpg","0","0","1","0.430597795","","false","25","0.430597795","","main_expt","0.4076768117","","0.02443183667","","0.1667721477","","","","","","",""
"46","","bandit","101","492869","0.0-63.0-0.0","85432434","wem/bandit_single","AK3H5QRAROFGP","gain","7","","74","J","1","","0","0","1","0.3563873355","","false","26","0.4049624372","","main_expt","0.3563873355","","0.02765515704","","0.132468293","","","","","","",""
"86","","bandit","102","494713","0.0-64.0-0.0","85432434","wem/bandit_single","AK3H5QRAROFGP","gain","7","","74","J","1","","0","0","1","0.3305608977","","false","27","0.3959859591","","main_expt","0.3305608977","","0.05751586542","","0.1283549716","","","","","","",""
"51","","bandit","103","496532","0.0-65.0-0.0","85432434","wem/bandit_single","AK3H5QRAROFGP","gain","7","","75","K","2","","0","0","1","0.1046410472","","false","28","0.4316273603","","main_expt","0.323916825","","0.1046410472","","0.1218888314","","","","","","",""
"33","","bandit","104","498332","0.0-66.0-0.0","85432434","wem/bandit_single","AK3H5QRAROFGP","gain","7","","75","K","2","","0","0","1","0.1174110135","","false","29","0.4618757987","","main_expt","0.3256975875","","0.1174110135","","0.08739650486","","","","","","",""
"1273","","bandit","105","501370","0.0-67.0-0.0","85432434","wem/bandit_single","AK3H5QRAROFGP","gain","7","","76","L","3","","0","0","1","0.1113113005","","false","30","0.4764599947","","main_expt","0.3590663193","","0.09344635718","","0.1113113005","","","","","","",""
"79","","bandit","106","503206","0.0-68.0-0.0","85432434","wem/bandit_single","AK3H5QRAROFGP","gain","7","","76","L","3","","0","0","1","0.1234593762","","false","31","0.4870567238","","main_expt","0.2794303661","","0.07228097062","","0.1234593762","","","","","","",""
"99","","bandit","107","505063","0.0-69.0-0.0","85432434","wem/bandit_single","AK3H5QRAROFGP","gain","7","","72","H","0","img/none_selected.jpg","0","0","1","0.4744541924","","false","32","0.4744541924","","main_expt","0.2725021833","","0.06660380695","","0.1204693509","","","","","","",""
"109","","bandit","108","506927","0.0-70.0-0.0","85432434","wem/bandit_single","AK3H5QRAROFGP","gain","7","","72","H","0","img/none_selected.jpg","0","0","1","0.4595636441","","false","33","0.4595636441","","main_expt","0.2662358977","","0.06161000393","","0.1525092538","","","","","","",""
"61","","bandit","109","508745","0.0-71.0-0.0","85432434","wem/bandit_single","AK3H5QRAROFGP","gain","7","","74","J","1","","0","0","1","0.3062719381","","false","34","0.4700794195","","main_expt","0.3062719381","","0.08245015188","","0.0933794629","","","","","","",""
"75","","bandit","110","510579","0.0-72.0-0.0","85432434","wem/bandit_single","AK3H5QRAROFGP","gain","7","","74","J","1","","1","0","0","0.3199342551","","false","35","0.46481425","","main_expt","0.3199342551","","0.08195488018","","0.06693018499","","","","","","",""
"105","","bandit","111","512449","0.0-73.0-0.0","85432434","wem/bandit_single","AK3H5QRAROFGP","gain","7","","74","J","1","","0","0","1","0.3039619122","","false","36","0.4518384169","","main_expt","0.3039619122","","0.1004102013","","0.09916465935","","","","","","",""
"23","","bandit","112","514229","0.0-74.0-0.0","85432434","wem/bandit_single","AK3H5QRAROFGP","gain","7","","74","J","1","","0","0","1","0.2927636057","","false","37","0.439581627","","main_expt","0.2927636057","","0.1390326598","","0.08872434017","","","","","","",""
"17","","bandit","113","516002","0.0-75.0-0.0","85432434","wem/bandit_single","AK3H5QRAROFGP","gain","7","","75","K","2","","0","0","1","0.143322519","","false","38","0.3994664239","","main_expt","0.3513205482","","0.143322519","","0.08103487055","","","","","","",""
"72","","bandit","114","517831","0.0-76.0-0.0","85432434","wem/bandit_single","AK3H5QRAROFGP","gain","7","","75","K","2","","1","0","0","0.1439849427","","false","39","0.399239641","","main_expt","0.3199725693","","0.1439849427","","0.09262773223","","","","","","",""
"68","","bandit","115","519667","0.0-77.0-0.0","85432434","wem/bandit_single","AK3H5QRAROFGP","gain","7","","75","K","2","","0","0","1","0.1813186375","","false","40","0.3842971785","","main_expt","0.2899826696","","0.1813186375","","0.08276392867","","","","","","",""
"610","","bandit","116","522039","0.0-78.0-0.0","85432434","wem/bandit_single","AK3H5QRAROFGP","gain","7","","75","K","2","","1","0","0","0.182623784","","false","41","0.3584077127","","main_expt","0.2470457707","","0.182623784","","0.07889170896","","","","","","",""
"127","","bandit","117","523924","0.0-79.0-0.0","85432434","wem/bandit_single","AK3H5QRAROFGP","gain","7","","75","K","2","","0","0","1","0.1310997782","","false","42","0.2940512223","","main_expt","0.2860815649","","0.1310997782","","0.1007082374","","","","","","",""
"11","","bandit","118","525692","0.0-80.0-0.0","85432434","wem/bandit_single","AK3H5QRAROFGP","gain","7","","75","K","2","","0","0","1","0.1211351308","","false","43","0.3274682868","","main_expt","0.3649324249","","0.1211351308","","0.04983151166","","","","","","",""
"28","","bandit","119","527481","0.0-81.0-0.0","85432434","wem/bandit_single","AK3H5QRAROFGP","gain","7","","76","L","3","","0","0","1","0.06772206808","","false","44","0.3105097628","","main_expt","0.3722884938","","0.1032393721","","0.06772206808","","","","","","",""
"8","","bandit","120","529247","0.0-82.0-0.0","85432434","wem/bandit_single","AK3H5QRAROFGP","gain","7","","76","L","3","","0","0","1","0.07082322934","","false","45","0.3253779088","","main_expt","0.3589666793","","0.145243047","","0.07082322934","","","","","","",""
"73","","bandit","121","531079","0.0-83.0-0.0","85432434","wem/bandit_single","AK3H5QRAROFGP","gain","7","","72","H","0","img/none_selected.jpg","0","0","1","0.2907447256","","false","46","0.2907447256","","main_expt","0.309469461","","0.1871821161","","0.08302100682","","","","","","",""
"673","","bandit","122","533509","0.0-84.0-0.0","85432434","wem/bandit_single","AK3H5QRAROFGP","gain","7","","72","H","0","img/none_selected.jpg","0","0","1","0.2922490699","","false","47","0.2922490699","","main_expt","0.3486132663","","0.1827431821","","0.04947507936","","","","","","",""
"303","","bandit","123","535570","0.0-85.0-0.0","85432434","wem/bandit_single","AK3H5QRAROFGP","gain","7","","74","J","1","","0","0","1","0.3613151755","","false","48","0.3012354267","","main_expt","0.3613151755","","0.1863443356","","0.05970491685","","","","","","",""
"45","","bandit","124","537374","0.0-86.0-0.0","85432434","wem/bandit_single","AK3H5QRAROFGP","gain","7","","74","J","1","","1","0","0","0.3810076255","","false","49","0.3199255499","","main_expt","0.3810076255","","0.2089920758","","0.05846806591","","","","","","",""
"338","","bandit","125","539468","0.0-87.0-0.0","85432434","wem/bandit_single","AK3H5QRAROFGP","gain","7","","74","J","1","","1","0","0","0.3528158806","","false","50","0.3246792682","","main_expt","0.3528158806","","0.2204805957","","0.08078022322","","","","","","",""
"405","","bandit","126","541632","0.0-88.0-0.0","85432434","wem/bandit_single","AK3H5QRAROFGP","gain","7","","74","J","1","","0","0","1","0.4127521961","","false","51","0.3158487008","","main_expt","0.4127521961","","0.2796788854","","0.08366705542","","","","","","",""
"106","","bandit","127","543496","0.0-89.0-0.0","85432434","wem/bandit_single","AK3H5QRAROFGP","gain","7","","74","J","1","","0","0","1","0.4034362436","","false","52","0.2764666405","","main_expt","0.4034362436","","0.2870992152","","0.1365111474","","","","","","",""
"461","","bandit","128","545713","0.0-90.0-0.0","85432434","wem/bandit_single","AK3H5QRAROFGP","gain","7","","74","J","1","","0","0","1","0.4268522392","","false","53","0.2740398937","","main_expt","0.4268522392","","0.3176469779","","0.1238361543","","","","","","",""
"107","","bandit","129","547579","0.0-91.0-0.0","85432434","wem/bandit_single","AK3H5QRAROFGP","gain","7","","75","K","2","","0","0","1","0.3407727651","","false","54","0.2499565254","","main_expt","0.4471231168","","0.3407727651","","0.1150058699","","","","","","",""
"61","","bandit","130","549396","0.0-92.0-0.0","85432434","wem/bandit_single","AK3H5QRAROFGP","gain","7","","75","K","2","","0","0","1","0.380871147","","false","55","0.221305586","","main_expt","0.4397300441","","0.380871147","","0.1498695165","","","","","","",""
"113","","bandit","131","551266","0.0-93.0-0.0","85432434","wem/bandit_single","AK3H5QRAROFGP","gain","7","","76","L","3","","1","0","0","0.1559096332","","false","56","0.2513729962","","main_expt","0.4266514607","","0.3614982187","","0.1559096332","","","","","","",""
"67","","bandit","132","553091","0.0-94.0-0.0","85432434","wem/bandit_single","AK3H5QRAROFGP","gain","7","","76","L","3","","0","0","1","0.139260175","","false","57","0.254621842","","main_expt","0.4351066669","","0.3219973572","","0.139260175","","","","","","",""
"105","","bandit","133","554954","0.0-95.0-0.0","85432434","wem/bandit_single","AK3H5QRAROFGP","gain","7","","76","L","3","","1","0","0","0.1101041774","","false","58","0.2911199408","","main_expt","0.4114765848","","0.3136466855","","0.1101041774","","","","","","",""
"188","","bandit","134","556902","0.0-96.0-0.0","85432434","wem/bandit_single","AK3H5QRAROFGP","gain","7","","76","L","3","","0","0","1","0.1619704935","","false","59","0.3260103257","","main_expt","0.4331866813","","0.3553654786","","0.1619704935","","","","","","",""
"141","","bandit","135","558800","0.0-97.0-0.0","85432434","wem/bandit_single","AK3H5QRAROFGP","gain","7","","76","L","3","","0","0","1","0.1023472493","","false","60","0.3801831719","","main_expt","0.4452666195","","0.302494743","","0.1023472493","","","","","","",""
"209","","bandit","136","560773","0.0-98.0-0.0","85432434","wem/bandit_single","AK3H5QRAROFGP","gain","7","","72","H","0","img/none_selected.jpg","1","0","0","0.4097171909","","false","61","0.4097171909","","main_expt","0.4533212266","","0.3194951829","","0.1659923055","","","","","","",""
"156","","bandit","137","562692","0.0-99.0-0.0","85432434","wem/bandit_single","AK3H5QRAROFGP","gain","7","","72","H","0","img/none_selected.jpg","1","0","0","0.4297251169","","false","62","0.4297251169","","main_expt","0.4546633602","","0.3491175101","","0.1773336283","","","","","","",""
"47","","bandit","138","564498","0.0-100.0-0.0","85432434","wem/bandit_single","AK3H5QRAROFGP","gain","7","","72","H","0","img/none_selected.jpg","1","0","0","0.4523537282","","false","63","0.4523537282","","main_expt","0.431915851","","0.3618657485","","0.1838898345","","","","","","",""
"11","","bandit","139","566299","0.0-101.0-0.0","85432434","wem/bandit_single","AK3H5QRAROFGP","gain","7","","72","H","0","img/none_selected.jpg","1","0","0","0.4577822331","","false","64","0.4577822331","","main_expt","0.4397857724","","0.3331995431","","0.1535376321","","","","","","",""
"116","","bandit","140","568189","0.0-102.0-0.0","85432434","wem/bandit_single","AK3H5QRAROFGP","gain","7","","72","H","0","img/none_selected.jpg","0","0","1","0.4366397349","","false","65","0.4366397349","","main_expt","0.3803141428","","0.3222916502","","0.1696059705","","","","","","",""
"78","","bandit","141","570030","0.0-103.0-0.0","85432434","wem/bandit_single","AK3H5QRAROFGP","gain","7","","72","H","0","img/none_selected.jpg","1","0","0","0.4223045317","","false","66","0.4223045317","","main_expt","0.4318665216","","0.2935747005","","0.1747776373","","","","","","",""
"64","","bandit","142","571854","0.0-104.0-0.0","85432434","wem/bandit_single","AK3H5QRAROFGP","gain","7","","72","H","0","img/none_selected.jpg","0","0","1","0.453094409","","false","67","0.453094409","","main_expt","0.3783394243","","0.272098099","","0.1880318686","","","","","","",""
"253","","bandit","143","573865","0.0-105.0-0.0","85432434","wem/bandit_single","AK3H5QRAROFGP","gain","7","","72","H","0","img/none_selected.jpg","0","0","1","0.4441165928","","false","68","0.4441165928","","main_expt","0.3424409758","","0.2839543474","","0.1703396733","","","","","","",""
"120","","bandit","144","575742","0.0-106.0-0.0","85432434","wem/bandit_single","AK3H5QRAROFGP","gain","7","","72","H","0","img/none_selected.jpg","1","0","0","0.437102529","","false","69","0.437102529","","main_expt","0.3825588005","","0.3106529802","","0.2041307244","","","","","","",""
"59","","bandit","145","577558","0.0-107.0-0.0","85432434","wem/bandit_single","AK3H5QRAROFGP","gain","7","","72","H","0","img/none_selected.jpg","1","0","0","0.463010405","","false","70","0.463010405","","main_expt","0.4019939479","","0.2152651325","","0.2380468473","","","","","","",""
"116","","bandit","146","579433","0.0-108.0-0.0","85432434","wem/bandit_single","AK3H5QRAROFGP","gain","7","","72","H","0","img/none_selected.jpg","0","0","1","0.4511055106","","false","71","0.4511055106","","main_expt","0.3995375499","","0.2150247356","","0.2540220497","","","","","","",""
"73","","bandit","147","581274","0.0-109.0-0.0","85432434","wem/bandit_single","AK3H5QRAROFGP","gain","7","","72","H","0","img/none_selected.jpg","0","0","1","0.456238914","","false","72","0.456238914","","main_expt","0.3655493795","","0.2196699897","","0.2877519017","","","","","","",""
"21","","bandit","148","583058","0.0-110.0-0.0","85432434","wem/bandit_single","AK3H5QRAROFGP","gain","7","","72","H","0","img/none_selected.jpg","0","0","1","0.4499554287","","false","73","0.4499554287","","main_expt","0.3443296275","","0.2086164273","","0.3090267326","","","","","","",""
"11","","bandit","149","584828","0.0-111.0-0.0","85432434","wem/bandit_single","AK3H5QRAROFGP","gain","7","","74","J","1","","0","0","1","0.3647916216","","false","74","0.4439780401","","main_expt","0.3647916216","","0.2226006448","","0.3400901674","","","","","","",""
"535","","bandit","150","587125","0.0-112.0-0.0","85432434","wem/bandit_single","AK3H5QRAROFGP","gain","7","","74","J","1","","0","0","1","0.3531956798","","false","75","0.4332341766","","main_expt","0.3531956798","","0.2015377479","","0.3519214117","","","","","","",""
"158","","bandit","151","589040","0.0-113.0-0.0","85432434","wem/bandit_single","AK3H5QRAROFGP","gain","7","","75","K","2","","0","0","1","0.2614433548","","false","76","0.4241516559","","main_expt","0.3375826797","","0.2614433548","","0.3621584499","","","","","","",""
"60","","bandit","152","590861","0.0-114.0-0.0","85432434","wem/bandit_single","AK3H5QRAROFGP","gain","7","","75","K","2","","1","0","0","0.3216300101","","false","77","0.404580079","","main_expt","0.3389323042","","0.3216300101","","0.3919288513","","","","","","",""
"101","","bandit","153","592720","0.0-115.0-0.0","85432434","wem/bandit_single","AK3H5QRAROFGP","gain","7","","75","K","2","","0","0","1","0.3253900192","","false","78","0.4291019186","","main_expt","0.3633343286","","0.3253900192","","0.3733142104","","","","","","",""
"79","","bandit","154","594557","0.0-116.0-0.0","85432434","wem/bandit_single","AK3H5QRAROFGP","gain","7","","75","K","2","","0","0","1","0.3253799771","","false","79","0.4431072694","","main_expt","0.35510173","","0.3253799771","","0.3594898906","","","","","","",""
"442","","bandit","155","596759","0.0-117.0-0.0","85432434","wem/bandit_single","AK3H5QRAROFGP","gain","7","","76","L","3","","1","0","0","0.3740263767","","false","80","0.4443251544","","main_expt","0.3313699227","","0.321449248","","0.3740263767","","","","","","",""
"69","","bandit","156","598588","0.0-118.0-0.0","85432434","wem/bandit_single","AK3H5QRAROFGP","gain","7","","76","L","3","","0","0","1","0.4031190442","","false","81","0.4222806544","","main_expt","0.3545786091","","0.3644617874","","0.4031190442","","","","","","",""
"103","","bandit","157","600448","0.0-119.0-0.0","85432434","wem/bandit_single","AK3H5QRAROFGP","gain","7","","76","L","3","","1","0","0","0.397551472","","false","82","0.4348184101","","main_expt","0.36958943","","0.3646727683","","0.397551472","","","","","","",""
"49","","bandit","158","602256","0.0-120.0-0.0","85432434","wem/bandit_single","AK3H5QRAROFGP","gain","7","","76","L","3","","0","0","1","0.4251589807","","false","83","0.4237956171","","main_expt","0.3818301908","","0.3823543101","","0.4251589807","","","","","","",""
"33","","bandit","159","604046","0.0-121.0-0.0","85432434","wem/bandit_single","AK3H5QRAROFGP","gain","7","","76","L","3","","1","0","0","0.406460911","","false","84","0.4255820551","","main_expt","0.3841316884","","0.3927357351","","0.406460911","","","","","","",""
"86","","bandit","160","605900","0.0-122.0-0.0","85432434","wem/bandit_single","AK3H5QRAROFGP","gain","7","","76","L","3","","0","0","1","0.4190094225","","false","85","0.4407045426","","main_expt","0.3769873451","","0.3242792488","","0.4190094225","","","","","","",""
"77","","bandit","161","607735","0.0-123.0-0.0","85432434","wem/bandit_single","AK3H5QRAROFGP","gain","7","","76","L","3","","0","0","1","0.4006115864","","false","86","0.4276882268","","main_expt","0.3624331431","","0.3257651096","","0.4006115864","","","","","","",""
"257","","bandit","162","609762","0.0-124.0-0.0","85432434","wem/bandit_single","AK3H5QRAROFGP","gain","7","","72","H","0","img/none_selected.jpg","1","0","0","0.4430021271","","false","87","0.4430021271","","main_expt","0.356636023","","0.3768973447","","0.3761684651","","","","","","",""
"56","","bandit","163","611583","0.0-125.0-0.0","85432434","wem/bandit_single","AK3H5QRAROFGP","gain","7","","72","H","0","img/none_selected.jpg","1","0","0","0.4259892117","","false","88","0.4259892117","","main_expt","0.392705536","","0.3333804566","","0.3935355307","","","","","","",""
"56","","bandit","164","613400","0.0-126.0-0.0","85432434","wem/bandit_single","AK3H5QRAROFGP","gain","7","","72","H","0","img/none_selected.jpg","0","0","1","0.4451393147","","false","89","0.4451393147","","main_expt","0.39579544","","0.3326985542","","0.3870426381","","","","","","",""
"48","","bandit","165","615207","0.0-127.0-0.0","85432434","wem/bandit_single","AK3H5QRAROFGP","gain","7","","72","H","0","img/none_selected.jpg","1","0","0","0.4450202473","","false","90","0.4450202473","","main_expt","0.3832348421","","0.3392082427","","0.3838573884","","","","","","",""
"111","","bandit","166","617074","0.0-128.0-0.0","85432434","wem/bandit_single","AK3H5QRAROFGP","gain","7","","72","H","0","img/none_selected.jpg","0","0","1","0.428726471","","false","91","0.428726471","","main_expt","0.4009824957","","0.2686139101","","0.376063899","","","","","","",""
"92","","bandit","167","618923","0.0-129.0-0.0","85432434","wem/bandit_single","AK3H5QRAROFGP","gain","7","","72","H","0","img/none_selected.jpg","0","0","1","0.4207086611","","false","92","0.4207086611","","main_expt","0.360902971","","0.247120026","","0.3877690924","","","","","","",""
"56","","bandit","168","620736","0.0-130.0-0.0","85432434","wem/bandit_single","AK3H5QRAROFGP","gain","7","","72","H","0","img/none_selected.jpg","0","0","1","0.4271109851","","false","93","0.4271109851","","main_expt","0.4098322422","","0.1945967668","","0.3832772702","","","","","","",""
"204","","bandit","169","622701","0.0-131.0-0.0","85432434","wem/bandit_single","AK3H5QRAROFGP","gain","7","","74","J","1","","0","0","1","0.365685068","","false","94","0.3988025755","","main_expt","0.365685068","","0.2059940606","","0.3569295009","","","","","","",""
"90","","bandit","170","624553","0.0-132.0-0.0","85432434","wem/bandit_single","AK3H5QRAROFGP","gain","7","","74","J","1","","0","0","1","0.3246475432","","false","95","0.3413505888","","main_expt","0.3246475432","","0.2276463074","","0.3462427099","","","","","","",""
"91","","bandit","171","626406","0.0-133.0-0.0","85432434","wem/bandit_single","AK3H5QRAROFGP","gain","7","","75","K","2","","0","0","1","0.3088064785","","false","96","0.2791034264","","main_expt","0.3155220288","","0.3088064785","","0.2902370181","","","","","","",""
"510","","bandit","172","628673","0.0-134.0-0.0","85432434","wem/bandit_single","AK3H5QRAROFGP","gain","7","","75","K","2","","0","0","1","0.3167474357","","false","97","0.2300358144","","main_expt","0.2920368253","","0.3167474357","","0.2679909325","","","","","","",""
"49","","bandit","173","630485","0.0-135.0-0.0","85432434","wem/bandit_single","AK3H5QRAROFGP","gain","7","","76","L","3","","0","0","1","0.1827708427","","false","98","0.245913642","","main_expt","0.3060047135","","0.3311058144","","0.1827708427","","","","","","",""
"88","","bandit","174","632345","0.0-136.0-0.0","85432434","wem/bandit_single","AK3H5QRAROFGP","gain","7","","76","L","3","","0","0","1","0.1847148603","","false","99","0.1977736678","","main_expt","0.2834300817","","0.2831383079","","0.1847148603","","","","","","",""
"71","","bandit","175","634173","0.0-137.0-0.0","85432434","wem/bandit_single","AK3H5QRAROFGP","gain","7","","72","H","0","img/none_selected.jpg","0","0","1","0.2300987319","","false","100","0.2300987319","","main_expt","0.3094748938","","0.2697282324","","0.230590463","","","","","","",""
"76","","bandit","176","636017","0.0-138.0-0.0","85432434","wem/bandit_single","AK3H5QRAROFGP","gain","7","","72","H","0","img/none_selected.jpg","0","0","1","0.2375929523","","false","101","0.2375929523","","main_expt","0.2776834174","","0.2908511313","","0.2036778932","","","","","","",""
"127","","bandit","177","637909","0.0-139.0-0.0","85432434","wem/bandit_single","AK3H5QRAROFGP","gain","7","","74","J","1","","0","0","1","0.2649828438","","false","102","0.2034833152","","main_expt","0.2649828438","","0.3371086545","","0.2146692458","","","","","","",""
"62","","bandit","178","639731","0.0-140.0-0.0","85432434","wem/bandit_single","AK3H5QRAROFGP","gain","7","","74","J","1","","0","0","1","0.1977849252","","false","103","0.2510503681","","main_expt","0.1977849252","","0.2925399581","","0.2194044235","","","","","","",""
"377","","bandit","179","641870","0.0-141.0-0.0","85432434","wem/bandit_single","AK3H5QRAROFGP","gain","7","","75","K","2","","0","0","1","0.229866195","","false","104","0.2563420723","","main_expt","0.164180841","","0.229866195","","0.2869514305","","","","","","",""
"120","","bandit","180","643757","0.0-142.0-0.0","85432434","wem/bandit_single","AK3H5QRAROFGP","gain","7","","75","K","2","","1","0","0","0.2786648232","","false","105","0.2025228913","","main_expt","0.1410880488","","0.2786648232","","0.2577924419","","","","","","",""
"70","","bandit","181","645588","0.0-143.0-0.0","85432434","wem/bandit_single","AK3H5QRAROFGP","gain","7","","75","K","2","","0","0","1","0.2907959635","","false","106","0.2288818116","","main_expt","0.2151151798","","0.2907959635","","0.2984789445","","","","","","",""
"74","","bandit","182","647420","0.0-144.0-0.0","85432434","wem/bandit_single","AK3H5QRAROFGP","gain","7","","75","K","2","","0","0","1","0.2934471614","","false","107","0.2725684277","","main_expt","0.2068678097","","0.2934471614","","0.2483059356","","","","","","",""
"80","","bandit","183","649258","0.0-145.0-0.0","85432434","wem/bandit_single","AK3H5QRAROFGP","gain","7","","76","L","3","","0","0","1","0.2177203031","","false","108","0.2725367566","","main_expt","0.1775779384","","0.2761460559","","0.2177203031","","","","","","",""
"68","","bandit","184","651089","0.0-146.0-0.0","85432434","wem/bandit_single","AK3H5QRAROFGP","gain","7","","76","L","3","","0","0","1","0.2155336726","","false","109","0.2645412755","","main_expt","0.1633907035","","0.3154055318","","0.2155336726","","","","","","",""
"68","","bandit","185","652918","0.0-147.0-0.0","85432434","wem/bandit_single","AK3H5QRAROFGP","gain","7","","72","H","0","img/none_selected.jpg","0","0","1","0.2537238549","","false","110","0.2537238549","","main_expt","0.1918139944","","0.3375256398","","0.2012134729","","","","","","",""
"44","","bandit","186","654720","0.0-148.0-0.0","85432434","wem/bandit_single","AK3H5QRAROFGP","gain","7","","72","H","0","img/none_selected.jpg","0","0","1","0.2404930496","","false","111","0.2404930496","","main_expt","0.1512725872","","0.3575411602","","0.1362677005","","","","","","",""
"44","","bandit","187","656525","0.0-149.0-0.0","85432434","wem/bandit_single","AK3H5QRAROFGP","gain","7","","74","J","1","","0","0","1","0.1579322392","","false","112","0.2031918028","","main_expt","0.1579322392","","0.3357984678","","0.1146466799","","","","","","",""
"64","","bandit","188","658349","0.0-150.0-0.0","85432434","wem/bandit_single","AK3H5QRAROFGP","gain","7","","74","J","1","","0","0","1","0.1638150459","","false","113","0.2649243105","","main_expt","0.1638150459","","0.2950954247","","0.1503083978","","","","","","",""
"253","","bandit","189","660362","0.0-151.0-0.0","85432434","wem/bandit_single","AK3H5QRAROFGP","gain","7","","75","K","2","","0","0","1","0.3242299597","","false","114","0.2669290767","","main_expt","0.1913716077","","0.3242299597","","0.1750780752","","","","","","",""
"154","","bandit","190","662280","0.0-152.0-0.0","85432434","wem/bandit_single","AK3H5QRAROFGP","gain","7","","75","K","2","","1","0","0","0.3224166769","","false","115","0.2538219684","","main_expt","0.1762938339","","0.3224166769","","0.1486636943","","","","","","",""
"54","","bandit","191","664091","0.0-153.0-0.0","85432434","wem/bandit_single","AK3H5QRAROFGP","gain","7","","75","K","2","","1","0","0","0.3512221687","","false","116","0.2987800907","","main_expt","0.1696576366","","0.3512221687","","0.149377163","","","","","","",""
"71","","bandit","192","665921","0.0-154.0-0.0","85432434","wem/bandit_single","AK3H5QRAROFGP","gain","7","","75","K","2","","0","0","1","0.3854596622","","false","117","0.2863147972","","main_expt","0.1743908607","","0.3854596622","","0.1255156769","","","","","","",""
"44","","bandit","193","667725","0.0-155.0-0.0","85432434","wem/bandit_single","AK3H5QRAROFGP","gain","7","","75","K","2","","1","0","0","0.3311459155","","false","118","0.2863485017","","main_expt","0.2187419408","","0.3311459155","","0.09405737873","","","","","","",""
"53","","bandit","194","669535","0.0-156.0-0.0","85432434","wem/bandit_single","AK3H5QRAROFGP","gain","7","","75","K","2","","0","0","1","0.3243143835","","false","119","0.2704451175","","main_expt","0.2602037773","","0.3243143835","","0.0580133569","","","","","","",""
"115","","bandit","195","671411","0.0-157.0-0.0","85432434","wem/bandit_single","AK3H5QRAROFGP","gain","7","","75","K","2","","0","0","1","0.3830596167","","false","120","0.2545920365","","main_expt","0.2665240463","","0.3830596167","","0.04965982272","","","","","","",""
"50","","bandit","196","673221","0.0-158.0-0.0","85432434","wem/bandit_single","AK3H5QRAROFGP","gain","7","","75","K","2","","1","0","0","0.4451194006","","false","121","0.323502768","","main_expt","0.2300357123","","0.4451194006","","0.05452098248","","","","","","",""
"32","","bandit","197","675009","0.0-159.0-0.0","85432434","wem/bandit_single","AK3H5QRAROFGP","gain","7","","75","K","2","","1","0","0","0.4636898934","","false","122","0.3380353075","","main_expt","0.2071140152","","0.4636898934","","0.0475995955","","","","","","",""
"24","","bandit","198","676794","0.0-160.0-0.0","85432434","wem/bandit_single","AK3H5QRAROFGP","gain","7","","75","K","2","","1","0","0","0.4384370655","","false","123","0.341491638","","main_expt","0.2590656513","","0.4384370655","","0.04799769062","","","","","","",""
"87","","bandit","199","678641","0.0-161.0-0.0","85432434","wem/bandit_single","AK3H5QRAROFGP","gain","7","","75","K","2","","0","0","1","0.456933673","","false","124","0.3269941981","","main_expt","0.2492473134","","0.456933673","","0.06454195205","","","","","","",""
"97","","bandit","200","680498","0.0-162.0-0.0","85432434","wem/bandit_single","AK3H5QRAROFGP","gain","7","","75","K","2","","0","0","1","0.4834692703","","false","125","0.3263020805","","main_expt","0.2569957816","","0.4834692703","","0.0570469748","","","","","","",""
"188","","bandit","201","682447","0.0-163.0-0.0","85432434","wem/bandit_single","AK3H5QRAROFGP","gain","7","","75","K","2","","1","0","0","0.4895912119","","false","126","0.3377655475","","main_expt","0.2715808503","","0.4895912119","","0.06214194377","","","","","","",""
"97","","bandit","202","684304","0.0-164.0-0.0","85432434","wem/bandit_single","AK3H5QRAROFGP","gain","7","","75","K","2","","1","0","0","0.4791977258","","false","127","0.3489319456","","main_expt","0.3260406689","","0.4791977258","","0.06219251386","","","","","","",""
"110","","bandit","203","686171","0.0-165.0-0.0","85432434","wem/bandit_single","AK3H5QRAROFGP","gain","7","","75","K","2","","1","0","0","0.4772399827","","false","128","0.3450526125","","main_expt","0.3487232841","","0.4772399827","","0.06192095676","","","","","","",""
"106","","bandit","204","688036","0.0-166.0-0.0","85432434","wem/bandit_single","AK3H5QRAROFGP","gain","7","","75","K","2","","0","0","1","0.4688955373","","false","129","0.3297424559","","main_expt","0.3601162145","","0.4688955373","","0.03846933599","","","","","","",""
"86","","bandit","205","689889","0.0-167.0-0.0","85432434","wem/bandit_single","AK3H5QRAROFGP","gain","7","","75","K","2","","0","0","1","0.4651179545","","false","130","0.3731420779","","main_expt","0.4185413006","","0.4651179545","","0.02330960587","","","","","","",""
"89","","bandit","206","691736","0.0-168.0-0.0","85432434","wem/bandit_single","AK3H5QRAROFGP","gain","7","","75","K","2","","1","0","0","0.4794739162","","false","131","0.325638262","","main_expt","0.4537663544","","0.4794739162","","0.03495479357","","","","","","",""
"87","","bandit","207","693582","0.0-169.0-0.0","85432434","wem/bandit_single","AK3H5QRAROFGP","gain","7","","75","K","2","","1","0","0","0.4679846252","","false","132","0.3132782049","","main_expt","0.4489861829","","0.4679846252","","0.02752519027","","","","","","",""
"67","","bandit","208","695406","0.0-170.0-0.0","85432434","wem/bandit_single","AK3H5QRAROFGP","gain","7","","75","K","2","","0","0","1","0.4636487781","","false","133","0.3552481716","","main_expt","0.4465240103","","0.4636487781","","0.03239645132","","","","","","",""
"55","","bandit","209","697218","0.0-171.0-0.0","85432434","wem/bandit_single","AK3H5QRAROFGP","gain","7","","75","K","2","","0","0","1","0.4578614037","","false","134","0.3478795997","","main_expt","0.4286255731","","0.4578614037","","0.02361228775","","","","","","",""
"35","","bandit","210","699012","0.0-172.0-0.0","85432434","wem/bandit_single","AK3H5QRAROFGP","gain","7","","75","K","2","","1","0","0","0.4339873336","","false","135","0.3394088604","","main_expt","0.3969320342","","0.4339873336","","0.01378345967","","","","","","",""
"15","","bandit","211","700807","0.0-173.0-0.0","85432434","wem/bandit_single","AK3H5QRAROFGP","gain","7","","75","K","2","","1","0","0","0.4091277288","","false","136","0.3739095734","","main_expt","0.3975573163","","0.4091277288","","0.01349892684","","","","","","",""
"276","","bandit","212","702861","0.0-174.0-0.0","85432434","wem/bandit_single","AK3H5QRAROFGP","gain","7","","75","K","2","","0","0","1","0.4024864596","","false","137","0.3319731639","","main_expt","0.4226438881","","0.4024864596","","0.01373747566","","","","","","",""
"124","","bandit","213","704742","0.0-175.0-0.0","85432434","wem/bandit_single","AK3H5QRAROFGP","gain","7","","75","K","2","","0","0","1","0.3793932322","","false","138","0.3427854578","","main_expt","0.383622376","","0.3793932322","","0.009346923256","","","","","","",""
"65","","bandit","214","706565","0.0-176.0-0.0","85432434","wem/bandit_single","AK3H5QRAROFGP","gain","7","","75","K","2","","1","0","0","0.3940691536","","false","139","0.2804250852","","main_expt","0.3892077266","","0.3940691536","","0.005947695369","","","","","","",""
"254","","bandit","215","708578","0.0-177.0-0.0","85432434","wem/bandit_single","AK3H5QRAROFGP","gain","7","","75","K","2","","0","0","1","0.3878174143","","false","140","0.294489168","","main_expt","0.3721285976","","0.3878174143","","0.003062149202","","","","","","",""
"68","","bandit","216","710405","0.0-178.0-0.0","85432434","wem/bandit_single","AK3H5QRAROFGP","gain","7","","75","K","2","","0","0","1","0.3671315422","","false","141","0.2849233321","","main_expt","0.403063379","","0.3671315422","","0.003723800288","","","","","","",""
"83","","bandit","217","712251","0.0-179.0-0.0","85432434","wem/bandit_single","AK3H5QRAROFGP","gain","7","","75","K","2","","1","0","0","0.338830911","","false","142","0.2605380125","","main_expt","0.3916907223","","0.338830911","","0.003048460602","","","","","","",""
"63","","bandit","218","714074","0.0-180.0-0.0","85432434","wem/bandit_single","AK3H5QRAROFGP","gain","7","","75","K","2","","0","0","1","0.2709557481","","false","143","0.3030740536","","main_expt","0.4212357341","","0.2709557481","","0.002664125267","","","","","","",""
"51","","bandit","219","715882","0.0-181.0-0.0","85432434","wem/bandit_single","AK3H5QRAROFGP","gain","7","","75","K","2","","1","0","0","0.249986241","","false","144","0.29766321","","main_expt","0.3944164323","","0.249986241","","0.0015633636","","","","","","",""
"15","","bandit","220","717657","0.0-182.0-0.0","85432434","wem/bandit_single","AK3H5QRAROFGP","gain","7","","75","K","2","","0","0","1","0.2694710106","","false","145","0.2862291296","","main_expt","0.4129391908","","0.2694710106","","0.002084593646","","","","","","",""
"60","","bandit","221","719480","0.0-183.0-0.0","85432434","wem/bandit_single","AK3H5QRAROFGP","gain","7","","75","K","2","","1","0","0","0.3099728414","","false","146","0.3151642481","","main_expt","0.4027876266","","0.3099728414","","0.0008356934022","","","","","","",""
"64","","bandit","222","721311","0.0-184.0-0.0","85432434","wem/bandit_single","AK3H5QRAROFGP","gain","7","","75","K","2","","0","0","1","0.3010760093","","false","147","0.3261334855","","main_expt","0.3906291495","","0.3010760093","","0.00187417998","","","","","","",""
"49","","bandit","223","723120","0.0-185.0-0.0","85432434","wem/bandit_single","AK3H5QRAROFGP","gain","7","","75","K","2","","0","0","1","0.2861733563","","false","148","0.3605999671","","main_expt","0.3718958907","","0.2861733563","","0.001549413081","","","","","","",""
"275","","bandit","224","725155","0.0-186.0-0.0","85432434","wem/bandit_single","AK3H5QRAROFGP","gain","7","","76","L","3","","0","0","1","0.002318569837","","false","149","0.3848975894","","main_expt","0.3513552953","","0.2613296644","","0.002318569837","","","","","","",""
"500","","bandit","225","727420","0.0-187.0-0.0","85432434","wem/bandit_single","AK3H5QRAROFGP","gain","7","","72","H","0","img/none_selected.jpg","1","0","0","0.3680345664","","false","150","0.3680345664","","main_expt","0.3796712552","","0.2955554784","","0.002401941109","","","","","","",""
"68","","bandit","226","729247","0.0-188.0-0.0","85432434","wem/bandit_single","AK3H5QRAROFGP","gain","7","","72","H","0","img/none_selected.jpg","0","0","1","0.3517559312","","false","151","0.3517559312","","main_expt","0.4275550045","","0.2928365899","","0.002416650241","","","","","","",""
"73","","bandit","227","731088","0.0-189.0-0.0","85432434","wem/bandit_single","AK3H5QRAROFGP","gain","7","","72","H","0","img/none_selected.jpg","0","0","1","0.3963282571","","false","152","0.3963282571","","main_expt","0.4266807854","","0.3000067833","","0.002533271813","","","","","","",""
"42","","bandit","228","732890","0.0-190.0-0.0","85432434","wem/bandit_single","AK3H5QRAROFGP","gain","7","","72","H","0","img/none_selected.jpg","0","0","1","0.432842039","","false","153","0.432842039","","main_expt","0.4633151701","","0.2757802357","","0.00322942279","","","","","","",""
"46","","bandit","229","734693","0.0-191.0-0.0","85432434","wem/bandit_single","AK3H5QRAROFGP","gain","7","","74","J","1","","1","0","0","0.4723469507","","false","154","0.4134551824","","main_expt","0.4723469507","","0.3252288772","","0.003404333974","","","","","","",""
"510","","bandit","230","736962","0.0-192.0-0.0","85432434","wem/bandit_single","AK3H5QRAROFGP","gain","7","","74","J","1","","1","0","0","0.4829251431","","false","155","0.426737857","","main_expt","0.4829251431","","0.2746928085","","0.008925030754","","","","","","",""
"167","","bandit","231","738893","0.0-193.0-0.0","85432434","wem/bandit_single","AK3H5QRAROFGP","gain","7","","74","J","1","","0","0","1","0.4753947098","","false","156","0.4289541051","","main_expt","0.4753947098","","0.2881451241","","0.005317619152","","","","","","",""
"51","","bandit","232","740707","0.0-194.0-0.0","85432434","wem/bandit_single","AK3H5QRAROFGP","gain","7","","74","J","1","","0","0","1","0.4686295074","","false","157","0.4593738684","","main_expt","0.4686295074","","0.2861132768","","0.002657446392","","","","","","",""
"43","","bandit","233","742546","0.0-195.0-0.0","85432434","wem/bandit_single","AK3H5QRAROFGP","gain","7","","74","J","1","","0","0","1","0.4746137902","","false","158","0.4716769587","","main_expt","0.4746137902","","0.2382703247","","0.005349678466","","","","","","",""
"93","","bandit","234","744402","0.0-196.0-0.0","85432434","wem/bandit_single","AK3H5QRAROFGP","gain","7","","75","K","2","","0","0","1","0.2650616746","","false","159","0.4566829936","","main_expt","0.4626257703","","0.2650616746","","0.00353293949","","","","","","",""
"63","","bandit","235","746225","0.0-197.0-0.0","85432434","wem/bandit_single","AK3H5QRAROFGP","gain","7","","75","K","2","","1","0","0","0.2841227011","","false","160","0.4684401337","","main_expt","0.4690497323","","0.2841227011","","0.004525880368","","","","","","",""
"51","","bandit","236","748037","0.0-198.0-0.0","85432434","wem/bandit_single","AK3H5QRAROFGP","gain","7","","75","K","2","","1","0","0","0.3103310899","","false","161","0.4327192474","","main_expt","0.4605728382","","0.3103310899","","0.00364468733","","","","","","",""
"78","","bandit","237","749876","0.0-199.0-0.0","85432434","wem/bandit_single","AK3H5QRAROFGP","gain","7","","75","K","2","","0","0","1","0.2990864795","","false","162","0.4158578039","","main_expt","0.4663204896","","0.2990864795","","0.004567203872","","","","","","",""
"58","","bandit","238","751705","0.0-200.0-0.0","85432434","wem/bandit_single","AK3H5QRAROFGP","gain","7","","75","K","2","","0","0","1","0.2650304997","","false","163","0.4206849782","","main_expt","0.4626626357","","0.2650304997","","0.003538815","","","","","","",""
"486","","bandit","239","753949","0.0-201.0-0.0","85432434","wem/bandit_single","AK3H5QRAROFGP","gain","7","","75","K","2","","1","0","0","0.2877519924","","false","164","0.4276923589","","main_expt","0.4672680551","","0.2877519924","","0.002896615325","","","","","","",""
"84","","bandit","240","755791","0.0-202.0-0.0","85432434","wem/bandit_single","AK3H5QRAROFGP","gain","7","","75","K","2","","0","0","1","0.2818109827","","false","165","0.4204466813","","main_expt","0.455015491","","0.2818109827","","0.004500484281","","","","","","",""
"306","","bandit","241","757856","0.0-203.0-0.0","85432434","wem/bandit_single","AK3H5QRAROFGP","gain","7","","75","K","2","","0","0","1","0.324785045","","false","166","0.4229734844","","main_expt","0.4201800218","","0.324785045","","0.01017739848","","","","","","",""
"216","","bandit","242","759844","0.0-204.0-0.0","85432434","wem/bandit_single","AK3H5QRAROFGP","gain","7","","75","K","2","","0","0","1","0.3339304688","","false","167","0.4474449943","","main_expt","0.4430085171","","0.3339304688","","0.0129517719","","","","","","",""
"386","","bandit","243","761989","0.0-205.0-0.0","85432434","wem/bandit_single","AK3H5QRAROFGP","gain","7","","76","L","3","","0","0","1","0.009045291763","","false","168","0.4458086367","","main_expt","0.4526671473","","0.3351003476","","0.009045291763","","","","","","",""
"142","","bandit","244","763889","0.0-206.0-0.0","85432434","wem/bandit_single","AK3H5QRAROFGP","gain","7","","76","L","3","","0","0","1","0.01553154223","","false","169","0.4619433307","","main_expt","0.4477525289","","0.3556935824","","0.01553154223","","","","","","",""
"231","","bandit","245","765883","0.0-207.0-0.0","85432434","wem/bandit_single","AK3H5QRAROFGP","gain","7","","72","H","0","img/none_selected.jpg","0","0","1","0.4703570947","","false","170","0.4703570947","","main_expt","0.41154262","","0.3690608098","","0.01787531072","","","","","","",""
"120","","bandit","246","767761","0.0-208.0-0.0","85432434","wem/bandit_single","AK3H5QRAROFGP","gain","7","","72","H","0","img/none_selected.jpg","0","0","1","0.474742395","","false","171","0.474742395","","main_expt","0.37868858","","0.3631266209","","0.01316551092","","","","","","",""
"166","","bandit","247","769693","0.0-209.0-0.0","85432434","wem/bandit_single","AK3H5QRAROFGP","gain","7","","74","J","1","","0","0","1","0.3971498268","","false","172","0.4773845315","","main_expt","0.3971498268","","0.3392191481","","0.0172037691","","","","","","",""
"118","","bandit","248","771570","0.0-210.0-0.0","85432434","wem/bandit_single","AK3H5QRAROFGP","gain","7","","74","J","1","","0","0","1","0.4319579383","","false","173","0.4680058345","","main_expt","0.4319579383","","0.2931772585","","0.01427011775","","","","","","",""
"124","","bandit","249","773453","0.0-211.0-0.0","85432434","wem/bandit_single","AK3H5QRAROFGP","gain","7","","75","K","2","","0","0","1","0.2750831853","","false","174","0.4561145842","","main_expt","0.4174714043","","0.2750831853","","0.01057019218","","","","","","",""
"259","","bandit","250","775471","0.0-212.0-0.0","85432434","wem/bandit_single","AK3H5QRAROFGP","gain","7","","75","K","2","","0","0","1","0.2997345097","","false","175","0.472279608","","main_expt","0.3846013355","","0.2997345097","","0.007255369755","","","","","","",""
"80","","bandit","251","777312","0.0-213.0-0.0","85432434","wem/bandit_single","AK3H5QRAROFGP","gain","7","","76","L","3","","0","0","1","0.01305273867","","false","176","0.4602447812","","main_expt","0.4019342833","","0.3402413884","","0.01305273867","","","","","","",""
"288","","bandit","252","779359","0.0-214.0-0.0","85432434","wem/bandit_single","AK3H5QRAROFGP","gain","7","","76","L","3","","0","0","1","0.0133150908","","false","177","0.4343313091","","main_expt","0.4211485366","","0.3099882557","","0.0133150908","","","","","","",""
"137","","bandit","253","781265","0.0-215.0-0.0","85432434","wem/bandit_single","AK3H5QRAROFGP","gain","7","","72","H","0","img/none_selected.jpg","0","0","1","0.4048428007","","false","178","0.4048428007","","main_expt","0.4133977621","","0.2761175095","","0.01259822705","","","","","","",""
"189","","bandit","254","783216","0.0-216.0-0.0","85432434","wem/bandit_single","AK3H5QRAROFGP","gain","7","","72","H","0","img/none_selected.jpg","1","0","0","0.3826353834","","false","179","0.3826353834","","main_expt","0.4395013083","","0.3053987856","","0.008971211221","","","","","","",""
"115","","bandit","255","785088","0.0-217.0-0.0","85432434","wem/bandit_single","AK3H5QRAROFGP","gain","7","","72","H","0","img/none_selected.jpg","1","0","0","0.3352628501","","false","180","0.3352628501","","main_expt","0.4385200931","","0.291880519","","0.01053614943","","","","","","",""
"107","","bandit","256","786956","0.0-218.0-0.0","85432434","wem/bandit_single","AK3H5QRAROFGP","gain","7","","72","H","0","img/none_selected.jpg","0","0","1","0.2990499081","","false","181","0.2990499081","","main_expt","0.4225113135","","0.298429346","","0.01184041186","","","","","","",""
"167","","bandit","257","788883","0.0-219.0-0.0","85432434","wem/bandit_single","AK3H5QRAROFGP","gain","7","","72","H","0","img/none_selected.jpg","1","0","0","0.3698835663","","false","182","0.3698835663","","main_expt","0.3723799893","","0.3343264324","","0.03042574256","","","","","","",""
"68","","bandit","258","790730","0.0-220.0-0.0","85432434","wem/bandit_single","AK3H5QRAROFGP","gain","7","","72","H","0","img/none_selected.jpg","0","0","1","0.3849917371","","false","183","0.3849917371","","main_expt","0.3790924375","","0.2890729732","","0.03286829004","","","","","","",""
"121","","bandit","259","792615","0.0-221.0-0.0","85432434","wem/bandit_single","AK3H5QRAROFGP","gain","7","","72","H","0","img/none_selected.jpg","0","0","1","0.3560661239","","false","184","0.3560661239","","main_expt","0.4122006093","","0.1975841231","","0.05565884368","","","","","","",""
"314","","bandit","260","794689","0.0-222.0-0.0","85432434","wem/bandit_single","AK3H5QRAROFGP","gain","7","","72","H","0","img/none_selected.jpg","0","0","1","0.3637043243","","false","185","0.3637043243","","main_expt","0.3681720139","","0.213981158","","0.05703602855","","","","","","",""
"92","","bandit","261","796557","0.0-223.0-0.0","85432434","wem/bandit_single","AK3H5QRAROFGP","gain","7","","74","J","1","","1","0","0","0.3735732413","","false","186","0.370254809","","main_expt","0.3735732413","","0.1690135127","","0.08167625523","","","","","","",""
"95","","bandit","262","798417","0.0-224.0-0.0","85432434","wem/bandit_single","AK3H5QRAROFGP","gain","7","","74","J","1","","0","0","1","0.3763431734","","false","187","0.3451477914","","main_expt","0.3763431734","","0.2606776113","","0.08146612985","","","","","","",""
"73","","bandit","263","800258","0.0-225.0-0.0","85432434","wem/bandit_single","AK3H5QRAROFGP","gain","7","","74","J","1","","1","0","0","0.3515668436","","false","188","0.3939300048","","main_expt","0.3515668436","","0.2431197375","","0.09365986726","","","","","","",""
"318","","bandit","264","802335","0.0-226.0-0.0","85432434","wem/bandit_single","AK3H5QRAROFGP","gain","7","","74","J","1","","1","0","0","0.3343836861","","false","189","0.4136030152","","main_expt","0.3343836861","","0.2308206277","","0.09268069957","","","","","","",""
"32","","bandit","265","804127","0.0-227.0-0.0","85432434","wem/bandit_single","AK3H5QRAROFGP","gain","7","","74","J","1","","0","0","1","0.2525345787","","false","190","0.4261376259","","main_expt","0.2525345787","","0.2025271702","","0.08594859785","","","","","","",""
"94","","bandit","266","805980","0.0-228.0-0.0","85432434","wem/bandit_single","AK3H5QRAROFGP","gain","7","","74","J","1","","0","0","1","0.2685183708","","false","191","0.3908696756","","main_expt","0.2685183708","","0.2751540988","","0.08932588753","","","","","","",""
"107","","bandit","267","807847","0.0-229.0-0.0","85432434","wem/bandit_single","AK3H5QRAROFGP","gain","7","","74","J","1","","0","0","1","0.2572514827","","false","192","0.4106222578","","main_expt","0.2572514827","","0.2569606715","","0.1064261942","","","","","","",""
"200","","bandit","268","809819","0.0-230.0-0.0","85432434","wem/bandit_single","AK3H5QRAROFGP","gain","7","","75","K","2","","1","0","0","0.2874900681","","false","193","0.4282135821","","main_expt","0.1969756064","","0.2874900681","","0.1536879749","","","","","","",""
"32","","bandit","269","811624","0.0-231.0-0.0","85432434","wem/bandit_single","AK3H5QRAROFGP","gain","7","","75","K","2","","1","0","0","0.1735349233","","false","194","0.4423695223","","main_expt","0.2134952627","","0.1735349233","","0.1389913839","","","","","","",""
"50","","bandit","270","813441","0.0-232.0-0.0","85432434","wem/bandit_single","AK3H5QRAROFGP","gain","7","","75","K","2","","0","0","1","0.1922880567","","false","195","0.4594299266","","main_expt","0.1620875807","","0.1922880567","","0.1439418744","","","","","","",""
"58","","bandit","271","815257","0.0-233.0-0.0","85432434","wem/bandit_single","AK3H5QRAROFGP","gain","7","","75","K","2","","0","0","1","0.180833075","","false","196","0.4446405127","","main_expt","0.166822232","","0.180833075","","0.131143091","","","","","","",""
"69","","bandit","272","817085","0.0-234.0-0.0","85432434","wem/bandit_single","AK3H5QRAROFGP","gain","7","","75","K","2","","0","0","1","0.2213655201","","false","197","0.4559667881","","main_expt","0.1951417713","","0.2213655201","","0.1358316141","","","","","","",""
"84","","bandit","273","818928","0.0-235.0-0.0","85432434","wem/bandit_single","AK3H5QRAROFGP","gain","7","","76","L","3","","0","0","1","0.1271866158","","false","198","0.4760465659","","main_expt","0.1946571809","","0.1886922679","","0.1271866158","","","","","","",""
"61","","bandit","274","820750","0.0-236.0-0.0","85432434","wem/bandit_single","AK3H5QRAROFGP","gain","7","","76","L","3","","0","0","1","0.1427164763","","false","199","0.4682530898","","main_expt","0.125569753","","0.1960792333","","0.1427164763","","","","","","",""
"68","","bandit","275","822600","0.0-237.0-0.0","85432434","wem/bandit_single","AK3H5QRAROFGP","gain","7","","76","L","3","","1","0","0","0.1465126473","","false","200","0.4722721777","","main_expt","0.110010897","","0.2093645874","","0.1465126473","","","","","","",""
"93","","bandit","276","824463","0.0-238.0-0.0","85432434","wem/bandit_single","AK3H5QRAROFGP","gain","7","","76","L","3","","0","0","1","0.1271257608","","false","201","0.4739800601","","main_expt","0.1280762957","","0.1673165995","","0.1271257608","","","","","","",""
"106","","bandit","277","826327","0.0-239.0-0.0","85432434","wem/bandit_single","AK3H5QRAROFGP","gain","7","","76","L","3","","0","0","1","0.08657179739","","false","202","0.479726886","","main_expt","0.1402913484","","0.2086438453","","0.08657179739","","","","","","",""
"406","","bandit","278","828492","0.0-240.0-0.0","85432434","wem/bandit_single","AK3H5QRAROFGP","gain","7","","76","L","3","","0","0","1","0.09313456927","","false","203","0.4642372742","","main_expt","0.2217412738","","0.1973992815","","0.09313456927","","","","","","",""
"100","","bandit","279","830351","0.0-241.0-0.0","85432434","wem/bandit_single","AK3H5QRAROFGP","gain","7","","72","H","0","img/none_selected.jpg","1","0","0","0.4560882558","","false","204","0.4560882558","","main_expt","0.2231628045","","0.2256674954","","0.1497906572","","","","","","",""
"86","","bandit","280","832198","0.0-242.0-0.0","85432434","wem/bandit_single","AK3H5QRAROFGP","gain","7","","72","H","0","img/none_selected.jpg","1","0","0","0.4525737262","","false","205","0.4525737262","","main_expt","0.2170181201","","0.2163874892","","0.1829644856","","","","","","",""
"92","","bandit","281","834049","0.0-243.0-0.0","85432434","wem/bandit_single","AK3H5QRAROFGP","gain","7","","72","H","0","img/none_selected.jpg","1","0","0","0.4550624295","","false","206","0.4550624295","","main_expt","0.2796725078","","0.2197086186","","0.1612057882","","","","","","",""
"75","","bandit","282","835886","0.0-244.0-0.0","85432434","wem/bandit_single","AK3H5QRAROFGP","gain","7","","72","H","0","img/none_selected.jpg","0","0","1","0.4723612306","","false","207","0.4723612306","","main_expt","0.2817680811","","0.2065154411","","0.1697938272","","","","","","",""
"37","","bandit","283","837684","0.0-245.0-0.0","85432434","wem/bandit_single","AK3H5QRAROFGP","gain","7","","72","H","0","img/none_selected.jpg","1","0","0","0.4766034411","","false","208","0.4766034411","","main_expt","0.2823403198","","0.1685179651","","0.1559958766","","","","","","",""
"78","","bandit","284","839520","0.0-246.0-0.0","85432434","wem/bandit_single","AK3H5QRAROFGP","gain","7","","72","H","0","img/none_selected.jpg","1","0","0","0.483515399","","false","209","0.483515399","","main_expt","0.3618902866","","0.138461816","","0.1446830505","","","","","","",""
"8","","bandit","285","841292","0.0-247.0-0.0","85432434","wem/bandit_single","AK3H5QRAROFGP","gain","7","","72","H","0","img/none_selected.jpg","1","0","0","0.4880418707","","false","210","0.4880418707","","main_expt","0.373554641","","0.1494322788","","0.1231196185","","","","","","",""
"520","","bandit","286","843575","0.0-248.0-0.0","85432434","wem/bandit_single","AK3H5QRAROFGP","gain","7","","72","H","0","img/none_selected.jpg","1","0","0","0.4802592994","","false","211","0.4802592994","","main_expt","0.4160488284","","0.1799359977","","0.1456244431","","","","","","",""
"108","","bandit","287","845441","0.0-249.0-0.0","85432434","wem/bandit_single","AK3H5QRAROFGP","gain","7","","72","H","0","img/none_selected.jpg","0","0","1","0.4738887763","","false","212","0.4738887763","","main_expt","0.381710399","","0.1810857181","","0.1656867557","","","","","","",""
"108","","bandit","288","847312","0.0-250.0-0.0","85432434","wem/bandit_single","AK3H5QRAROFGP","gain","7","","72","H","0","img/none_selected.jpg","0","0","1","0.4808850683","","false","213","0.4808850683","","main_expt","0.3769148707","","0.1615137558","","0.224977978","","","","","","",""
"24","","bandit","289","849095","0.0-251.0-0.0","85432434","wem/bandit_single","AK3H5QRAROFGP","gain","7","","72","H","0","img/none_selected.jpg","0","0","1","0.4825694391","","false","214","0.4825694391","","main_expt","0.3476207329","","0.1650702933","","0.307554285","","","","","","",""
"51","","bandit","290","850907","0.0-252.0-0.0","85432434","wem/bandit_single","AK3H5QRAROFGP","gain","7","","74","J","1","","0","0","1","0.3089741626","","false","215","0.4847107186","","main_expt","0.3089741626","","0.1804791034","","0.3638187162","","","","","","",""
"65","","bandit","291","852738","0.0-253.0-0.0","85432434","wem/bandit_single","AK3H5QRAROFGP","gain","7","","74","J","1","","0","0","1","0.3674618518","","false","216","0.4809007894","","main_expt","0.3674618518","","0.1573161505","","0.3543809852","","","","","","",""
"79","","bandit","292","854577","0.0-254.0-0.0","85432434","wem/bandit_single","AK3H5QRAROFGP","gain","7","","75","K","2","","0","0","1","0.1434716653","","false","217","0.4741770765","","main_expt","0.3283657719","","0.1434716653","","0.3301156576","","","","","","",""
"29","","bandit","293","856368","0.0-255.0-0.0","85432434","wem/bandit_single","AK3H5QRAROFGP","gain","7","","75","K","2","","0","0","1","0.1911838451","","false","218","0.4819245576","","main_expt","0.3302734852","","0.1911838451","","0.3132999057","","","","","","",""
"601","","bandit","294","858733","0.0-256.0-0.0","85432434","wem/bandit_single","AK3H5QRAROFGP","gain","7","","76","L","3","","0","0","1","0.2205266592","","false","219","0.4793241995","","main_expt","0.3554571327","","0.1441129831","","0.2205266592","","","","","","",""
"97","","bandit","295","860597","0.0-257.0-0.0","85432434","wem/bandit_single","AK3H5QRAROFGP","gain","7","","76","L","3","","0","0","1","0.2167078271","","false","220","0.4713672071","","main_expt","0.319330444","","0.1920309772","","0.2167078271","","","","","","",""
"69","","bandit","296","862428","0.0-258.0-0.0","85432434","wem/bandit_single","AK3H5QRAROFGP","gain","7","","72","H","0","img/none_selected.jpg","1","0","0","0.4728071858","","false","221","0.4728071858","","main_expt","0.3105046037","","0.1770810464","","0.2038989409","","","","","","",""
"66","","bandit","297","864257","0.0-259.0-0.0","85432434","wem/bandit_single","AK3H5QRAROFGP","gain","7","","72","H","0","img/none_selected.jpg","0","0","1","0.4742115633","","false","222","0.4742115633","","main_expt","0.2971369975","","0.1726735039","","0.18760722","","","","","","",""
"63","","bandit","298","866080","0.0-260.0-0.0","85432434","wem/bandit_single","AK3H5QRAROFGP","gain","7","","72","H","0","img/none_selected.jpg","1","0","0","0.4606319974","","false","223","0.4606319974","","main_expt","0.2924153056","","0.1935596247","","0.1794058889","","","","","","",""
"142","","bandit","299","867982","0.0-261.0-0.0","85432434","wem/bandit_single","AK3H5QRAROFGP","gain","7","","72","H","0","img/none_selected.jpg","1","0","0","0.4796626282","","false","224","0.4796626282","","main_expt","0.3251713444","","0.184290804","","0.1973287288","","","","","","",""
"13","","bandit","300","869756","0.0-262.0-0.0","85432434","wem/bandit_single","AK3H5QRAROFGP","gain","7","","72","H","0","img/none_selected.jpg","1","0","0","0.4770938662","","false","225","0.4770938662","","main_expt","0.3191667618","","0.1182631535","","0.1657141015","","","","","","",""
"81","","bandit","301","871598","0.0-263.0-0.0","85432434","wem/bandit_single","AK3H5QRAROFGP","gain","7","","72","H","0","img/none_selected.jpg","1","0","0","0.4753940461","","false","226","0.4753940461","","main_expt","0.3163975521","","0.1243406576","","0.1333985498","","","","","","",""
"63","","bandit","302","873434","0.0-264.0-0.0","85432434","wem/bandit_single","AK3H5QRAROFGP","gain","7","","72","H","0","img/none_selected.jpg","1","0","0","0.4692559414","","false","227","0.4692559414","","main_expt","0.3153023093","","0.1887705619","","0.1426718429","","","","","","",""
"55","","bandit","303","875259","0.0-265.0-0.0","85432434","wem/bandit_single","AK3H5QRAROFGP","gain","7","","72","H","0","img/none_selected.jpg","0","0","1","0.4549715312","","false","228","0.4549715312","","main_expt","0.252814401","","0.1594511678","","0.1510234048","","","","","","",""
"10","","bandit","304","877029","0.0-266.0-0.0","85432434","wem/bandit_single","AK3H5QRAROFGP","gain","7","","72","H","0","img/none_selected.jpg","1","0","0","0.4818432606","","false","229","0.4818432606","","main_expt","0.2830586582","","0.1582092687","","0.1786638104","","","","","","",""
"83","","bandit","305","878872","0.0-267.0-0.0","85432434","wem/bandit_single","AK3H5QRAROFGP","gain","7","","72","H","0","img/none_selected.jpg","1","0","0","0.4542350274","","false","230","0.4542350274","","main_expt","0.2124451555","","0.149178519","","0.1564383184","","","","","","",""
"53","","bandit","306","880687","0.0-268.0-0.0","85432434","wem/bandit_single","AK3H5QRAROFGP","gain","7","","72","H","0","img/none_selected.jpg","1","0","0","0.4646494747","","false","231","0.4646494747","","main_expt","0.1175217461","","0.2063022429","","0.1398607303","","","","","","",""
"66","","bandit","307","882517","0.0-269.0-0.0","85432434","wem/bandit_single","AK3H5QRAROFGP","gain","7","","72","H","0","img/none_selected.jpg","1","0","0","0.4617677548","","false","232","0.4617677548","","main_expt","0.144677577","","0.2424934828","","0.1323980205","","","","","","",""
"52","","bandit","308","884327","0.0-270.0-0.0","85432434","wem/bandit_single","AK3H5QRAROFGP","gain","7","","72","H","0","img/none_selected.jpg","1","0","0","0.4535872836","","false","233","0.4535872836","","main_expt","0.1555092754","","0.2404462099","","0.1510374747","","","","","","",""
"157","","bandit","309","886245","0.0-271.0-0.0","85432434","wem/bandit_single","AK3H5QRAROFGP","gain","7","","72","H","0","img/none_selected.jpg","1","0","0","0.4297764401","","false","234","0.4297764401","","main_expt","0.1250762939","","0.1830028502","","0.133247495","","","","","","",""
"105","","bandit","310","888113","0.0-272.0-0.0","85432434","wem/bandit_single","AK3H5QRAROFGP","gain","7","","72","H","0","img/none_selected.jpg","0","0","1","0.4335441617","","false","235","0.4335441617","","main_expt","0.1094925358","","0.2197419317","","0.1666928205","","","","","","",""
"75","","bandit","311","889948","0.0-273.0-0.0","85432434","wem/bandit_single","AK3H5QRAROFGP","gain","7","","72","H","0","img/none_selected.jpg","1","0","0","0.4390497594","","false","236","0.4390497594","","main_expt","0.09099935704","","0.2537285896","","0.1772374327","","","","","","",""
"64","","bandit","312","891777","0.0-274.0-0.0","85432434","wem/bandit_single","AK3H5QRAROFGP","gain","7","","72","H","0","img/none_selected.jpg","1","0","0","0.4557250369","","false","237","0.4557250369","","main_expt","0.07445530481","","0.2967198922","","0.2093850131","","","","","","",""
"44","","bandit","313","893581","0.0-275.0-0.0","85432434","wem/bandit_single","AK3H5QRAROFGP","gain","7","","72","H","0","img/none_selected.jpg","1","0","0","0.4712934341","","false","238","0.4712934341","","main_expt","0.1160826651","","0.2716881628","","0.2323540058","","","","","","",""
"92","","bandit","314","895436","0.0-276.0-0.0","85432434","wem/bandit_single","AK3H5QRAROFGP","gain","7","","72","H","0","img/none_selected.jpg","1","0","0","0.4744109467","","false","239","0.4744109467","","main_expt","0.1935594103","","0.2840113657","","0.2527052166","","","","","","",""
"99","","bandit","315","897294","0.0-277.0-0.0","85432434","wem/bandit_single","AK3H5QRAROFGP","gain","7","","72","H","0","img/none_selected.jpg","1","0","0","0.4856904038","","false","240","0.4856904038","","main_expt","0.2305108235","","0.3274134878","","0.2429338356","","","","","","",""
"81","","bandit","316","899135","0.0-278.0-0.0","85432434","wem/bandit_single","AK3H5QRAROFGP","gain","7","","72","H","0","img/none_selected.jpg","0","0","1","0.474377245","","false","241","0.474377245","","main_expt","0.23744922","","0.3106351565","","0.2422046893","","","","","","",""
"77","","bandit","317","900977","0.0-279.0-0.0","85432434","wem/bandit_single","AK3H5QRAROFGP","gain","7","","72","H","0","img/none_selected.jpg","0","0","1","0.4699498903","","false","242","0.4699498903","","main_expt","0.2644088126","","0.276301991","","0.1974588069","","","","","","",""
"106","","bandit","318","902847","0.0-280.0-0.0","85432434","wem/bandit_single","AK3H5QRAROFGP","gain","7","","72","H","0","img/none_selected.jpg","1","0","0","0.4696131401","","false","243","0.4696131401","","main_expt","0.3029471314","","0.2682550828","","0.1697106736","","","","","","",""
"107","","bandit","319","904725","0.0-281.0-0.0","85432434","wem/bandit_single","AK3H5QRAROFGP","gain","7","","72","H","0","img/none_selected.jpg","1","0","0","0.4519085084","","false","244","0.4519085084","","main_expt","0.2869027424","","0.2717267912","","0.1495066821","","","","","","",""
"71","","bandit","320","906556","0.0-282.0-0.0","85432434","wem/bandit_single","AK3H5QRAROFGP","gain","7","","72","H","0","img/none_selected.jpg","1","0","0","0.4620487724","","false","245","0.4620487724","","main_expt","0.2928347339","","0.2480355477","","0.1664551864","","","","","","",""
"69","","bandit","321","908385","0.0-283.0-0.0","85432434","wem/bandit_single","AK3H5QRAROFGP","gain","7","","72","H","0","img/none_selected.jpg","1","0","0","0.4553277256","","false","246","0.4553277256","","main_expt","0.2537870262","","0.2978011657","","0.1660340973","","","","","","",""
"41","","bandit","322","910184","0.0-284.0-0.0","85432434","wem/bandit_single","AK3H5QRAROFGP","gain","7","","72","H","0","img/none_selected.jpg","1","0","0","0.4470790686","","false","247","0.4470790686","","main_expt","0.220788829","","0.3183795364","","0.2232834288","","","","","","",""
"62","","bandit","323","912005","0.0-285.0-0.0","85432434","wem/bandit_single","AK3H5QRAROFGP","gain","7","","72","H","0","img/none_selected.jpg","0","0","1","0.4370243233","","false","248","0.4370243233","","main_expt","0.2260039815","","0.3496285813","","0.2337066106","","","","","","",""
"74","","bandit","324","913841","0.0-286.0-0.0","85432434","wem/bandit_single","AK3H5QRAROFGP","gain","7","","72","H","0","img/none_selected.jpg","1","0","0","0.4344986606","","false","249","0.4344986606","","main_expt","0.2536259712","","0.3450691196","","0.2555848542","","","","","","",""
"59","","bandit","325","915665","0.0-287.0-0.0","85432434","wem/bandit_single","AK3H5QRAROFGP","gain","7","","72","H","0","img/none_selected.jpg","0","0","1","0.4418367533","","false","250","0.4418367533","","main_expt","0.2748463286","","0.3451339369","","0.2423579198","","","","","","",""
"439","","bandit","326","917867","0.0-288.0-0.0","85432434","wem/bandit_single","AK3H5QRAROFGP","gain","7","","72","H","0","img/none_selected.jpg","1","0","0","0.4227475224","","false","251","0.4227475224","","main_expt","0.2623633266","","0.3928119302","","0.2275025436","","","","","","",""
"94","","bandit","327","919731","0.0-289.0-0.0","85432434","wem/bandit_single","AK3H5QRAROFGP","gain","7","","72","H","0","img/none_selected.jpg","0","0","1","0.423648384","","false","252","0.423648384","","main_expt","0.3173920108","","0.3926241496","","0.2868871138","","","","","","",""
"8","","bandit","328","921505","0.0-290.0-0.0","85432434","wem/bandit_single","AK3H5QRAROFGP","gain","7","","72","H","0","img/none_selected.jpg","1","0","0","0.4321428437","","false","253","0.4321428437","","main_expt","0.3172059241","","0.4074069762","","0.2719675916","","","","","","",""
"107","","bandit","329","923375","0.0-291.0-0.0","85432434","wem/bandit_single","AK3H5QRAROFGP","gain","7","","72","H","0","img/none_selected.jpg","1","0","0","0.4621147124","","false","254","0.4621147124","","main_expt","0.3200237469","","0.3831412703","","0.3118638267","","","","","","",""
"64","","bandit","330","925199","0.0-292.0-0.0","85432434","wem/bandit_single","AK3H5QRAROFGP","gain","7","","72","H","0","img/none_selected.jpg","0","0","1","0.4586218194","","false","255","0.4586218194","","main_expt","0.3358809316","","0.3639457665","","0.2103897122","","","","","","",""
"91","","bandit","331","927052","0.0-293.0-0.0","85432434","wem/bandit_single","AK3H5QRAROFGP","gain","7","","72","H","0","img/none_selected.jpg","1","0","0","0.4661438042","","false","256","0.4661438042","","main_expt","0.3288682213","","0.3353936822","","0.2053105091","","","","","","",""
"75","","bandit","332","928886","0.0-294.0-0.0","85432434","wem/bandit_single","AK3H5QRAROFGP","gain","7","","72","H","0","img/none_selected.jpg","1","0","0","0.4746145216","","false","257","0.4746145216","","main_expt","0.3298558235","","0.3457786028","","0.2101260802","","","","","","",""
"149","","bandit","333","930807","0.0-295.0-0.0","85432434","wem/bandit_single","AK3H5QRAROFGP","gain","7","","72","H","0","img/none_selected.jpg","1","0","0","0.479590246","","false","258","0.479590246","","main_expt","0.3544886593","","0.3336199161","","0.251470712","","","","","","",""
"66","","bandit","334","932660","0.0-296.0-0.0","85432434","wem/bandit_single","AK3H5QRAROFGP","gain","7","","72","H","0","img/none_selected.jpg","0","0","1","0.4543592645","","false","259","0.4543592645","","main_expt","0.3380036538","","0.3182937175","","0.2320991284","","","","","","",""
"82","","bandit","335","934507","0.0-297.0-0.0","85432434","wem/bandit_single","AK3H5QRAROFGP","gain","7","","72","H","0","img/none_selected.jpg","1","0","0","0.4591910344","","false","260","0.4591910344","","main_expt","0.2797544445","","0.3004718715","","0.2850429488","","","","","","",""
"72","","bandit","336","936340","0.0-298.0-0.0","85432434","wem/bandit_single","AK3H5QRAROFGP","gain","7","","72","H","0","img/none_selected.jpg","1","0","0","0.4416244086","","false","261","0.4416244086","","main_expt","0.2594239605","","0.2969538951","","0.3396488321","","","","","","",""
"109","","bandit","337","938209","0.0-299.0-0.0","85432434","wem/bandit_single","AK3H5QRAROFGP","gain","7","","72","H","0","img/none_selected.jpg","0","0","1","0.410126596","","false","262","0.410126596","","main_expt","0.2804023839","","0.336502974","","0.243241633","","","","","","",""
"35","","bandit","338","940008","0.0-300.0-0.0","85432434","wem/bandit_single","AK3H5QRAROFGP","gain","7","","72","H","0","img/none_selected.jpg","1","0","0","0.3852167719","","false","263","0.3852167719","","main_expt","0.2526654216","","0.3417757729","","0.221101122","","","","","","",""
"179","","bandit","339","941948","0.0-301.0-0.0","85432434","wem/bandit_single","AK3H5QRAROFGP","gain","7","","72","H","0","img/none_selected.jpg","1","0","0","0.4048243192","","false","264","0.4048243192","","main_expt","0.2262009497","","0.3288238543","","0.2475963948","","","","","","",""
"275","","bandit","340","943984","0.0-302.0-0.0","85432434","wem/bandit_single","AK3H5QRAROFGP","gain","7","","72","H","0","img/none_selected.jpg","1","0","0","0.3671025299","","false","265","0.3671025299","","main_expt","0.2111455706","","0.2661945806","","0.2472156829","","","","","","",""
"74","","bandit","341","945817","0.0-303.0-0.0","85432434","wem/bandit_single","AK3H5QRAROFGP","gain","7","","72","H","0","img/none_selected.jpg","0","0","1","0.366792141","","false","266","0.366792141","","main_expt","0.1816972253","","0.2831053071","","0.2257792125","","","","","","",""
"99","","bandit","342","947679","0.0-304.0-0.0","85432434","wem/bandit_single","AK3H5QRAROFGP","gain","7","","72","H","0","img/none_selected.jpg","0","0","1","0.3187551676","","false","267","0.3187551676","","main_expt","0.08996407949","","0.2814616526","","0.2434052149","","","","","","",""
"60","","bandit","343","949499","0.0-305.0-0.0","85432434","wem/bandit_single","AK3H5QRAROFGP","gain","7","","72","H","0","img/none_selected.jpg","0","0","1","0.2992927481","","false","268","0.2992927481","","main_expt","0.08316088703","","0.2698532634","","0.2472891614","","","","","","",""
"41","","bandit","344","951313","0.0-306.0-0.0","85432434","wem/bandit_single","AK3H5QRAROFGP","gain","7","","72","H","0","img/none_selected.jpg","0","0","1","0.3158706852","","false","269","0.3158706852","","main_expt","0.132755096","","0.332936287","","0.2592343403","","","","","","",""
"80","","bandit","345","953155","0.0-307.0-0.0","85432434","wem/bandit_single","AK3H5QRAROFGP","gain","7","","74","J","1","","1","0","0","0.1295257529","","false","270","0.3399881701","","main_expt","0.1295257529","","0.3520051328","","0.2626766442","","","","","","",""
"375","","bandit","346","955291","0.0-308.0-0.0","85432434","wem/bandit_single","AK3H5QRAROFGP","gain","7","","74","J","1","","0","0","1","0.1243547369","","false","271","0.3425846673","","main_expt","0.1243547369","","0.319936882","","0.2889536683","","","","","","",""
"144","","bandit","347","957200","0.0-309.0-0.0","85432434","wem/bandit_single","AK3H5QRAROFGP","gain","7","","74","J","1","","0","0","1","0.1129401117","","false","272","0.3661992365","","main_expt","0.1129401117","","0.3526338178","","0.3519527746","","","","","","",""
"65","","bandit","348","959028","0.0-310.0-0.0","85432434","wem/bandit_single","AK3H5QRAROFGP","gain","7","","74","J","1","","0","0","1","0.07602588951","","false","273","0.3548292996","","main_expt","0.07602588951","","0.3661190652","","0.3142239271","","","","","","",""
"367","","bandit","349","961156","0.0-311.0-0.0","85432434","wem/bandit_single","AK3H5QRAROFGP","gain","7","","72","H","0","img/none_selected.jpg","1","0","0","0.3015993901","","false","274","0.3015993901","","main_expt","0.08326080211","","0.3531355024","","0.2858465014","","","","","","",""
"139","","bandit","350","963060","0.0-312.0-0.0","85432434","wem/bandit_single","AK3H5QRAROFGP","gain","7","","72","H","0","img/none_selected.jpg","0","0","1","0.3074537736","","false","275","0.3074537736","","main_expt","0.1117875064","","0.3710682781","","0.2833142968","","","","","","",""
"107","","bandit","351","964928","0.0-313.0-0.0","85432434","wem/bandit_single","AK3H5QRAROFGP","gain","7","","72","H","0","img/none_selected.jpg","0","0","1","0.2995557441","","false","276","0.2995557441","","main_expt","0.1087564456","","0.3039620657","","0.303505508","","","","","","",""
"37","","bandit","352","966730","0.0-314.0-0.0","85432434","wem/bandit_single","AK3H5QRAROFGP","gain","7","","75","K","2","","0","0","1","0.3661174243","","false","277","0.3372524479","","main_expt","0.1402577261","","0.3661174243","","0.2503405658","","","","","","",""
"79","","bandit","353","968571","0.0-315.0-0.0","85432434","wem/bandit_single","AK3H5QRAROFGP","gain","7","","75","K","2","","0","0","1","0.3603903852","","false","278","0.3941332117","","main_expt","0.1639331241","","0.3603903852","","0.2575241406","","","","","","",""
"503","","bandit","354","970834","0.0-316.0-0.0","85432434","wem/bandit_single","AK3H5QRAROFGP","gain","7","","76","L","3","","0","0","1","0.2537993043","","false","279","0.369807449","","main_expt","0.08855821706","","0.3865241344","","0.2537993043","","","","","","",""
"73","","bandit","355","972702","0.0-317.0-0.0","85432434","wem/bandit_single","AK3H5QRAROFGP","gain","7","","76","L","3","","0","0","1","0.1734094061","","false","280","0.3726167961","","main_expt","0.1116659285","","0.3941828848","","0.1734094061","","","","","","",""
"111","","bandit","356","974573","0.0-318.0-0.0","85432434","wem/bandit_single","AK3H5QRAROFGP","gain","7","","72","H","0","img/none_selected.jpg","0","0","1","0.3849966858","","false","281","0.3849966858","","main_expt","0.1032088387","","0.4060440919","","0.1846732939","","","","","","",""
"71","","bandit","357","976411","0.0-319.0-0.0","85432434","wem/bandit_single","AK3H5QRAROFGP","gain","7","","72","H","0","img/none_selected.jpg","0","0","1","0.4081920515","","false","282","0.4081920515","","main_expt","0.1449157137","","0.3855255831","","0.1808782366","","","","","","",""
"66","","bandit","358","978247","0.0-320.0-0.0","85432434","wem/bandit_single","AK3H5QRAROFGP","gain","7","","74","J","1","","0","0","1","0.1649674285","","false","283","0.3930572229","","main_expt","0.1649674285","","0.3694157076","","0.1375342675","","","","","","",""
"334","","bandit","359","980355","0.0-321.0-0.0","85432434","wem/bandit_single","AK3H5QRAROFGP","gain","7","","74","J","1","","0","0","1","0.1373277791","","false","284","0.379410926","","main_expt","0.1373277791","","0.4137550783","","0.1029306966","","","","","","",""
"107","","bandit","360","982249","0.0-322.0-0.0","85432434","wem/bandit_single","AK3H5QRAROFGP","gain","7","","75","K","2","","0","0","1","0.4268254387","","false","285","0.3947179778","","main_expt","0.1616488504","","0.4268254387","","0.08821361919","","","","","","",""
"99","","bandit","361","984108","0.0-323.0-0.0","85432434","wem/bandit_single","AK3H5QRAROFGP","gain","7","","75","K","2","","1","0","0","0.4115685589","","false","286","0.4036344472","","main_expt","0.1306737704","","0.4115685589","","0.08321279743","","","","","","",""
"90","","bandit","362","985967","0.0-324.0-0.0","85432434","wem/bandit_single","AK3H5QRAROFGP","gain","7","","75","K","2","","0","0","1","0.3828423493","","false","287","0.4025981517","","main_expt","0.2059275786","","0.3828423493","","0.0595967864","","","","","","",""
"138","","bandit","363","987864","0.0-325.0-0.0","85432434","wem/bandit_single","AK3H5QRAROFGP","gain","7","","75","K","2","","0","0","1","0.4121581376","","false","288","0.4183513528","","main_expt","0.1892738114","","0.4121581376","","0.06539189492","","","","","","",""
"56","","bandit","364","989696","0.0-326.0-0.0","85432434","wem/bandit_single","AK3H5QRAROFGP","gain","7","","75","K","2","","0","0","1","0.4227758831","","false","289","0.4516793017","","main_expt","0.1656659279","","0.4227758831","","0.06484578344","","","","","","",""
"69","","bandit","365","991524","0.0-327.0-0.0","85432434","wem/bandit_single","AK3H5QRAROFGP","gain","7","","76","L","3","","0","0","1","0.06626982825","","false","290","0.4112115972","","main_expt","0.1814252587","","0.4149367164","","0.06626982825","","","","","","",""
"125","","bandit","366","993415","0.0-328.0-0.0","85432434","wem/bandit_single","AK3H5QRAROFGP","gain","7","","76","L","3","","0","0","1","0.1096348163","","false","291","0.4372982331","","main_expt","0.2385479929","","0.399757838","","0.1096348163","","","","","","",""
"75","","bandit","367","995250","0.0-329.0-0.0","85432434","wem/bandit_single","AK3H5QRAROFGP","gain","7","","76","L","3","","0","0","1","0.1604398542","","false","292","0.4238416902","","main_expt","0.2322046479","","0.3846886596","","0.1604398542","","","","","","",""
"280","","bandit","368","997293","0.0-330.0-0.0","85432434","wem/bandit_single","AK3H5QRAROFGP","gain","7","","72","H","0","img/none_selected.jpg","0","0","1","0.4034354509","","false","293","0.4034354509","","main_expt","0.223393304","","0.3364000065","","0.1714651471","","","","","","",""
"106","","bandit","369","999165","0.0-331.0-0.0","85432434","wem/bandit_single","AK3H5QRAROFGP","gain","7","","72","H","0","img/none_selected.jpg","0","0","1","0.4093667064","","false","294","0.4093667064","","main_expt","0.2290093083","","0.3545739736","","0.1378543876","","","","","","",""
"92","","bandit","370","1001032","0.0-332.0-0.0","85432434","wem/bandit_single","AK3H5QRAROFGP","gain","7","","74","J","1","","0","0","1","0.2875464899","","false","295","0.4294791191","","main_expt","0.2875464899","","0.2891777922","","0.1243446737","","","","","","",""
