"rt","responses","trial_type","trial_index","time_elapsed","internal_node_id","subjID","study","MID","cond","drift","key_press","respCharCode","respKey","respChoiceNum","respChoice","gems","bombs","no_reward","GemPrChosen","BombPrChosen","practice","trial_counter","WinPr_0","LosePr_0","trial_label","WinPr_1","LosePr_1","WinPr_2","LosePr_2","WinPr_3","LosePr_3","Q0","Q1","Q2","gender","age","ethnicity"
"29517","{""Q0"":""A1F9KLZGHE9DTA""}","survey-text","0","29530","0.0-0.0","86236167","wem/bandit_single","A1F9KLZGHE9DTA","gain","6","","","","","","","","","","","","","","","","","","","","","","","","","","",""
"1345","","text","1","31883","0.0-1.0","86236167","wem/bandit_single","A1F9KLZGHE9DTA","gain","6","32","","","","","","","","","","","","","","","","","","","","","","","","","",""
"34414","","text","2","66299","0.0-2.0","86236167","wem/bandit_single","A1F9KLZGHE9DTA","gain","6","32","","","","","","","","","","","","","","","","","","","","","","","","","",""
"62377","","text","3","128679","0.0-3.0","86236167","wem/bandit_single","A1F9KLZGHE9DTA","gain","6","32","","","","","","","","","","","","","","","","","","","","","","","","","",""
"36774","","text","4","165460","0.0-4.0","86236167","wem/bandit_single","A1F9KLZGHE9DTA","gain","6","32","","","","","","","","","","","","","","","","","","","","","","","","","",""
"11708","","text","5","177170","0.0-5.0","86236167","wem/bandit_single","A1F9KLZGHE9DTA","gain","6","32","","","","","","","","","","","","","","","","","","","","","","","","","",""
"31456","","text","6","208628","0.0-6.0","86236167","wem/bandit_single","A1F9KLZGHE9DTA","gain","6","32","","","","","","","","","","","","","","","","","","","","","","","","","",""
"2035","","text","7","210665","0.0-7.0","86236167","wem/bandit_single","A1F9KLZGHE9DTA","gain","6","32","","","","","","","","","","","","","","","","","","","","","","","","","",""
"1737","","text","8","212404","0.0-8.0","86236167","wem/bandit_single","A1F9KLZGHE9DTA","gain","6","32","","","","","","","","","","","","","","","","","","","","","","","","","",""
"1236","","text","9","213641","0.0-9.0","86236167","wem/bandit_single","A1F9KLZGHE9DTA","gain","6","32","","","","","","","","","","","","","","","","","","","","","","","","","",""
"4662","","text","10","218306","0.0-10.0","86236167","wem/bandit_single","A1F9KLZGHE9DTA","gain","6","32","","","","","","","","","","","","","","","","","","","","","","","","","",""
"3054","","text","11","221361","0.0-11.0","86236167","wem/bandit_single","A1F9KLZGHE9DTA","gain","6","32","","","","","","","","","","","","","","","","","","","","","","","","","",""
"1459","","bandit","12","224329","0.0-12.0-0.0","86236167","wem/bandit_single","A1F9KLZGHE9DTA","gain","6","","74","J","0","img/none_selected_demo.jpg","0","0","1","0","0","true","0","0","0","","","","","","","","","","","","",""
"964","","bandit","13","227064","0.0-13.0-0.0","86236167","wem/bandit_single","A1F9KLZGHE9DTA","gain","6","","75","K","0","img/none_selected_demo.jpg","0","0","1","0","0","true","0","0","0","","","","","","","","","","","","",""
"2542","","text","14","229861","0.0-14.0","86236167","wem/bandit_single","A1F9KLZGHE9DTA","gain","6","32","","","","","","","","","","","","","","","","","","","","","","","","","",""
"1226","","text","15","231089","0.0-15.0","86236167","wem/bandit_single","A1F9KLZGHE9DTA","gain","6","32","","","","","","","","","","","","","","","","","","","","","","","","","",""
"1918","","text","16","233010","0.0-16.0","86236167","wem/bandit_single","A1F9KLZGHE9DTA","gain","6","32","","","","","","","","","","","","","","","","","","","","","","","","","",""
"2229","","text","17","235241","0.0-17.0","86236167","wem/bandit_single","A1F9KLZGHE9DTA","gain","6","32","","","","","","","","","","","","","","","","","","","","","","","","","",""
"933","","bandit","18","237721","0.0-18.0-0.0","86236167","wem/bandit_single","A1F9KLZGHE9DTA","gain","6","","74","J","0","img/none_selected_demo.jpg","1","0","0","0.8","0","true","0","0.8","0","80_20_practice","0.2","0","","","","","","","","","",""
"498","","bandit","19","239974","0.0-18.0-1.0","86236167","wem/bandit_single","A1F9KLZGHE9DTA","gain","6","","74","J","0","img/none_selected_demo.jpg","0","0","1","0.8","0","true","0","0.8","0","80_20_practice","0.2","0","","","","","","","","","",""
"1742","","bandit","20","243476","0.0-18.0-2.0","86236167","wem/bandit_single","A1F9KLZGHE9DTA","gain","6","","75","K","1","","0","0","1","0.2","0","true","0","0.8","0","80_20_practice","0.2","0","","","","","","","","","",""
"488","","bandit","21","245719","0.0-18.0-3.0","86236167","wem/bandit_single","A1F9KLZGHE9DTA","gain","6","","74","J","0","img/none_selected_demo.jpg","1","0","0","0.8","0","true","0","0.8","0","80_20_practice","0.2","0","","","","","","","","","",""
"1483","","bandit","22","248958","0.0-18.0-4.0","86236167","wem/bandit_single","A1F9KLZGHE9DTA","gain","6","","74","J","0","img/none_selected_demo.jpg","1","0","0","0.8","0","true","0","0.8","0","80_20_practice","0.2","0","","","","","","","","","",""
"1720","","bandit","23","252433","0.0-18.0-5.0","86236167","wem/bandit_single","A1F9KLZGHE9DTA","gain","6","","74","J","0","img/none_selected_demo.jpg","1","0","0","0.8","0","true","0","0.8","0","80_20_practice","0.2","0","","","","","","","","","",""
"3897","","bandit","24","258095","0.0-18.0-6.0","86236167","wem/bandit_single","A1F9KLZGHE9DTA","gain","6","","74","J","0","img/none_selected_demo.jpg","1","0","0","0.8","0","true","0","0.8","0","80_20_practice","0.2","0","","","","","","","","","",""
"1448","","bandit","25","261302","0.0-18.0-7.0","86236167","wem/bandit_single","A1F9KLZGHE9DTA","gain","6","","74","J","0","img/none_selected_demo.jpg","1","0","0","0.8","0","true","0","0.8","0","80_20_practice","0.2","0","","","","","","","","","",""
"632","","bandit","26","263694","0.0-18.0-8.0","86236167","wem/bandit_single","A1F9KLZGHE9DTA","gain","6","","74","J","0","img/none_selected_demo.jpg","1","0","0","0.8","0","true","0","0.8","0","80_20_practice","0.2","0","","","","","","","","","",""
"446","","bandit","27","265897","0.0-18.0-9.0","86236167","wem/bandit_single","A1F9KLZGHE9DTA","gain","6","","74","J","0","img/none_selected_demo.jpg","1","0","0","0.8","0","true","0","0.8","0","80_20_practice","0.2","0","","","","","","","","","",""
"2706","","bandit","28","270361","0.0-18.0-10.0","86236167","wem/bandit_single","A1F9KLZGHE9DTA","gain","6","","74","J","0","img/none_selected_demo.jpg","0","0","1","0.8","0","true","0","0.8","0","80_20_practice","0.2","0","","","","","","","","","",""
"890","","bandit","29","273007","0.0-18.0-11.0","86236167","wem/bandit_single","A1F9KLZGHE9DTA","gain","6","","74","J","0","img/none_selected_demo.jpg","1","0","0","0.8","0","true","0","0.8","0","80_20_practice","0.2","0","","","","","","","","","",""
"108","","bandit","30","274871","0.0-18.0-12.0","86236167","wem/bandit_single","A1F9KLZGHE9DTA","gain","6","","74","J","0","img/none_selected_demo.jpg","1","0","0","0.8","0","true","0","0.8","0","80_20_practice","0.2","0","","","","","","","","","",""
"218","","bandit","31","276847","0.0-18.0-13.0","86236167","wem/bandit_single","A1F9KLZGHE9DTA","gain","6","","74","J","0","img/none_selected_demo.jpg","1","0","0","0.8","0","true","0","0.8","0","80_20_practice","0.2","0","","","","","","","","","",""
"3602","","bandit","32","282207","0.0-18.0-14.0","86236167","wem/bandit_single","A1F9KLZGHE9DTA","gain","6","","74","J","0","img/none_selected_demo.jpg","1","0","0","0.8","0","true","0","0.8","0","80_20_practice","0.2","0","","","","","","","","","",""
"419","","bandit","33","284382","0.0-18.0-15.0","86236167","wem/bandit_single","A1F9KLZGHE9DTA","gain","6","","74","J","0","img/none_selected_demo.jpg","1","0","0","0.8","0","true","0","0.8","0","80_20_practice","0.2","0","","","","","","","","","",""
"422","","bandit","34","286586","0.0-18.0-16.0","86236167","wem/bandit_single","A1F9KLZGHE9DTA","gain","6","","74","J","0","img/none_selected_demo.jpg","0","0","1","0.8","0","true","0","0.8","0","80_20_practice","0.2","0","","","","","","","","","",""
"202","","bandit","35","288542","0.0-18.0-17.0","86236167","wem/bandit_single","A1F9KLZGHE9DTA","gain","6","","74","J","0","img/none_selected_demo.jpg","0","0","1","0.8","0","true","0","0.8","0","80_20_practice","0.2","0","","","","","","","","","",""
"310","","bandit","36","290611","0.0-18.0-18.0","86236167","wem/bandit_single","A1F9KLZGHE9DTA","gain","6","","75","K","1","","0","0","1","0.2","0","true","0","0.8","0","80_20_practice","0.2","0","","","","","","","","","",""
"167","","bandit","37","292534","0.0-18.0-19.0","86236167","wem/bandit_single","A1F9KLZGHE9DTA","gain","6","","74","J","0","img/none_selected_demo.jpg","0","0","1","0.8","0","true","0","0.8","0","80_20_practice","0.2","0","","","","","","","","","",""
"12095","","text","38","304881","0.0-19.0","86236167","wem/bandit_single","A1F9KLZGHE9DTA","gain","6","32","","","","","","","","","","","","","","","","","","","","","","","","","",""
"1531","","bandit","39","307918","0.0-20.0-0.0","86236167","wem/bandit_single","A1F9KLZGHE9DTA","gain","6","","74","J","0","img/none_selected_demo.jpg","0","0","1","0","0","true","0","0","0","","0","0","","","","","","","","","",""
"29225","","text","40","337396","0.0-21.0","86236167","wem/bandit_single","A1F9KLZGHE9DTA","gain","6","74","","","","","","","","","","","","","","","","","","","","","","","","","",""
"6835","","text","41","344234","0.0-22.0","86236167","wem/bandit_single","A1F9KLZGHE9DTA","gain","6","32","","","","","","","","","","","","","","","","","","","","","","","","","",""
"3718","","text","42","347955","0.0-23.0","86236167","wem/bandit_single","A1F9KLZGHE9DTA","gain","6","32","","","","","","","","","","","","","","","","","","","","","","","","","",""
"2980","","text","43","350937","0.0-24.0","86236167","wem/bandit_single","A1F9KLZGHE9DTA","gain","6","32","","","","","","","","","","","","","","","","","","","","","","","","","",""
"5782","","text","44","356721","0.0-25.0","86236167","wem/bandit_single","A1F9KLZGHE9DTA","gain","6","32","","","","","","","","","","","","","","","","","","","","","","","","","",""
"3863","","text","45","360587","0.0-26.0","86236167","wem/bandit_single","A1F9KLZGHE9DTA","gain","6","32","","","","","","","","","","","","","","","","","","","","","","","","","",""
"4626","","text","46","365217","0.0-27.0","86236167","wem/bandit_single","A1F9KLZGHE9DTA","gain","6","32","","","","","","","","","","","","","","","","","","","","","","","","","",""
"3613","","text","47","368833","0.0-28.0","86236167","wem/bandit_single","A1F9KLZGHE9DTA","gain","6","32","","","","","","","","","","","","","","","","","","","","","","","","","",""
"2207","","text","48","371043","0.0-29.0","86236167","wem/bandit_single","A1F9KLZGHE9DTA","gain","6","32","","","","","","","","","","","","","","","","","","","","","","","","","",""
"1587","","text","49","372633","0.0-30.0","86236167","wem/bandit_single","A1F9KLZGHE9DTA","gain","6","32","","","","","","","","","","","","","","","","","","","","","","","","","",""
"3229","","text","50","375865","0.0-31.0","86236167","wem/bandit_single","A1F9KLZGHE9DTA","gain","6","32","","","","","","","","","","","","","","","","","","","","","","","","","",""
"645","","bandit","51","378016","0.0-32.0-0.0","86236167","wem/bandit_single","A1F9KLZGHE9DTA","gain","6","","72","H","0","img/none_selected.jpg","1","0","0","0.8","0","true","0","0.8","0","full_practice","0.2","0","0.6","0","0.2","0","","","","","",""
"171","","bandit","52","379944","0.0-32.0-1.0","86236167","wem/bandit_single","A1F9KLZGHE9DTA","gain","6","","72","H","0","img/none_selected.jpg","1","0","0","0.8","0","true","0","0.8","0","full_practice","0.2","0","0.6","0","0.2","0","","","","","",""
"27","","bandit","53","381728","0.0-32.0-2.0","86236167","wem/bandit_single","A1F9KLZGHE9DTA","gain","6","","72","H","0","img/none_selected.jpg","1","0","0","0.8","0","true","0","0.8","0","full_practice","0.2","0","0.6","0","0.2","0","","","","","",""
"1145","","bandit","54","384630","0.0-32.0-3.0","86236167","wem/bandit_single","A1F9KLZGHE9DTA","gain","6","","72","H","0","img/none_selected.jpg","1","0","0","0.8","0","true","0","0.8","0","full_practice","0.2","0","0.6","0","0.2","0","","","","","",""
"94","","bandit","55","386480","0.0-32.0-4.0","86236167","wem/bandit_single","A1F9KLZGHE9DTA","gain","6","","72","H","0","img/none_selected.jpg","0","0","1","0.8","0","true","0","0.8","0","full_practice","0.2","0","0.6","0","0.2","0","","","","","",""
"25","","bandit","56","388263","0.0-32.0-5.0","86236167","wem/bandit_single","A1F9KLZGHE9DTA","gain","6","","74","J","1","","0","0","1","0.2","0","true","0","0.8","0","full_practice","0.2","0","0.6","0","0.2","0","","","","","",""
"282","","bandit","57","390304","0.0-32.0-6.0","86236167","wem/bandit_single","A1F9KLZGHE9DTA","gain","6","","75","K","2","","1","0","0","0.6","0","true","0","0.8","0","full_practice","0.2","0","0.6","0","0.2","0","","","","","",""
"51","","bandit","58","392114","0.0-32.0-7.0","86236167","wem/bandit_single","A1F9KLZGHE9DTA","gain","6","","75","K","2","","1","0","0","0.6","0","true","0","0.8","0","full_practice","0.2","0","0.6","0","0.2","0","","","","","",""
"68","","bandit","59","393939","0.0-32.0-8.0","86236167","wem/bandit_single","A1F9KLZGHE9DTA","gain","6","","75","K","2","","0","0","1","0.6","0","true","0","0.8","0","full_practice","0.2","0","0.6","0","0.2","0","","","","","",""
"376","","bandit","60","396072","0.0-32.0-9.0","86236167","wem/bandit_single","A1F9KLZGHE9DTA","gain","6","","76","L","3","","0","0","1","0.2","0","true","0","0.8","0","full_practice","0.2","0","0.6","0","0.2","0","","","","","",""
"356","","bandit","61","398191","0.0-32.0-10.0","86236167","wem/bandit_single","A1F9KLZGHE9DTA","gain","6","","75","K","2","","0","0","1","0.6","0","true","0","0.8","0","full_practice","0.2","0","0.6","0","0.2","0","","","","","",""
"312","","bandit","62","400280","0.0-32.0-11.0","86236167","wem/bandit_single","A1F9KLZGHE9DTA","gain","6","","74","J","1","","0","0","1","0.2","0","true","0","0.8","0","full_practice","0.2","0","0.6","0","0.2","0","","","","","",""
"1635","","bandit","63","403672","0.0-32.0-12.0","86236167","wem/bandit_single","A1F9KLZGHE9DTA","gain","6","","76","L","3","","0","0","1","0.2","0","true","0","0.8","0","full_practice","0.2","0","0.6","0","0.2","0","","","","","",""
"770","","bandit","64","406199","0.0-32.0-13.0","86236167","wem/bandit_single","A1F9KLZGHE9DTA","gain","6","","72","H","0","img/none_selected.jpg","1","0","0","0.8","0","true","0","0.8","0","full_practice","0.2","0","0.6","0","0.2","0","","","","","",""
"246","","bandit","65","408200","0.0-32.0-14.0","86236167","wem/bandit_single","A1F9KLZGHE9DTA","gain","6","","72","H","0","img/none_selected.jpg","1","0","0","0.8","0","true","0","0.8","0","full_practice","0.2","0","0.6","0","0.2","0","","","","","",""
"1892","","bandit","66","411852","0.0-32.0-15.0","86236167","wem/bandit_single","A1F9KLZGHE9DTA","gain","6","","72","H","0","img/none_selected.jpg","1","0","0","0.8","0","true","0","0.8","0","full_practice","0.2","0","0.6","0","0.2","0","","","","","",""
"566","","bandit","67","414176","0.0-32.0-16.0","86236167","wem/bandit_single","A1F9KLZGHE9DTA","gain","6","","72","H","0","img/none_selected.jpg","1","0","0","0.8","0","true","0","0.8","0","full_practice","0.2","0","0.6","0","0.2","0","","","","","",""
"549","","bandit","68","416481","0.0-32.0-17.0","86236167","wem/bandit_single","A1F9KLZGHE9DTA","gain","6","","72","H","0","img/none_selected.jpg","1","0","0","0.8","0","true","0","0.8","0","full_practice","0.2","0","0.6","0","0.2","0","","","","","",""
"919","","bandit","69","419158","0.0-32.0-18.0","86236167","wem/bandit_single","A1F9KLZGHE9DTA","gain","6","","72","H","0","img/none_selected.jpg","1","0","0","0.8","0","true","0","0.8","0","full_practice","0.2","0","0.6","0","0.2","0","","","","","",""
"438","","bandit","70","421350","0.0-32.0-19.0","86236167","wem/bandit_single","A1F9KLZGHE9DTA","gain","6","","72","H","0","img/none_selected.jpg","1","0","0","0.8","0","true","0","0.8","0","full_practice","0.2","0","0.6","0","0.2","0","","","","","",""
"2479","","text","71","424089","0.0-33.0","86236167","wem/bandit_single","A1F9KLZGHE9DTA","gain","6","32","","","","","","","","","","","","","","","","","","","","","","","","","",""
"5366","","text","72","430459","0.0-34.0","86236167","wem/bandit_single","A1F9KLZGHE9DTA","gain","6","32","","","","","","","","","","","","","","","","","","","","","","","","","",""
"3243","","text","73","433705","0.0-35.0","86236167","wem/bandit_single","A1F9KLZGHE9DTA","gain","6","32","","","","","","","","","","","","","","","","","","","","","","","","","",""
"3509","","text","74","437217","0.0-36.0","86236167","wem/bandit_single","A1F9KLZGHE9DTA","gain","6","32","","","","","","","","","","","","","","","","","","","","","","","","","",""
"4070","","text","75","441291","0.0-37.0","86236167","wem/bandit_single","A1F9KLZGHE9DTA","gain","6","32","","","","","","","","","","","","","","","","","","","","","","","","","",""
"777","","bandit","76","443574","0.0-38.0-0.0","86236167","wem/bandit_single","A1F9KLZGHE9DTA","gain","6","","72","H","0","img/none_selected.jpg","0","0","1","0.3785571591","","false","1","0.3785571591","","main_expt","0.1940838181","","0.1142009487","","0.1623639982","","","","","","",""
"574","","bandit","77","445906","0.0-39.0-0.0","86236167","wem/bandit_single","A1F9KLZGHE9DTA","gain","6","","74","J","1","","1","0","0","0.2410489397","","false","2","0.3894156921","","main_expt","0.2410489397","","0.09165924831","","0.1864124343","","","","","","",""
"121","","bandit","78","447782","0.0-40.0-0.0","86236167","wem/bandit_single","A1F9KLZGHE9DTA","gain","6","","74","J","1","","0","0","1","0.2645422736","","false","3","0.4125386255","","main_expt","0.2645422736","","0.1174954382","","0.1494323563","","","","","","",""
"61","","bandit","79","449599","0.0-41.0-0.0","86236167","wem/bandit_single","A1F9KLZGHE9DTA","gain","6","","75","K","2","","0","0","1","0.1426329369","","false","4","0.3990363537","","main_expt","0.1984909652","","0.1426329369","","0.1266436655","","","","","","",""
"1","","bandit","80","451365","0.0-42.0-0.0","86236167","wem/bandit_single","A1F9KLZGHE9DTA","gain","6","","76","L","3","","0","0","1","0.1476492511","","false","5","0.454435597","","main_expt","0.1239860826","","0.1503595054","","0.1476492511","","","","","","",""
"396","","bandit","81","453526","0.0-43.0-0.0","86236167","wem/bandit_single","A1F9KLZGHE9DTA","gain","6","","74","J","1","","0","0","1","0.06805906468","","false","6","0.4583077461","","main_expt","0.06805906468","","0.1646450236","","0.1525625276","","","","","","",""
"76","","bandit","82","455361","0.0-44.0-0.0","86236167","wem/bandit_single","A1F9KLZGHE9DTA","gain","6","","74","J","1","","0","0","1","0.05890971721","","false","7","0.4617786505","","main_expt","0.05890971721","","0.2031930874","","0.1856713893","","","","","","",""
"489","","bandit","83","457609","0.0-45.0-0.0","86236167","wem/bandit_single","A1F9KLZGHE9DTA","gain","6","","72","H","0","img/none_selected.jpg","1","0","0","0.475168559","","false","8","0.475168559","","main_expt","0.0832196585","","0.181996894","","0.2108076934","","","","","","",""
"10","","bandit","84","459374","0.0-46.0-0.0","86236167","wem/bandit_single","A1F9KLZGHE9DTA","gain","6","","72","H","0","img/none_selected.jpg","0","0","1","0.458325554","","false","9","0.458325554","","main_expt","0.1325638406","","0.1673845292","","0.1956497028","","","","","","",""
"14","","bandit","85","461143","0.0-47.0-0.0","86236167","wem/bandit_single","A1F9KLZGHE9DTA","gain","6","","72","H","0","img/none_selected.jpg","0","0","1","0.4316924572","","false","10","0.4316924572","","main_expt","0.1196898321","","0.2328473308","","0.1582923175","","","","","","",""
"551","","bandit","86","463450","0.0-48.0-0.0","86236167","wem/bandit_single","A1F9KLZGHE9DTA","gain","6","","74","J","1","","0","0","1","0.1103103944","","false","11","0.3756511011","","main_expt","0.1103103944","","0.20589494","","0.167734997","","","","","","",""
"392","","bandit","87","465599","0.0-49.0-0.0","86236167","wem/bandit_single","A1F9KLZGHE9DTA","gain","6","","75","K","2","","0","0","1","0.2246944015","","false","12","0.3549088727","","main_expt","0.06819125589","","0.2246944015","","0.2150601968","","","","","","",""
"538","","bandit","88","467896","0.0-50.0-0.0","86236167","wem/bandit_single","A1F9KLZGHE9DTA","gain","6","","76","L","3","","0","0","1","0.252216208","","false","13","0.3455803359","","main_expt","0.07076675629","","0.2613447163","","0.252216208","","","","","","",""
"545","","bandit","89","470199","0.0-51.0-0.0","86236167","wem/bandit_single","A1F9KLZGHE9DTA","gain","6","","75","K","2","","0","0","1","0.212655478","","false","14","0.3809937316","","main_expt","0.09241451512","","0.212655478","","0.2184022087","","","","","","",""
"445","","bandit","90","472400","0.0-52.0-0.0","86236167","wem/bandit_single","A1F9KLZGHE9DTA","gain","6","","74","J","1","","0","0","1","0.07205700739","","false","15","0.3479508526","","main_expt","0.07205700739","","0.1679070286","","0.210005203","","","","","","",""
"58","","bandit","91","474217","0.0-53.0-0.0","86236167","wem/bandit_single","A1F9KLZGHE9DTA","gain","6","","72","H","0","img/none_selected.jpg","0","0","1","0.3287514515","","false","16","0.3287514515","","main_expt","0.04760190598","","0.1774383452","","0.2402495983","","","","","","",""
"57","","bandit","92","476032","0.0-54.0-0.0","86236167","wem/bandit_single","A1F9KLZGHE9DTA","gain","6","","72","H","0","img/none_selected.jpg","1","0","0","0.4008698656","","false","17","0.4008698656","","main_expt","0.03958098904","","0.1562672395","","0.2766196603","","","","","","",""
"79","","bandit","93","477869","0.0-55.0-0.0","86236167","wem/bandit_single","A1F9KLZGHE9DTA","gain","6","","72","H","0","img/none_selected.jpg","0","0","1","0.3845126264","","false","18","0.3845126264","","main_expt","0.03128671198","","0.1407597156","","0.3193638145","","","","","","",""
"166","","bandit","94","479789","0.0-56.0-0.0","86236167","wem/bandit_single","A1F9KLZGHE9DTA","gain","6","","72","H","0","img/none_selected.jpg","1","0","0","0.3979941068","","false","19","0.3979941068","","main_expt","0.04453616628","","0.1310890834","","0.2953318626","","","","","","",""
"621","","bandit","95","482188","0.0-57.0-0.0","86236167","wem/bandit_single","A1F9KLZGHE9DTA","gain","6","","72","H","0","img/none_selected.jpg","0","0","1","0.3920029867","","false","20","0.3920029867","","main_expt","0.04596917346","","0.1317163977","","0.3007143328","","","","","","",""
"692","","bandit","96","484641","0.0-58.0-0.0","86236167","wem/bandit_single","A1F9KLZGHE9DTA","gain","6","","72","H","0","img/none_selected.jpg","1","0","0","0.4057752261","","false","21","0.4057752261","","main_expt","0.04297504417","","0.1752537558","","0.3105995928","","","","","","",""
"592","","bandit","97","486990","0.0-59.0-0.0","86236167","wem/bandit_single","A1F9KLZGHE9DTA","gain","6","","72","H","0","img/none_selected.jpg","1","0","0","0.4072420822","","false","22","0.4072420822","","main_expt","0.04739698515","","0.2064983175","","0.3742057862","","","","","","",""
"748","","bandit","98","489516","0.0-60.0-0.0","86236167","wem/bandit_single","A1F9KLZGHE9DTA","gain","6","","72","H","0","img/none_selected.jpg","1","0","0","0.3798298113","","false","23","0.3798298113","","main_expt","0.08003173613","","0.216691321","","0.3439758112","","","","","","",""
"470","","bandit","99","491742","0.0-61.0-0.0","86236167","wem/bandit_single","A1F9KLZGHE9DTA","gain","6","","72","H","0","img/none_selected.jpg","1","0","0","0.3329856024","","false","24","0.3329856024","","main_expt","0.09868307827","","0.2342773894","","0.3549138733","","","","","","",""
"921","","bandit","100","494423","0.0-62.0-0.0","86236167","wem/bandit_single","A1F9KLZGHE9DTA","gain","6","","72","H","0","img/none_selected.jpg","0","0","1","0.3337381726","","false","25","0.3337381726","","main_expt","0.07950464875","","0.2378870173","","0.3811330683","","","","","","",""
"597","","bandit","101","496779","0.0-63.0-0.0","86236167","wem/bandit_single","A1F9KLZGHE9DTA","gain","6","","72","H","0","img/none_selected.jpg","0","0","1","0.3650510818","","false","26","0.3650510818","","main_expt","0.09697268327","","0.2555438901","","0.3131907418","","","","","","",""
"414","","bandit","102","498951","0.0-64.0-0.0","86236167","wem/bandit_single","A1F9KLZGHE9DTA","gain","6","","72","H","0","img/none_selected.jpg","0","0","1","0.3930286133","","false","27","0.3930286133","","main_expt","0.09831328215","","0.2487754609","","0.3210571327","","","","","","",""
"20","","bandit","103","500728","0.0-65.0-0.0","86236167","wem/bandit_single","A1F9KLZGHE9DTA","gain","6","","74","J","1","","0","0","1","0.08798585883","","false","28","0.3849328395","","main_expt","0.08798585883","","0.2023297646","","0.3350138966","","","","","","",""
"33","","bandit","104","502520","0.0-66.0-0.0","86236167","wem/bandit_single","A1F9KLZGHE9DTA","gain","6","","75","K","2","","0","0","1","0.1824385616","","false","29","0.3635333449","","main_expt","0.1001400419","","0.1824385616","","0.3491704597","","","","","","",""
"22","","bandit","105","504303","0.0-67.0-0.0","86236167","wem/bandit_single","A1F9KLZGHE9DTA","gain","6","","76","L","3","","0","0","1","0.3515390533","","false","30","0.3870800473","","main_expt","0.100360092","","0.2108935763","","0.3515390533","","","","","","",""
"65","","bandit","106","506126","0.0-68.0-0.0","86236167","wem/bandit_single","A1F9KLZGHE9DTA","gain","6","","72","H","0","img/none_selected.jpg","1","0","0","0.407818568","","false","31","0.407818568","","main_expt","0.1235489826","","0.2212072473","","0.3116189274","","","","","","",""
"99","","bandit","107","507986","0.0-69.0-0.0","86236167","wem/bandit_single","A1F9KLZGHE9DTA","gain","6","","72","H","0","img/none_selected.jpg","0","0","1","0.4365503818","","false","32","0.4365503818","","main_expt","0.0999088058","","0.2349080289","","0.2923613921","","","","","","",""
"368","","bandit","108","510112","0.0-70.0-0.0","86236167","wem/bandit_single","A1F9KLZGHE9DTA","gain","6","","72","H","0","img/none_selected.jpg","0","0","1","0.438397095","","false","33","0.438397095","","main_expt","0.1229353218","","0.2233211346","","0.2833872006","","","","","","",""
"43","","bandit","109","511910","0.0-71.0-0.0","86236167","wem/bandit_single","A1F9KLZGHE9DTA","gain","6","","74","J","1","","0","0","1","0.1174339591","","false","34","0.4225996483","","main_expt","0.1174339591","","0.2328620384","","0.251012165","","","","","","",""
"100","","bandit","110","513768","0.0-72.0-0.0","86236167","wem/bandit_single","A1F9KLZGHE9DTA","gain","6","","75","K","2","","0","0","1","0.2442853791","","false","35","0.3719427837","","main_expt","0.08922948311","","0.2442853791","","0.2150204629","","","","","","",""
"753","","bandit","111","516280","0.0-73.0-0.0","86236167","wem/bandit_single","A1F9KLZGHE9DTA","gain","6","","76","L","3","","0","0","1","0.2003821391","","false","36","0.3643608465","","main_expt","0.1065429935","","0.2536962779","","0.2003821391","","","","","","",""
"493","","bandit","112","518530","0.0-74.0-0.0","86236167","wem/bandit_single","A1F9KLZGHE9DTA","gain","6","","72","H","0","img/none_selected.jpg","1","0","0","0.3951734682","","false","37","0.3951734682","","main_expt","0.119331244","","0.1968410568","","0.1584744983","","","","","","",""
"336","","bandit","113","520622","0.0-75.0-0.0","86236167","wem/bandit_single","A1F9KLZGHE9DTA","gain","6","","72","H","0","img/none_selected.jpg","0","0","1","0.4106313244","","false","38","0.4106313244","","main_expt","0.1140529394","","0.1903576104","","0.1107345946","","","","","","",""
"174","","bandit","114","522551","0.0-76.0-0.0","86236167","wem/bandit_single","A1F9KLZGHE9DTA","gain","6","","74","J","1","","0","0","1","0.1377706652","","false","39","0.385877281","","main_expt","0.1377706652","","0.2094560733","","0.1922112034","","","","","","",""
"171","","bandit","115","524496","0.0-77.0-0.0","86236167","wem/bandit_single","A1F9KLZGHE9DTA","gain","6","","75","K","2","","1","0","0","0.2157952434","","false","40","0.3814638094","","main_expt","0.1686011578","","0.2157952434","","0.202991566","","","","","","",""
"31","","bandit","116","526286","0.0-78.0-0.0","86236167","wem/bandit_single","A1F9KLZGHE9DTA","gain","6","","75","K","2","","0","0","1","0.1982376225","","false","41","0.3569976603","","main_expt","0.1640814413","","0.1982376225","","0.257249123","","","","","","",""
"132","","bandit","117","528176","0.0-79.0-0.0","86236167","wem/bandit_single","A1F9KLZGHE9DTA","gain","6","","76","L","3","","0","0","1","0.3139605103","","false","42","0.3254656301","","main_expt","0.1444461896","","0.1815133425","","0.3139605103","","","","","","",""
"92","","bandit","118","530025","0.0-80.0-0.0","86236167","wem/bandit_single","A1F9KLZGHE9DTA","gain","6","","72","H","0","img/none_selected.jpg","0","0","1","0.3061667188","","false","43","0.3061667188","","main_expt","0.1466097136","","0.1804658283","","0.2859416922","","","","","","",""
"105","","bandit","119","531888","0.0-81.0-0.0","86236167","wem/bandit_single","A1F9KLZGHE9DTA","gain","6","","74","J","1","","0","0","1","0.1701376127","","false","44","0.3247162798","","main_expt","0.1701376127","","0.1453808853","","0.2344477797","","","","","","",""
"63","","bandit","120","533710","0.0-82.0-0.0","86236167","wem/bandit_single","A1F9KLZGHE9DTA","gain","6","","75","K","2","","0","0","1","0.1975985391","","false","45","0.3464274235","","main_expt","0.2382164817","","0.1975985391","","0.25278305","","","","","","",""
"42","","bandit","121","535511","0.0-83.0-0.0","86236167","wem/bandit_single","A1F9KLZGHE9DTA","gain","6","","76","L","3","","0","0","1","0.2447001663","","false","46","0.2853596265","","main_expt","0.2817064876","","0.2099331931","","0.2447001663","","","","","","",""
"2","","bandit","122","537273","0.0-84.0-0.0","86236167","wem/bandit_single","A1F9KLZGHE9DTA","gain","6","","72","H","0","img/none_selected.jpg","1","0","0","0.2781892211","","false","47","0.2781892211","","main_expt","0.3449614965","","0.2373708448","","0.2439886488","","","","","","",""
"445","","bandit","123","539503","0.0-85.0-0.0","86236167","wem/bandit_single","A1F9KLZGHE9DTA","gain","6","","72","H","0","img/none_selected.jpg","1","0","0","0.2802769371","","false","48","0.2802769371","","main_expt","0.2846403666","","0.2929879582","","0.3453423138","","","","","","",""
"516","","bandit","124","541779","0.0-86.0-0.0","86236167","wem/bandit_single","A1F9KLZGHE9DTA","gain","6","","72","H","0","img/none_selected.jpg","0","0","1","0.3162769287","","false","49","0.3162769287","","main_expt","0.3292227521","","0.2643709298","","0.3208634608","","","","","","",""
"77","","bandit","125","543615","0.0-87.0-0.0","86236167","wem/bandit_single","A1F9KLZGHE9DTA","gain","6","","74","J","1","","1","0","0","0.270904054","","false","50","0.2524095143","","main_expt","0.270904054","","0.2666646559","","0.2600740437","","","","","","",""
"274","","bandit","126","545657","0.0-88.0-0.0","86236167","wem/bandit_single","A1F9KLZGHE9DTA","gain","6","","74","J","1","","0","0","1","0.2503066232","","false","51","0.2630113652","","main_expt","0.2503066232","","0.2550538978","","0.2451527442","","","","","","",""
"185","","bandit","127","547598","0.0-89.0-0.0","86236167","wem/bandit_single","A1F9KLZGHE9DTA","gain","6","","75","K","2","","0","0","1","0.3235330097","","false","52","0.2707742251","","main_expt","0.2405173112","","0.3235330097","","0.1882651979","","","","","","",""
"266","","bandit","128","549622","0.0-90.0-0.0","86236167","wem/bandit_single","A1F9KLZGHE9DTA","gain","6","","74","J","1","","0","0","1","0.2966352861","","false","53","0.2150274285","","main_expt","0.2966352861","","0.347433539","","0.1930778153","","","","","","",""
"354","","bandit","129","551737","0.0-91.0-0.0","86236167","wem/bandit_single","A1F9KLZGHE9DTA","gain","6","","76","L","3","","0","0","1","0.2216955806","","false","54","0.2326572497","","main_expt","0.2887198369","","0.3368202787","","0.2216955806","","","","","","",""
"155","","bandit","130","553651","0.0-92.0-0.0","86236167","wem/bandit_single","A1F9KLZGHE9DTA","gain","6","","72","H","0","img/none_selected.jpg","0","0","1","0.2134399586","","false","55","0.2134399586","","main_expt","0.2801160178","","0.3503124627","","0.2422165651","","","","","","",""
"22","","bandit","131","555436","0.0-93.0-0.0","86236167","wem/bandit_single","A1F9KLZGHE9DTA","gain","6","","74","J","1","","0","0","1","0.3022415889","","false","56","0.2394891912","","main_expt","0.3022415889","","0.368841946","","0.228979269","","","","","","",""
"498","","bandit","132","557697","0.0-94.0-0.0","86236167","wem/bandit_single","A1F9KLZGHE9DTA","gain","6","","74","J","1","","0","0","1","0.3300995428","","false","57","0.2942469327","","main_expt","0.3300995428","","0.3883837061","","0.243325051","","","","","","",""
"78","","bandit","133","559562","0.0-95.0-0.0","86236167","wem/bandit_single","A1F9KLZGHE9DTA","gain","6","","75","K","2","","0","0","1","0.4116863428","","false","58","0.369295693","","main_expt","0.3393984951","","0.4116863428","","0.2326991071","","","","","","",""
"247","","bandit","134","561572","0.0-96.0-0.0","86236167","wem/bandit_single","A1F9KLZGHE9DTA","gain","6","","76","L","3","","1","0","0","0.2480349675","","false","59","0.3663837161","","main_expt","0.3592245678","","0.3980375199","","0.2480349675","","","","","","",""
"1119","","bandit","135","564451","0.0-97.0-0.0","86236167","wem/bandit_single","A1F9KLZGHE9DTA","gain","6","","72","H","0","img/none_selected.jpg","0","0","1","0.3578669063","","false","60","0.3578669063","","main_expt","0.3431938453","","0.3849919156","","0.2591134247","","","","","","",""
"598","","bandit","136","566808","0.0-98.0-0.0","86236167","wem/bandit_single","A1F9KLZGHE9DTA","gain","6","","72","H","0","img/none_selected.jpg","0","0","1","0.3901807011","","false","61","0.3901807011","","main_expt","0.3622980041","","0.3822359719","","0.2828027123","","","","","","",""
"463","","bandit","137","569031","0.0-99.0-0.0","86236167","wem/bandit_single","A1F9KLZGHE9DTA","gain","6","","72","H","0","img/none_selected.jpg","0","0","1","0.4199484271","","false","62","0.4199484271","","main_expt","0.3898917795","","0.3356955782","","0.2645717152","","","","","","",""
"209","","bandit","138","570999","0.0-100.0-0.0","86236167","wem/bandit_single","A1F9KLZGHE9DTA","gain","6","","74","J","1","","0","0","1","0.3730814422","","false","63","0.431710707","","main_expt","0.3730814422","","0.2961333539","","0.3164731366","","","","","","",""
"178","","bandit","139","572967","0.0-101.0-0.0","86236167","wem/bandit_single","A1F9KLZGHE9DTA","gain","6","","75","K","2","","0","0","1","0.3332154777","","false","64","0.4302834116","","main_expt","0.359514794","","0.3332154777","","0.3549458842","","","","","","",""
"668","","bandit","140","575399","0.0-102.0-0.0","86236167","wem/bandit_single","A1F9KLZGHE9DTA","gain","6","","76","L","3","","1","0","0","0.288515421","","false","65","0.3985691748","","main_expt","0.3114607296","","0.35785358","","0.288515421","","","","","","",""
"111","","bandit","141","577272","0.0-103.0-0.0","86236167","wem/bandit_single","A1F9KLZGHE9DTA","gain","6","","76","L","3","","1","0","0","0.3011993237","","false","66","0.4041176093","","main_expt","0.2942291023","","0.406057841","","0.3011993237","","","","","","",""
"304","","bandit","142","579336","0.0-104.0-0.0","86236167","wem/bandit_single","A1F9KLZGHE9DTA","gain","6","","76","L","3","","0","0","1","0.345072876","","false","67","0.4007812862","","main_expt","0.3320533568","","0.4196038874","","0.345072876","","","","","","",""
"45","","bandit","143","581145","0.0-105.0-0.0","86236167","wem/bandit_single","A1F9KLZGHE9DTA","gain","6","","76","L","3","","0","0","1","0.3196529892","","false","68","0.4294162969","","main_expt","0.3600975808","","0.3890604874","","0.3196529892","","","","","","",""
"70","","bandit","144","582975","0.0-106.0-0.0","86236167","wem/bandit_single","A1F9KLZGHE9DTA","gain","6","","74","J","1","","1","0","0","0.2872110667","","false","69","0.3767619451","","main_expt","0.2872110667","","0.4084138829","","0.3649702463","","","","","","",""
"48","","bandit","145","584781","0.0-107.0-0.0","86236167","wem/bandit_single","A1F9KLZGHE9DTA","gain","6","","74","J","1","","0","0","1","0.295141158","","false","70","0.3777248691","","main_expt","0.295141158","","0.3468887804","","0.356932825","","","","","","",""
"252","","bandit","146","586791","0.0-108.0-0.0","86236167","wem/bandit_single","A1F9KLZGHE9DTA","gain","6","","74","J","1","","0","0","1","0.3206647592","","false","71","0.3795242786","","main_expt","0.3206647592","","0.341524862","","0.3835678776","","","","","","",""
"1547","","bandit","147","590094","0.0-109.0-0.0","86236167","wem/bandit_single","A1F9KLZGHE9DTA","gain","6","","75","K","2","","0","0","1","0.3749246652","","false","72","0.3665841139","","main_expt","0.3264000429","","0.3749246652","","0.4212385026","","","","","","",""
"247","","bandit","148","592100","0.0-110.0-0.0","86236167","wem/bandit_single","A1F9KLZGHE9DTA","gain","6","","72","H","0","img/none_selected.jpg","0","0","1","0.3651794524","","false","73","0.3651794524","","main_expt","0.333972891","","0.3871824506","","0.4261424303","","","","","","",""
"186","","bandit","149","594046","0.0-111.0-0.0","86236167","wem/bandit_single","A1F9KLZGHE9DTA","gain","6","","72","H","0","img/none_selected.jpg","1","0","0","0.3550305672","","false","74","0.3550305672","","main_expt","0.3616968722","","0.3721906724","","0.3977974162","","","","","","",""
"194","","bandit","150","596001","0.0-112.0-0.0","86236167","wem/bandit_single","A1F9KLZGHE9DTA","gain","6","","72","H","0","img/none_selected.jpg","0","0","1","0.2927321298","","false","75","0.2927321298","","main_expt","0.3975057441","","0.3111946895","","0.4267201321","","","","","","",""
"80","","bandit","151","597840","0.0-113.0-0.0","86236167","wem/bandit_single","A1F9KLZGHE9DTA","gain","6","","74","J","1","","1","0","0","0.3807363423","","false","76","0.2842047713","","main_expt","0.3807363423","","0.3336428477","","0.4263250047","","","","","","",""
"408","","bandit","152","600006","0.0-114.0-0.0","86236167","wem/bandit_single","A1F9KLZGHE9DTA","gain","6","","74","J","1","","0","0","1","0.394346207","","false","77","0.291961298","","main_expt","0.394346207","","0.2972108807","","0.4081139898","","","","","","",""
"115","","bandit","153","601878","0.0-115.0-0.0","86236167","wem/bandit_single","A1F9KLZGHE9DTA","gain","6","","75","K","2","","0","0","1","0.3500338334","","false","78","0.2772504781","","main_expt","0.4130135997","","0.3500338334","","0.4081745619","","","","","","",""
"115","","bandit","154","603751","0.0-116.0-0.0","86236167","wem/bandit_single","A1F9KLZGHE9DTA","gain","6","","72","H","0","img/none_selected.jpg","0","0","1","0.2910266255","","false","79","0.2910266255","","main_expt","0.388257836","","0.3382579744","","0.4210543479","","","","","","",""
"69","","bandit","155","605582","0.0-117.0-0.0","86236167","wem/bandit_single","A1F9KLZGHE9DTA","gain","6","","76","L","3","","0","0","1","0.4173400146","","false","80","0.3236474027","","main_expt","0.402189785","","0.2848378437","","0.4173400146","","","","","","",""
"41","","bandit","156","607400","0.0-118.0-0.0","86236167","wem/bandit_single","A1F9KLZGHE9DTA","gain","6","","75","K","2","","1","0","0","0.2824957966","","false","81","0.3171491255","","main_expt","0.4188164015","","0.2824957966","","0.3876294662","","","","","","",""
"328","","bandit","157","609521","0.0-119.0-0.0","86236167","wem/bandit_single","A1F9KLZGHE9DTA","gain","6","","75","K","2","","0","0","1","0.2921189703","","false","82","0.3253049084","","main_expt","0.3923487362","","0.2921189703","","0.3960397656","","","","","","",""
"160","","bandit","158","611441","0.0-120.0-0.0","86236167","wem/bandit_single","A1F9KLZGHE9DTA","gain","6","","74","J","1","","1","0","0","0.3765831671","","false","83","0.2650825447","","main_expt","0.3765831671","","0.346808059","","0.4048972575","","","","","","",""
"143","","bandit","159","613341","0.0-121.0-0.0","86236167","wem/bandit_single","A1F9KLZGHE9DTA","gain","6","","74","J","1","","1","0","0","0.3744655151","","false","84","0.2860936523","","main_expt","0.3744655151","","0.3142369957","","0.4261464595","","","","","","",""
"252","","bandit","160","615350","0.0-122.0-0.0","86236167","wem/bandit_single","A1F9KLZGHE9DTA","gain","6","","74","J","1","","1","0","0","0.4097897279","","false","85","0.2965161573","","main_expt","0.4097897279","","0.3336664699","","0.4252889048","","","","","","",""
"121","","bandit","161","617240","0.0-123.0-0.0","86236167","wem/bandit_single","A1F9KLZGHE9DTA","gain","6","","74","J","1","","0","0","1","0.4365994201","","false","86","0.2718920201","","main_expt","0.4365994201","","0.3487181938","","0.4234238012","","","","","","",""
"344","","bandit","162","619344","0.0-124.0-0.0","86236167","wem/bandit_single","A1F9KLZGHE9DTA","gain","6","","74","J","1","","1","0","0","0.4485753971","","false","87","0.2663647104","","main_expt","0.4485753971","","0.3595256023","","0.4493325849","","","","","","",""
"313","","bandit","163","621416","0.0-125.0-0.0","86236167","wem/bandit_single","A1F9KLZGHE9DTA","gain","6","","74","J","1","","1","0","0","0.4682155013","","false","88","0.2505207396","","main_expt","0.4682155013","","0.3633435887","","0.4618336953","","","","","","",""
"340","","bandit","164","623520","0.0-126.0-0.0","86236167","wem/bandit_single","A1F9KLZGHE9DTA","gain","6","","74","J","1","","0","0","1","0.455546077","","false","89","0.2380326514","","main_expt","0.455546077","","0.3301577903","","0.470357169","","","","","","",""
"173","","bandit","165","625454","0.0-127.0-0.0","86236167","wem/bandit_single","A1F9KLZGHE9DTA","gain","6","","72","H","0","img/none_selected.jpg","0","0","1","0.2825572521","","false","90","0.2825572521","","main_expt","0.4648286352","","0.2983975746","","0.4756012524","","","","","","",""
"666","","bandit","166","627880","0.0-128.0-0.0","86236167","wem/bandit_single","A1F9KLZGHE9DTA","gain","6","","72","H","0","img/none_selected.jpg","0","0","1","0.3629334232","","false","91","0.3629334232","","main_expt","0.4597569826","","0.2708507867","","0.4661355378","","","","","","",""
"445","","bandit","167","630087","0.0-129.0-0.0","86236167","wem/bandit_single","A1F9KLZGHE9DTA","gain","6","","74","J","1","","0","0","1","0.4636055165","","false","92","0.4318733099","","main_expt","0.4636055165","","0.2025174094","","0.4640816948","","","","","","",""
"1091","","bandit","168","632937","0.0-130.0-0.0","86236167","wem/bandit_single","A1F9KLZGHE9DTA","gain","6","","75","K","2","","0","0","1","0.1991535532","","false","93","0.4354989634","","main_expt","0.4344757896","","0.1991535532","","0.4745032584","","","","","","",""
"23","","bandit","169","634718","0.0-131.0-0.0","86236167","wem/bandit_single","A1F9KLZGHE9DTA","gain","6","","76","L","3","","0","0","1","0.4713826624","","false","94","0.4569950804","","main_expt","0.4540573516","","0.2072674268","","0.4713826624","","","","","","",""
"145","","bandit","170","636633","0.0-132.0-0.0","86236167","wem/bandit_single","A1F9KLZGHE9DTA","gain","6","","72","H","0","img/none_selected.jpg","0","0","1","0.4626037768","","false","95","0.4626037768","","main_expt","0.467393544","","0.2139910976","","0.4518091014","","","","","","",""
"79","","bandit","171","638470","0.0-133.0-0.0","86236167","wem/bandit_single","A1F9KLZGHE9DTA","gain","6","","72","H","0","img/none_selected.jpg","1","0","0","0.4632162831","","false","96","0.4632162831","","main_expt","0.4523779492","","0.1714021876","","0.4610288074","","","","","","",""
"153","","bandit","172","640407","0.0-134.0-0.0","86236167","wem/bandit_single","A1F9KLZGHE9DTA","gain","6","","72","H","0","img/none_selected.jpg","1","0","0","0.4574348148","","false","97","0.4574348148","","main_expt","0.4734298584","","0.1776734449","","0.4610411697","","","","","","",""
"159","","bandit","173","642326","0.0-135.0-0.0","86236167","wem/bandit_single","A1F9KLZGHE9DTA","gain","6","","72","H","0","img/none_selected.jpg","1","0","0","0.4551488225","","false","98","0.4551488225","","main_expt","0.4822123269","","0.2143852757","","0.4658458747","","","","","","",""
"832","","bandit","174","644922","0.0-136.0-0.0","86236167","wem/bandit_single","A1F9KLZGHE9DTA","gain","6","","72","H","0","img/none_selected.jpg","1","0","0","0.4604873832","","false","99","0.4604873832","","main_expt","0.4829706494","","0.2341872784","","0.4372748216","","","","","","",""
"636","","bandit","175","647321","0.0-137.0-0.0","86236167","wem/bandit_single","A1F9KLZGHE9DTA","gain","6","","72","H","0","img/none_selected.jpg","0","0","1","0.4364445071","","false","100","0.4364445071","","main_expt","0.4918551361","","0.2835639283","","0.4237986198","","","","","","",""
"783","","bandit","176","649864","0.0-138.0-0.0","86236167","wem/bandit_single","A1F9KLZGHE9DTA","gain","6","","74","J","1","","1","0","0","0.4891782125","","false","101","0.4152010141","","main_expt","0.4891782125","","0.3342764243","","0.4239408107","","","","","","",""
"287","","bandit","177","651912","0.0-139.0-0.0","86236167","wem/bandit_single","A1F9KLZGHE9DTA","gain","6","","74","J","1","","1","0","0","0.484620563","","false","102","0.4463558977","","main_expt","0.484620563","","0.3693598309","","0.4482877494","","","","","","",""
"326","","bandit","178","653999","0.0-140.0-0.0","86236167","wem/bandit_single","A1F9KLZGHE9DTA","gain","6","","74","J","1","","0","0","1","0.4880888492","","false","103","0.4519222506","","main_expt","0.4880888492","","0.3465782007","","0.4319618448","","","","","","",""
"56","","bandit","179","655819","0.0-141.0-0.0","86236167","wem/bandit_single","A1F9KLZGHE9DTA","gain","6","","74","J","1","","1","0","0","0.4862983338","","false","104","0.44950272","","main_expt","0.4862983338","","0.356437927","","0.3989131432","","","","","","",""
"158","","bandit","180","657736","0.0-142.0-0.0","86236167","wem/bandit_single","A1F9KLZGHE9DTA","gain","6","","74","J","1","","1","0","0","0.4761426531","","false","105","0.4631277203","","main_expt","0.4761426531","","0.349556789","","0.3718051273","","","","","","",""
"154","","bandit","181","659648","0.0-143.0-0.0","86236167","wem/bandit_single","A1F9KLZGHE9DTA","gain","6","","74","J","1","","0","0","1","0.4724420891","","false","106","0.4761070442","","main_expt","0.4724420891","","0.3368343046","","0.3820213715","","","","","","",""
"39","","bandit","182","661472","0.0-144.0-0.0","86236167","wem/bandit_single","A1F9KLZGHE9DTA","gain","6","","75","K","2","","1","0","0","0.3492990444","","false","107","0.4574049266","","main_expt","0.4544285192","","0.3492990444","","0.3903902173","","","","","","",""
"22","","bandit","183","663256","0.0-145.0-0.0","86236167","wem/bandit_single","A1F9KLZGHE9DTA","gain","6","","75","K","2","","0","0","1","0.3657086014","","false","108","0.4342229458","","main_expt","0.4489506099","","0.3657086014","","0.424383047","","","","","","",""
"30","","bandit","184","665047","0.0-146.0-0.0","86236167","wem/bandit_single","A1F9KLZGHE9DTA","gain","6","","76","L","3","","0","0","1","0.3732822228","","false","109","0.4437976733","","main_expt","0.4357570441","","0.3473329542","","0.3732822228","","","","","","",""
"79","","bandit","185","666889","0.0-147.0-0.0","86236167","wem/bandit_single","A1F9KLZGHE9DTA","gain","6","","75","K","2","","1","0","0","0.3937482981","","false","110","0.4131704669","","main_expt","0.4243789051","","0.3937482981","","0.3545846445","","","","","","",""
"30","","bandit","186","668680","0.0-148.0-0.0","86236167","wem/bandit_single","A1F9KLZGHE9DTA","gain","6","","75","K","2","","0","0","1","0.4067223002","","false","111","0.3849612216","","main_expt","0.4235572131","","0.4067223002","","0.2861948885","","","","","","",""
"61","","bandit","187","670502","0.0-149.0-0.0","86236167","wem/bandit_single","A1F9KLZGHE9DTA","gain","6","","74","J","1","","1","0","0","0.4216330179","","false","112","0.4197473064","","main_expt","0.4216330179","","0.3791461054","","0.3148935151","","","","","","",""
"464","","bandit","188","672729","0.0-150.0-0.0","86236167","wem/bandit_single","A1F9KLZGHE9DTA","gain","6","","74","J","1","","0","0","1","0.3981229654","","false","113","0.4477672952","","main_expt","0.3981229654","","0.3697872407","","0.310891148","","","","","","",""
"43","","bandit","189","674534","0.0-151.0-0.0","86236167","wem/bandit_single","A1F9KLZGHE9DTA","gain","6","","72","H","0","img/none_selected.jpg","1","0","0","0.4347577032","","false","114","0.4347577032","","main_expt","0.4051483532","","0.3542284497","","0.3312817134","","","","","","",""
"74","","bandit","190","676366","0.0-152.0-0.0","86236167","wem/bandit_single","A1F9KLZGHE9DTA","gain","6","","72","H","0","img/none_selected.jpg","1","0","0","0.4123529648","","false","115","0.4123529648","","main_expt","0.3664587937","","0.3424252445","","0.3328181623","","","","","","",""
"48","","bandit","191","678195","0.0-153.0-0.0","86236167","wem/bandit_single","A1F9KLZGHE9DTA","gain","6","","72","H","0","img/none_selected.jpg","0","0","1","0.4374051313","","false","116","0.4374051313","","main_expt","0.3815824605","","0.3364913945","","0.282168926","","","","","","",""
"35","","bandit","192","679990","0.0-154.0-0.0","86236167","wem/bandit_single","A1F9KLZGHE9DTA","gain","6","","72","H","0","img/none_selected.jpg","0","0","1","0.4336999329","","false","117","0.4336999329","","main_expt","0.3718524962","","0.3607093693","","0.3282440564","","","","","","",""
"24","","bandit","193","681777","0.0-155.0-0.0","86236167","wem/bandit_single","A1F9KLZGHE9DTA","gain","6","","74","J","1","","0","0","1","0.3228128462","","false","118","0.4609057125","","main_expt","0.3228128462","","0.3651530194","","0.3735758205","","","","","","",""
"534","","bandit","194","684072","0.0-156.0-0.0","86236167","wem/bandit_single","A1F9KLZGHE9DTA","gain","6","","75","K","2","","0","0","1","0.391691743","","false","119","0.4644995027","","main_expt","0.3303119184","","0.391691743","","0.4085136599","","","","","","",""
"462","","bandit","195","686295","0.0-157.0-0.0","86236167","wem/bandit_single","A1F9KLZGHE9DTA","gain","6","","76","L","3","","0","0","1","0.4152109264","","false","120","0.4699288035","","main_expt","0.3566896217","","0.3892352466","","0.4152109264","","","","","","",""
"27","","bandit","196","688086","0.0-158.0-0.0","86236167","wem/bandit_single","A1F9KLZGHE9DTA","gain","6","","72","H","0","img/none_selected.jpg","1","0","0","0.48416914","","false","121","0.48416914","","main_expt","0.3938610898","","0.4119078466","","0.4362055741","","","","","","",""
"393","","bandit","197","690240","0.0-159.0-0.0","86236167","wem/bandit_single","A1F9KLZGHE9DTA","gain","6","","72","H","0","img/none_selected.jpg","0","0","1","0.4744752566","","false","122","0.4744752566","","main_expt","0.3846692282","","0.3864510994","","0.4381361327","","","","","","",""
"254","","bandit","198","692255","0.0-160.0-0.0","86236167","wem/bandit_single","A1F9KLZGHE9DTA","gain","6","","74","J","1","","0","0","1","0.3479888462","","false","123","0.4770694964","","main_expt","0.3479888462","","0.3206095238","","0.4266523018","","","","","","",""
"1398","","bandit","199","695414","0.0-161.0-0.0","86236167","wem/bandit_single","A1F9KLZGHE9DTA","gain","6","","75","K","2","","0","0","1","0.3004639257","","false","124","0.4882663864","","main_expt","0.3446564944","","0.3004639257","","0.3976500929","","","","","","",""
"545","","bandit","200","697718","0.0-162.0-0.0","86236167","wem/bandit_single","A1F9KLZGHE9DTA","gain","6","","72","H","0","img/none_selected.jpg","1","0","0","0.4867438878","","false","125","0.4867438878","","main_expt","0.3742116014","","0.2718713493","","0.4004048686","","","","","","",""
"262","","bandit","201","699742","0.0-163.0-0.0","86236167","wem/bandit_single","A1F9KLZGHE9DTA","gain","6","","72","H","0","img/none_selected.jpg","1","0","0","0.4859509926","","false","126","0.4859509926","","main_expt","0.3522130289","","0.312825386","","0.3978852423","","","","","","",""
"474","","bandit","202","701978","0.0-164.0-0.0","86236167","wem/bandit_single","A1F9KLZGHE9DTA","gain","6","","72","H","0","img/none_selected.jpg","1","0","0","0.4910312391","","false","127","0.4910312391","","main_expt","0.4136983804","","0.2929193121","","0.4164913371","","","","","","",""
"747","","bandit","203","704489","0.0-165.0-0.0","86236167","wem/bandit_single","A1F9KLZGHE9DTA","gain","6","","72","H","0","img/none_selected.jpg","1","0","0","0.4916106826","","false","128","0.4916106826","","main_expt","0.3740150402","","0.3483635392","","0.4273270633","","","","","","",""
"216","","bandit","204","706462","0.0-166.0-0.0","86236167","wem/bandit_single","A1F9KLZGHE9DTA","gain","6","","72","H","0","img/none_selected.jpg","1","0","0","0.4774596984","","false","129","0.4774596984","","main_expt","0.3561584853","","0.3180783589","","0.4403517336","","","","","","",""
"274","","bandit","205","708495","0.0-167.0-0.0","86236167","wem/bandit_single","A1F9KLZGHE9DTA","gain","6","","72","H","0","img/none_selected.jpg","0","0","1","0.4792113904","","false","130","0.4792113904","","main_expt","0.3781611856","","0.332672873","","0.436469863","","","","","","",""
"106","","bandit","206","710367","0.0-168.0-0.0","86236167","wem/bandit_single","A1F9KLZGHE9DTA","gain","6","","72","H","0","img/none_selected.jpg","0","0","1","0.4761250173","","false","131","0.4761250173","","main_expt","0.3972118802","","0.3172252399","","0.467157068","","","","","","",""
"78","","bandit","207","712208","0.0-169.0-0.0","86236167","wem/bandit_single","A1F9KLZGHE9DTA","gain","6","","74","J","1","","0","0","1","0.3951630556","","false","132","0.4782449011","","main_expt","0.3951630556","","0.2808852702","","0.4747764211","","","","","","",""
"127","","bandit","208","714094","0.0-170.0-0.0","86236167","wem/bandit_single","A1F9KLZGHE9DTA","gain","6","","75","K","2","","1","0","0","0.2846237695","","false","133","0.4789501527","","main_expt","0.3918056992","","0.2846237695","","0.4662147581","","","","","","",""
"56","","bandit","209","715913","0.0-171.0-0.0","86236167","wem/bandit_single","A1F9KLZGHE9DTA","gain","6","","75","K","2","","0","0","1","0.3115497245","","false","134","0.4821877595","","main_expt","0.395342783","","0.3115497245","","0.4711951182","","","","","","",""
"38","","bandit","210","717710","0.0-172.0-0.0","86236167","wem/bandit_single","A1F9KLZGHE9DTA","gain","6","","76","L","3","","0","0","1","0.4540730246","","false","135","0.4863767518","","main_expt","0.3867762939","","0.3413582918","","0.4540730246","","","","","","",""
"38","","bandit","211","719511","0.0-173.0-0.0","86236167","wem/bandit_single","A1F9KLZGHE9DTA","gain","6","","75","K","2","","0","0","1","0.316763081","","false","136","0.4887786445","","main_expt","0.3929594686","","0.316763081","","0.4412688847","","","","","","",""
"38","","bandit","212","721313","0.0-174.0-0.0","86236167","wem/bandit_single","A1F9KLZGHE9DTA","gain","6","","72","H","0","img/none_selected.jpg","1","0","0","0.4896902137","","false","137","0.4896902137","","main_expt","0.3067223256","","0.2585559296","","0.4585130214","","","","","","",""
"119","","bandit","213","723195","0.0-175.0-0.0","86236167","wem/bandit_single","A1F9KLZGHE9DTA","gain","6","","72","H","0","img/none_selected.jpg","1","0","0","0.4754525561","","false","138","0.4754525561","","main_expt","0.3444805877","","0.2320291273","","0.4413786145","","","","","","",""
"155","","bandit","214","725113","0.0-176.0-0.0","86236167","wem/bandit_single","A1F9KLZGHE9DTA","gain","6","","72","H","0","img/none_selected.jpg","1","0","0","0.4525902595","","false","139","0.4525902595","","main_expt","0.4025185773","","0.2705305451","","0.4235974169","","","","","","",""
"135","","bandit","215","727007","0.0-177.0-0.0","86236167","wem/bandit_single","A1F9KLZGHE9DTA","gain","6","","72","H","0","img/none_selected.jpg","0","0","1","0.474141966","","false","140","0.474141966","","main_expt","0.4000290511","","0.2115164241","","0.3993595144","","","","","","",""
"231","","bandit","216","728998","0.0-178.0-0.0","86236167","wem/bandit_single","A1F9KLZGHE9DTA","gain","6","","74","J","1","","1","0","0","0.4052231698","","false","141","0.4642583801","","main_expt","0.4052231698","","0.2166269704","","0.3845482665","","","","","","",""
"139","","bandit","217","730897","0.0-179.0-0.0","86236167","wem/bandit_single","A1F9KLZGHE9DTA","gain","6","","74","J","1","","0","0","1","0.3881257509","","false","142","0.4713728632","","main_expt","0.3881257509","","0.2477117994","","0.3636407915","","","","","","",""
"69","","bandit","218","732726","0.0-180.0-0.0","86236167","wem/bandit_single","A1F9KLZGHE9DTA","gain","6","","75","K","2","","0","0","1","0.2347168821","","false","143","0.4714731714","","main_expt","0.4101759482","","0.2347168821","","0.3360879677","","","","","","",""
"49","","bandit","219","734544","0.0-181.0-0.0","86236167","wem/bandit_single","A1F9KLZGHE9DTA","gain","6","","76","L","3","","0","0","1","0.2886719504","","false","144","0.4777196865","","main_expt","0.4100488723","","0.190213181","","0.2886719504","","","","","","",""
"278","","bandit","220","736582","0.0-182.0-0.0","86236167","wem/bandit_single","A1F9KLZGHE9DTA","gain","6","","72","H","0","img/none_selected.jpg","0","0","1","0.467438704","","false","145","0.467438704","","main_expt","0.4294240464","","0.2873677543","","0.2607344777","","","","","","",""
"136","","bandit","221","738480","0.0-183.0-0.0","86236167","wem/bandit_single","A1F9KLZGHE9DTA","gain","6","","75","K","2","","1","0","0","0.3434581746","","false","146","0.4764572222","","main_expt","0.4447984025","","0.3434581746","","0.261523257","","","","","","",""
"46","","bandit","222","740287","0.0-184.0-0.0","86236167","wem/bandit_single","A1F9KLZGHE9DTA","gain","6","","75","K","2","","0","0","1","0.3677167414","","false","147","0.4670163239","","main_expt","0.4339083406","","0.3677167414","","0.2768268543","","","","","","",""
"15","","bandit","223","742065","0.0-185.0-0.0","86236167","wem/bandit_single","A1F9KLZGHE9DTA","gain","6","","75","K","2","","0","0","1","0.378672096","","false","148","0.4762727371","","main_expt","0.4200875786","","0.378672096","","0.2822793125","","","","","","",""
"43","","bandit","224","743870","0.0-186.0-0.0","86236167","wem/bandit_single","A1F9KLZGHE9DTA","gain","6","","74","J","1","","1","0","0","0.4370731276","","false","149","0.4763998188","","main_expt","0.4370731276","","0.3447579657","","0.3100291085","","","","","","",""
"3","","bandit","225","745636","0.0-187.0-0.0","86236167","wem/bandit_single","A1F9KLZGHE9DTA","gain","6","","74","J","1","","0","0","1","0.4606741766","","false","150","0.4534074178","","main_expt","0.4606741766","","0.3225325285","","0.3473977335","","","","","","",""
"375","","bandit","226","747778","0.0-188.0-0.0","86236167","wem/bandit_single","A1F9KLZGHE9DTA","gain","6","","72","H","0","img/none_selected.jpg","1","0","0","0.4518750411","","false","151","0.4518750411","","main_expt","0.4831185644","","0.2971371866","","0.3755194153","","","","","","",""
"45","","bandit","227","749582","0.0-189.0-0.0","86236167","wem/bandit_single","A1F9KLZGHE9DTA","gain","6","","72","H","0","img/none_selected.jpg","0","0","1","0.4724220712","","false","152","0.4724220712","","main_expt","0.489350082","","0.2436525959","","0.3931135366","","","","","","",""
"77","","bandit","228","751421","0.0-190.0-0.0","86236167","wem/bandit_single","A1F9KLZGHE9DTA","gain","6","","74","J","1","","0","0","1","0.4874668037","","false","153","0.4655138208","","main_expt","0.4874668037","","0.2745817176","","0.3704791656","","","","","","",""
"41","","bandit","229","753223","0.0-191.0-0.0","86236167","wem/bandit_single","A1F9KLZGHE9DTA","gain","6","","75","K","2","","1","0","0","0.2354012901","","false","154","0.466892577","","main_expt","0.4906252114","","0.2354012901","","0.3918087328","","","","","","",""
"31","","bandit","230","755014","0.0-192.0-0.0","86236167","wem/bandit_single","A1F9KLZGHE9DTA","gain","6","","75","K","2","","0","0","1","0.2125693007","","false","155","0.4696525674","","main_expt","0.4807331657","","0.2125693007","","0.3629162862","","","","","","",""
"65","","bandit","231","756840","0.0-193.0-0.0","86236167","wem/bandit_single","A1F9KLZGHE9DTA","gain","6","","76","L","3","","0","0","1","0.3329402669","","false","156","0.4798639378","","main_expt","0.4886913858","","0.2344806361","","0.3329402669","","","","","","",""
"22","","bandit","232","758623","0.0-194.0-0.0","86236167","wem/bandit_single","A1F9KLZGHE9DTA","gain","6","","75","K","2","","0","0","1","0.1314384861","","false","157","0.4706110477","","main_expt","0.4791259403","","0.1314384861","","0.2681960896","","","","","","",""
"56","","bandit","233","760440","0.0-195.0-0.0","86236167","wem/bandit_single","A1F9KLZGHE9DTA","gain","6","","74","J","1","","0","0","1","0.4733263956","","false","158","0.4469873257","","main_expt","0.4733263956","","0.181857365","","0.2540197996","","","","","","",""
"198","","bandit","234","762400","0.0-196.0-0.0","86236167","wem/bandit_single","A1F9KLZGHE9DTA","gain","6","","74","J","1","","1","0","0","0.4815819336","","false","159","0.4239904196","","main_expt","0.4815819336","","0.158015958","","0.2609952623","","","","","","",""
"104","","bandit","235","764262","0.0-197.0-0.0","86236167","wem/bandit_single","A1F9KLZGHE9DTA","gain","6","","74","J","1","","1","0","0","0.4721468952","","false","160","0.4459131135","","main_expt","0.4721468952","","0.141078422","","0.2023108268","","","","","","",""
"357","","bandit","236","766383","0.0-198.0-0.0","86236167","wem/bandit_single","A1F9KLZGHE9DTA","gain","6","","74","J","1","","1","0","0","0.4711146003","","false","161","0.4186734055","","main_expt","0.4711146003","","0.1347361735","","0.2500661268","","","","","","",""
"127","","bandit","237","768272","0.0-199.0-0.0","86236167","wem/bandit_single","A1F9KLZGHE9DTA","gain","6","","74","J","1","","1","0","0","0.4712261849","","false","162","0.3857154427","","main_expt","0.4712261849","","0.09535719087","","0.2540596089","","","","","","",""
"415","","bandit","238","770448","0.0-200.0-0.0","86236167","wem/bandit_single","A1F9KLZGHE9DTA","gain","6","","74","J","1","","1","0","0","0.4845321786","","false","163","0.4174701589","","main_expt","0.4845321786","","0.08326456225","","0.2601053227","","","","","","",""
"454","","bandit","239","772663","0.0-201.0-0.0","86236167","wem/bandit_single","A1F9KLZGHE9DTA","gain","6","","74","J","1","","0","0","1","0.4759389929","","false","164","0.3890878976","","main_expt","0.4759389929","","0.09053498257","","0.2541421927","","","","","","",""
"12","","bandit","240","774438","0.0-202.0-0.0","86236167","wem/bandit_single","A1F9KLZGHE9DTA","gain","6","","72","H","0","img/none_selected.jpg","0","0","1","0.4138915172","","false","165","0.4138915172","","main_expt","0.4720948066","","0.08506048778","","0.2481661974","","","","","","",""
"110","","bandit","241","776326","0.0-203.0-0.0","86236167","wem/bandit_single","A1F9KLZGHE9DTA","gain","6","","75","K","2","","1","0","0","0.1313511463","","false","166","0.3965001983","","main_expt","0.4785392204","","0.1313511463","","0.2774316831","","","","","","",""
"494","","bandit","242","778589","0.0-204.0-0.0","86236167","wem/bandit_single","A1F9KLZGHE9DTA","gain","6","","75","K","2","","0","0","1","0.1176964862","","false","167","0.3565429409","","main_expt","0.4807372421","","0.1176964862","","0.2487678046","","","","","","",""
"68","","bandit","243","780436","0.0-205.0-0.0","86236167","wem/bandit_single","A1F9KLZGHE9DTA","gain","6","","75","K","2","","0","0","1","0.08442850793","","false","168","0.3697134737","","main_expt","0.4679921472","","0.08442850793","","0.3058486258","","","","","","",""
"1209","","bandit","244","783406","0.0-206.0-0.0","86236167","wem/bandit_single","A1F9KLZGHE9DTA","gain","6","","75","K","2","","0","0","1","0.08508452716","","false","169","0.3754926497","","main_expt","0.4504326489","","0.08508452716","","0.3196595105","","","","","","",""
"209","","bandit","245","785382","0.0-207.0-0.0","86236167","wem/bandit_single","A1F9KLZGHE9DTA","gain","6","","75","K","2","","0","0","1","0.06647736925","","false","170","0.3688606114","","main_expt","0.4575738232","","0.06647736925","","0.2675331271","","","","","","",""
"60","","bandit","246","787208","0.0-208.0-0.0","86236167","wem/bandit_single","A1F9KLZGHE9DTA","gain","6","","76","L","3","","0","0","1","0.2898788388","","false","171","0.3548436987","","main_expt","0.4515033555","","0.05048422731","","0.2898788388","","","","","","",""
"152","","bandit","247","789121","0.0-209.0-0.0","86236167","wem/bandit_single","A1F9KLZGHE9DTA","gain","6","","72","H","0","img/none_selected.jpg","0","0","1","0.3789739593","","false","172","0.3789739593","","main_expt","0.4804896953","","0.05782489063","","0.3066863737","","","","","","",""
"42","","bandit","248","790928","0.0-210.0-0.0","86236167","wem/bandit_single","A1F9KLZGHE9DTA","gain","6","","74","J","1","","0","0","1","0.4915792717","","false","173","0.361488512","","main_expt","0.4915792717","","0.05297704283","","0.2694007619","","","","","","",""
"165","","bandit","249","792857","0.0-211.0-0.0","86236167","wem/bandit_single","A1F9KLZGHE9DTA","gain","6","","75","K","2","","0","0","1","0.05353397103","","false","174","0.3460135238","","main_expt","0.4861742571","","0.05353397103","","0.2754062015","","","","","","",""
"229","","bandit","250","794848","0.0-212.0-0.0","86236167","wem/bandit_single","A1F9KLZGHE9DTA","gain","6","","76","L","3","","0","0","1","0.296446081","","false","175","0.3522158256","","main_expt","0.4817940596","","0.03778759003","","0.296446081","","","","","","",""
"60","","bandit","251","796670","0.0-213.0-0.0","86236167","wem/bandit_single","A1F9KLZGHE9DTA","gain","6","","72","H","0","img/none_selected.jpg","0","0","1","0.2998164985","","false","176","0.2998164985","","main_expt","0.4757066075","","0.02527008277","","0.3058710094","","","","","","",""
"37","","bandit","252","798481","0.0-214.0-0.0","86236167","wem/bandit_single","A1F9KLZGHE9DTA","gain","6","","74","J","1","","0","0","1","0.4781570811","","false","177","0.2523084086","","main_expt","0.4781570811","","0.03305249037","","0.2349503117","","","","","","",""
"443","","bandit","253","800689","0.0-215.0-0.0","86236167","wem/bandit_single","A1F9KLZGHE9DTA","gain","6","","75","K","2","","0","0","1","0.03386287722","","false","178","0.304071788","","main_expt","0.4800614517","","0.03386287722","","0.2619038699","","","","","","",""
"67","","bandit","254","802552","0.0-216.0-0.0","86236167","wem/bandit_single","A1F9KLZGHE9DTA","gain","6","","72","H","0","img/none_selected.jpg","0","0","1","0.2871062198","","false","179","0.2871062198","","main_expt","0.4829502963","","0.04065763291","","0.2830684205","","","","","","",""
"129","","bandit","255","804448","0.0-217.0-0.0","86236167","wem/bandit_single","A1F9KLZGHE9DTA","gain","6","","76","L","3","","1","0","0","0.3534450431","","false","180","0.2266659288","","main_expt","0.4858173281","","0.05743716857","","0.3534450431","","","","","","",""
"564","","bandit","256","806777","0.0-218.0-0.0","86236167","wem/bandit_single","A1F9KLZGHE9DTA","gain","6","","76","L","3","","0","0","1","0.3212605574","","false","181","0.221928096","","main_expt","0.4744777914","","0.04418568229","","0.3212605574","","","","","","",""
"36","","bandit","257","808574","0.0-219.0-0.0","86236167","wem/bandit_single","A1F9KLZGHE9DTA","gain","6","","76","L","3","","1","0","0","0.3315430587","","false","182","0.2300829386","","main_expt","0.4845259409","","0.08176319179","","0.3315430587","","","","","","",""
"234","","bandit","258","810576","0.0-220.0-0.0","86236167","wem/bandit_single","A1F9KLZGHE9DTA","gain","6","","76","L","3","","1","0","0","0.3284942609","","false","183","0.236046558","","main_expt","0.481953826","","0.127405614","","0.3284942609","","","","","","",""
"120","","bandit","259","812454","0.0-221.0-0.0","86236167","wem/bandit_single","A1F9KLZGHE9DTA","gain","6","","76","L","3","","0","0","1","0.3122619856","","false","184","0.2923178249","","main_expt","0.4855041368","","0.08615736955","","0.3122619856","","","","","","",""
"139","","bandit","260","814361","0.0-222.0-0.0","86236167","wem/bandit_single","A1F9KLZGHE9DTA","gain","6","","75","K","2","","0","0","1","0.1184297318","","false","185","0.2808840613","","main_expt","0.4698046591","","0.1184297318","","0.2923416166","","","","","","",""
"140","","bandit","261","816264","0.0-223.0-0.0","86236167","wem/bandit_single","A1F9KLZGHE9DTA","gain","6","","74","J","1","","0","0","1","0.4595088788","","false","186","0.2016881086","","main_expt","0.4595088788","","0.1909222977","","0.2743414945","","","","","","",""
"506","","bandit","262","818574","0.0-224.0-0.0","86236167","wem/bandit_single","A1F9KLZGHE9DTA","gain","6","","72","H","0","img/none_selected.jpg","0","0","1","0.2403842116","","false","187","0.2403842116","","main_expt","0.4646501277","","0.156943311","","0.3313242874","","","","","","",""
"11","","bandit","263","820346","0.0-225.0-0.0","86236167","wem/bandit_single","A1F9KLZGHE9DTA","gain","6","","74","J","1","","1","0","0","0.4587354039","","false","188","0.2559443775","","main_expt","0.4587354039","","0.139104156","","0.3665806697","","","","","","",""
"42","","bandit","264","822154","0.0-226.0-0.0","86236167","wem/bandit_single","A1F9KLZGHE9DTA","gain","6","","74","J","1","","0","0","1","0.4433819168","","false","189","0.2450962267","","main_expt","0.4433819168","","0.1984961232","","0.3982105691","","","","","","",""
"107","","bandit","265","824023","0.0-227.0-0.0","86236167","wem/bandit_single","A1F9KLZGHE9DTA","gain","6","","75","K","2","","0","0","1","0.3152507924","","false","190","0.2520413598","","main_expt","0.441597313","","0.3152507924","","0.4063069195","","","","","","",""
"357","","bandit","266","826144","0.0-228.0-0.0","86236167","wem/bandit_single","A1F9KLZGHE9DTA","gain","6","","76","L","3","","0","0","1","0.4073058099","","false","191","0.3069822625","","main_expt","0.4447050695","","0.34868685","","0.4073058099","","","","","","",""
"45","","bandit","267","827950","0.0-229.0-0.0","86236167","wem/bandit_single","A1F9KLZGHE9DTA","gain","6","","75","K","2","","0","0","1","0.3244392246","","false","192","0.269658105","","main_expt","0.3903647542","","0.3244392246","","0.3597632315","","","","","","",""
"44","","bandit","268","829758","0.0-230.0-0.0","86236167","wem/bandit_single","A1F9KLZGHE9DTA","gain","6","","74","J","1","","0","0","1","0.37796371","","false","193","0.2337652902","","main_expt","0.37796371","","0.3077199203","","0.3512918873","","","","","","",""
"29","","bandit","269","831552","0.0-231.0-0.0","86236167","wem/bandit_single","A1F9KLZGHE9DTA","gain","6","","74","J","1","","1","0","0","0.4130200877","","false","194","0.232364398","","main_expt","0.4130200877","","0.3089314305","","0.2959519196","","","","","","",""
"46","","bandit","270","833368","0.0-232.0-0.0","86236167","wem/bandit_single","A1F9KLZGHE9DTA","gain","6","","74","J","1","","1","0","0","0.4247195967","","false","195","0.3001816851","","main_expt","0.4247195967","","0.2747286701","","0.335494982","","","","","","",""
"132","","bandit","271","835264","0.0-233.0-0.0","86236167","wem/bandit_single","A1F9KLZGHE9DTA","gain","6","","74","J","1","","1","0","0","0.4243543636","","false","196","0.3408234979","","main_expt","0.4243543636","","0.234477082","","0.349715921","","","","","","",""
"93","","bandit","272","837118","0.0-234.0-0.0","86236167","wem/bandit_single","A1F9KLZGHE9DTA","gain","6","","74","J","1","","1","0","0","0.3856928417","","false","197","0.3048500693","","main_expt","0.3856928417","","0.2134381397","","0.301359959","","","","","","",""
"13","","bandit","273","838890","0.0-235.0-0.0","86236167","wem/bandit_single","A1F9KLZGHE9DTA","gain","6","","74","J","1","","0","0","1","0.3619593125","","false","198","0.320222978","","main_expt","0.3619593125","","0.1732682886","","0.2948231879","","","","","","",""
"115","","bandit","274","840768","0.0-236.0-0.0","86236167","wem/bandit_single","A1F9KLZGHE9DTA","gain","6","","72","H","0","img/none_selected.jpg","1","0","0","0.3267381451","","false","199","0.3267381451","","main_expt","0.367752629","","0.1702760897","","0.2739130918","","","","","","",""
"154","","bandit","275","842688","0.0-237.0-0.0","86236167","wem/bandit_single","A1F9KLZGHE9DTA","gain","6","","72","H","0","img/none_selected.jpg","1","0","0","0.3471124056","","false","200","0.3471124056","","main_expt","0.3243939248","","0.1149890083","","0.2519174554","","","","","","",""
"256","","bandit","276","844705","0.0-238.0-0.0","86236167","wem/bandit_single","A1F9KLZGHE9DTA","gain","6","","72","H","0","img/none_selected.jpg","0","0","1","0.377370495","","false","201","0.377370495","","main_expt","0.309205964","","0.1378425817","","0.2607800984","","","","","","",""
"34","","bandit","277","846573","0.0-239.0-0.0","86236167","wem/bandit_single","A1F9KLZGHE9DTA","gain","6","","72","H","0","img/none_selected.jpg","1","0","0","0.4118986778","","false","202","0.4118986778","","main_expt","0.2762714965","","0.1351165101","","0.2144757733","","","","","","",""
"496","","bandit","278","848864","0.0-240.0-0.0","86236167","wem/bandit_single","A1F9KLZGHE9DTA","gain","6","","72","H","0","img/none_selected.jpg","0","0","1","0.4232074982","","false","203","0.4232074982","","main_expt","0.296808735","","0.105254576","","0.3006883459","","","","","","",""
"157","","bandit","279","850782","0.0-241.0-0.0","86236167","wem/bandit_single","A1F9KLZGHE9DTA","gain","6","","72","H","0","img/none_selected.jpg","1","0","0","0.422672589","","false","204","0.422672589","","main_expt","0.3198559136","","0.09939331469","","0.3059688055","","","","","","",""
"184","","bandit","280","852729","0.0-242.0-0.0","86236167","wem/bandit_single","A1F9KLZGHE9DTA","gain","6","","72","H","0","img/none_selected.jpg","0","0","1","0.4290364806","","false","205","0.4290364806","","main_expt","0.3814451683","","0.1099723927","","0.2810212056","","","","","","",""
"122","","bandit","281","854639","0.0-243.0-0.0","86236167","wem/bandit_single","A1F9KLZGHE9DTA","gain","6","","72","H","0","img/none_selected.jpg","0","0","1","0.4412489094","","false","206","0.4412489094","","main_expt","0.3836436308","","0.1203356594","","0.2427537705","","","","","","",""
"410","","bandit","282","856817","0.0-244.0-0.0","86236167","wem/bandit_single","A1F9KLZGHE9DTA","gain","6","","74","J","1","","0","0","1","0.3943212714","","false","207","0.461161346","","main_expt","0.3943212714","","0.1887874267","","0.2312113295","","","","","","",""
"30","","bandit","283","858608","0.0-245.0-0.0","86236167","wem/bandit_single","A1F9KLZGHE9DTA","gain","6","","74","J","1","","1","0","0","0.4100076043","","false","208","0.4749000037","","main_expt","0.4100076043","","0.1570662604","","0.2502246517","","","","","","",""
"71","","bandit","284","860488","0.0-246.0-0.0","86236167","wem/bandit_single","A1F9KLZGHE9DTA","gain","6","","74","J","1","","0","0","1","0.4207901851","","false","209","0.4677638209","","main_expt","0.4207901851","","0.2050570797","","0.2378747501","","","","","","",""
"6","","bandit","285","862258","0.0-247.0-0.0","86236167","wem/bandit_single","A1F9KLZGHE9DTA","gain","6","","74","J","1","","0","0","1","0.4261573075","","false","210","0.4507398287","","main_expt","0.4261573075","","0.1803355731","","0.2323826376","","","","","","",""
"95","","bandit","286","864118","0.0-248.0-0.0","86236167","wem/bandit_single","A1F9KLZGHE9DTA","gain","6","","75","K","2","","1","0","0","0.2066302241","","false","211","0.4275102647","","main_expt","0.3677002177","","0.2066302241","","0.2346446126","","","","","","",""
"200","","bandit","287","866078","0.0-249.0-0.0","86236167","wem/bandit_single","A1F9KLZGHE9DTA","gain","6","","75","K","2","","0","0","1","0.2190460355","","false","212","0.4147803006","","main_expt","0.4030871251","","0.2190460355","","0.2017096022","","","","","","",""
"464","","bandit","288","868304","0.0-250.0-0.0","86236167","wem/bandit_single","A1F9KLZGHE9DTA","gain","6","","75","K","2","","1","0","0","0.2433731683","","false","213","0.4119553225","","main_expt","0.3616850983","","0.2433731683","","0.2149770465","","","","","","",""
"104","","bandit","289","870174","0.0-251.0-0.0","86236167","wem/bandit_single","A1F9KLZGHE9DTA","gain","6","","75","K","2","","0","0","1","0.2355486522","","false","214","0.4097086646","","main_expt","0.3380837625","","0.2355486522","","0.2323699387","","","","","","",""
"54","","bandit","290","871990","0.0-252.0-0.0","86236167","wem/bandit_single","A1F9KLZGHE9DTA","gain","6","","76","L","3","","1","0","0","0.1880023584","","false","215","0.4553079268","","main_expt","0.3788103814","","0.2493822419","","0.1880023584","","","","","","",""
"211","","bandit","291","873966","0.0-253.0-0.0","86236167","wem/bandit_single","A1F9KLZGHE9DTA","gain","6","","76","L","3","","1","0","0","0.2305078945","","false","216","0.4360341733","","main_expt","0.3844600678","","0.2455091026","","0.2305078945","","","","","","",""
"108","","bandit","292","875840","0.0-254.0-0.0","86236167","wem/bandit_single","A1F9KLZGHE9DTA","gain","6","","76","L","3","","0","0","1","0.2042922501","","false","217","0.4337093526","","main_expt","0.3747540642","","0.193913996","","0.2042922501","","","","","","",""
"79","","bandit","293","877689","0.0-255.0-0.0","86236167","wem/bandit_single","A1F9KLZGHE9DTA","gain","6","","76","L","3","","0","0","1","0.1827914188","","false","218","0.4646024675","","main_expt","0.373903774","","0.2375794361","","0.1827914188","","","","","","",""
"93","","bandit","294","879544","0.0-256.0-0.0","86236167","wem/bandit_single","A1F9KLZGHE9DTA","gain","6","","72","H","0","img/none_selected.jpg","1","0","0","0.4630893692","","false","219","0.4630893692","","main_expt","0.3735380413","","0.2477723709","","0.2630445196","","","","","","",""
"121","","bandit","295","881448","0.0-257.0-0.0","86236167","wem/bandit_single","A1F9KLZGHE9DTA","gain","6","","72","H","0","img/none_selected.jpg","1","0","0","0.4683356487","","false","220","0.4683356487","","main_expt","0.383917491","","0.2543503475","","0.311946342","","","","","","",""
"677","","bandit","296","883889","0.0-258.0-0.0","86236167","wem/bandit_single","A1F9KLZGHE9DTA","gain","6","","72","H","0","img/none_selected.jpg","0","0","1","0.4682635517","","false","221","0.4682635517","","main_expt","0.3479973737","","0.2776519347","","0.2972788283","","","","","","",""
"160","","bandit","297","885816","0.0-259.0-0.0","86236167","wem/bandit_single","A1F9KLZGHE9DTA","gain","6","","72","H","0","img/none_selected.jpg","1","0","0","0.4771668828","","false","222","0.4771668828","","main_expt","0.3845595158","","0.2291835432","","0.3550400804","","","","","","",""
"290","","bandit","298","887870","0.0-260.0-0.0","86236167","wem/bandit_single","A1F9KLZGHE9DTA","gain","6","","72","H","0","img/none_selected.jpg","0","0","1","0.4773959318","","false","223","0.4773959318","","main_expt","0.368723436","","0.2266132179","","0.3246239653","","","","","","",""
"190","","bandit","299","889824","0.0-261.0-0.0","86236167","wem/bandit_single","A1F9KLZGHE9DTA","gain","6","","72","H","0","img/none_selected.jpg","0","0","1","0.4567335023","","false","224","0.4567335023","","main_expt","0.3566991655","","0.2124948974","","0.351266899","","","","","","",""
"13","","bandit","300","891605","0.0-262.0-0.0","86236167","wem/bandit_single","A1F9KLZGHE9DTA","gain","6","","74","J","1","","0","0","1","0.3557331736","","false","225","0.4545703871","","main_expt","0.3557331736","","0.2168010387","","0.3617362435","","","","","","",""
"870","","bandit","301","894240","0.0-263.0-0.0","86236167","wem/bandit_single","A1F9KLZGHE9DTA","gain","6","","75","K","2","","0","0","1","0.2286352314","","false","226","0.4563055184","","main_expt","0.3620904828","","0.2286352314","","0.3625162538","","","","","","",""
"421","","bandit","302","896423","0.0-264.0-0.0","86236167","wem/bandit_single","A1F9KLZGHE9DTA","gain","6","","76","L","3","","1","0","0","0.3638477037","","false","227","0.4414344485","","main_expt","0.3794330306","","0.2349833204","","0.3638477037","","","","","","",""
"341","","bandit","303","898529","0.0-265.0-0.0","86236167","wem/bandit_single","A1F9KLZGHE9DTA","gain","6","","76","L","3","","0","0","1","0.321865515","","false","228","0.4509897562","","main_expt","0.3480060926","","0.2376541641","","0.321865515","","","","","","",""
"80","","bandit","304","900367","0.0-266.0-0.0","86236167","wem/bandit_single","A1F9KLZGHE9DTA","gain","6","","75","K","2","","0","0","1","0.2141250471","","false","229","0.4355264455","","main_expt","0.3197951212","","0.2141250471","","0.2574970425","","","","","","",""
"53","","bandit","305","902207","0.0-267.0-0.0","86236167","wem/bandit_single","A1F9KLZGHE9DTA","gain","6","","74","J","1","","0","0","1","0.2360623461","","false","230","0.4393215817","","main_expt","0.2360623461","","0.1986478114","","0.3167366343","","","","","","",""
"135","","bandit","306","904113","0.0-268.0-0.0","86236167","wem/bandit_single","A1F9KLZGHE9DTA","gain","6","","72","H","0","img/none_selected.jpg","0","0","1","0.426442838","","false","231","0.426442838","","main_expt","0.228441671","","0.1632677176","","0.359889087","","","","","","",""
"65","","bandit","307","905945","0.0-269.0-0.0","86236167","wem/bandit_single","A1F9KLZGHE9DTA","gain","6","","72","H","0","img/none_selected.jpg","0","0","1","0.4455015341","","false","232","0.4455015341","","main_expt","0.2233622879","","0.1437929512","","0.3765691143","","","","","","",""
"524","","bandit","308","908233","0.0-270.0-0.0","86236167","wem/bandit_single","A1F9KLZGHE9DTA","gain","6","","72","H","0","img/none_selected.jpg","1","0","0","0.4370113712","","false","233","0.4370113712","","main_expt","0.1782647691","","0.2490618922","","0.351320345","","","","","","",""
"133","","bandit","309","910126","0.0-271.0-0.0","86236167","wem/bandit_single","A1F9KLZGHE9DTA","gain","6","","72","H","0","img/none_selected.jpg","1","0","0","0.4228056097","","false","234","0.4228056097","","main_expt","0.1971530904","","0.2811602772","","0.2997083133","","","","","","",""
"187","","bandit","310","912079","0.0-272.0-0.0","86236167","wem/bandit_single","A1F9KLZGHE9DTA","gain","6","","72","H","0","img/none_selected.jpg","0","0","1","0.4176536857","","false","235","0.4176536857","","main_expt","0.2109348075","","0.332316849","","0.3526624454","","","","","","",""
"536","","bandit","311","914376","0.0-273.0-0.0","86236167","wem/bandit_single","A1F9KLZGHE9DTA","gain","6","","72","H","0","img/none_selected.jpg","0","0","1","0.419442654","","false","236","0.419442654","","main_expt","0.1891579582","","0.3059905229","","0.3050627859","","","","","","",""
"17","","bandit","312","916158","0.0-274.0-0.0","86236167","wem/bandit_single","A1F9KLZGHE9DTA","gain","6","","74","J","1","","0","0","1","0.1278978542","","false","237","0.4082659589","","main_expt","0.1278978542","","0.3058344165","","0.312969263","","","","","","",""
"91","","bandit","313","918016","0.0-275.0-0.0","86236167","wem/bandit_single","A1F9KLZGHE9DTA","gain","6","","75","K","2","","0","0","1","0.2931512536","","false","238","0.4108407801","","main_expt","0.1509653188","","0.2931512536","","0.380225341","","","","","","",""
"153","","bandit","314","919937","0.0-276.0-0.0","86236167","wem/bandit_single","A1F9KLZGHE9DTA","gain","6","","76","L","3","","0","0","1","0.3657076542","","false","239","0.4378360478","","main_expt","0.1919733462","","0.2922133777","","0.3657076542","","","","","","",""
"124","","bandit","315","921824","0.0-277.0-0.0","86236167","wem/bandit_single","A1F9KLZGHE9DTA","gain","6","","75","K","2","","1","0","0","0.3452033359","","false","240","0.4467030129","","main_expt","0.1751407906","","0.3452033359","","0.3815359164","","","","","","",""
"51","","bandit","316","923642","0.0-278.0-0.0","86236167","wem/bandit_single","A1F9KLZGHE9DTA","gain","6","","75","K","2","","1","0","0","0.3682897549","","false","241","0.4705393647","","main_expt","0.1759125222","","0.3682897549","","0.3251101936","","","","","","",""
"99","","bandit","317","925506","0.0-279.0-0.0","86236167","wem/bandit_single","A1F9KLZGHE9DTA","gain","6","","75","K","2","","0","0","1","0.3628947189","","false","242","0.4610792938","","main_expt","0.2137068054","","0.3628947189","","0.3212185421","","","","","","",""
"153","","bandit","318","927426","0.0-280.0-0.0","86236167","wem/bandit_single","A1F9KLZGHE9DTA","gain","6","","74","J","1","","1","0","0","0.2179170348","","false","243","0.4437729889","","main_expt","0.2179170348","","0.3766569032","","0.3270030252","","","","","","",""
"630","","bandit","319","929824","0.0-281.0-0.0","86236167","wem/bandit_single","A1F9KLZGHE9DTA","gain","6","","74","J","1","","0","0","1","0.2426329099","","false","244","0.4199869792","","main_expt","0.2426329099","","0.377991886","","0.309973419","","","","","","",""
"121","","bandit","320","931710","0.0-282.0-0.0","86236167","wem/bandit_single","A1F9KLZGHE9DTA","gain","6","","74","J","1","","0","0","1","0.2351694379","","false","245","0.4183767379","","main_expt","0.2351694379","","0.304751896","","0.3342881273","","","","","","",""
"128","","bandit","321","933609","0.0-283.0-0.0","86236167","wem/bandit_single","A1F9KLZGHE9DTA","gain","6","","72","H","0","img/none_selected.jpg","1","0","0","0.4292136751","","false","246","0.4292136751","","main_expt","0.2111663312","","0.3348187262","","0.3149240913","","","","","","",""
"100","","bandit","322","935474","0.0-284.0-0.0","86236167","wem/bandit_single","A1F9KLZGHE9DTA","gain","6","","72","H","0","img/none_selected.jpg","1","0","0","0.4577956797","","false","247","0.4577956797","","main_expt","0.1899020887","","0.3307987246","","0.296458043","","","","","","",""
"498","","bandit","323","937767","0.0-285.0-0.0","86236167","wem/bandit_single","A1F9KLZGHE9DTA","gain","6","","72","H","0","img/none_selected.jpg","0","0","1","0.4586239927","","false","248","0.4586239927","","main_expt","0.2151484255","","0.3774544282","","0.3038576119","","","","","","",""
"50","","bandit","324","939583","0.0-286.0-0.0","86236167","wem/bandit_single","A1F9KLZGHE9DTA","gain","6","","74","J","1","","1","0","0","0.2454548658","","false","249","0.4709187109","","main_expt","0.2454548658","","0.3553688181","","0.3383832125","","","","","","",""
"385","","bandit","325","941749","0.0-287.0-0.0","86236167","wem/bandit_single","A1F9KLZGHE9DTA","gain","6","","74","J","1","","1","0","0","0.1973527755","","false","250","0.4742496359","","main_expt","0.1973527755","","0.3209961504","","0.3505221498","","","","","","",""
"31","","bandit","326","943546","0.0-288.0-0.0","86236167","wem/bandit_single","A1F9KLZGHE9DTA","gain","6","","74","J","1","","0","0","1","0.2459600056","","false","251","0.4684276702","","main_expt","0.2459600056","","0.2938420796","","0.3439557404","","","","","","",""
"29","","bandit","327","945351","0.0-289.0-0.0","86236167","wem/bandit_single","A1F9KLZGHE9DTA","gain","6","","75","K","2","","0","0","1","0.2377141092","","false","252","0.465775704","","main_expt","0.2361341643","","0.2377141092","","0.3394881367","","","","","","",""
"445","","bandit","328","947561","0.0-290.0-0.0","86236167","wem/bandit_single","A1F9KLZGHE9DTA","gain","6","","75","K","2","","0","0","1","0.28098189","","false","253","0.4739398589","","main_expt","0.2263014677","","0.28098189","","0.3195186677","","","","","","",""
"2","","bandit","329","949328","0.0-291.0-0.0","86236167","wem/bandit_single","A1F9KLZGHE9DTA","gain","6","","76","L","3","","0","0","1","0.3607388593","","false","254","0.4709597483","","main_expt","0.2384195691","","0.36168886","","0.3607388593","","","","","","",""
"146","","bandit","330","951239","0.0-292.0-0.0","86236167","wem/bandit_single","A1F9KLZGHE9DTA","gain","6","","75","K","2","","1","0","0","0.3196270919","","false","255","0.468651231","","main_expt","0.2186709452","","0.3196270919","","0.3801942793","","","","","","",""
"6","","bandit","331","953012","0.0-293.0-0.0","86236167","wem/bandit_single","A1F9KLZGHE9DTA","gain","6","","75","K","2","","0","0","1","0.3201998045","","false","256","0.4837462493","","main_expt","0.1625458568","","0.3201998045","","0.2987962353","","","","","","",""
"70","","bandit","332","954849","0.0-294.0-0.0","86236167","wem/bandit_single","A1F9KLZGHE9DTA","gain","6","","75","K","2","","0","0","1","0.3576002339","","false","257","0.4842399178","","main_expt","0.159361747","","0.3576002339","","0.272571782","","","","","","",""
"70","","bandit","333","956689","0.0-295.0-0.0","86236167","wem/bandit_single","A1F9KLZGHE9DTA","gain","6","","74","J","1","","0","0","1","0.1556255119","","false","258","0.4878873921","","main_expt","0.1556255119","","0.3715220428","","0.2593204486","","","","","","",""
"548","","bandit","334","958999","0.0-296.0-0.0","86236167","wem/bandit_single","A1F9KLZGHE9DTA","gain","6","","72","H","0","img/none_selected.jpg","0","0","1","0.4869160663","","false","259","0.4869160663","","main_expt","0.1256368346","","0.3730860303","","0.2951424317","","","","","","",""
"81","","bandit","335","960848","0.0-297.0-0.0","86236167","wem/bandit_single","A1F9KLZGHE9DTA","gain","6","","74","J","1","","1","0","0","0.1449854444","","false","260","0.4912834456","","main_expt","0.1449854444","","0.3724964978","","0.2369093976","","","","","","",""
"334","","bandit","336","962946","0.0-298.0-0.0","86236167","wem/bandit_single","A1F9KLZGHE9DTA","gain","6","","74","J","1","","0","0","1","0.1647157085","","false","261","0.4907072989","","main_expt","0.1647157085","","0.3574286068","","0.2234433316","","","","","","",""
"103","","bandit","337","964817","0.0-299.0-0.0","86236167","wem/bandit_single","A1F9KLZGHE9DTA","gain","6","","75","K","2","","0","0","1","0.4204463107","","false","262","0.4904114062","","main_expt","0.1586541082","","0.4204463107","","0.215626833","","","","","","",""
"95","","bandit","338","966687","0.0-300.0-0.0","86236167","wem/bandit_single","A1F9KLZGHE9DTA","gain","6","","74","J","1","","1","0","0","0.1683870388","","false","263","0.4900075499","","main_expt","0.1683870388","","0.4244263348","","0.2227197798","","","","","","",""
"24","","bandit","339","968483","0.0-301.0-0.0","86236167","wem/bandit_single","A1F9KLZGHE9DTA","gain","6","","74","J","1","","0","0","1","0.2205087037","","false","264","0.4922230388","","main_expt","0.2205087037","","0.4217668892","","0.2113558788","","","","","","",""
"27","","bandit","340","970275","0.0-302.0-0.0","86236167","wem/bandit_single","A1F9KLZGHE9DTA","gain","6","","74","J","1","","0","0","1","0.1554736059","","false","265","0.4892111554","","main_expt","0.1554736059","","0.3908218086","","0.1814287308","","","","","","",""
"43","","bandit","341","972078","0.0-303.0-0.0","86236167","wem/bandit_single","A1F9KLZGHE9DTA","gain","6","","76","L","3","","1","0","0","0.2579261203","","false","266","0.4894097466","","main_expt","0.1556775797","","0.350583855","","0.2579261203","","","","","","",""
"396","","bandit","342","974240","0.0-304.0-0.0","86236167","wem/bandit_single","A1F9KLZGHE9DTA","gain","6","","76","L","3","","0","0","1","0.3033521226","","false","267","0.4898547377","","main_expt","0.1732223335","","0.2971845499","","0.3033521226","","","","","","",""
"313","","bandit","343","976320","0.0-305.0-0.0","86236167","wem/bandit_single","A1F9KLZGHE9DTA","gain","6","","76","L","3","","0","0","1","0.2697057224","","false","268","0.4960714099","","main_expt","0.1670192172","","0.3271935382","","0.2697057224","","","","","","",""
"238","","bandit","344","978324","0.0-306.0-0.0","86236167","wem/bandit_single","A1F9KLZGHE9DTA","gain","6","","72","H","0","img/none_selected.jpg","0","0","1","0.4951393121","","false","269","0.4951393121","","main_expt","0.1666577124","","0.2912245063","","0.3075876552","","","","","","",""
"142","","bandit","345","980235","0.0-307.0-0.0","86236167","wem/bandit_single","A1F9KLZGHE9DTA","gain","6","","72","H","0","img/none_selected.jpg","0","0","1","0.4903783272","","false","270","0.4903783272","","main_expt","0.1133531577","","0.3007980493","","0.3437361696","","","","","","",""
"327","","bandit","346","982326","0.0-308.0-0.0","86236167","wem/bandit_single","A1F9KLZGHE9DTA","gain","6","","74","J","1","","0","0","1","0.1453503833","","false","271","0.4932948231","","main_expt","0.1453503833","","0.3025875308","","0.2596534978","","","","","","",""
"110","","bandit","347","984199","0.0-309.0-0.0","86236167","wem/bandit_single","A1F9KLZGHE9DTA","gain","6","","75","K","2","","0","0","1","0.2608882705","","false","272","0.4950636705","","main_expt","0.1542373291","","0.2608882705","","0.2680739133","","","","","","",""
"144","","bandit","348","986113","0.0-310.0-0.0","86236167","wem/bandit_single","A1F9KLZGHE9DTA","gain","6","","76","L","3","","0","0","1","0.2287209558","","false","273","0.4866982898","","main_expt","0.1312836042","","0.2985246063","","0.2287209558","","","","","","",""
"121","","bandit","349","987999","0.0-311.0-0.0","86236167","wem/bandit_single","A1F9KLZGHE9DTA","gain","6","","72","H","0","img/none_selected.jpg","1","0","0","0.4654226264","","false","274","0.4654226264","","main_expt","0.1616535947","","0.296104213","","0.2659047846","","","","","","",""
"225","","bandit","350","989991","0.0-312.0-0.0","86236167","wem/bandit_single","A1F9KLZGHE9DTA","gain","6","","72","H","0","img/none_selected.jpg","0","0","1","0.4633702838","","false","275","0.4633702838","","main_expt","0.163822666","","0.2897414639","","0.2303642271","","","","","","",""
"50","","bandit","351","991809","0.0-313.0-0.0","86236167","wem/bandit_single","A1F9KLZGHE9DTA","gain","6","","74","J","1","","0","0","1","0.1500588852","","false","276","0.4741710053","","main_expt","0.1500588852","","0.296822441","","0.2631654739","","","","","","",""
"471","","bandit","352","994047","0.0-314.0-0.0","86236167","wem/bandit_single","A1F9KLZGHE9DTA","gain","6","","74","J","1","","0","0","1","0.1975700973","","false","277","0.4821206929","","main_expt","0.1975700973","","0.2769528726","","0.2660527836","","","","","","",""
"17","","bandit","353","995831","0.0-315.0-0.0","86236167","wem/bandit_single","A1F9KLZGHE9DTA","gain","6","","75","K","2","","1","0","0","0.3356585436","","false","278","0.4704549119","","main_expt","0.1355298524","","0.3356585436","","0.2869547209","","","","","","",""
"48","","bandit","354","997649","0.0-316.0-0.0","86236167","wem/bandit_single","A1F9KLZGHE9DTA","gain","6","","75","K","2","","0","0","1","0.3222384225","","false","279","0.4749598821","","main_expt","0.1437345226","","0.3222384225","","0.3594721793","","","","","","",""
"93","","bandit","355","999513","0.0-317.0-0.0","86236167","wem/bandit_single","A1F9KLZGHE9DTA","gain","6","","76","L","3","","0","0","1","0.3903699723","","false","280","0.4385317488","","main_expt","0.126787642","","0.27346357","","0.3903699723","","","","","","",""
"63","","bandit","356","1001347","0.0-318.0-0.0","86236167","wem/bandit_single","A1F9KLZGHE9DTA","gain","6","","76","L","3","","1","0","0","0.4583904318","","false","281","0.4397970497","","main_expt","0.1765789866","","0.3633072925","","0.4583904318","","","","","","",""
"365","","bandit","357","1003494","0.0-319.0-0.0","86236167","wem/bandit_single","A1F9KLZGHE9DTA","gain","6","","76","L","3","","0","0","1","0.4689346609","","false","282","0.4485424667","","main_expt","0.1659157347","","0.3269934488","","0.4689346609","","","","","","",""
"46","","bandit","358","1005305","0.0-320.0-0.0","86236167","wem/bandit_single","A1F9KLZGHE9DTA","gain","6","","72","H","0","img/none_selected.jpg","0","0","1","0.4460930912","","false","283","0.4460930912","","main_expt","0.1876778028","","0.324321327","","0.460541741","","","","","","",""
"63","","bandit","359","1007136","0.0-321.0-0.0","86236167","wem/bandit_single","A1F9KLZGHE9DTA","gain","6","","74","J","1","","0","0","1","0.2072959333","","false","284","0.46041158","","main_expt","0.2072959333","","0.2677217275","","0.4485703909","","","","","","",""
"317","","bandit","360","1009225","0.0-322.0-0.0","86236167","wem/bandit_single","A1F9KLZGHE9DTA","gain","6","","75","K","2","","0","0","1","0.2832280908","","false","285","0.4722631388","","main_expt","0.2171876524","","0.2832280908","","0.4493749552","","","","","","",""
"162","","bandit","361","1011153","0.0-323.0-0.0","86236167","wem/bandit_single","A1F9KLZGHE9DTA","gain","6","","76","L","3","","0","0","1","0.4223312446","","false","286","0.4710864859","","main_expt","0.224404947","","0.3338799161","","0.4223312446","","","","","","",""
"362","","bandit","362","1013281","0.0-324.0-0.0","86236167","wem/bandit_single","A1F9KLZGHE9DTA","gain","6","","72","H","0","img/none_selected.jpg","1","0","0","0.4400158941","","false","287","0.4400158941","","main_expt","0.2249093708","","0.3484096991","","0.457140216","","","","","","",""
"356","","bandit","363","1015415","0.0-325.0-0.0","86236167","wem/bandit_single","A1F9KLZGHE9DTA","gain","6","","72","H","0","img/none_selected.jpg","0","0","1","0.4036546776","","false","288","0.4036546776","","main_expt","0.2219747159","","0.3215301514","","0.4411377771","","","","","","",""
"266","","bandit","364","1017448","0.0-326.0-0.0","86236167","wem/bandit_single","A1F9KLZGHE9DTA","gain","6","","74","J","1","","0","0","1","0.2183007497","","false","289","0.4324218596","","main_expt","0.2183007497","","0.2965974011","","0.4501271696","","","","","","",""
"184","","bandit","365","1019401","0.0-327.0-0.0","86236167","wem/bandit_single","A1F9KLZGHE9DTA","gain","6","","75","K","2","","0","0","1","0.2926361454","","false","290","0.4536473803","","main_expt","0.2481136515","","0.2926361454","","0.4436507911","","","","","","",""
"52","","bandit","366","1021217","0.0-328.0-0.0","86236167","wem/bandit_single","A1F9KLZGHE9DTA","gain","6","","72","H","0","img/none_selected.jpg","0","0","1","0.4634661847","","false","291","0.4634661847","","main_expt","0.2972088317","","0.243163711","","0.4381939672","","","","","","",""
"46","","bandit","367","1023032","0.0-329.0-0.0","86236167","wem/bandit_single","A1F9KLZGHE9DTA","gain","6","","76","L","3","","1","0","0","0.4101305143","","false","292","0.4609966616","","main_expt","0.2998647236","","0.2064952975","","0.4101305143","","","","","","",""
"358","","bandit","368","1025158","0.0-330.0-0.0","86236167","wem/bandit_single","A1F9KLZGHE9DTA","gain","6","","76","L","3","","1","0","0","0.4297915702","","false","293","0.4648618971","","main_expt","0.2861810992","","0.2099334792","","0.4297915702","","","","","","",""
"625","","bandit","369","1027562","0.0-331.0-0.0","86236167","wem/bandit_single","A1F9KLZGHE9DTA","gain","6","","76","L","3","","1","0","0","0.4537219743","","false","294","0.4582487824","","main_expt","0.345484004","","0.2507358833","","0.4537219743","","","","","","",""
"385","","bandit","370","1029712","0.0-332.0-0.0","86236167","wem/bandit_single","A1F9KLZGHE9DTA","gain","6","","76","L","3","","1","0","0","0.4694953972","","false","295","0.4482247061","","main_expt","0.3251772281","","0.2494268831","","0.4694953972","","","","","","",""
"501","","bandit","371","1031985","0.0-333.0-0.0","86236167","wem/bandit_single","A1F9KLZGHE9DTA","gain","6","","76","L","3","","1","0","0","0.4880383038","","false","296","0.42326912","","main_expt","0.2953905587","","0.2867080039","","0.4880383038","","","","","","",""
