"rt","responses","trial_type","trial_index","time_elapsed","internal_node_id","subjID","study","MID","cond","drift","key_press","respCharCode","respKey","respChoiceNum","respChoice","gems","bombs","no_reward","GemPrChosen","BombPrChosen","practice","trial_counter","WinPr_0","LosePr_0","trial_label","WinPr_1","LosePr_1","WinPr_2","LosePr_2","WinPr_3","LosePr_3","Q0","Q1","Q2","gender","age","ethnicity"
"35768","{""Q0"":""A2A1FS0KVLJ9ZT""}","survey-text","0","35775","0.0-0.0","88158401","wem/bandit_single","A2A1FS0KVLJ9ZT","gain","8","","","","","","","","","","","","","","","","","","","","","","","","","","",""
"4545","","text","1","41325","0.0-1.0","88158401","wem/bandit_single","A2A1FS0KVLJ9ZT","gain","8","32","","","","","","","","","","","","","","","","","","","","","","","","","",""
"4104","","text","2","45431","0.0-2.0","88158401","wem/bandit_single","A2A1FS0KVLJ9ZT","gain","8","32","","","","","","","","","","","","","","","","","","","","","","","","","",""
"9465","","text","3","54898","0.0-3.0","88158401","wem/bandit_single","A2A1FS0KVLJ9ZT","gain","8","32","","","","","","","","","","","","","","","","","","","","","","","","","",""
"14194","","text","4","69094","0.0-4.0","88158401","wem/bandit_single","A2A1FS0KVLJ9ZT","gain","8","32","","","","","","","","","","","","","","","","","","","","","","","","","",""
"7013","","text","5","76109","0.0-5.0","88158401","wem/bandit_single","A2A1FS0KVLJ9ZT","gain","8","32","","","","","","","","","","","","","","","","","","","","","","","","","",""
"7819","","text","6","83928","0.0-6.0","88158401","wem/bandit_single","A2A1FS0KVLJ9ZT","gain","8","32","","","","","","","","","","","","","","","","","","","","","","","","","",""
"3342","","text","7","87272","0.0-7.0","88158401","wem/bandit_single","A2A1FS0KVLJ9ZT","gain","8","32","","","","","","","","","","","","","","","","","","","","","","","","","",""
"2808","","text","8","90081","0.0-8.0","88158401","wem/bandit_single","A2A1FS0KVLJ9ZT","gain","8","32","","","","","","","","","","","","","","","","","","","","","","","","","",""
"1135","","text","9","91217","0.0-9.0","88158401","wem/bandit_single","A2A1FS0KVLJ9ZT","gain","8","32","","","","","","","","","","","","","","","","","","","","","","","","","",""
"2274","","text","10","93492","0.0-10.0","88158401","wem/bandit_single","A2A1FS0KVLJ9ZT","gain","8","32","","","","","","","","","","","","","","","","","","","","","","","","","",""
"8148","","text","11","101641","0.0-11.0","88158401","wem/bandit_single","A2A1FS0KVLJ9ZT","gain","8","32","","","","","","","","","","","","","","","","","","","","","","","","","",""
"585","","bandit","12","103734","0.0-12.0-0.0","88158401","wem/bandit_single","A2A1FS0KVLJ9ZT","gain","8","","74","J","0","img/none_selected_demo.jpg","0","0","1","0","0","true","0","0","0","","","","","","","","","","","","",""
"163","","bandit","13","105652","0.0-13.0-0.0","88158401","wem/bandit_single","A2A1FS0KVLJ9ZT","gain","8","","75","K","0","img/none_selected_demo.jpg","0","0","1","0","0","true","0","0","0","","","","","","","","","","","","",""
"1847","","text","14","107751","0.0-14.0","88158401","wem/bandit_single","A2A1FS0KVLJ9ZT","gain","8","32","","","","","","","","","","","","","","","","","","","","","","","","","",""
"1425","","text","15","109178","0.0-15.0","88158401","wem/bandit_single","A2A1FS0KVLJ9ZT","gain","8","32","","","","","","","","","","","","","","","","","","","","","","","","","",""
"1970","","text","16","111148","0.0-16.0","88158401","wem/bandit_single","A2A1FS0KVLJ9ZT","gain","8","32","","","","","","","","","","","","","","","","","","","","","","","","","",""
"2329","","text","17","113479","0.0-17.0","88158401","wem/bandit_single","A2A1FS0KVLJ9ZT","gain","8","32","","","","","","","","","","","","","","","","","","","","","","","","","",""
"1138","","bandit","18","116122","0.0-18.0-0.0","88158401","wem/bandit_single","A2A1FS0KVLJ9ZT","gain","8","","75","K","1","","0","0","1","0.2","0","true","0","0.8","0","80_20_practice","0.2","0","","","","","","","","","",""
"345","","bandit","19","118223","0.0-18.0-1.0","88158401","wem/bandit_single","A2A1FS0KVLJ9ZT","gain","8","","74","J","0","img/none_selected_demo.jpg","1","0","0","0.8","0","true","0","0.8","0","80_20_practice","0.2","0","","","","","","","","","",""
"2005","","bandit","20","121986","0.0-18.0-2.0","88158401","wem/bandit_single","A2A1FS0KVLJ9ZT","gain","8","","74","J","0","img/none_selected_demo.jpg","0","0","1","0.8","0","true","0","0.8","0","80_20_practice","0.2","0","","","","","","","","","",""
"109","","bandit","21","123851","0.0-18.0-3.0","88158401","wem/bandit_single","A2A1FS0KVLJ9ZT","gain","8","","74","J","0","img/none_selected_demo.jpg","1","0","0","0.8","0","true","0","0.8","0","80_20_practice","0.2","0","","","","","","","","","",""
"225","","bandit","22","125831","0.0-18.0-4.0","88158401","wem/bandit_single","A2A1FS0KVLJ9ZT","gain","8","","74","J","0","img/none_selected_demo.jpg","1","0","0","0.8","0","true","0","0.8","0","80_20_practice","0.2","0","","","","","","","","","",""
"61","","bandit","23","127649","0.0-18.0-5.0","88158401","wem/bandit_single","A2A1FS0KVLJ9ZT","gain","8","","74","J","0","img/none_selected_demo.jpg","1","0","0","0.8","0","true","0","0.8","0","80_20_practice","0.2","0","","","","","","","","","",""
"0","","bandit","24","129405","0.0-18.0-6.0","88158401","wem/bandit_single","A2A1FS0KVLJ9ZT","gain","8","","75","K","1","","0","0","1","0.2","0","true","0","0.8","0","80_20_practice","0.2","0","","","","","","","","","",""
"103","","bandit","25","131263","0.0-18.0-7.0","88158401","wem/bandit_single","A2A1FS0KVLJ9ZT","gain","8","","75","K","1","","0","0","1","0.2","0","true","0","0.8","0","80_20_practice","0.2","0","","","","","","","","","",""
"162","","bandit","26","133180","0.0-18.0-8.0","88158401","wem/bandit_single","A2A1FS0KVLJ9ZT","gain","8","","75","K","1","","0","0","1","0.2","0","true","0","0.8","0","80_20_practice","0.2","0","","","","","","","","","",""
"939","","bandit","27","135875","0.0-18.0-9.0","88158401","wem/bandit_single","A2A1FS0KVLJ9ZT","gain","8","","75","K","1","","1","0","0","0.2","0","true","0","0.8","0","80_20_practice","0.2","0","","","","","","","","","",""
"59","","bandit","28","137697","0.0-18.0-10.0","88158401","wem/bandit_single","A2A1FS0KVLJ9ZT","gain","8","","75","K","1","","0","0","1","0.2","0","true","0","0.8","0","80_20_practice","0.2","0","","","","","","","","","",""
"593","","bandit","29","140049","0.0-18.0-11.0","88158401","wem/bandit_single","A2A1FS0KVLJ9ZT","gain","8","","74","J","0","img/none_selected_demo.jpg","0","0","1","0.8","0","true","0","0.8","0","80_20_practice","0.2","0","","","","","","","","","",""
"789","","bandit","30","142594","0.0-18.0-12.0","88158401","wem/bandit_single","A2A1FS0KVLJ9ZT","gain","8","","74","J","0","img/none_selected_demo.jpg","0","0","1","0.8","0","true","0","0.8","0","80_20_practice","0.2","0","","","","","","","","","",""
"342","","bandit","31","144692","0.0-18.0-13.0","88158401","wem/bandit_single","A2A1FS0KVLJ9ZT","gain","8","","74","J","0","img/none_selected_demo.jpg","0","0","1","0.8","0","true","0","0.8","0","80_20_practice","0.2","0","","","","","","","","","",""
"147","","bandit","32","146596","0.0-18.0-14.0","88158401","wem/bandit_single","A2A1FS0KVLJ9ZT","gain","8","","74","J","0","img/none_selected_demo.jpg","1","0","0","0.8","0","true","0","0.8","0","80_20_practice","0.2","0","","","","","","","","","",""
"113","","bandit","33","148463","0.0-18.0-15.0","88158401","wem/bandit_single","A2A1FS0KVLJ9ZT","gain","8","","74","J","0","img/none_selected_demo.jpg","0","0","1","0.8","0","true","0","0.8","0","80_20_practice","0.2","0","","","","","","","","","",""
"89","","bandit","34","150309","0.0-18.0-16.0","88158401","wem/bandit_single","A2A1FS0KVLJ9ZT","gain","8","","74","J","0","img/none_selected_demo.jpg","1","0","0","0.8","0","true","0","0.8","0","80_20_practice","0.2","0","","","","","","","","","",""
"294","","bandit","35","152359","0.0-18.0-17.0","88158401","wem/bandit_single","A2A1FS0KVLJ9ZT","gain","8","","74","J","0","img/none_selected_demo.jpg","1","0","0","0.8","0","true","0","0.8","0","80_20_practice","0.2","0","","","","","","","","","",""
"409","","bandit","36","154527","0.0-18.0-18.0","88158401","wem/bandit_single","A2A1FS0KVLJ9ZT","gain","8","","74","J","0","img/none_selected_demo.jpg","1","0","0","0.8","0","true","0","0.8","0","80_20_practice","0.2","0","","","","","","","","","",""
"1518","","bandit","37","157802","0.0-18.0-19.0","88158401","wem/bandit_single","A2A1FS0KVLJ9ZT","gain","8","","74","J","0","img/none_selected_demo.jpg","1","0","0","0.8","0","true","0","0.8","0","80_20_practice","0.2","0","","","","","","","","","",""
"27921","","text","38","185977","0.0-19.0","88158401","wem/bandit_single","A2A1FS0KVLJ9ZT","gain","8","32","","","","","","","","","","","","","","","","","","","","","","","","","",""
"3234","","bandit","39","190717","0.0-20.0-0.0","88158401","wem/bandit_single","A2A1FS0KVLJ9ZT","gain","8","","74","J","0","img/none_selected_demo.jpg","0","0","1","0","0","true","0","0","0","","0","0","","","","","","","","","",""
"4616","","text","40","195586","0.0-21.0","88158401","wem/bandit_single","A2A1FS0KVLJ9ZT","gain","8","32","","","","","","","","","","","","","","","","","","","","","","","","","",""
"2736","","text","41","198323","0.0-22.0","88158401","wem/bandit_single","A2A1FS0KVLJ9ZT","gain","8","32","","","","","","","","","","","","","","","","","","","","","","","","","",""
"2698","","text","42","201023","0.0-23.0","88158401","wem/bandit_single","A2A1FS0KVLJ9ZT","gain","8","32","","","","","","","","","","","","","","","","","","","","","","","","","",""
"3720","","text","43","204744","0.0-24.0","88158401","wem/bandit_single","A2A1FS0KVLJ9ZT","gain","8","32","","","","","","","","","","","","","","","","","","","","","","","","","",""
"14710","","text","44","219456","0.0-25.0","88158401","wem/bandit_single","A2A1FS0KVLJ9ZT","gain","8","32","","","","","","","","","","","","","","","","","","","","","","","","","",""
"4963","","text","45","224420","0.0-26.0","88158401","wem/bandit_single","A2A1FS0KVLJ9ZT","gain","8","32","","","","","","","","","","","","","","","","","","","","","","","","","",""
"6665","","text","46","231087","0.0-27.0","88158401","wem/bandit_single","A2A1FS0KVLJ9ZT","gain","8","32","","","","","","","","","","","","","","","","","","","","","","","","","",""
"4593","","text","47","235681","0.0-28.0","88158401","wem/bandit_single","A2A1FS0KVLJ9ZT","gain","8","32","","","","","","","","","","","","","","","","","","","","","","","","","",""
"10642","","text","48","246324","0.0-29.0","88158401","wem/bandit_single","A2A1FS0KVLJ9ZT","gain","8","32","","","","","","","","","","","","","","","","","","","","","","","","","",""
"1413","","text","49","247739","0.0-30.0","88158401","wem/bandit_single","A2A1FS0KVLJ9ZT","gain","8","32","","","","","","","","","","","","","","","","","","","","","","","","","",""
"23816","","text","50","271556","0.0-31.0","88158401","wem/bandit_single","A2A1FS0KVLJ9ZT","gain","8","32","","","","","","","","","","","","","","","","","","","","","","","","","",""
"1129","","bandit","51","274191","0.0-32.0-0.0","88158401","wem/bandit_single","A2A1FS0KVLJ9ZT","gain","8","","72","H","0","img/none_selected.jpg","1","0","0","0.8","0","true","0","0.8","0","full_practice","0.2","0","0.6","0","0.2","0","","","","","",""
"48","","bandit","52","275994","0.0-32.0-1.0","88158401","wem/bandit_single","A2A1FS0KVLJ9ZT","gain","8","","72","H","0","img/none_selected.jpg","1","0","0","0.8","0","true","0","0.8","0","full_practice","0.2","0","0.6","0","0.2","0","","","","","",""
"159","","bandit","53","277908","0.0-32.0-2.0","88158401","wem/bandit_single","A2A1FS0KVLJ9ZT","gain","8","","72","H","0","img/none_selected.jpg","1","0","0","0.8","0","true","0","0.8","0","full_practice","0.2","0","0.6","0","0.2","0","","","","","",""
"74","","bandit","54","279739","0.0-32.0-3.0","88158401","wem/bandit_single","A2A1FS0KVLJ9ZT","gain","8","","72","H","0","img/none_selected.jpg","1","0","0","0.8","0","true","0","0.8","0","full_practice","0.2","0","0.6","0","0.2","0","","","","","",""
"243","","bandit","55","281739","0.0-32.0-4.0","88158401","wem/bandit_single","A2A1FS0KVLJ9ZT","gain","8","","72","H","0","img/none_selected.jpg","1","0","0","0.8","0","true","0","0.8","0","full_practice","0.2","0","0.6","0","0.2","0","","","","","",""
"520","","bandit","56","284017","0.0-32.0-5.0","88158401","wem/bandit_single","A2A1FS0KVLJ9ZT","gain","8","","74","J","1","","1","0","0","0.2","0","true","0","0.8","0","full_practice","0.2","0","0.6","0","0.2","0","","","","","",""
"112","","bandit","57","285884","0.0-32.0-6.0","88158401","wem/bandit_single","A2A1FS0KVLJ9ZT","gain","8","","74","J","1","","0","0","1","0.2","0","true","0","0.8","0","full_practice","0.2","0","0.6","0","0.2","0","","","","","",""
"277","","bandit","58","287916","0.0-32.0-7.0","88158401","wem/bandit_single","A2A1FS0KVLJ9ZT","gain","8","","74","J","1","","0","0","1","0.2","0","true","0","0.8","0","full_practice","0.2","0","0.6","0","0.2","0","","","","","",""
"186","","bandit","59","289860","0.0-32.0-8.0","88158401","wem/bandit_single","A2A1FS0KVLJ9ZT","gain","8","","74","J","1","","0","0","1","0.2","0","true","0","0.8","0","full_practice","0.2","0","0.6","0","0.2","0","","","","","",""
"272","","bandit","60","291887","0.0-32.0-9.0","88158401","wem/bandit_single","A2A1FS0KVLJ9ZT","gain","8","","74","J","1","","0","0","1","0.2","0","true","0","0.8","0","full_practice","0.2","0","0.6","0","0.2","0","","","","","",""
"168","","bandit","61","293811","0.0-32.0-10.0","88158401","wem/bandit_single","A2A1FS0KVLJ9ZT","gain","8","","75","K","2","","1","0","0","0.6","0","true","0","0.8","0","full_practice","0.2","0","0.6","0","0.2","0","","","","","",""
"39","","bandit","62","295606","0.0-32.0-11.0","88158401","wem/bandit_single","A2A1FS0KVLJ9ZT","gain","8","","75","K","2","","1","0","0","0.6","0","true","0","0.8","0","full_practice","0.2","0","0.6","0","0.2","0","","","","","",""
"224","","bandit","63","297586","0.0-32.0-12.0","88158401","wem/bandit_single","A2A1FS0KVLJ9ZT","gain","8","","75","K","2","","1","0","0","0.6","0","true","0","0.8","0","full_practice","0.2","0","0.6","0","0.2","0","","","","","",""
"75","","bandit","64","299417","0.0-32.0-13.0","88158401","wem/bandit_single","A2A1FS0KVLJ9ZT","gain","8","","75","K","2","","1","0","0","0.6","0","true","0","0.8","0","full_practice","0.2","0","0.6","0","0.2","0","","","","","",""
"103","","bandit","65","301274","0.0-32.0-14.0","88158401","wem/bandit_single","A2A1FS0KVLJ9ZT","gain","8","","75","K","2","","1","0","0","0.6","0","true","0","0.8","0","full_practice","0.2","0","0.6","0","0.2","0","","","","","",""
"62","","bandit","66","303092","0.0-32.0-15.0","88158401","wem/bandit_single","A2A1FS0KVLJ9ZT","gain","8","","76","L","3","","0","0","1","0.2","0","true","0","0.8","0","full_practice","0.2","0","0.6","0","0.2","0","","","","","",""
"97","","bandit","67","304948","0.0-32.0-16.0","88158401","wem/bandit_single","A2A1FS0KVLJ9ZT","gain","8","","76","L","3","","0","0","1","0.2","0","true","0","0.8","0","full_practice","0.2","0","0.6","0","0.2","0","","","","","",""
"449","","bandit","68","307153","0.0-32.0-17.0","88158401","wem/bandit_single","A2A1FS0KVLJ9ZT","gain","8","","76","L","3","","1","0","0","0.2","0","true","0","0.8","0","full_practice","0.2","0","0.6","0","0.2","0","","","","","",""
"66","","bandit","69","308973","0.0-32.0-18.0","88158401","wem/bandit_single","A2A1FS0KVLJ9ZT","gain","8","","76","L","3","","0","0","1","0.2","0","true","0","0.8","0","full_practice","0.2","0","0.6","0","0.2","0","","","","","",""
"205","","bandit","70","310932","0.0-32.0-19.0","88158401","wem/bandit_single","A2A1FS0KVLJ9ZT","gain","8","","76","L","3","","0","0","1","0.2","0","true","0","0.8","0","full_practice","0.2","0","0.6","0","0.2","0","","","","","",""
"2546","","text","71","313734","0.0-33.0","88158401","wem/bandit_single","A2A1FS0KVLJ9ZT","gain","8","32","","","","","","","","","","","","","","","","","","","","","","","","","",""
"12348","","text","72","327086","0.0-34.0","88158401","wem/bandit_single","A2A1FS0KVLJ9ZT","gain","8","32","","","","","","","","","","","","","","","","","","","","","","","","","",""
"3501","","text","73","330589","0.0-35.0","88158401","wem/bandit_single","A2A1FS0KVLJ9ZT","gain","8","32","","","","","","","","","","","","","","","","","","","","","","","","","",""
"3793","","text","74","334384","0.0-36.0","88158401","wem/bandit_single","A2A1FS0KVLJ9ZT","gain","8","32","","","","","","","","","","","","","","","","","","","","","","","","","",""
"4711","","text","75","339098","0.0-37.0","88158401","wem/bandit_single","A2A1FS0KVLJ9ZT","gain","8","32","","","","","","","","","","","","","","","","","","","","","","","","","",""
"733","","bandit","76","341338","0.0-38.0-0.0","88158401","wem/bandit_single","A2A1FS0KVLJ9ZT","gain","8","","72","H","0","img/none_selected.jpg","0","0","1","0.461186604","","false","1","0.461186604","","main_expt","0.2726752288","","0.2895646149","","0.4519399214","","","","","","",""
"244","","bandit","77","343338","0.0-39.0-0.0","88158401","wem/bandit_single","A2A1FS0KVLJ9ZT","gain","8","","72","H","0","img/none_selected.jpg","1","0","0","0.4745384616","","false","2","0.4745384616","","main_expt","0.2373300031","","0.3162770887","","0.4414774062","","","","","","",""
"60","","bandit","78","345154","0.0-40.0-0.0","88158401","wem/bandit_single","A2A1FS0KVLJ9ZT","gain","8","","72","H","0","img/none_selected.jpg","1","0","0","0.476270309","","false","3","0.476270309","","main_expt","0.2268539811","","0.3445892231","","0.4248782664","","","","","","",""
"77","","bandit","79","346987","0.0-41.0-0.0","88158401","wem/bandit_single","A2A1FS0KVLJ9ZT","gain","8","","72","H","0","img/none_selected.jpg","0","0","1","0.4750198572","","false","4","0.4750198572","","main_expt","0.2312911009","","0.318720175","","0.3797460064","","","","","","",""
"96","","bandit","80","348840","0.0-42.0-0.0","88158401","wem/bandit_single","A2A1FS0KVLJ9ZT","gain","8","","72","H","0","img/none_selected.jpg","1","0","0","0.4711191004","","false","5","0.4711191004","","main_expt","0.1875260819","","0.2768356494","","0.3747955817","","","","","","",""
"248","","bandit","81","350843","0.0-43.0-0.0","88158401","wem/bandit_single","A2A1FS0KVLJ9ZT","gain","8","","74","J","1","","0","0","1","0.190272436","","false","6","0.4561500297","","main_expt","0.190272436","","0.2660169375","","0.3434652127","","","","","","",""
"66","","bandit","82","352666","0.0-44.0-0.0","88158401","wem/bandit_single","A2A1FS0KVLJ9ZT","gain","8","","74","J","1","","0","0","1","0.1912500229","","false","7","0.4549462182","","main_expt","0.1912500229","","0.3364590491","","0.3450192323","","","","","","",""
"80","","bandit","83","354505","0.0-45.0-0.0","88158401","wem/bandit_single","A2A1FS0KVLJ9ZT","gain","8","","74","J","1","","1","0","0","0.2317086102","","false","8","0.4738433377","","main_expt","0.2317086102","","0.2814314702","","0.3319287687","","","","","","",""
"73","","bandit","84","356336","0.0-46.0-0.0","88158401","wem/bandit_single","A2A1FS0KVLJ9ZT","gain","8","","74","J","1","","0","0","1","0.2732709622","","false","9","0.4719526371","","main_expt","0.2732709622","","0.172204453","","0.3592879842","","","","","","",""
"43","","bandit","85","358135","0.0-47.0-0.0","88158401","wem/bandit_single","A2A1FS0KVLJ9ZT","gain","8","","74","J","1","","0","0","1","0.2369361721","","false","10","0.4102917743","","main_expt","0.2369361721","","0.1714760066","","0.4119036765","","","","","","",""
"76","","bandit","86","359970","0.0-48.0-0.0","88158401","wem/bandit_single","A2A1FS0KVLJ9ZT","gain","8","","75","K","2","","0","0","1","0.1477319919","","false","11","0.4247485268","","main_expt","0.2428480584","","0.1477319919","","0.440335537","","","","","","",""
"76","","bandit","87","361803","0.0-49.0-0.0","88158401","wem/bandit_single","A2A1FS0KVLJ9ZT","gain","8","","75","K","2","","0","0","1","0.1195530135","","false","12","0.3805001106","","main_expt","0.3127978045","","0.1195530135","","0.4198069009","","","","","","",""
"375","","bandit","88","363936","0.0-50.0-0.0","88158401","wem/bandit_single","A2A1FS0KVLJ9ZT","gain","8","","75","K","2","","0","0","1","0.1097065617","","false","13","0.3922463094","","main_expt","0.3411181312","","0.1097065617","","0.4095272681","","","","","","",""
"59","","bandit","89","365751","0.0-51.0-0.0","88158401","wem/bandit_single","A2A1FS0KVLJ9ZT","gain","8","","75","K","2","","0","0","1","0.1146709003","","false","14","0.3385893542","","main_expt","0.3547490374","","0.1146709003","","0.4393311008","","","","","","",""
"57","","bandit","90","367564","0.0-52.0-0.0","88158401","wem/bandit_single","A2A1FS0KVLJ9ZT","gain","8","","75","K","2","","0","0","1","0.105598426","","false","15","0.2580729479","","main_expt","0.3447780093","","0.105598426","","0.4232641195","","","","","","",""
"129","","bandit","91","369448","0.0-53.0-0.0","88158401","wem/bandit_single","A2A1FS0KVLJ9ZT","gain","8","","76","L","3","","1","0","0","0.408879381","","false","16","0.3126944558","","main_expt","0.3451486401","","0.1085338479","","0.408879381","","","","","","",""
"2179","","bandit","92","373386","0.0-54.0-0.0","88158401","wem/bandit_single","A2A1FS0KVLJ9ZT","gain","8","","76","L","3","","1","0","0","0.376774317","","false","17","0.3693960878","","main_expt","0.3788599072","","0.1267686316","","0.376774317","","","","","","",""
"112","","bandit","93","375255","0.0-55.0-0.0","88158401","wem/bandit_single","A2A1FS0KVLJ9ZT","gain","8","","76","L","3","","0","0","1","0.4245824949","","false","18","0.3881723811","","main_expt","0.3977159439","","0.2161611973","","0.4245824949","","","","","","",""
"121","","bandit","94","377133","0.0-56.0-0.0","88158401","wem/bandit_single","A2A1FS0KVLJ9ZT","gain","8","","76","L","3","","1","0","0","0.4391895307","","false","19","0.3762380044","","main_expt","0.3885232362","","0.2028493804","","0.4391895307","","","","","","",""
"397","","bandit","95","379287","0.0-57.0-0.0","88158401","wem/bandit_single","A2A1FS0KVLJ9ZT","gain","8","","76","L","3","","0","0","1","0.4621127774","","false","20","0.3842023068","","main_expt","0.3985462001","","0.2258994585","","0.4621127774","","","","","","",""
"279","","bandit","96","381324","0.0-58.0-0.0","88158401","wem/bandit_single","A2A1FS0KVLJ9ZT","gain","8","","76","L","3","","0","0","1","0.4621164646","","false","21","0.3509270449","","main_expt","0.349749023","","0.1591174119","","0.4621164646","","","","","","",""
"652","","bandit","97","383733","0.0-59.0-0.0","88158401","wem/bandit_single","A2A1FS0KVLJ9ZT","gain","8","","76","L","3","","1","0","0","0.4347396303","","false","22","0.3777441782","","main_expt","0.3437713834","","0.1526874152","","0.4347396303","","","","","","",""
"17","","bandit","98","385506","0.0-60.0-0.0","88158401","wem/bandit_single","A2A1FS0KVLJ9ZT","gain","8","","76","L","3","","1","0","0","0.43496863","","false","23","0.3799964268","","main_expt","0.3608333873","","0.1461335862","","0.43496863","","","","","","",""
"457","","bandit","99","387721","0.0-61.0-0.0","88158401","wem/bandit_single","A2A1FS0KVLJ9ZT","gain","8","","76","L","3","","1","0","0","0.43684491","","false","24","0.4097073291","","main_expt","0.3832767268","","0.194032511","","0.43684491","","","","","","",""
"43","","bandit","100","389522","0.0-62.0-0.0","88158401","wem/bandit_single","A2A1FS0KVLJ9ZT","gain","8","","76","L","3","","1","0","0","0.3785768995","","false","25","0.4196977393","","main_expt","0.3839685871","","0.1913779305","","0.3785768995","","","","","","",""
"180","","bandit","101","391457","0.0-63.0-0.0","88158401","wem/bandit_single","A2A1FS0KVLJ9ZT","gain","8","","76","L","3","","0","0","1","0.3754964585","","false","26","0.3798545817","","main_expt","0.3871157951","","0.2830828826","","0.3754964585","","","","","","",""
"2","","bandit","102","393218","0.0-64.0-0.0","88158401","wem/bandit_single","A2A1FS0KVLJ9ZT","gain","8","","76","L","3","","0","0","1","0.3964499655","","false","27","0.3531061786","","main_expt","0.4093540125","","0.3268824087","","0.3964499655","","","","","","",""
"52","","bandit","103","395028","0.0-65.0-0.0","88158401","wem/bandit_single","A2A1FS0KVLJ9ZT","gain","8","","76","L","3","","0","0","1","0.4243602908","","false","28","0.3327392046","","main_expt","0.3781829904","","0.3092871108","","0.4243602908","","","","","","",""
"18","","bandit","104","396803","0.0-66.0-0.0","88158401","wem/bandit_single","A2A1FS0KVLJ9ZT","gain","8","","76","L","3","","1","0","0","0.4296462108","","false","29","0.2799969064","","main_expt","0.3633234486","","0.299803321","","0.4296462108","","","","","","",""
"196","","bandit","105","398755","0.0-67.0-0.0","88158401","wem/bandit_single","A2A1FS0KVLJ9ZT","gain","8","","76","L","3","","0","0","1","0.4442153724","","false","30","0.225268033","","main_expt","0.395486831","","0.3318792252","","0.4442153724","","","","","","",""
"313","","bandit","106","400824","0.0-68.0-0.0","88158401","wem/bandit_single","A2A1FS0KVLJ9ZT","gain","8","","76","L","3","","0","0","1","0.4425075274","","false","31","0.2195205817","","main_expt","0.353932484","","0.3274080626","","0.4425075274","","","","","","",""
"91","","bandit","107","402670","0.0-69.0-0.0","88158401","wem/bandit_single","A2A1FS0KVLJ9ZT","gain","8","","72","H","0","img/none_selected.jpg","1","0","0","0.2569702332","","false","32","0.2569702332","","main_expt","0.3902442546","","0.3233555863","","0.4038806219","","","","","","",""
"265","","bandit","108","404693","0.0-70.0-0.0","88158401","wem/bandit_single","A2A1FS0KVLJ9ZT","gain","8","","72","H","0","img/none_selected.jpg","0","0","1","0.2914027765","","false","33","0.2914027765","","main_expt","0.3727342875","","0.3836123675","","0.4283701542","","","","","","",""
"67","","bandit","109","406519","0.0-71.0-0.0","88158401","wem/bandit_single","A2A1FS0KVLJ9ZT","gain","8","","72","H","0","img/none_selected.jpg","1","0","0","0.2667004126","","false","34","0.2667004126","","main_expt","0.3940120807","","0.4200589335","","0.4332078231","","","","","","",""
"871","","bandit","110","409148","0.0-72.0-0.0","88158401","wem/bandit_single","A2A1FS0KVLJ9ZT","gain","8","","72","H","0","img/none_selected.jpg","1","0","0","0.3112773703","","false","35","0.3112773703","","main_expt","0.3682756201","","0.4280145355","","0.3861361583","","","","","","",""
"474","","bandit","111","411378","0.0-73.0-0.0","88158401","wem/bandit_single","A2A1FS0KVLJ9ZT","gain","8","","72","H","0","img/none_selected.jpg","0","0","1","0.3158013471","","false","36","0.3158013471","","main_expt","0.4136743311","","0.3696194815","","0.3176889815","","","","","","",""
"834","","bandit","112","413970","0.0-74.0-0.0","88158401","wem/bandit_single","A2A1FS0KVLJ9ZT","gain","8","","72","H","0","img/none_selected.jpg","1","0","0","0.3348696363","","false","37","0.3348696363","","main_expt","0.449594317","","0.3567242832","","0.3333355096","","","","","","",""
"57","","bandit","113","415783","0.0-75.0-0.0","88158401","wem/bandit_single","A2A1FS0KVLJ9ZT","gain","8","","72","H","0","img/none_selected.jpg","0","0","1","0.2967031697","","false","38","0.2967031697","","main_expt","0.4427192246","","0.3139752797","","0.3613286773","","","","","","",""
"261","","bandit","114","417802","0.0-76.0-0.0","88158401","wem/bandit_single","A2A1FS0KVLJ9ZT","gain","8","","72","H","0","img/none_selected.jpg","0","0","1","0.2816090282","","false","39","0.2816090282","","main_expt","0.4375360897","","0.2884672813","","0.3354588101","","","","","","",""
"334","","bandit","115","419895","0.0-77.0-0.0","88158401","wem/bandit_single","A2A1FS0KVLJ9ZT","gain","8","","74","J","1","","1","0","0","0.452648821","","false","40","0.2900329111","","main_expt","0.452648821","","0.3253538103","","0.4044898685","","","","","","",""
"79","","bandit","116","421732","0.0-78.0-0.0","88158401","wem/bandit_single","A2A1FS0KVLJ9ZT","gain","8","","74","J","1","","0","0","1","0.4689255384","","false","41","0.3160732104","","main_expt","0.4689255384","","0.2782289032","","0.3615903795","","","","","","",""
"35","","bandit","117","423524","0.0-79.0-0.0","88158401","wem/bandit_single","A2A1FS0KVLJ9ZT","gain","8","","74","J","1","","1","0","0","0.470096522","","false","42","0.370849222","","main_expt","0.470096522","","0.2378060085","","0.3239257876","","","","","","",""
"1439","","bandit","118","426719","0.0-80.0-0.0","88158401","wem/bandit_single","A2A1FS0KVLJ9ZT","gain","8","","74","J","1","","0","0","1","0.4349244256","","false","43","0.385301305","","main_expt","0.4349244256","","0.2250536993","","0.2907144625","","","","","","",""
"33","","bandit","119","428512","0.0-81.0-0.0","88158401","wem/bandit_single","A2A1FS0KVLJ9ZT","gain","8","","74","J","1","","0","0","1","0.4316966947","","false","44","0.416838688","","main_expt","0.4316966947","","0.2132249492","","0.2937558929","","","","","","",""
"2","","bandit","120","430270","0.0-82.0-0.0","88158401","wem/bandit_single","A2A1FS0KVLJ9ZT","gain","8","","74","J","1","","0","0","1","0.4526201082","","false","45","0.3927526088","","main_expt","0.4526201082","","0.2669052982","","0.3667346614","","","","","","",""
"347","","bandit","121","432377","0.0-83.0-0.0","88158401","wem/bandit_single","A2A1FS0KVLJ9ZT","gain","8","","75","K","2","","0","0","1","0.259601005","","false","46","0.3789336214","","main_expt","0.4696962879","","0.259601005","","0.4084803937","","","","","","",""
"14","","bandit","122","434149","0.0-84.0-0.0","88158401","wem/bandit_single","A2A1FS0KVLJ9ZT","gain","8","","75","K","2","","1","0","0","0.2442503122","","false","47","0.3994803113","","main_expt","0.4591824552","","0.2442503122","","0.3956447052","","","","","","",""
"126","","bandit","123","436033","0.0-85.0-0.0","88158401","wem/bandit_single","A2A1FS0KVLJ9ZT","gain","8","","75","K","2","","0","0","1","0.2427668164","","false","48","0.3570668153","","main_expt","0.4548607847","","0.2427668164","","0.3859230678","","","","","","",""
"112","","bandit","124","437900","0.0-86.0-0.0","88158401","wem/bandit_single","A2A1FS0KVLJ9ZT","gain","8","","75","K","2","","0","0","1","0.218731525","","false","49","0.3500417472","","main_expt","0.4625410341","","0.218731525","","0.394993817","","","","","","",""
"161","","bandit","125","439819","0.0-87.0-0.0","88158401","wem/bandit_single","A2A1FS0KVLJ9ZT","gain","8","","75","K","2","","0","0","1","0.2187604329","","false","50","0.3110114061","","main_expt","0.4620574215","","0.2187604329","","0.4358915385","","","","","","",""
"687","","bandit","126","442264","0.0-88.0-0.0","88158401","wem/bandit_single","A2A1FS0KVLJ9ZT","gain","8","","75","K","2","","1","0","0","0.2764450854","","false","51","0.3165374422","","main_expt","0.4573118055","","0.2764450854","","0.4437026926","","","","","","",""
"428","","bandit","127","444452","0.0-89.0-0.0","88158401","wem/bandit_single","A2A1FS0KVLJ9ZT","gain","8","","75","K","2","","1","0","0","0.2735561336","","false","52","0.3212783944","","main_expt","0.4577170033","","0.2735561336","","0.4357441266","","","","","","",""
"408","","bandit","128","446620","0.0-90.0-0.0","88158401","wem/bandit_single","A2A1FS0KVLJ9ZT","gain","8","","75","K","2","","0","0","1","0.2558353256","","false","53","0.3079714244","","main_expt","0.4599667981","","0.2558353256","","0.3926545571","","","","","","",""
"933","","bandit","129","449310","0.0-91.0-0.0","88158401","wem/bandit_single","A2A1FS0KVLJ9ZT","gain","8","","75","K","2","","0","0","1","0.2856473895","","false","54","0.3538619638","","main_expt","0.4598989899","","0.2856473895","","0.3841940555","","","","","","",""
"94","","bandit","130","451162","0.0-92.0-0.0","88158401","wem/bandit_single","A2A1FS0KVLJ9ZT","gain","8","","75","K","2","","1","0","0","0.3110799389","","false","55","0.3390258849","","main_expt","0.4371040197","","0.3110799389","","0.3733442546","","","","","","",""
"122","","bandit","131","453042","0.0-93.0-0.0","88158401","wem/bandit_single","A2A1FS0KVLJ9ZT","gain","8","","75","K","2","","1","0","0","0.2862995849","","false","56","0.3282580673","","main_expt","0.3889704242","","0.2862995849","","0.3500738246","","","","","","",""
"198","","bandit","132","455001","0.0-94.0-0.0","88158401","wem/bandit_single","A2A1FS0KVLJ9ZT","gain","8","","75","K","2","","0","0","1","0.3029349154","","false","57","0.3014999451","","main_expt","0.4089883961","","0.3029349154","","0.3265916347","","","","","","",""
"291","","bandit","133","457047","0.0-95.0-0.0","88158401","wem/bandit_single","A2A1FS0KVLJ9ZT","gain","8","","76","L","3","","0","0","1","0.3203483638","","false","58","0.2895525025","","main_expt","0.3682078294","","0.282602966","","0.3203483638","","","","","","",""
"579","","bandit","134","459384","0.0-96.0-0.0","88158401","wem/bandit_single","A2A1FS0KVLJ9ZT","gain","8","","76","L","3","","0","0","1","0.258324817","","false","59","0.2538740387","","main_expt","0.426053772","","0.3271218703","","0.258324817","","","","","","",""
"138","","bandit","135","461279","0.0-97.0-0.0","88158401","wem/bandit_single","A2A1FS0KVLJ9ZT","gain","8","","76","L","3","","1","0","0","0.2527557167","","false","60","0.2509640494","","main_expt","0.4175969639","","0.2978757068","","0.2527557167","","","","","","",""
"1890","","bandit","136","464927","0.0-98.0-0.0","88158401","wem/bandit_single","A2A1FS0KVLJ9ZT","gain","8","","76","L","3","","0","0","1","0.2925705146","","false","61","0.1930295055","","main_expt","0.4124946444","","0.1922553384","","0.2925705146","","","","","","",""
"262","","bandit","137","466947","0.0-99.0-0.0","88158401","wem/bandit_single","A2A1FS0KVLJ9ZT","gain","8","","76","L","3","","0","0","1","0.310648962","","false","62","0.1259826115","","main_expt","0.4077217862","","0.1408400783","","0.310648962","","","","","","",""
"576","","bandit","138","469283","0.0-100.0-0.0","88158401","wem/bandit_single","A2A1FS0KVLJ9ZT","gain","8","","76","L","3","","1","0","0","0.3175489896","","false","63","0.1388804293","","main_expt","0.4258821936","","0.1779610645","","0.3175489896","","","","","","",""
"56","","bandit","139","471098","0.0-101.0-0.0","88158401","wem/bandit_single","A2A1FS0KVLJ9ZT","gain","8","","76","L","3","","0","0","1","0.2756852574","","false","64","0.1412297375","","main_expt","0.4314195329","","0.1733040919","","0.2756852574","","","","","","",""
"112","","bandit","140","472965","0.0-102.0-0.0","88158401","wem/bandit_single","A2A1FS0KVLJ9ZT","gain","8","","76","L","3","","0","0","1","0.2798966648","","false","65","0.07856201072","","main_expt","0.4174082156","","0.1669650696","","0.2798966648","","","","","","",""
"157","","bandit","141","474880","0.0-103.0-0.0","88158401","wem/bandit_single","A2A1FS0KVLJ9ZT","gain","8","","76","L","3","","0","0","1","0.2440426105","","false","66","0.04493535693","","main_expt","0.4396479182","","0.1439674443","","0.2440426105","","","","","","",""
"2003","","bandit","142","478641","0.0-104.0-0.0","88158401","wem/bandit_single","A2A1FS0KVLJ9ZT","gain","8","","72","H","0","img/none_selected.jpg","0","0","1","0.06268984171","","false","67","0.06268984171","","main_expt","0.4080198752","","0.1892066175","","0.2630461485","","","","","","",""
"1","","bandit","143","480403","0.0-105.0-0.0","88158401","wem/bandit_single","A2A1FS0KVLJ9ZT","gain","8","","72","H","0","img/none_selected.jpg","0","0","1","0.0976634122","","false","68","0.0976634122","","main_expt","0.4137299856","","0.1994174399","","0.2456224984","","","","","","",""
"283","","bandit","144","482442","0.0-106.0-0.0","88158401","wem/bandit_single","A2A1FS0KVLJ9ZT","gain","8","","74","J","1","","0","0","1","0.3938947582","","false","69","0.1303859095","","main_expt","0.3938947582","","0.1624567358","","0.328759159","","","","","","",""
"12","","bandit","145","484213","0.0-107.0-0.0","88158401","wem/bandit_single","A2A1FS0KVLJ9ZT","gain","8","","74","J","1","","1","0","0","0.3876621225","","false","70","0.09159795462","","main_expt","0.3876621225","","0.203142037","","0.3063762308","","","","","","",""
"128","","bandit","146","486098","0.0-108.0-0.0","88158401","wem/bandit_single","A2A1FS0KVLJ9ZT","gain","8","","74","J","1","","0","0","1","0.3788053019","","false","71","0.07422050438","","main_expt","0.3788053019","","0.218187973","","0.3509026903","","","","","","",""
"64","","bandit","147","487920","0.0-109.0-0.0","88158401","wem/bandit_single","A2A1FS0KVLJ9ZT","gain","8","","74","J","1","","0","0","1","0.3632611749","","false","72","0.05420033029","","main_expt","0.3632611749","","0.2357875668","","0.3695940198","","","","","","",""
"224","","bandit","148","489899","0.0-110.0-0.0","88158401","wem/bandit_single","A2A1FS0KVLJ9ZT","gain","8","","75","K","2","","0","0","1","0.1951490082","","false","73","0.04794676006","","main_expt","0.3121818875","","0.1951490082","","0.3532210052","","","","","","",""
"474","","bandit","149","492132","0.0-111.0-0.0","88158401","wem/bandit_single","A2A1FS0KVLJ9ZT","gain","8","","75","K","2","","0","0","1","0.208621177","","false","74","0.03645121522","","main_expt","0.3385624816","","0.208621177","","0.3780170277","","","","","","",""
"32","","bandit","150","493922","0.0-112.0-0.0","88158401","wem/bandit_single","A2A1FS0KVLJ9ZT","gain","8","","75","K","2","","0","0","1","0.2016482668","","false","75","0.04346784694","","main_expt","0.3393964734","","0.2016482668","","0.3141643986","","","","","","",""
"90","","bandit","151","495771","0.0-113.0-0.0","88158401","wem/bandit_single","A2A1FS0KVLJ9ZT","gain","8","","75","K","2","","0","0","1","0.2495615647","","false","76","0.05697420644","","main_expt","0.3489067358","","0.2495615647","","0.3520496016","","","","","","",""
"869","","bandit","152","498397","0.0-114.0-0.0","88158401","wem/bandit_single","A2A1FS0KVLJ9ZT","gain","8","","75","K","2","","0","0","1","0.2225386599","","false","77","0.05831686642","","main_expt","0.3502211764","","0.2225386599","","0.2628688268","","","","","","",""
"673","","bandit","153","500828","0.0-115.0-0.0","88158401","wem/bandit_single","A2A1FS0KVLJ9ZT","gain","8","","76","L","3","","1","0","0","0.2856335909","","false","78","0.0396837938","","main_expt","0.2979424841","","0.2525784454","","0.2856335909","","","","","","",""
"23","","bandit","154","502609","0.0-116.0-0.0","88158401","wem/bandit_single","A2A1FS0KVLJ9ZT","gain","8","","76","L","3","","1","0","0","0.3052483479","","false","79","0.03651397352","","main_expt","0.2779986596","","0.2691825077","","0.3052483479","","","","","","",""
"74","","bandit","155","504440","0.0-117.0-0.0","88158401","wem/bandit_single","A2A1FS0KVLJ9ZT","gain","8","","76","L","3","","0","0","1","0.2809417262","","false","80","0.0570793957","","main_expt","0.2681941829","","0.2749696362","","0.2809417262","","","","","","",""
"119","","bandit","156","506318","0.0-118.0-0.0","88158401","wem/bandit_single","A2A1FS0KVLJ9ZT","gain","8","","76","L","3","","0","0","1","0.2639407754","","false","81","0.05597964966","","main_expt","0.2536714586","","0.291945729","","0.2639407754","","","","","","",""
"478","","bandit","157","508552","0.0-119.0-0.0","88158401","wem/bandit_single","A2A1FS0KVLJ9ZT","gain","8","","76","L","3","","0","0","1","0.3352417475","","false","82","0.0589745046","","main_expt","0.1904528106","","0.2804178179","","0.3352417475","","","","","","",""
"1600","","bandit","158","511910","0.0-120.0-0.0","88158401","wem/bandit_single","A2A1FS0KVLJ9ZT","gain","8","","76","L","3","","0","0","1","0.3246721101","","false","83","0.04461225985","","main_expt","0.2497062266","","0.2253075454","","0.3246721101","","","","","","",""
"89","","bandit","159","513757","0.0-121.0-0.0","88158401","wem/bandit_single","A2A1FS0KVLJ9ZT","gain","8","","76","L","3","","1","0","0","0.3082112656","","false","84","0.04600221485","","main_expt","0.2960017758","","0.2475548924","","0.3082112656","","","","","","",""
"165","","bandit","160","515681","0.0-122.0-0.0","88158401","wem/bandit_single","A2A1FS0KVLJ9ZT","gain","8","","76","L","3","","1","0","0","0.2733186338","","false","85","0.04782026086","","main_expt","0.2677312645","","0.2443994903","","0.2733186338","","","","","","",""
"117","","bandit","161","517556","0.0-123.0-0.0","88158401","wem/bandit_single","A2A1FS0KVLJ9ZT","gain","8","","76","L","3","","0","0","1","0.2595222796","","false","86","0.05551660222","","main_expt","0.2764415163","","0.2112262296","","0.2595222796","","","","","","",""
"489","","bandit","162","519802","0.0-124.0-0.0","88158401","wem/bandit_single","A2A1FS0KVLJ9ZT","gain","8","","76","L","3","","1","0","0","0.2256999028","","false","87","0.04708869331","","main_expt","0.324022149","","0.2188998383","","0.2256999028","","","","","","",""
"94","","bandit","163","521656","0.0-125.0-0.0","88158401","wem/bandit_single","A2A1FS0KVLJ9ZT","gain","8","","76","L","3","","1","0","0","0.1990670624","","false","88","0.02844544313","","main_expt","0.3109963835","","0.2197891412","","0.1990670624","","","","","","",""
"50","","bandit","164","523463","0.0-126.0-0.0","88158401","wem/bandit_single","A2A1FS0KVLJ9ZT","gain","8","","76","L","3","","0","0","1","0.2125628639","","false","89","0.02947982339","","main_expt","0.324941543","","0.1264972534","","0.2125628639","","","","","","",""
"512","","bandit","165","525734","0.0-127.0-0.0","88158401","wem/bandit_single","A2A1FS0KVLJ9ZT","gain","8","","72","H","0","img/none_selected.jpg","0","0","1","0.01544371513","","false","90","0.01544371513","","main_expt","0.3309337967","","0.09492746395","","0.2335475446","","","","","","",""
"37","","bandit","166","527531","0.0-128.0-0.0","88158401","wem/bandit_single","A2A1FS0KVLJ9ZT","gain","8","","72","H","0","img/none_selected.jpg","0","0","1","0.02662688154","","false","91","0.02662688154","","main_expt","0.2419508287","","0.0779798764","","0.2803997126","","","","","","",""
"36","","bandit","167","529326","0.0-129.0-0.0","88158401","wem/bandit_single","A2A1FS0KVLJ9ZT","gain","8","","72","H","0","img/none_selected.jpg","0","0","1","0.03471523835","","false","92","0.03471523835","","main_expt","0.2040869203","","0.1178574791","","0.2771315147","","","","","","",""
"656","","bandit","168","531744","0.0-130.0-0.0","88158401","wem/bandit_single","A2A1FS0KVLJ9ZT","gain","8","","72","H","0","img/none_selected.jpg","0","0","1","0.0252433293","","false","93","0.0252433293","","main_expt","0.1936143615","","0.1199697814","","0.3069544445","","","","","","",""
"763","","bandit","169","534265","0.0-131.0-0.0","88158401","wem/bandit_single","A2A1FS0KVLJ9ZT","gain","8","","72","H","0","img/none_selected.jpg","0","0","1","0.02873343753","","false","94","0.02873343753","","main_expt","0.2296452841","","0.1351842626","","0.2585327286","","","","","","",""
"656","","bandit","170","536680","0.0-132.0-0.0","88158401","wem/bandit_single","A2A1FS0KVLJ9ZT","gain","8","","74","J","1","","0","0","1","0.3009770616","","false","95","0.03754278977","","main_expt","0.3009770616","","0.1229387465","","0.2043747222","","","","","","",""
"522","","bandit","171","538963","0.0-133.0-0.0","88158401","wem/bandit_single","A2A1FS0KVLJ9ZT","gain","8","","74","J","1","","0","0","1","0.3664634414","","false","96","0.02045008397","","main_expt","0.3664634414","","0.1341504272","","0.2149370614","","","","","","",""
"133","","bandit","172","540855","0.0-134.0-0.0","88158401","wem/bandit_single","A2A1FS0KVLJ9ZT","gain","8","","74","J","1","","1","0","0","0.3476641925","","false","97","0.01282395838","","main_expt","0.3476641925","","0.08646330057","","0.1294523689","","","","","","",""
"610","","bandit","173","543224","0.0-135.0-0.0","88158401","wem/bandit_single","A2A1FS0KVLJ9ZT","gain","8","","74","J","1","","1","0","0","0.3885632826","","false","98","0.02206163243","","main_expt","0.3885632826","","0.07731746448","","0.1653870254","","","","","","",""
"315","","bandit","174","545302","0.0-136.0-0.0","88158401","wem/bandit_single","A2A1FS0KVLJ9ZT","gain","8","","74","J","1","","0","0","1","0.3222143249","","false","99","0.03016500256","","main_expt","0.3222143249","","0.05048608161","","0.187235433","","","","","","",""
"622","","bandit","175","547681","0.0-137.0-0.0","88158401","wem/bandit_single","A2A1FS0KVLJ9ZT","gain","8","","74","J","1","","0","0","1","0.3386714995","","false","100","0.03237578522","","main_expt","0.3386714995","","0.03970728334","","0.1583251777","","","","","","",""
"129","","bandit","176","549570","0.0-138.0-0.0","88158401","wem/bandit_single","A2A1FS0KVLJ9ZT","gain","8","","75","K","2","","0","0","1","0.02108340439","","false","101","0.03241037075","","main_expt","0.3131396166","","0.02108340439","","0.1337381207","","","","","","",""
"53","","bandit","177","551382","0.0-139.0-0.0","88158401","wem/bandit_single","A2A1FS0KVLJ9ZT","gain","8","","75","K","2","","1","0","0","0.05244648731","","false","102","0.06000215667","","main_expt","0.3417288757","","0.05244648731","","0.1163639012","","","","","","",""
"42","","bandit","178","553181","0.0-140.0-0.0","88158401","wem/bandit_single","A2A1FS0KVLJ9ZT","gain","8","","75","K","2","","0","0","1","0.04574159302","","false","103","0.08726741307","","main_expt","0.3582654759","","0.04574159302","","0.1118657557","","","","","","",""
"69","","bandit","179","555009","0.0-141.0-0.0","88158401","wem/bandit_single","A2A1FS0KVLJ9ZT","gain","8","","75","K","2","","0","0","1","0.05033190662","","false","104","0.1067467257","","main_expt","0.3409136392","","0.05033190662","","0.1501499683","","","","","","",""
"665","","bandit","180","557434","0.0-142.0-0.0","88158401","wem/bandit_single","A2A1FS0KVLJ9ZT","gain","8","","75","K","2","","1","0","0","0.1076128494","","false","105","0.1004566838","","main_expt","0.3532992837","","0.1076128494","","0.1354733374","","","","","","",""
"58","","bandit","181","559252","0.0-143.0-0.0","88158401","wem/bandit_single","A2A1FS0KVLJ9ZT","gain","8","","75","K","2","","0","0","1","0.06740855405","","false","106","0.1055318719","","main_expt","0.335683565","","0.06740855405","","0.1727398631","","","","","","",""
"62","","bandit","182","561070","0.0-144.0-0.0","88158401","wem/bandit_single","A2A1FS0KVLJ9ZT","gain","8","","75","K","2","","0","0","1","0.06658027063","","false","107","0.1236328269","","main_expt","0.3924059951","","0.06658027063","","0.1474174257","","","","","","",""
"300","","bandit","183","563128","0.0-145.0-0.0","88158401","wem/bandit_single","A2A1FS0KVLJ9ZT","gain","8","","75","K","2","","0","0","1","0.0777756245","","false","108","0.1301170461","","main_expt","0.3626054341","","0.0777756245","","0.1683059408","","","","","","",""
"204","","bandit","184","565091","0.0-146.0-0.0","88158401","wem/bandit_single","A2A1FS0KVLJ9ZT","gain","8","","75","K","2","","0","0","1","0.1117823495","","false","109","0.1507941036","","main_expt","0.3806857721","","0.1117823495","","0.1972223025","","","","","","",""
"62","","bandit","185","566910","0.0-147.0-0.0","88158401","wem/bandit_single","A2A1FS0KVLJ9ZT","gain","8","","75","K","2","","0","0","1","0.08710900622","","false","110","0.1647590848","","main_expt","0.3452619283","","0.08710900622","","0.2085186414","","","","","","",""
"39","","bandit","186","568707","0.0-148.0-0.0","88158401","wem/bandit_single","A2A1FS0KVLJ9ZT","gain","8","","76","L","3","","0","0","1","0.1811180602","","false","111","0.1574612326","","main_expt","0.3653509784","","0.107183683","","0.1811180602","","","","","","",""
"1433","","bandit","187","571898","0.0-149.0-0.0","88158401","wem/bandit_single","A2A1FS0KVLJ9ZT","gain","8","","76","L","3","","0","0","1","0.222295219","","false","112","0.1406493921","","main_expt","0.3435522482","","0.1099425133","","0.222295219","","","","","","",""
"2061","","bandit","188","575718","0.0-150.0-0.0","88158401","wem/bandit_single","A2A1FS0KVLJ9ZT","gain","8","","76","L","3","","0","0","1","0.254178783","","false","113","0.1367300214","","main_expt","0.3424956272","","0.1457634924","","0.254178783","","","","","","",""
"276","","bandit","189","577751","0.0-151.0-0.0","88158401","wem/bandit_single","A2A1FS0KVLJ9ZT","gain","8","","76","L","3","","0","0","1","0.2315882939","","false","114","0.1534665218","","main_expt","0.3353894863","","0.09824844824","","0.2315882939","","","","","","",""
"495","","bandit","190","580005","0.0-152.0-0.0","88158401","wem/bandit_single","A2A1FS0KVLJ9ZT","gain","8","","72","H","0","img/none_selected.jpg","0","0","1","0.1890238391","","false","115","0.1890238391","","main_expt","0.3965113255","","0.07202874502","","0.2079629003","","","","","","",""
"849","","bandit","191","582616","0.0-153.0-0.0","88158401","wem/bandit_single","A2A1FS0KVLJ9ZT","gain","8","","72","H","0","img/none_selected.jpg","1","0","0","0.1480670238","","false","116","0.1480670238","","main_expt","0.3889101716","","0.08386797302","","0.2117584369","","","","","","",""
"119","","bandit","192","584493","0.0-154.0-0.0","88158401","wem/bandit_single","A2A1FS0KVLJ9ZT","gain","8","","72","H","0","img/none_selected.jpg","0","0","1","0.1450369027","","false","117","0.1450369027","","main_expt","0.412290601","","0.1223406282","","0.1897465023","","","","","","",""
"638","","bandit","193","586889","0.0-155.0-0.0","88158401","wem/bandit_single","A2A1FS0KVLJ9ZT","gain","8","","72","H","0","img/none_selected.jpg","0","0","1","0.1525061225","","false","118","0.1525061225","","main_expt","0.4090296977","","0.1131974311","","0.2162179109","","","","","","",""
"252","","bandit","194","588901","0.0-156.0-0.0","88158401","wem/bandit_single","A2A1FS0KVLJ9ZT","gain","8","","72","H","0","img/none_selected.jpg","1","0","0","0.1327940691","","false","119","0.1327940691","","main_expt","0.3900906375","","0.1214903214","","0.1954464435","","","","","","",""
"550","","bandit","195","591212","0.0-157.0-0.0","88158401","wem/bandit_single","A2A1FS0KVLJ9ZT","gain","8","","72","H","0","img/none_selected.jpg","0","0","1","0.1517026744","","false","120","0.1517026744","","main_expt","0.3722828095","","0.1379734046","","0.2433439763","","","","","","",""
"648","","bandit","196","593617","0.0-158.0-0.0","88158401","wem/bandit_single","A2A1FS0KVLJ9ZT","gain","8","","72","H","0","img/none_selected.jpg","0","0","1","0.09770447215","","false","121","0.09770447215","","main_expt","0.3593952677","","0.1537473387","","0.2093375247","","","","","","",""
"75","","bandit","197","595452","0.0-159.0-0.0","88158401","wem/bandit_single","A2A1FS0KVLJ9ZT","gain","8","","74","J","1","","1","0","0","0.3670381393","","false","122","0.1084092314","","main_expt","0.3670381393","","0.1654199468","","0.2030857612","","","","","","",""
"184","","bandit","198","597398","0.0-160.0-0.0","88158401","wem/bandit_single","A2A1FS0KVLJ9ZT","gain","8","","74","J","1","","1","0","0","0.3587286137","","false","123","0.1828660492","","main_expt","0.3587286137","","0.1908187881","","0.1810532848","","","","","","",""
"71","","bandit","199","599227","0.0-161.0-0.0","88158401","wem/bandit_single","A2A1FS0KVLJ9ZT","gain","8","","74","J","1","","0","0","1","0.3492740793","","false","124","0.1743556658","","main_expt","0.3492740793","","0.2229551501","","0.1582229448","","","","","","",""
"87","","bandit","200","601074","0.0-162.0-0.0","88158401","wem/bandit_single","A2A1FS0KVLJ9ZT","gain","8","","74","J","1","","0","0","1","0.3031262708","","false","125","0.2091647646","","main_expt","0.3031262708","","0.2354127912","","0.1223239468","","","","","","",""
"285","","bandit","201","603120","0.0-163.0-0.0","88158401","wem/bandit_single","A2A1FS0KVLJ9ZT","gain","8","","74","J","1","","1","0","0","0.3272336491","","false","126","0.2089783764","","main_expt","0.3272336491","","0.25119817","","0.08912034734","","","","","","",""
"291","","bandit","202","605170","0.0-164.0-0.0","88158401","wem/bandit_single","A2A1FS0KVLJ9ZT","gain","8","","74","J","1","","0","0","1","0.3153677968","","false","127","0.21334071","","main_expt","0.3153677968","","0.2312690923","","0.05948163","","","","","","",""
"397","","bandit","203","607324","0.0-165.0-0.0","88158401","wem/bandit_single","A2A1FS0KVLJ9ZT","gain","8","","74","J","1","","1","0","0","0.3317710332","","false","128","0.1916283041","","main_expt","0.3317710332","","0.2741150261","","0.06525821595","","","","","","",""
"30","","bandit","204","609114","0.0-166.0-0.0","88158401","wem/bandit_single","A2A1FS0KVLJ9ZT","gain","8","","74","J","1","","1","0","0","0.3818586719","","false","129","0.1810604207","","main_expt","0.3818586719","","0.2804264122","","0.04677418535","","","","","","",""
"147","","bandit","205","611022","0.0-167.0-0.0","88158401","wem/bandit_single","A2A1FS0KVLJ9ZT","gain","8","","74","J","1","","1","0","0","0.3778611376","","false","130","0.1492319935","","main_expt","0.3778611376","","0.2746384559","","0.04931785787","","","","","","",""
"595","","bandit","206","613375","0.0-168.0-0.0","88158401","wem/bandit_single","A2A1FS0KVLJ9ZT","gain","8","","74","J","1","","0","0","1","0.3745485054","","false","131","0.129351286","","main_expt","0.3745485054","","0.3052944487","","0.03231589458","","","","","","",""
"361","","bandit","207","615497","0.0-169.0-0.0","88158401","wem/bandit_single","A2A1FS0KVLJ9ZT","gain","8","","74","J","1","","1","0","0","0.3901944836","","false","132","0.1020216346","","main_expt","0.3901944836","","0.2871604017","","0.0374336399","","","","","","",""
"284","","bandit","208","617540","0.0-170.0-0.0","88158401","wem/bandit_single","A2A1FS0KVLJ9ZT","gain","8","","74","J","1","","0","0","1","0.3245875462","","false","133","0.1100395313","","main_expt","0.3245875462","","0.2262434135","","0.04583961862","","","","","","",""
"120","","bandit","209","619420","0.0-171.0-0.0","88158401","wem/bandit_single","A2A1FS0KVLJ9ZT","gain","8","","74","J","1","","1","0","0","0.2794858075","","false","134","0.1078381017","","main_expt","0.2794858075","","0.2020687113","","0.04150300199","","","","","","",""
"94","","bandit","210","621274","0.0-172.0-0.0","88158401","wem/bandit_single","A2A1FS0KVLJ9ZT","gain","8","","74","J","1","","0","0","1","0.2867414221","","false","135","0.1093486249","","main_expt","0.2867414221","","0.2168620662","","0.04663842542","","","","","","",""
"292","","bandit","211","623328","0.0-173.0-0.0","88158401","wem/bandit_single","A2A1FS0KVLJ9ZT","gain","8","","74","J","1","","0","0","1","0.2388941587","","false","136","0.1246456113","","main_expt","0.2388941587","","0.151139006","","0.06291357963","","","","","","",""
"94","","bandit","212","625179","0.0-174.0-0.0","88158401","wem/bandit_single","A2A1FS0KVLJ9ZT","gain","8","","74","J","1","","0","0","1","0.2301747732","","false","137","0.1167447495","","main_expt","0.2301747732","","0.1452995234","","0.0848669819","","","","","","",""
"124","","bandit","213","627063","0.0-175.0-0.0","88158401","wem/bandit_single","A2A1FS0KVLJ9ZT","gain","8","","75","K","2","","0","0","1","0.1599176777","","false","138","0.1357570265","","main_expt","0.2344721482","","0.1599176777","","0.1250360552","","","","","","",""
"45","","bandit","214","628868","0.0-176.0-0.0","88158401","wem/bandit_single","A2A1FS0KVLJ9ZT","gain","8","","75","K","2","","0","0","1","0.1704699841","","false","139","0.1616689495","","main_expt","0.2351335283","","0.1704699841","","0.122190115","","","","","","",""
"239","","bandit","215","630866","0.0-177.0-0.0","88158401","wem/bandit_single","A2A1FS0KVLJ9ZT","gain","8","","75","K","2","","0","0","1","0.1142956015","","false","140","0.1979747013","","main_expt","0.2876903143","","0.1142956015","","0.08666030548","","","","","","",""
"80","","bandit","216","632703","0.0-178.0-0.0","88158401","wem/bandit_single","A2A1FS0KVLJ9ZT","gain","8","","75","K","2","","0","0","1","0.1206890816","","false","141","0.1708965128","","main_expt","0.2865732071","","0.1206890816","","0.09967801986","","","","","","",""
"26","","bandit","217","634491","0.0-179.0-0.0","88158401","wem/bandit_single","A2A1FS0KVLJ9ZT","gain","8","","75","K","2","","0","0","1","0.1324259923","","false","142","0.204481367","","main_expt","0.248943806","","0.1324259923","","0.1125289611","","","","","","",""
"81","","bandit","218","636329","0.0-180.0-0.0","88158401","wem/bandit_single","A2A1FS0KVLJ9ZT","gain","8","","76","L","3","","1","0","0","0.1467602081","","false","143","0.1861099789","","main_expt","0.2839045407","","0.09892217097","","0.1467602081","","","","","","",""
"349","","bandit","219","638437","0.0-181.0-0.0","88158401","wem/bandit_single","A2A1FS0KVLJ9ZT","gain","8","","76","L","3","","0","0","1","0.1467522766","","false","144","0.1956465744","","main_expt","0.3150250783","","0.1577744197","","0.1467522766","","","","","","",""
"508","","bandit","220","640705","0.0-182.0-0.0","88158401","wem/bandit_single","A2A1FS0KVLJ9ZT","gain","8","","76","L","3","","0","0","1","0.118212248","","false","145","0.2622876922","","main_expt","0.3090395899","","0.1392006829","","0.118212248","","","","","","",""
"171","","bandit","221","642635","0.0-183.0-0.0","88158401","wem/bandit_single","A2A1FS0KVLJ9ZT","gain","8","","76","L","3","","0","0","1","0.1089879874","","false","146","0.304745079","","main_expt","0.3122039877","","0.1262993523","","0.1089879874","","","","","","",""
"437","","bandit","222","644832","0.0-184.0-0.0","88158401","wem/bandit_single","A2A1FS0KVLJ9ZT","gain","8","","72","H","0","img/none_selected.jpg","1","0","0","0.2888799162","","false","147","0.2888799162","","main_expt","0.2959619691","","0.1970652478","","0.1200469816","","","","","","",""
"455","","bandit","223","647048","0.0-185.0-0.0","88158401","wem/bandit_single","A2A1FS0KVLJ9ZT","gain","8","","72","H","0","img/none_selected.jpg","1","0","0","0.2290209364","","false","148","0.2290209364","","main_expt","0.2395536641","","0.2502259542","","0.1276189258","","","","","","",""
"339","","bandit","224","649146","0.0-186.0-0.0","88158401","wem/bandit_single","A2A1FS0KVLJ9ZT","gain","8","","72","H","0","img/none_selected.jpg","0","0","1","0.1626908122","","false","149","0.1626908122","","main_expt","0.2650868272","","0.264890558","","0.1280703092","","","","","","",""
"604","","bandit","225","651511","0.0-187.0-0.0","88158401","wem/bandit_single","A2A1FS0KVLJ9ZT","gain","8","","72","H","0","img/none_selected.jpg","0","0","1","0.1958031623","","false","150","0.1958031623","","main_expt","0.2986082654","","0.2458403893","","0.1260403861","","","","","","",""
"354","","bandit","226","653623","0.0-188.0-0.0","88158401","wem/bandit_single","A2A1FS0KVLJ9ZT","gain","8","","74","J","1","","1","0","0","0.2843767109","","false","151","0.2110526716","","main_expt","0.2843767109","","0.3021038309","","0.1472493067","","","","","","",""
"321","","bandit","227","655705","0.0-189.0-0.0","88158401","wem/bandit_single","A2A1FS0KVLJ9ZT","gain","8","","74","J","1","","0","0","1","0.2910803031","","false","152","0.239542308","","main_expt","0.2910803031","","0.2863751765","","0.1256460397","","","","","","",""
"73","","bandit","228","657536","0.0-190.0-0.0","88158401","wem/bandit_single","A2A1FS0KVLJ9ZT","gain","8","","74","J","1","","0","0","1","0.2910028656","","false","153","0.2781725502","","main_expt","0.2910028656","","0.250244768","","0.1567097088","","","","","","",""
"1183","","bandit","229","660483","0.0-191.0-0.0","88158401","wem/bandit_single","A2A1FS0KVLJ9ZT","gain","8","","74","J","1","","0","0","1","0.2845613835","","false","154","0.228047793","","main_expt","0.2845613835","","0.2127808211","","0.1473662378","","","","","","",""
"778","","bandit","230","663022","0.0-192.0-0.0","88158401","wem/bandit_single","A2A1FS0KVLJ9ZT","gain","8","","75","K","2","","1","0","0","0.205053704","","false","155","0.2683949018","","main_expt","0.2707345723","","0.205053704","","0.1466549972","","","","","","",""
"216","","bandit","231","664998","0.0-193.0-0.0","88158401","wem/bandit_single","A2A1FS0KVLJ9ZT","gain","8","","75","K","2","","0","0","1","0.1648482415","","false","156","0.3192141369","","main_expt","0.3156720475","","0.1648482415","","0.1127453184","","","","","","",""
"393","","bandit","232","667150","0.0-194.0-0.0","88158401","wem/bandit_single","A2A1FS0KVLJ9ZT","gain","8","","75","K","2","","0","0","1","0.1888047422","","false","157","0.3402823895","","main_expt","0.3101066834","","0.1888047422","","0.1577506677","","","","","","",""
"273","","bandit","233","669182","0.0-195.0-0.0","88158401","wem/bandit_single","A2A1FS0KVLJ9ZT","gain","8","","75","K","2","","0","0","1","0.1759444775","","false","158","0.2944958958","","main_expt","0.3236654942","","0.1759444775","","0.177177298","","","","","","",""
"1632","","bandit","234","672571","0.0-196.0-0.0","88158401","wem/bandit_single","A2A1FS0KVLJ9ZT","gain","8","","75","K","2","","0","0","1","0.2066832709","","false","159","0.3007248388","","main_expt","0.2735657487","","0.2066832709","","0.1693510486","","","","","","",""
"60","","bandit","235","674390","0.0-197.0-0.0","88158401","wem/bandit_single","A2A1FS0KVLJ9ZT","gain","8","","75","K","2","","0","0","1","0.2570817279","","false","160","0.3179332055","","main_expt","0.2384912546","","0.2570817279","","0.1230292859","","","","","","",""
"485","","bandit","236","676636","0.0-198.0-0.0","88158401","wem/bandit_single","A2A1FS0KVLJ9ZT","gain","8","","75","K","2","","0","0","1","0.2244749933","","false","161","0.2506164635","","main_expt","0.2615252743","","0.2244749933","","0.07903667538","","","","","","",""
"230","","bandit","237","678625","0.0-199.0-0.0","88158401","wem/bandit_single","A2A1FS0KVLJ9ZT","gain","8","","76","L","3","","0","0","1","0.1136507332","","false","162","0.2858836385","","main_expt","0.2187643747","","0.23263707","","0.1136507332","","","","","","",""
"320","","bandit","238","680705","0.0-200.0-0.0","88158401","wem/bandit_single","A2A1FS0KVLJ9ZT","gain","8","","76","L","3","","0","0","1","0.1137116213","","false","163","0.2848163613","","main_expt","0.1909081127","","0.2287127565","","0.1137116213","","","","","","",""
"81","","bandit","239","682554","0.0-201.0-0.0","88158401","wem/bandit_single","A2A1FS0KVLJ9ZT","gain","8","","76","L","3","","0","0","1","0.1254102563","","false","164","0.2688566635","","main_expt","0.1808716434","","0.2303253206","","0.1254102563","","","","","","",""
"165","","bandit","240","684479","0.0-202.0-0.0","88158401","wem/bandit_single","A2A1FS0KVLJ9ZT","gain","8","","76","L","3","","0","0","1","0.1216805934","","false","165","0.2921202554","","main_expt","0.2118073572","","0.2771057403","","0.1216805934","","","","","","",""
"2","","bandit","241","686240","0.0-203.0-0.0","88158401","wem/bandit_single","A2A1FS0KVLJ9ZT","gain","8","","76","L","3","","0","0","1","0.1291529517","","false","166","0.3143591269","","main_expt","0.2410554973","","0.2371810998","","0.1291529517","","","","","","",""
"355","","bandit","242","688354","0.0-204.0-0.0","88158401","wem/bandit_single","A2A1FS0KVLJ9ZT","gain","8","","76","L","3","","0","0","1","0.1535345887","","false","167","0.2892924204","","main_expt","0.2574005288","","0.2349122652","","0.1535345887","","","","","","",""
"241","","bandit","243","690355","0.0-205.0-0.0","88158401","wem/bandit_single","A2A1FS0KVLJ9ZT","gain","8","","72","H","0","img/none_selected.jpg","0","0","1","0.2786305655","","false","168","0.2786305655","","main_expt","0.2729884233","","0.1959020284","","0.1435034989","","","","","","",""
"82","","bandit","244","692194","0.0-206.0-0.0","88158401","wem/bandit_single","A2A1FS0KVLJ9ZT","gain","8","","72","H","0","img/none_selected.jpg","0","0","1","0.246803054","","false","169","0.246803054","","main_expt","0.2625821735","","0.1899859579","","0.1957458285","","","","","","",""
"355","","bandit","245","694311","0.0-207.0-0.0","88158401","wem/bandit_single","A2A1FS0KVLJ9ZT","gain","8","","72","H","0","img/none_selected.jpg","0","0","1","0.2375021307","","false","170","0.2375021307","","main_expt","0.3100542845","","0.2213833812","","0.1308867566","","","","","","",""
"360","","bandit","246","696432","0.0-208.0-0.0","88158401","wem/bandit_single","A2A1FS0KVLJ9ZT","gain","8","","72","H","0","img/none_selected.jpg","0","0","1","0.2965678991","","false","171","0.2965678991","","main_expt","0.3083945368","","0.1589997081","","0.1422271972","","","","","","",""
"969","","bandit","247","699159","0.0-209.0-0.0","88158401","wem/bandit_single","A2A1FS0KVLJ9ZT","gain","8","","72","H","0","img/none_selected.jpg","0","0","1","0.2696718616","","false","172","0.2696718616","","main_expt","0.3929186772","","0.1669714507","","0.1541925874","","","","","","",""
"892","","bandit","248","701810","0.0-210.0-0.0","88158401","wem/bandit_single","A2A1FS0KVLJ9ZT","gain","8","","74","J","1","","1","0","0","0.4107736206","","false","173","0.2576521005","","main_expt","0.4107736206","","0.1699847696","","0.1416394444","","","","","","",""
"40","","bandit","249","703608","0.0-211.0-0.0","88158401","wem/bandit_single","A2A1FS0KVLJ9ZT","gain","8","","74","J","1","","0","0","1","0.4267170337","","false","174","0.2839516933","","main_expt","0.4267170337","","0.202136981","","0.1207830423","","","","","","",""
"59","","bandit","250","705429","0.0-212.0-0.0","88158401","wem/bandit_single","A2A1FS0KVLJ9ZT","gain","8","","74","J","1","","0","0","1","0.420504823","","false","175","0.2932452363","","main_expt","0.420504823","","0.1863880777","","0.1636312712","","","","","","",""
"433","","bandit","251","707621","0.0-213.0-0.0","88158401","wem/bandit_single","A2A1FS0KVLJ9ZT","gain","8","","74","J","1","","0","0","1","0.3956962169","","false","176","0.3118313574","","main_expt","0.3956962169","","0.1426909825","","0.186569684","","","","","","",""
"97","","bandit","252","709477","0.0-214.0-0.0","88158401","wem/bandit_single","A2A1FS0KVLJ9ZT","gain","8","","75","K","2","","1","0","0","0.1335645184","","false","177","0.3378695823","","main_expt","0.3834761318","","0.1335645184","","0.1089038478","","","","","","",""
"30","","bandit","253","711266","0.0-215.0-0.0","88158401","wem/bandit_single","A2A1FS0KVLJ9ZT","gain","8","","75","K","2","","0","0","1","0.09719791569","","false","178","0.3234122319","","main_expt","0.4167112469","","0.09719791569","","0.08465244813","","","","","","",""
"161","","bandit","254","713189","0.0-216.0-0.0","88158401","wem/bandit_single","A2A1FS0KVLJ9ZT","gain","8","","75","K","2","","0","0","1","0.07123289457","","false","179","0.3281528324","","main_expt","0.4370197561","","0.07123289457","","0.1015747644","","","","","","",""
"89","","bandit","255","715039","0.0-217.0-0.0","88158401","wem/bandit_single","A2A1FS0KVLJ9ZT","gain","8","","75","K","2","","0","0","1","0.05555663239","","false","180","0.340497037","","main_expt","0.3776598584","","0.05555663239","","0.1277953302","","","","","","",""
"16","","bandit","256","716815","0.0-218.0-0.0","88158401","wem/bandit_single","A2A1FS0KVLJ9ZT","gain","8","","75","K","2","","0","0","1","0.04396828199","","false","181","0.3007371283","","main_expt","0.3636519722","","0.04396828199","","0.1854921141","","","","","","",""
"683","","bandit","257","719258","0.0-219.0-0.0","88158401","wem/bandit_single","A2A1FS0KVLJ9ZT","gain","8","","75","K","2","","0","0","1","0.02691259782","","false","182","0.3190136055","","main_expt","0.3246411676","","0.02691259782","","0.2273529654","","","","","","",""
"505","","bandit","258","721523","0.0-220.0-0.0","88158401","wem/bandit_single","A2A1FS0KVLJ9ZT","gain","8","","76","L","3","","0","0","1","0.2600234541","","false","183","0.322323442","","main_expt","0.3187018958","","0.04807599522","","0.2600234541","","","","","","",""
"748","","bandit","259","724031","0.0-221.0-0.0","88158401","wem/bandit_single","A2A1FS0KVLJ9ZT","gain","8","","76","L","3","","1","0","0","0.2689652485","","false","184","0.3086696071","","main_expt","0.3497063737","","0.05076165442","","0.2689652485","","","","","","",""
"261","","bandit","260","726054","0.0-222.0-0.0","88158401","wem/bandit_single","A2A1FS0KVLJ9ZT","gain","8","","76","L","3","","0","0","1","0.2646203852","","false","185","0.3146814862","","main_expt","0.3334532315","","0.1128087831","","0.2646203852","","","","","","",""
"343","","bandit","261","728158","0.0-223.0-0.0","88158401","wem/bandit_single","A2A1FS0KVLJ9ZT","gain","8","","76","L","3","","0","0","1","0.2038557162","","false","186","0.3353274036","","main_expt","0.3511592443","","0.1592260056","","0.2038557162","","","","","","",""
"132","","bandit","262","730050","0.0-224.0-0.0","88158401","wem/bandit_single","A2A1FS0KVLJ9ZT","gain","8","","76","L","3","","1","0","0","0.2643634763","","false","187","0.331036234","","main_expt","0.3758503369","","0.2195828404","","0.2643634763","","","","","","",""
"527","","bandit","263","732339","0.0-225.0-0.0","88158401","wem/bandit_single","A2A1FS0KVLJ9ZT","gain","8","","76","L","3","","0","0","1","0.2137054787","","false","188","0.3061178756","","main_expt","0.3951098987","","0.214856838","","0.2137054787","","","","","","",""
"9","","bandit","264","734106","0.0-226.0-0.0","88158401","wem/bandit_single","A2A1FS0KVLJ9ZT","gain","8","","72","H","0","img/none_selected.jpg","0","0","1","0.3455914038","","false","189","0.3455914038","","main_expt","0.3766733461","","0.2103369464","","0.2349639762","","","","","","",""
"105","","bandit","265","735971","0.0-227.0-0.0","88158401","wem/bandit_single","A2A1FS0KVLJ9ZT","gain","8","","72","H","0","img/none_selected.jpg","1","0","0","0.3734842368","","false","190","0.3734842368","","main_expt","0.3974997784","","0.1932940482","","0.2067261929","","","","","","",""
"171","","bandit","266","737901","0.0-228.0-0.0","88158401","wem/bandit_single","A2A1FS0KVLJ9ZT","gain","8","","72","H","0","img/none_selected.jpg","1","0","0","0.3648323685","","false","191","0.3648323685","","main_expt","0.4174686418","","0.2285646161","","0.275245882","","","","","","",""
"65","","bandit","267","739727","0.0-229.0-0.0","88158401","wem/bandit_single","A2A1FS0KVLJ9ZT","gain","8","","72","H","0","img/none_selected.jpg","1","0","0","0.3339781981","","false","192","0.3339781981","","main_expt","0.3963748123","","0.2589031043","","0.306220044","","","","","","",""
"199","","bandit","268","741685","0.0-230.0-0.0","88158401","wem/bandit_single","A2A1FS0KVLJ9ZT","gain","8","","72","H","0","img/none_selected.jpg","0","0","1","0.3342714415","","false","193","0.3342714415","","main_expt","0.3921748604","","0.2195537535","","0.3035773814","","","","","","",""
"117","","bandit","269","743565","0.0-231.0-0.0","88158401","wem/bandit_single","A2A1FS0KVLJ9ZT","gain","8","","72","H","0","img/none_selected.jpg","0","0","1","0.3241295504","","false","194","0.3241295504","","main_expt","0.3580841109","","0.2027550427","","0.2510827831","","","","","","",""
"372","","bandit","270","745696","0.0-232.0-0.0","88158401","wem/bandit_single","A2A1FS0KVLJ9ZT","gain","8","","72","H","0","img/none_selected.jpg","0","0","1","0.3116310431","","false","195","0.3116310431","","main_expt","0.3508589263","","0.1862287394","","0.2455858858","","","","","","",""
"440","","bandit","271","747895","0.0-233.0-0.0","88158401","wem/bandit_single","A2A1FS0KVLJ9ZT","gain","8","","74","J","1","","0","0","1","0.3580593089","","false","196","0.3757707762","","main_expt","0.3580593089","","0.1892299528","","0.2514601016","","","","","","",""
"449","","bandit","272","750104","0.0-234.0-0.0","88158401","wem/bandit_single","A2A1FS0KVLJ9ZT","gain","8","","74","J","1","","0","0","1","0.325214339","","false","197","0.3510132286","","main_expt","0.325214339","","0.2217707201","","0.2735270373","","","","","","",""
"225","","bandit","273","752088","0.0-235.0-0.0","88158401","wem/bandit_single","A2A1FS0KVLJ9ZT","gain","8","","74","J","1","","1","0","0","0.3214736551","","false","198","0.3775824693","","main_expt","0.3214736551","","0.2622368769","","0.1856542716","","","","","","",""
"206","","bandit","274","754053","0.0-236.0-0.0","88158401","wem/bandit_single","A2A1FS0KVLJ9ZT","gain","8","","74","J","1","","1","0","0","0.3134841864","","false","199","0.3591355879","","main_expt","0.3134841864","","0.2566369559","","0.1439471636","","","","","","",""
"196","","bandit","275","756008","0.0-237.0-0.0","88158401","wem/bandit_single","A2A1FS0KVLJ9ZT","gain","8","","74","J","1","","0","0","1","0.3484934822","","false","200","0.4329566742","","main_expt","0.3484934822","","0.2405232655","","0.1920673188","","","","","","",""
"94","","bandit","276","757860","0.0-238.0-0.0","88158401","wem/bandit_single","A2A1FS0KVLJ9ZT","gain","8","","74","J","1","","0","0","1","0.3509587021","","false","201","0.4316294991","","main_expt","0.3509587021","","0.191632201","","0.2139557707","","","","","","",""
"55","","bandit","277","759676","0.0-239.0-0.0","88158401","wem/bandit_single","A2A1FS0KVLJ9ZT","gain","8","","75","K","2","","0","0","1","0.1860277461","","false","202","0.4446061493","","main_expt","0.3472711197","","0.1860277461","","0.2411081829","","","","","","",""
"1114","","bandit","278","762549","0.0-240.0-0.0","88158401","wem/bandit_single","A2A1FS0KVLJ9ZT","gain","8","","75","K","2","","0","0","1","0.1959395152","","false","203","0.4350640844","","main_expt","0.3501901851","","0.1959395152","","0.2229679022","","","","","","",""
"284","","bandit","279","764594","0.0-241.0-0.0","88158401","wem/bandit_single","A2A1FS0KVLJ9ZT","gain","8","","75","K","2","","0","0","1","0.1909798814","","false","204","0.4511953558","","main_expt","0.4021923856","","0.1909798814","","0.2094072873","","","","","","",""
"425","","bandit","280","766780","0.0-242.0-0.0","88158401","wem/bandit_single","A2A1FS0KVLJ9ZT","gain","8","","75","K","2","","0","0","1","0.1952925147","","false","205","0.4444608137","","main_expt","0.4103624794","","0.1952925147","","0.2061243076","","","","","","",""
"557","","bandit","281","769095","0.0-243.0-0.0","88158401","wem/bandit_single","A2A1FS0KVLJ9ZT","gain","8","","75","K","2","","0","0","1","0.2333477628","","false","206","0.4174874576","","main_expt","0.3884407208","","0.2333477628","","0.1830656651","","","","","","",""
"290","","bandit","282","771145","0.0-244.0-0.0","88158401","wem/bandit_single","A2A1FS0KVLJ9ZT","gain","8","","76","L","3","","1","0","0","0.1806213093","","false","207","0.4473837798","","main_expt","0.4205181933","","0.2366383375","","0.1806213093","","","","","","",""
"1612","","bandit","283","774517","0.0-245.0-0.0","88158401","wem/bandit_single","A2A1FS0KVLJ9ZT","gain","8","","76","L","3","","0","0","1","0.1547428587","","false","208","0.4423282801","","main_expt","0.39705837","","0.2588239296","","0.1547428587","","","","","","",""
"203","","bandit","284","776479","0.0-246.0-0.0","88158401","wem/bandit_single","A2A1FS0KVLJ9ZT","gain","8","","76","L","3","","0","0","1","0.1633509089","","false","209","0.4495798672","","main_expt","0.3763678409","","0.2109346514","","0.1633509089","","","","","","",""
"183","","bandit","285","778425","0.0-247.0-0.0","88158401","wem/bandit_single","A2A1FS0KVLJ9ZT","gain","8","","76","L","3","","0","0","1","0.194224154","","false","210","0.4604116181","","main_expt","0.329669689","","0.2352346414","","0.194224154","","","","","","",""
"172","","bandit","286","780356","0.0-248.0-0.0","88158401","wem/bandit_single","A2A1FS0KVLJ9ZT","gain","8","","76","L","3","","0","0","1","0.1428536625","","false","211","0.4515605979","","main_expt","0.3234151823","","0.1919095989","","0.1428536625","","","","","","",""
"76","","bandit","287","782191","0.0-249.0-0.0","88158401","wem/bandit_single","A2A1FS0KVLJ9ZT","gain","8","","72","H","0","img/none_selected.jpg","0","0","1","0.3796359761","","false","212","0.3796359761","","main_expt","0.346289724","","0.2511997366","","0.1876263767","","","","","","",""
"281","","bandit","288","784234","0.0-250.0-0.0","88158401","wem/bandit_single","A2A1FS0KVLJ9ZT","gain","8","","72","H","0","img/none_selected.jpg","0","0","1","0.4098311692","","false","213","0.4098311692","","main_expt","0.3579646626","","0.2247602752","","0.1767426991","","","","","","",""
"140","","bandit","289","786134","0.0-251.0-0.0","88158401","wem/bandit_single","A2A1FS0KVLJ9ZT","gain","8","","72","H","0","img/none_selected.jpg","0","0","1","0.3758430492","","false","214","0.3758430492","","main_expt","0.3871938136","","0.2078026042","","0.1997003326","","","","","","",""
"145","","bandit","290","788039","0.0-252.0-0.0","88158401","wem/bandit_single","A2A1FS0KVLJ9ZT","gain","8","","72","H","0","img/none_selected.jpg","0","0","1","0.3391734167","","false","215","0.3391734167","","main_expt","0.4072701047","","0.2000367883","","0.1753208105","","","","","","",""
"48","","bandit","291","789845","0.0-253.0-0.0","88158401","wem/bandit_single","A2A1FS0KVLJ9ZT","gain","8","","74","J","1","","0","0","1","0.4139997029","","false","216","0.3292806148","","main_expt","0.4139997029","","0.1850279066","","0.1526073348","","","","","","",""
"89","","bandit","292","791694","0.0-254.0-0.0","88158401","wem/bandit_single","A2A1FS0KVLJ9ZT","gain","8","","74","J","1","","1","0","0","0.4058129166","","false","217","0.3672552775","","main_expt","0.4058129166","","0.1862329662","","0.1885901152","","","","","","",""
"46","","bandit","293","793501","0.0-255.0-0.0","88158401","wem/bandit_single","A2A1FS0KVLJ9ZT","gain","8","","74","J","1","","0","0","1","0.3831507141","","false","218","0.3540988412","","main_expt","0.3831507141","","0.2076422808","","0.2068683321","","","","","","",""
"158","","bandit","294","795415","0.0-256.0-0.0","88158401","wem/bandit_single","A2A1FS0KVLJ9ZT","gain","8","","74","J","1","","0","0","1","0.3975704748","","false","219","0.3705907093","","main_expt","0.3975704748","","0.1693095695","","0.1830460615","","","","","","",""
"183","","bandit","295","797359","0.0-257.0-0.0","88158401","wem/bandit_single","A2A1FS0KVLJ9ZT","gain","8","","75","K","2","","0","0","1","0.1643321708","","false","220","0.4071767116","","main_expt","0.420208779","","0.1643321708","","0.1510464272","","","","","","",""
"3151","","bandit","296","802269","0.0-258.0-0.0","88158401","wem/bandit_single","A2A1FS0KVLJ9ZT","gain","8","","75","K","2","","0","0","1","0.1755642267","","false","221","0.4000591573","","main_expt","0.4277126104","","0.1755642267","","0.1195154075","","","","","","",""
"38","","bandit","297","804066","0.0-259.0-0.0","88158401","wem/bandit_single","A2A1FS0KVLJ9ZT","gain","8","","76","L","3","","0","0","1","0.1322821073","","false","222","0.4257242725","","main_expt","0.4098861052","","0.2047466037","","0.1322821073","","","","","","",""
"186","","bandit","298","806010","0.0-260.0-0.0","88158401","wem/bandit_single","A2A1FS0KVLJ9ZT","gain","8","","76","L","3","","1","0","0","0.1634864242","","false","223","0.4084538547","","main_expt","0.3865692481","","0.1261696039","","0.1634864242","","","","","","",""
"29","","bandit","299","807800","0.0-261.0-0.0","88158401","wem/bandit_single","A2A1FS0KVLJ9ZT","gain","8","","76","L","3","","1","0","0","0.1927622759","","false","224","0.3756333804","","main_expt","0.3942994903","","0.1671605087","","0.1927622759","","","","","","",""
"212","","bandit","300","809772","0.0-262.0-0.0","88158401","wem/bandit_single","A2A1FS0KVLJ9ZT","gain","8","","76","L","3","","0","0","1","0.1949177646","","false","225","0.3977261909","","main_expt","0.3444994861","","0.1498322393","","0.1949177646","","","","","","",""
"85","","bandit","301","811615","0.0-263.0-0.0","88158401","wem/bandit_single","A2A1FS0KVLJ9ZT","gain","8","","76","L","3","","1","0","0","0.1675301724","","false","226","0.3876796808","","main_expt","0.4042132592","","0.106170416","","0.1675301724","","","","","","",""
"38","","bandit","302","813413","0.0-264.0-0.0","88158401","wem/bandit_single","A2A1FS0KVLJ9ZT","gain","8","","76","L","3","","1","0","0","0.163375113","","false","227","0.3213858912","","main_expt","0.3906229402","","0.0897934899","","0.163375113","","","","","","",""
"43","","bandit","303","815215","0.0-265.0-0.0","88158401","wem/bandit_single","A2A1FS0KVLJ9ZT","gain","8","","76","L","3","","0","0","1","0.195474145","","false","228","0.3331191915","","main_expt","0.3417164876","","0.09443294629","","0.195474145","","","","","","",""
"290","","bandit","304","817266","0.0-266.0-0.0","88158401","wem/bandit_single","A2A1FS0KVLJ9ZT","gain","8","","76","L","3","","1","0","0","0.2410354958","","false","229","0.308496805","","main_expt","0.3222205624","","0.0848669953","","0.2410354958","","","","","","",""
"124","","bandit","305","819151","0.0-267.0-0.0","88158401","wem/bandit_single","A2A1FS0KVLJ9ZT","gain","8","","76","L","3","","0","0","1","0.2567648542","","false","230","0.2734654059","","main_expt","0.3442672336","","0.0701458292","","0.2567648542","","","","","","",""
"45","","bandit","306","820957","0.0-268.0-0.0","88158401","wem/bandit_single","A2A1FS0KVLJ9ZT","gain","8","","72","H","0","img/none_selected.jpg","0","0","1","0.292212981","","false","231","0.292212981","","main_expt","0.3164459362","","0.1251282835","","0.2304241664","","","","","","",""
"182","","bandit","307","822899","0.0-269.0-0.0","88158401","wem/bandit_single","A2A1FS0KVLJ9ZT","gain","8","","72","H","0","img/none_selected.jpg","1","0","0","0.2516656152","","false","232","0.2516656152","","main_expt","0.3396906789","","0.1124912266","","0.2264886823","","","","","","",""
"59","","bandit","308","824719","0.0-270.0-0.0","88158401","wem/bandit_single","A2A1FS0KVLJ9ZT","gain","8","","72","H","0","img/none_selected.jpg","0","0","1","0.2563877418","","false","233","0.2563877418","","main_expt","0.3008540409","","0.1535494164","","0.1892320941","","","","","","",""
"100","","bandit","309","826580","0.0-271.0-0.0","88158401","wem/bandit_single","A2A1FS0KVLJ9ZT","gain","8","","74","J","1","","0","0","1","0.2767988229","","false","234","0.283882603","","main_expt","0.2767988229","","0.1389628654","","0.1556895318","","","","","","",""
"671","","bandit","310","829012","0.0-272.0-0.0","88158401","wem/bandit_single","A2A1FS0KVLJ9ZT","gain","8","","74","J","1","","1","0","0","0.2507781603","","false","235","0.2758852766","","main_expt","0.2507781603","","0.1680793718","","0.1976044491","","","","","","",""
"403","","bandit","311","831176","0.0-273.0-0.0","88158401","wem/bandit_single","A2A1FS0KVLJ9ZT","gain","8","","74","J","1","","0","0","1","0.3091667607","","false","236","0.2434452049","","main_expt","0.3091667607","","0.2037097706","","0.1468950029","","","","","","",""
"258","","bandit","312","833195","0.0-274.0-0.0","88158401","wem/bandit_single","A2A1FS0KVLJ9ZT","gain","8","","74","J","1","","1","0","0","0.2883211118","","false","237","0.2405517979","","main_expt","0.2883211118","","0.1897176974","","0.1365515699","","","","","","",""
"588","","bandit","313","835544","0.0-275.0-0.0","88158401","wem/bandit_single","A2A1FS0KVLJ9ZT","gain","8","","74","J","1","","0","0","1","0.2756444762","","false","238","0.2260832521","","main_expt","0.2756444762","","0.2317710791","","0.1527077476","","","","","","",""
"388","","bandit","314","837693","0.0-276.0-0.0","88158401","wem/bandit_single","A2A1FS0KVLJ9ZT","gain","8","","74","J","1","","0","0","1","0.3061346513","","false","239","0.2061693665","","main_expt","0.3061346513","","0.2206906913","","0.1315224722","","","","","","",""
"81","","bandit","315","839535","0.0-277.0-0.0","88158401","wem/bandit_single","A2A1FS0KVLJ9ZT","gain","8","","75","K","2","","0","0","1","0.2155283076","","false","240","0.2203195159","","main_expt","0.3274201615","","0.2155283076","","0.1398926963","","","","","","",""
"99","","bandit","316","841393","0.0-278.0-0.0","88158401","wem/bandit_single","A2A1FS0KVLJ9ZT","gain","8","","75","K","2","","0","0","1","0.2386015387","","false","241","0.2230507071","","main_expt","0.2838770346","","0.2386015387","","0.1698873683","","","","","","",""
"55","","bandit","317","843211","0.0-279.0-0.0","88158401","wem/bandit_single","A2A1FS0KVLJ9ZT","gain","8","","75","K","2","","0","0","1","0.2178179326","","false","242","0.1834748297","","main_expt","0.261873528","","0.2178179326","","0.1693915972","","","","","","",""
"363","","bandit","318","845336","0.0-280.0-0.0","88158401","wem/bandit_single","A2A1FS0KVLJ9ZT","gain","8","","76","L","3","","0","0","1","0.2011280514","","false","243","0.1450766806","","main_expt","0.2346518895","","0.2209910316","","0.2011280514","","","","","","",""
"50","","bandit","319","847145","0.0-281.0-0.0","88158401","wem/bandit_single","A2A1FS0KVLJ9ZT","gain","8","","76","L","3","","0","0","1","0.283074141","","false","244","0.1407015906","","main_expt","0.2253303202","","0.2202366047","","0.283074141","","","","","","",""
"54","","bandit","320","848961","0.0-282.0-0.0","88158401","wem/bandit_single","A2A1FS0KVLJ9ZT","gain","8","","72","H","0","img/none_selected.jpg","1","0","0","0.1386250556","","false","245","0.1386250556","","main_expt","0.2379184421","","0.2369425358","","0.2960363525","","","","","","",""
"532","","bandit","321","851255","0.0-283.0-0.0","88158401","wem/bandit_single","A2A1FS0KVLJ9ZT","gain","8","","72","H","0","img/none_selected.jpg","0","0","1","0.1561911267","","false","246","0.1561911267","","main_expt","0.1704118475","","0.2437218948","","0.2985154159","","","","","","",""
"19","","bandit","322","853033","0.0-284.0-0.0","88158401","wem/bandit_single","A2A1FS0KVLJ9ZT","gain","8","","72","H","0","img/none_selected.jpg","0","0","1","0.251644506","","false","247","0.251644506","","main_expt","0.1520093858","","0.2573167276","","0.3159682012","","","","","","",""
"6773","","bandit","323","861565","0.0-285.0-0.0","88158401","wem/bandit_single","A2A1FS0KVLJ9ZT","gain","8","","74","J","1","","0","0","1","0.1246217458","","false","248","0.2541276422","","main_expt","0.1246217458","","0.255349996","","0.2937445921","","","","","","",""
"637","","bandit","324","863962","0.0-286.0-0.0","88158401","wem/bandit_single","A2A1FS0KVLJ9ZT","gain","8","","74","J","1","","0","0","1","0.1525969556","","false","249","0.1924412691","","main_expt","0.1525969556","","0.2866877344","","0.2794909668","","","","","","",""
"336","","bandit","325","866060","0.0-287.0-0.0","88158401","wem/bandit_single","A2A1FS0KVLJ9ZT","gain","8","","75","K","2","","0","0","1","0.2330780591","","false","250","0.1397358892","","main_expt","0.1500628479","","0.2330780591","","0.2327966623","","","","","","",""
"431","","bandit","326","868252","0.0-288.0-0.0","88158401","wem/bandit_single","A2A1FS0KVLJ9ZT","gain","8","","75","K","2","","1","0","0","0.2580196572","","false","251","0.1362233376","","main_expt","0.1141396938","","0.2580196572","","0.2595602212","","","","","","",""
"534","","bandit","327","870546","0.0-289.0-0.0","88158401","wem/bandit_single","A2A1FS0KVLJ9ZT","gain","8","","75","K","2","","1","0","0","0.2003146692","","false","252","0.1796418735","","main_expt","0.1476089834","","0.2003146692","","0.2715763176","","","","","","",""
"133","","bandit","328","872439","0.0-290.0-0.0","88158401","wem/bandit_single","A2A1FS0KVLJ9ZT","gain","8","","75","K","2","","0","0","1","0.1651092288","","false","253","0.1833608075","","main_expt","0.175183139","","0.1651092288","","0.3146654463","","","","","","",""
"1192","","bandit","329","875393","0.0-291.0-0.0","88158401","wem/bandit_single","A2A1FS0KVLJ9ZT","gain","8","","75","K","2","","0","0","1","0.1413675546","","false","254","0.1983034343","","main_expt","0.1916323123","","0.1413675546","","0.3037610447","","","","","","",""
"620","","bandit","330","877772","0.0-292.0-0.0","88158401","wem/bandit_single","A2A1FS0KVLJ9ZT","gain","8","","76","L","3","","1","0","0","0.287825992","","false","255","0.2286544637","","main_expt","0.1888714334","","0.1801919014","","0.287825992","","","","","","",""
"333","","bandit","331","879865","0.0-293.0-0.0","88158401","wem/bandit_single","A2A1FS0KVLJ9ZT","gain","8","","76","L","3","","1","0","0","0.2673332977","","false","256","0.2502735072","","main_expt","0.2338577058","","0.1883387327","","0.2673332977","","","","","","",""
"14","","bandit","332","881641","0.0-294.0-0.0","88158401","wem/bandit_single","A2A1FS0KVLJ9ZT","gain","8","","76","L","3","","0","0","1","0.2867614738","","false","257","0.2657937058","","main_expt","0.2235288738","","0.1757220287","","0.2867614738","","","","","","",""
"547","","bandit","333","883946","0.0-295.0-0.0","88158401","wem/bandit_single","A2A1FS0KVLJ9ZT","gain","8","","74","J","1","","1","0","0","0.2256298632","","false","258","0.2326681124","","main_expt","0.2256298632","","0.1817694486","","0.2432485896","","","","","","",""
"13","","bandit","334","885718","0.0-296.0-0.0","88158401","wem/bandit_single","A2A1FS0KVLJ9ZT","gain","8","","74","J","1","","1","0","0","0.229367941","","false","259","0.2128848171","","main_expt","0.229367941","","0.1938363466","","0.2433124215","","","","","","",""
"154","","bandit","335","887634","0.0-297.0-0.0","88158401","wem/bandit_single","A2A1FS0KVLJ9ZT","gain","8","","74","J","1","","0","0","1","0.2585863351","","false","260","0.261065439","","main_expt","0.2585863351","","0.2129025296","","0.202057327","","","","","","",""
"34","","bandit","336","889431","0.0-298.0-0.0","88158401","wem/bandit_single","A2A1FS0KVLJ9ZT","gain","8","","72","H","0","img/none_selected.jpg","0","0","1","0.2693274395","","false","261","0.2693274395","","main_expt","0.2748644017","","0.1931457884","","0.163702413","","","","","","",""
"48","","bandit","337","891241","0.0-299.0-0.0","88158401","wem/bandit_single","A2A1FS0KVLJ9ZT","gain","8","","72","H","0","img/none_selected.jpg","0","0","1","0.3386888623","","false","262","0.3386888623","","main_expt","0.288340978","","0.183306516","","0.1317961998","","","","","","",""
"80","","bandit","338","893080","0.0-300.0-0.0","88158401","wem/bandit_single","A2A1FS0KVLJ9ZT","gain","8","","72","H","0","img/none_selected.jpg","1","0","0","0.3645909238","","false","263","0.3645909238","","main_expt","0.3151532186","","0.1293037787","","0.09680570831","","","","","","",""
"259","","bandit","339","895101","0.0-301.0-0.0","88158401","wem/bandit_single","A2A1FS0KVLJ9ZT","gain","8","","72","H","0","img/none_selected.jpg","0","0","1","0.3437159196","","false","264","0.3437159196","","main_expt","0.2931268787","","0.1386072774","","0.08846786375","","","","","","",""
"300","","bandit","340","897164","0.0-302.0-0.0","88158401","wem/bandit_single","A2A1FS0KVLJ9ZT","gain","8","","72","H","0","img/none_selected.jpg","1","0","0","0.3644358952","","false","265","0.3644358952","","main_expt","0.3131275506","","0.1511252148","","0.08556864258","","","","","","",""
"273","","bandit","341","899200","0.0-303.0-0.0","88158401","wem/bandit_single","A2A1FS0KVLJ9ZT","gain","8","","72","H","0","img/none_selected.jpg","0","0","1","0.3904852039","","false","266","0.3904852039","","main_expt","0.336523231","","0.2186772706","","0.0706515048","","","","","","",""
"206","","bandit","342","901168","0.0-304.0-0.0","88158401","wem/bandit_single","A2A1FS0KVLJ9ZT","gain","8","","72","H","0","img/none_selected.jpg","1","0","0","0.3896615427","","false","267","0.3896615427","","main_expt","0.2850369317","","0.2625163009","","0.0747424838","","","","","","",""
"207","","bandit","343","903137","0.0-305.0-0.0","88158401","wem/bandit_single","A2A1FS0KVLJ9ZT","gain","8","","72","H","0","img/none_selected.jpg","0","0","1","0.4017278216","","false","268","0.4017278216","","main_expt","0.3163307124","","0.3140442454","","0.112617448","","","","","","",""
"149","","bandit","344","905048","0.0-306.0-0.0","88158401","wem/bandit_single","A2A1FS0KVLJ9ZT","gain","8","","72","H","0","img/none_selected.jpg","1","0","0","0.370996795","","false","269","0.370996795","","main_expt","0.2956683275","","0.3069084364","","0.1406639307","","","","","","",""
"256","","bandit","345","907072","0.0-307.0-0.0","88158401","wem/bandit_single","A2A1FS0KVLJ9ZT","gain","8","","72","H","0","img/none_selected.jpg","1","0","0","0.4255483526","","false","270","0.4255483526","","main_expt","0.3574655381","","0.2814908846","","0.1398727949","","","","","","",""
"321","","bandit","346","909155","0.0-308.0-0.0","88158401","wem/bandit_single","A2A1FS0KVLJ9ZT","gain","8","","72","H","0","img/none_selected.jpg","0","0","1","0.3948114384","","false","271","0.3948114384","","main_expt","0.3969117111","","0.3060786573","","0.1430486157","","","","","","",""
"95","","bandit","347","911012","0.0-309.0-0.0","88158401","wem/bandit_single","A2A1FS0KVLJ9ZT","gain","8","","72","H","0","img/none_selected.jpg","0","0","1","0.3713372483","","false","272","0.3713372483","","main_expt","0.3938657786","","0.3555003363","","0.1872928851","","","","","","",""
"70","","bandit","348","912843","0.0-310.0-0.0","88158401","wem/bandit_single","A2A1FS0KVLJ9ZT","gain","8","","74","J","1","","0","0","1","0.3903330825","","false","273","0.3650537767","","main_expt","0.3903330825","","0.3980140183","","0.1769074474","","","","","","",""
"302","","bandit","349","914907","0.0-311.0-0.0","88158401","wem/bandit_single","A2A1FS0KVLJ9ZT","gain","8","","74","J","1","","1","0","0","0.4236793781","","false","274","0.3414565802","","main_expt","0.4236793781","","0.4077181827","","0.1820324592","","","","","","",""
"80","","bandit","350","916748","0.0-312.0-0.0","88158401","wem/bandit_single","A2A1FS0KVLJ9ZT","gain","8","","74","J","1","","1","0","0","0.4320968281","","false","275","0.3027622838","","main_expt","0.4320968281","","0.4142369189","","0.1923133529","","","","","","",""
"195","","bandit","351","918704","0.0-313.0-0.0","88158401","wem/bandit_single","A2A1FS0KVLJ9ZT","gain","8","","74","J","1","","1","0","0","0.4017915655","","false","276","0.3125082267","","main_expt","0.4017915655","","0.4250096067","","0.1917589367","","","","","","",""
"17","","bandit","352","920489","0.0-314.0-0.0","88158401","wem/bandit_single","A2A1FS0KVLJ9ZT","gain","8","","74","J","1","","0","0","1","0.3548215972","","false","277","0.348890663","","main_expt","0.3548215972","","0.4378988515","","0.1667093518","","","","","","",""
"101","","bandit","353","922352","0.0-315.0-0.0","88158401","wem/bandit_single","A2A1FS0KVLJ9ZT","gain","8","","74","J","1","","0","0","1","0.3683165275","","false","278","0.3341457036","","main_expt","0.3683165275","","0.4323676568","","0.1695638059","","","","","","",""
"90","","bandit","354","924204","0.0-316.0-0.0","88158401","wem/bandit_single","A2A1FS0KVLJ9ZT","gain","8","","74","J","1","","0","0","1","0.3750953637","","false","279","0.2341959149","","main_expt","0.3750953637","","0.4391545144","","0.1696283439","","","","","","",""
"18","","bandit","355","925984","0.0-317.0-0.0","88158401","wem/bandit_single","A2A1FS0KVLJ9ZT","gain","8","","75","K","2","","0","0","1","0.4467207207","","false","280","0.1839622844","","main_expt","0.3557095414","","0.4467207207","","0.09227733008","","","","","","",""
"133","","bandit","356","927878","0.0-318.0-0.0","88158401","wem/bandit_single","A2A1FS0KVLJ9ZT","gain","8","","75","K","2","","1","0","0","0.3922333676","","false","281","0.1303375237","","main_expt","0.374333358","","0.3922333676","","0.08059064446","","","","","","",""
"94","","bandit","357","929732","0.0-319.0-0.0","88158401","wem/bandit_single","A2A1FS0KVLJ9ZT","gain","8","","75","K","2","","0","0","1","0.4243132136","","false","282","0.07449941097","","main_expt","0.3786855632","","0.4243132136","","0.06236597977","","","","","","",""
"820","","bandit","358","932313","0.0-320.0-0.0","88158401","wem/bandit_single","A2A1FS0KVLJ9ZT","gain","8","","76","L","3","","0","0","1","0.07782340279","","false","283","0.08783129911","","main_expt","0.437514669","","0.4187362854","","0.07782340279","","","","","","",""
"79","","bandit","359","934153","0.0-321.0-0.0","88158401","wem/bandit_single","A2A1FS0KVLJ9ZT","gain","8","","76","L","3","","0","0","1","0.07564660971","","false","284","0.08228152097","","main_expt","0.410198323","","0.422543139","","0.07564660971","","","","","","",""
"48","","bandit","360","935963","0.0-322.0-0.0","88158401","wem/bandit_single","A2A1FS0KVLJ9ZT","gain","8","","75","K","2","","1","0","0","0.434302279","","false","285","0.09246744832","","main_expt","0.3777139522","","0.434302279","","0.08237135124","","","","","","",""
"228","","bandit","361","937952","0.0-323.0-0.0","88158401","wem/bandit_single","A2A1FS0KVLJ9ZT","gain","8","","75","K","2","","0","0","1","0.4094725029","","false","286","0.08394792075","","main_expt","0.3841171753","","0.4094725029","","0.05670298638","","","","","","",""
"129","","bandit","362","939842","0.0-324.0-0.0","88158401","wem/bandit_single","A2A1FS0KVLJ9ZT","gain","8","","74","J","1","","0","0","1","0.3641862554","","false","287","0.1021913287","","main_expt","0.3641862554","","0.3778080042","","0.06647452785","","","","","","",""
"209","","bandit","363","941812","0.0-325.0-0.0","88158401","wem/bandit_single","A2A1FS0KVLJ9ZT","gain","8","","74","J","1","","0","0","1","0.3192590496","","false","288","0.1188664616","","main_expt","0.3192590496","","0.3671495563","","0.04859701272","","","","","","",""
"1121","","bandit","364","944700","0.0-326.0-0.0","88158401","wem/bandit_single","A2A1FS0KVLJ9ZT","gain","8","","72","H","0","img/none_selected.jpg","0","0","1","0.1050513492","","false","289","0.1050513492","","main_expt","0.3384054944","","0.3622055636","","0.04246321062","","","","","","",""
"2787","","bandit","365","949251","0.0-327.0-0.0","88158401","wem/bandit_single","A2A1FS0KVLJ9ZT","gain","8","","72","H","0","img/none_selected.jpg","0","0","1","0.1304324694","","false","290","0.1304324694","","main_expt","0.329366118","","0.3616647964","","0.08307379137","","","","","","",""
"60","","bandit","366","951073","0.0-328.0-0.0","88158401","wem/bandit_single","A2A1FS0KVLJ9ZT","gain","8","","74","J","1","","1","0","0","0.38061917","","false","291","0.09707891459","","main_expt","0.38061917","","0.3521760992","","0.09664054691","","","","","","",""
"363","","bandit","367","953197","0.0-329.0-0.0","88158401","wem/bandit_single","A2A1FS0KVLJ9ZT","gain","8","","74","J","1","","0","0","1","0.3703624541","","false","292","0.1166693976","","main_expt","0.3703624541","","0.3062989856","","0.1089287446","","","","","","",""
"614","","bandit","368","955571","0.0-330.0-0.0","88158401","wem/bandit_single","A2A1FS0KVLJ9ZT","gain","8","","75","K","2","","1","0","0","0.2594623792","","false","293","0.1448282665","","main_expt","0.3554666564","","0.2594623792","","0.1426967363","","","","","","",""
"331","","bandit","369","957664","0.0-331.0-0.0","88158401","wem/bandit_single","A2A1FS0KVLJ9ZT","gain","8","","75","K","2","","0","0","1","0.2666401727","","false","294","0.1486412875","","main_expt","0.3976604504","","0.2666401727","","0.08295656842","","","","","","",""
"1492","","bandit","370","960918","0.0-332.0-0.0","88158401","wem/bandit_single","A2A1FS0KVLJ9ZT","gain","8","","76","L","3","","0","0","1","0.07441347029","","false","295","0.1266024918","","main_expt","0.3567340825","","0.2160621863","","0.07441347029","","","","","","",""
"143","","bandit","371","962825","0.0-333.0-0.0","88158401","wem/bandit_single","A2A1FS0KVLJ9ZT","gain","8","","76","L","3","","0","0","1","0.08167080543","","false","296","0.1499702932","","main_expt","0.3802278382","","0.1924669582","","0.08167080543","","","","","","",""
"100","","bandit","372","964687","0.0-334.0-0.0","88158401","wem/bandit_single","A2A1FS0KVLJ9ZT","gain","8","","75","K","2","","1","0","0","0.2572135825","","false","297","0.1124444021","","main_expt","0.3764104085","","0.2572135825","","0.06721412472","","","","","","",""
"71","","bandit","373","966525","0.0-335.0-0.0","88158401","wem/bandit_single","A2A1FS0KVLJ9ZT","gain","8","","75","K","2","","0","0","1","0.2660288188","","false","298","0.122133656","","main_expt","0.3801851674","","0.2660288188","","0.1106754059","","","","","","",""
"438","","bandit","374","968727","0.0-336.0-0.0","88158401","wem/bandit_single","A2A1FS0KVLJ9ZT","gain","8","","75","K","2","","0","0","1","0.2708303459","","false","299","0.1064281731","","main_expt","0.37372938","","0.2708303459","","0.146580741","","","","","","",""
