"rt","responses","trial_type","trial_index","time_elapsed","internal_node_id","subjID","study","MID","cond","drift","key_press","respCharCode","respKey","respChoiceNum","respChoice","gems","bombs","no_reward","GemPrChosen","BombPrChosen","practice","trial_counter","WinPr_0","LosePr_0","trial_label","WinPr_1","LosePr_1","WinPr_2","LosePr_2","WinPr_3","LosePr_3","Q0","Q1","Q2","gender","age","ethnicity"
"25397","{""Q0"":""A21H2UDDHN8ZF""}","survey-text","0","25409","0.0-0.0","88377512","wem/bandit_single","A21H2UDDHN8ZF","pain","3","","","","","","","","","","","","","","","","","","","","","","","","","","",""
"395766","","text","1","422196","0.0-1.0","88377512","wem/bandit_single","A21H2UDDHN8ZF","pain","3","32","","","","","","","","","","","","","","","","","","","","","","","","","",""
"4066","","text","2","426281","0.0-2.0","88377512","wem/bandit_single","A21H2UDDHN8ZF","pain","3","32","","","","","","","","","","","","","","","","","","","","","","","","","",""
"22212","","text","3","448495","0.0-3.0","88377512","wem/bandit_single","A21H2UDDHN8ZF","pain","3","32","","","","","","","","","","","","","","","","","","","","","","","","","",""
"18277","","text","4","466779","0.0-4.0","88377512","wem/bandit_single","A21H2UDDHN8ZF","pain","3","32","","","","","","","","","","","","","","","","","","","","","","","","","",""
"9362","","text","5","476154","0.0-5.0","88377512","wem/bandit_single","A21H2UDDHN8ZF","pain","3","32","","","","","","","","","","","","","","","","","","","","","","","","","",""
"10869","","text","6","487024","0.0-6.0","88377512","wem/bandit_single","A21H2UDDHN8ZF","pain","3","32","","","","","","","","","","","","","","","","","","","","","","","","","",""
"3271","","text","7","490326","0.0-7.0","88377512","wem/bandit_single","A21H2UDDHN8ZF","pain","3","32","","","","","","","","","","","","","","","","","","","","","","","","","",""
"3075","","text","8","493403","0.0-8.0","88377512","wem/bandit_single","A21H2UDDHN8ZF","pain","3","32","","","","","","","","","","","","","","","","","","","","","","","","","",""
"3281","","text","9","496694","0.0-9.0","88377512","wem/bandit_single","A21H2UDDHN8ZF","pain","3","32","","","","","","","","","","","","","","","","","","","","","","","","","",""
"6842","","text","10","503552","0.0-10.0","88377512","wem/bandit_single","A21H2UDDHN8ZF","pain","3","32","","","","","","","","","","","","","","","","","","","","","","","","","",""
"7678","","text","11","511234","0.0-11.0","88377512","wem/bandit_single","A21H2UDDHN8ZF","pain","3","32","","","","","","","","","","","","","","","","","","","","","","","","","",""
"1817","","bandit","12","514604","0.0-12.0-0.0","88377512","wem/bandit_single","A21H2UDDHN8ZF","pain","3","","74","J","0","img/none_selected_demo.jpg","0","0","1","0","0","true","0","0","0","","","","","","","","","","","","",""
"482","","bandit","13","516879","0.0-13.0-0.0","88377512","wem/bandit_single","A21H2UDDHN8ZF","pain","3","","75","K","0","img/none_selected_demo.jpg","0","0","1","0","0","true","0","0","0","","","","","","","","","","","","",""
"2592","","text","14","519737","0.0-14.0","88377512","wem/bandit_single","A21H2UDDHN8ZF","pain","3","32","","","","","","","","","","","","","","","","","","","","","","","","","",""
"1575","","text","15","521315","0.0-15.0","88377512","wem/bandit_single","A21H2UDDHN8ZF","pain","3","32","","","","","","","","","","","","","","","","","","","","","","","","","",""
"3111","","text","16","524428","0.0-16.0","88377512","wem/bandit_single","A21H2UDDHN8ZF","pain","3","32","","","","","","","","","","","","","","","","","","","","","","","","","",""
"2975","","text","17","527416","0.0-17.0","88377512","wem/bandit_single","A21H2UDDHN8ZF","pain","3","32","","","","","","","","","","","","","","","","","","","","","","","","","",""
"1895","","bandit","18","530833","0.0-18.0-0.0","88377512","wem/bandit_single","A21H2UDDHN8ZF","pain","3","","74","J","0","img/none_selected_demo.jpg","0","1","0","0","0.8","true","0","0","0.8","80_20_practice","0","0.2","","","","","","","","","",""
"610","","bandit","19","533230","0.0-18.0-1.0","88377512","wem/bandit_single","A21H2UDDHN8ZF","pain","3","","74","J","0","img/none_selected_demo.jpg","0","1","0","0","0.8","true","0","0","0.8","80_20_practice","0","0.2","","","","","","","","","",""
"391","","bandit","20","535390","0.0-18.0-2.0","88377512","wem/bandit_single","A21H2UDDHN8ZF","pain","3","","74","J","0","img/none_selected_demo.jpg","0","0","1","0","0.8","true","0","0","0.8","80_20_practice","0","0.2","","","","","","","","","",""
"281","","bandit","21","537461","0.0-18.0-3.0","88377512","wem/bandit_single","A21H2UDDHN8ZF","pain","3","","74","J","0","img/none_selected_demo.jpg","0","1","0","0","0.8","true","0","0","0.8","80_20_practice","0","0.2","","","","","","","","","",""
"215","","bandit","22","539458","0.0-18.0-4.0","88377512","wem/bandit_single","A21H2UDDHN8ZF","pain","3","","74","J","0","img/none_selected_demo.jpg","0","1","0","0","0.8","true","0","0","0.8","80_20_practice","0","0.2","","","","","","","","","",""
"182","","bandit","23","541458","0.0-18.0-5.0","88377512","wem/bandit_single","A21H2UDDHN8ZF","pain","3","","74","J","0","img/none_selected_demo.jpg","0","1","0","0","0.8","true","0","0","0.8","80_20_practice","0","0.2","","","","","","","","","",""
"249","","bandit","24","543499","0.0-18.0-6.0","88377512","wem/bandit_single","A21H2UDDHN8ZF","pain","3","","74","J","0","img/none_selected_demo.jpg","0","1","0","0","0.8","true","0","0","0.8","80_20_practice","0","0.2","","","","","","","","","",""
"275","","bandit","25","545554","0.0-18.0-7.0","88377512","wem/bandit_single","A21H2UDDHN8ZF","pain","3","","74","J","0","img/none_selected_demo.jpg","0","1","0","0","0.8","true","0","0","0.8","80_20_practice","0","0.2","","","","","","","","","",""
"183","","bandit","26","547540","0.0-18.0-8.0","88377512","wem/bandit_single","A21H2UDDHN8ZF","pain","3","","74","J","0","img/none_selected_demo.jpg","0","1","0","0","0.8","true","0","0","0.8","80_20_practice","0","0.2","","","","","","","","","",""
"106","","bandit","27","549440","0.0-18.0-9.0","88377512","wem/bandit_single","A21H2UDDHN8ZF","pain","3","","74","J","0","img/none_selected_demo.jpg","0","1","0","0","0.8","true","0","0","0.8","80_20_practice","0","0.2","","","","","","","","","",""
"154","","bandit","28","551396","0.0-18.0-10.0","88377512","wem/bandit_single","A21H2UDDHN8ZF","pain","3","","74","J","0","img/none_selected_demo.jpg","0","1","0","0","0.8","true","0","0","0.8","80_20_practice","0","0.2","","","","","","","","","",""
"75","","bandit","29","553260","0.0-18.0-11.0","88377512","wem/bandit_single","A21H2UDDHN8ZF","pain","3","","74","J","0","img/none_selected_demo.jpg","0","1","0","0","0.8","true","0","0","0.8","80_20_practice","0","0.2","","","","","","","","","",""
"215","","bandit","30","555260","0.0-18.0-12.0","88377512","wem/bandit_single","A21H2UDDHN8ZF","pain","3","","74","J","0","img/none_selected_demo.jpg","0","1","0","0","0.8","true","0","0","0.8","80_20_practice","0","0.2","","","","","","","","","",""
"66","","bandit","31","557102","0.0-18.0-13.0","88377512","wem/bandit_single","A21H2UDDHN8ZF","pain","3","","74","J","0","img/none_selected_demo.jpg","0","1","0","0","0.8","true","0","0","0.8","80_20_practice","0","0.2","","","","","","","","","",""
"143","","bandit","32","559030","0.0-18.0-14.0","88377512","wem/bandit_single","A21H2UDDHN8ZF","pain","3","","74","J","0","img/none_selected_demo.jpg","0","1","0","0","0.8","true","0","0","0.8","80_20_practice","0","0.2","","","","","","","","","",""
"134","","bandit","33","560941","0.0-18.0-15.0","88377512","wem/bandit_single","A21H2UDDHN8ZF","pain","3","","74","J","0","img/none_selected_demo.jpg","0","0","1","0","0.8","true","0","0","0.8","80_20_practice","0","0.2","","","","","","","","","",""
"425","","bandit","34","563156","0.0-18.0-16.0","88377512","wem/bandit_single","A21H2UDDHN8ZF","pain","3","","74","J","0","img/none_selected_demo.jpg","0","1","0","0","0.8","true","0","0","0.8","80_20_practice","0","0.2","","","","","","","","","",""
"386","","bandit","35","565334","0.0-18.0-17.0","88377512","wem/bandit_single","A21H2UDDHN8ZF","pain","3","","74","J","0","img/none_selected_demo.jpg","0","1","0","0","0.8","true","0","0","0.8","80_20_practice","0","0.2","","","","","","","","","",""
"1466","","bandit","36","568617","0.0-18.0-18.0","88377512","wem/bandit_single","A21H2UDDHN8ZF","pain","3","","74","J","0","img/none_selected_demo.jpg","0","1","0","0","0.8","true","0","0","0.8","80_20_practice","0","0.2","","","","","","","","","",""
"48","","bandit","37","570436","0.0-18.0-19.0","88377512","wem/bandit_single","A21H2UDDHN8ZF","pain","3","","74","J","0","img/none_selected_demo.jpg","0","0","1","0","0.8","true","0","0","0.8","80_20_practice","0","0.2","","","","","","","","","",""
"5099","","text","38","575807","0.0-19.0","88377512","wem/bandit_single","A21H2UDDHN8ZF","pain","3","32","","","","","","","","","","","","","","","","","","","","","","","","","",""
"1300","","bandit","39","578638","0.0-20.0-0.0","88377512","wem/bandit_single","A21H2UDDHN8ZF","pain","3","","74","J","0","img/none_selected_demo.jpg","0","0","1","0","0","true","0","0","0","","0","0","","","","","","","","","",""
"3605","","text","40","582514","0.0-21.0","88377512","wem/bandit_single","A21H2UDDHN8ZF","pain","3","32","","","","","","","","","","","","","","","","","","","","","","","","","",""
"3097","","text","41","585622","0.0-22.0","88377512","wem/bandit_single","A21H2UDDHN8ZF","pain","3","32","","","","","","","","","","","","","","","","","","","","","","","","","",""
"1993","","text","42","587618","0.0-23.0","88377512","wem/bandit_single","A21H2UDDHN8ZF","pain","3","32","","","","","","","","","","","","","","","","","","","","","","","","","",""
"2035","","text","43","589674","0.0-24.0","88377512","wem/bandit_single","A21H2UDDHN8ZF","pain","3","32","","","","","","","","","","","","","","","","","","","","","","","","","",""
"6747","","text","44","596429","0.0-25.0","88377512","wem/bandit_single","A21H2UDDHN8ZF","pain","3","32","","","","","","","","","","","","","","","","","","","","","","","","","",""
"1683","","text","45","598115","0.0-26.0","88377512","wem/bandit_single","A21H2UDDHN8ZF","pain","3","32","","","","","","","","","","","","","","","","","","","","","","","","","",""
"4705","","text","46","602826","0.0-27.0","88377512","wem/bandit_single","A21H2UDDHN8ZF","pain","3","32","","","","","","","","","","","","","","","","","","","","","","","","","",""
"2348","","text","47","605180","0.0-28.0","88377512","wem/bandit_single","A21H2UDDHN8ZF","pain","3","32","","","","","","","","","","","","","","","","","","","","","","","","","",""
"3732","","text","48","608922","0.0-29.0","88377512","wem/bandit_single","A21H2UDDHN8ZF","pain","3","32","","","","","","","","","","","","","","","","","","","","","","","","","",""
"1917","","text","49","610859","0.0-30.0","88377512","wem/bandit_single","A21H2UDDHN8ZF","pain","3","32","","","","","","","","","","","","","","","","","","","","","","","","","",""
"5657","","text","50","616519","0.0-31.0","88377512","wem/bandit_single","A21H2UDDHN8ZF","pain","3","32","","","","","","","","","","","","","","","","","","","","","","","","","",""
"1323","","bandit","51","619377","0.0-32.0-0.0","88377512","wem/bandit_single","A21H2UDDHN8ZF","pain","3","","76","L","3","","0","0","1","0","0.2","true","0","0","0.8","full_practice","0","0.2","0","0.6","0","0.2","","","","","",""
"511","","bandit","52","621680","0.0-32.0-1.0","88377512","wem/bandit_single","A21H2UDDHN8ZF","pain","3","","76","L","3","","0","0","1","0","0.2","true","0","0","0.8","full_practice","0","0.2","0","0.6","0","0.2","","","","","",""
"537","","bandit","53","624001","0.0-32.0-2.0","88377512","wem/bandit_single","A21H2UDDHN8ZF","pain","3","","76","L","3","","0","0","1","0","0.2","true","0","0","0.8","full_practice","0","0.2","0","0.6","0","0.2","","","","","",""
"473","","bandit","54","626275","0.0-32.0-3.0","88377512","wem/bandit_single","A21H2UDDHN8ZF","pain","3","","75","K","2","","0","0","1","0","0.6","true","0","0","0.8","full_practice","0","0.2","0","0.6","0","0.2","","","","","",""
"294","","bandit","55","628367","0.0-32.0-4.0","88377512","wem/bandit_single","A21H2UDDHN8ZF","pain","3","","75","K","2","","0","1","0","0","0.6","true","0","0","0.8","full_practice","0","0.2","0","0.6","0","0.2","","","","","",""
"277","","bandit","56","630444","0.0-32.0-5.0","88377512","wem/bandit_single","A21H2UDDHN8ZF","pain","3","","75","K","2","","0","1","0","0","0.6","true","0","0","0.8","full_practice","0","0.2","0","0.6","0","0.2","","","","","",""
"702","","bandit","57","632931","0.0-32.0-6.0","88377512","wem/bandit_single","A21H2UDDHN8ZF","pain","3","","75","K","2","","0","1","0","0","0.6","true","0","0","0.8","full_practice","0","0.2","0","0.6","0","0.2","","","","","",""
"794","","bandit","58","635518","0.0-32.0-7.0","88377512","wem/bandit_single","A21H2UDDHN8ZF","pain","3","","75","K","2","","0","0","1","0","0.6","true","0","0","0.8","full_practice","0","0.2","0","0.6","0","0.2","","","","","",""
"732","","bandit","59","638059","0.0-32.0-8.0","88377512","wem/bandit_single","A21H2UDDHN8ZF","pain","3","","75","K","2","","0","0","1","0","0.6","true","0","0","0.8","full_practice","0","0.2","0","0.6","0","0.2","","","","","",""
"184","","bandit","60","640023","0.0-32.0-9.0","88377512","wem/bandit_single","A21H2UDDHN8ZF","pain","3","","74","J","1","","0","0","1","0","0.2","true","0","0","0.8","full_practice","0","0.2","0","0.6","0","0.2","","","","","",""
"468","","bandit","61","642281","0.0-32.0-10.0","88377512","wem/bandit_single","A21H2UDDHN8ZF","pain","3","","74","J","1","","0","0","1","0","0.2","true","0","0","0.8","full_practice","0","0.2","0","0.6","0","0.2","","","","","",""
"730","","bandit","62","644787","0.0-32.0-11.0","88377512","wem/bandit_single","A21H2UDDHN8ZF","pain","3","","74","J","1","","0","1","0","0","0.2","true","0","0","0.8","full_practice","0","0.2","0","0.6","0","0.2","","","","","",""
"436","","bandit","63","647002","0.0-32.0-12.0","88377512","wem/bandit_single","A21H2UDDHN8ZF","pain","3","","74","J","1","","0","0","1","0","0.2","true","0","0","0.8","full_practice","0","0.2","0","0.6","0","0.2","","","","","",""
"375","","bandit","64","649187","0.0-32.0-13.0","88377512","wem/bandit_single","A21H2UDDHN8ZF","pain","3","","75","K","2","","0","1","0","0","0.6","true","0","0","0.8","full_practice","0","0.2","0","0.6","0","0.2","","","","","",""
"789","","bandit","65","651781","0.0-32.0-14.0","88377512","wem/bandit_single","A21H2UDDHN8ZF","pain","3","","75","K","2","","0","0","1","0","0.6","true","0","0","0.8","full_practice","0","0.2","0","0.6","0","0.2","","","","","",""
"147","","bandit","66","653726","0.0-32.0-15.0","88377512","wem/bandit_single","A21H2UDDHN8ZF","pain","3","","72","H","0","img/none_selected.jpg","0","1","0","0","0.8","true","0","0","0.8","full_practice","0","0.2","0","0.6","0","0.2","","","","","",""
"478","","bandit","67","655979","0.0-32.0-16.0","88377512","wem/bandit_single","A21H2UDDHN8ZF","pain","3","","72","H","0","img/none_selected.jpg","0","1","0","0","0.8","true","0","0","0.8","full_practice","0","0.2","0","0.6","0","0.2","","","","","",""
"294","","bandit","68","658044","0.0-32.0-17.0","88377512","wem/bandit_single","A21H2UDDHN8ZF","pain","3","","72","H","0","img/none_selected.jpg","0","1","0","0","0.8","true","0","0","0.8","full_practice","0","0.2","0","0.6","0","0.2","","","","","",""
"1811","","bandit","69","661677","0.0-32.0-18.0","88377512","wem/bandit_single","A21H2UDDHN8ZF","pain","3","","72","H","0","img/none_selected.jpg","0","0","1","0","0.8","true","0","0","0.8","full_practice","0","0.2","0","0.6","0","0.2","","","","","",""
"521","","bandit","70","664024","0.0-32.0-19.0","88377512","wem/bandit_single","A21H2UDDHN8ZF","pain","3","","72","H","0","img/none_selected.jpg","0","0","1","0","0.8","true","0","0","0.8","full_practice","0","0.2","0","0.6","0","0.2","","","","","",""
"3599","","text","71","667908","0.0-33.0","88377512","wem/bandit_single","A21H2UDDHN8ZF","pain","3","32","","","","","","","","","","","","","","","","","","","","","","","","","",""
"8206","","text","72","677134","0.0-34.0","88377512","wem/bandit_single","A21H2UDDHN8ZF","pain","3","32","","","","","","","","","","","","","","","","","","","","","","","","","",""
"3842","","text","73","680993","0.0-35.0","88377512","wem/bandit_single","A21H2UDDHN8ZF","pain","3","32","","","","","","","","","","","","","","","","","","","","","","","","","",""
"7237","","text","74","688242","0.0-36.0","88377512","wem/bandit_single","A21H2UDDHN8ZF","pain","3","32","","","","","","","","","","","","","","","","","","","","","","","","","",""
"2197","","text","75","690448","0.0-37.0","88377512","wem/bandit_single","A21H2UDDHN8ZF","pain","3","32","","","","","","","","","","","","","","","","","","","","","","","","","",""
"1616","","bandit","76","693592","0.0-38.0-0.0","88377512","wem/bandit_single","A21H2UDDHN8ZF","pain","3","","74","J","1","","0","0","1","","0.06813583588","false","1","","0.2015711498","main_expt","","0.06813583588","","0.3417032333","","0.2211287853","","","","","",""
"414","","bandit","77","695809","0.0-39.0-0.0","88377512","wem/bandit_single","A21H2UDDHN8ZF","pain","3","","74","J","1","","0","0","1","","0.08840771113","false","2","","0.1868286341","main_expt","","0.08840771113","","0.3935143322","","0.2921894834","","","","","",""
"238","","bandit","78","697828","0.0-40.0-0.0","88377512","wem/bandit_single","A21H2UDDHN8ZF","pain","3","","74","J","1","","0","0","1","","0.14311428","false","3","","0.2285659085","main_expt","","0.14311428","","0.3247841161","","0.2712314767","","","","","",""
"123","","bandit","79","699753","0.0-41.0-0.0","88377512","wem/bandit_single","A21H2UDDHN8ZF","pain","3","","75","K","2","","0","0","1","","0.3524809632","false","4","","0.2587006496","main_expt","","0.1389033164","","0.3524809632","","0.3501044345","","","","","",""
"1482","","bandit","80","703022","0.0-42.0-0.0","88377512","wem/bandit_single","A21H2UDDHN8ZF","pain","3","","75","K","2","","0","0","1","","0.3243282494","false","5","","0.2238216231","main_expt","","0.1064755534","","0.3243282494","","0.3826883046","","","","","",""
"87","","bandit","81","704889","0.0-43.0-0.0","88377512","wem/bandit_single","A21H2UDDHN8ZF","pain","3","","75","K","2","","0","1","0","","0.3856520047","false","6","","0.2114086621","main_expt","","0.07607549968","","0.3856520047","","0.3538977559","","","","","",""
"357","","bandit","82","707049","0.0-44.0-0.0","88377512","wem/bandit_single","A21H2UDDHN8ZF","pain","3","","75","K","2","","0","1","0","","0.3595299576","false","7","","0.225256176","main_expt","","0.0490522351","","0.3595299576","","0.3911179113","","","","","",""
"371","","bandit","83","709229","0.0-45.0-0.0","88377512","wem/bandit_single","A21H2UDDHN8ZF","pain","3","","75","K","2","","0","0","1","","0.2908809246","false","8","","0.1920600422","main_expt","","0.04564729275","","0.2908809246","","0.3378010318","","","","","",""
"877","","bandit","84","711882","0.0-46.0-0.0","88377512","wem/bandit_single","A21H2UDDHN8ZF","pain","3","","75","K","2","","0","1","0","","0.3401169694","false","9","","0.222474992","main_expt","","0.05361883364","","0.3401169694","","0.3584091786","","","","","",""
"497","","bandit","85","714166","0.0-47.0-0.0","88377512","wem/bandit_single","A21H2UDDHN8ZF","pain","3","","75","K","2","","0","0","1","","0.370347707","false","10","","0.1720297318","main_expt","","0.05689605437","","0.370347707","","0.3822252457","","","","","",""
"835","","bandit","86","716793","0.0-48.0-0.0","88377512","wem/bandit_single","A21H2UDDHN8ZF","pain","3","","76","L","3","","0","1","0","","0.4003480189","false","11","","0.1672236423","main_expt","","0.05596529361","","0.3385652673","","0.4003480189","","","","","",""
"461","","bandit","87","719032","0.0-49.0-0.0","88377512","wem/bandit_single","A21H2UDDHN8ZF","pain","3","","76","L","3","","0","0","1","","0.4035898181","false","12","","0.1908353862","main_expt","","0.07455145674","","0.3433253296","","0.4035898181","","","","","",""
"491","","bandit","88","721306","0.0-50.0-0.0","88377512","wem/bandit_single","A21H2UDDHN8ZF","pain","3","","76","L","3","","0","0","1","","0.3939267589","false","13","","0.1373256951","main_expt","","0.1061797552","","0.3306460316","","0.3939267589","","","","","",""
"243","","bandit","89","723402","0.0-51.0-0.0","88377512","wem/bandit_single","A21H2UDDHN8ZF","pain","3","","76","L","3","","0","0","1","","0.4058751809","false","14","","0.1605467602","main_expt","","0.09003395111","","0.3423394156","","0.4058751809","","","","","",""
"1063","","bandit","90","726270","0.0-52.0-0.0","88377512","wem/bandit_single","A21H2UDDHN8ZF","pain","3","","72","H","0","img/none_selected.jpg","0","0","1","","0.1270826231","false","15","","0.1270826231","main_expt","","0.09190110762","","0.3514631564","","0.3784768297","","","","","",""
"792","","bandit","91","728852","0.0-53.0-0.0","88377512","wem/bandit_single","A21H2UDDHN8ZF","pain","3","","72","H","0","img/none_selected.jpg","0","0","1","","0.1659789958","false","16","","0.1659789958","main_expt","","0.1119147711","","0.3763865137","","0.3742197382","","","","","",""
"424","","bandit","92","731082","0.0-54.0-0.0","88377512","wem/bandit_single","A21H2UDDHN8ZF","pain","3","","75","K","2","","0","0","1","","0.3613216018","false","17","","0.1810296119","main_expt","","0.1268228496","","0.3613216018","","0.3738750299","","","","","",""
"765","","bandit","93","733649","0.0-55.0-0.0","88377512","wem/bandit_single","A21H2UDDHN8ZF","pain","3","","75","K","2","","0","0","1","","0.3354311471","false","18","","0.2209588372","main_expt","","0.160542793","","0.3354311471","","0.30878177","","","","","",""
"1637","","bandit","94","737093","0.0-56.0-0.0","88377512","wem/bandit_single","A21H2UDDHN8ZF","pain","3","","75","K","2","","0","0","1","","0.3151580681","false","19","","0.1577150754","main_expt","","0.1913020378","","0.3151580681","","0.3257740717","","","","","",""
"1221","","bandit","95","740101","0.0-57.0-0.0","88377512","wem/bandit_single","A21H2UDDHN8ZF","pain","3","","74","J","1","","0","0","1","","0.2201213849","false","20","","0.2368366468","main_expt","","0.2201213849","","0.2633525784","","0.2780557495","","","","","",""
"2350","","bandit","96","744240","0.0-58.0-0.0","88377512","wem/bandit_single","A21H2UDDHN8ZF","pain","3","","74","J","1","","0","0","1","","0.1747441944","false","21","","0.1692925459","main_expt","","0.1747441944","","0.2730255539","","0.2552615423","","","","","",""
"2238","","bandit","97","748293","0.0-59.0-0.0","88377512","wem/bandit_single","A21H2UDDHN8ZF","pain","3","","74","J","1","","0","0","1","","0.1407764438","false","22","","0.144462955","main_expt","","0.1407764438","","0.2366183143","","0.2862558775","","","","","",""
"1888","","bandit","98","751978","0.0-60.0-0.0","88377512","wem/bandit_single","A21H2UDDHN8ZF","pain","3","","74","J","1","","0","0","1","","0.1444197889","false","23","","0.1928882479","main_expt","","0.1444197889","","0.2193011186","","0.290674517","","","","","",""
"983","","bandit","99","754753","0.0-61.0-0.0","88377512","wem/bandit_single","A21H2UDDHN8ZF","pain","3","","72","H","0","img/none_selected.jpg","0","0","1","","0.2077361259","false","24","","0.2077361259","main_expt","","0.1898422889","","0.2058852999","","0.2669553567","","","","","",""
"587","","bandit","100","757150","0.0-62.0-0.0","88377512","wem/bandit_single","A21H2UDDHN8ZF","pain","3","","72","H","0","img/none_selected.jpg","0","0","1","","0.2580980749","false","25","","0.2580980749","main_expt","","0.2319991336","","0.2377147794","","0.2134469473","","","","","",""
"453","","bandit","101","759398","0.0-63.0-0.0","88377512","wem/bandit_single","A21H2UDDHN8ZF","pain","3","","72","H","0","img/none_selected.jpg","0","0","1","","0.2593960467","false","26","","0.2593960467","main_expt","","0.2140617454","","0.3017638279","","0.2027981442","","","","","",""
"476","","bandit","102","761653","0.0-64.0-0.0","88377512","wem/bandit_single","A21H2UDDHN8ZF","pain","3","","72","H","0","img/none_selected.jpg","0","0","1","","0.2913294918","false","27","","0.2913294918","main_expt","","0.2186733942","","0.2647551657","","0.1669761534","","","","","",""
"250","","bandit","103","763690","0.0-65.0-0.0","88377512","wem/bandit_single","A21H2UDDHN8ZF","pain","3","","75","K","2","","0","1","0","","0.2864353885","false","28","","0.2838721205","main_expt","","0.2573772923","","0.2864353885","","0.1301617017","","","","","",""
"319","","bandit","104","765775","0.0-66.0-0.0","88377512","wem/bandit_single","A21H2UDDHN8ZF","pain","3","","75","K","2","","0","0","1","","0.2669447337","false","29","","0.2225595658","main_expt","","0.2563684882","","0.2669447337","","0.1540227795","","","","","",""
"645","","bandit","105","768204","0.0-67.0-0.0","88377512","wem/bandit_single","A21H2UDDHN8ZF","pain","3","","75","K","2","","0","0","1","","0.242519946","false","30","","0.2450998207","main_expt","","0.3180657859","","0.242519946","","0.1290956128","","","","","",""
"888","","bandit","106","770903","0.0-68.0-0.0","88377512","wem/bandit_single","A21H2UDDHN8ZF","pain","3","","75","K","2","","0","0","1","","0.1808952067","false","31","","0.2358374841","main_expt","","0.3391977199","","0.1808952067","","0.157476084","","","","","",""
"825","","bandit","107","773536","0.0-69.0-0.0","88377512","wem/bandit_single","A21H2UDDHN8ZF","pain","3","","75","K","2","","0","1","0","","0.1490402933","false","32","","0.2465538883","main_expt","","0.3655242212","","0.1490402933","","0.1667461438","","","","","",""
"543","","bandit","108","775867","0.0-70.0-0.0","88377512","wem/bandit_single","A21H2UDDHN8ZF","pain","3","","75","K","2","","0","0","1","","0.1607825008","false","33","","0.2479029149","main_expt","","0.3476833293","","0.1607825008","","0.1698659255","","","","","",""
"404","","bandit","109","778064","0.0-71.0-0.0","88377512","wem/bandit_single","A21H2UDDHN8ZF","pain","3","","75","K","2","","0","0","1","","0.2019438485","false","34","","0.1813792252","main_expt","","0.3287357547","","0.2019438485","","0.1830702822","","","","","",""
"528","","bandit","110","780381","0.0-72.0-0.0","88377512","wem/bandit_single","A21H2UDDHN8ZF","pain","3","","75","K","2","","0","0","1","","0.1187506792","false","35","","0.1507873856","main_expt","","0.3568635533","","0.1187506792","","0.1648441896","","","","","",""
"728","","bandit","111","782895","0.0-73.0-0.0","88377512","wem/bandit_single","A21H2UDDHN8ZF","pain","3","","75","K","2","","0","0","1","","0.107122158","false","36","","0.185146395","main_expt","","0.2559818432","","0.107122158","","0.1702375356","","","","","",""
"440","","bandit","112","785127","0.0-74.0-0.0","88377512","wem/bandit_single","A21H2UDDHN8ZF","pain","3","","76","L","3","","0","0","1","","0.1248493821","false","37","","0.1995500277","main_expt","","0.2095103509","","0.1462043769","","0.1248493821","","","","","",""
"1044","","bandit","113","787949","0.0-75.0-0.0","88377512","wem/bandit_single","A21H2UDDHN8ZF","pain","3","","76","L","3","","0","0","1","","0.1806095344","false","38","","0.2324476024","main_expt","","0.1824107212","","0.1562864446","","0.1806095344","","","","","",""
"374","","bandit","114","790109","0.0-76.0-0.0","88377512","wem/bandit_single","A21H2UDDHN8ZF","pain","3","","76","L","3","","0","0","1","","0.1636381498","false","39","","0.2374336796","main_expt","","0.180532013","","0.1425148763","","0.1636381498","","","","","",""
"671","","bandit","115","792581","0.0-77.0-0.0","88377512","wem/bandit_single","A21H2UDDHN8ZF","pain","3","","76","L","3","","0","0","1","","0.128328165","false","40","","0.1871034738","main_expt","","0.209403608","","0.1332413707","","0.128328165","","","","","",""
"1577","","bandit","116","795959","0.0-78.0-0.0","88377512","wem/bandit_single","A21H2UDDHN8ZF","pain","3","","74","J","1","","0","0","1","","0.1790729352","false","41","","0.1923798107","main_expt","","0.1790729352","","0.170838957","","0.1128848486","","","","","",""
"1485","","bandit","117","799248","0.0-79.0-0.0","88377512","wem/bandit_single","A21H2UDDHN8ZF","pain","3","","74","J","1","","0","0","1","","0.1586268334","false","42","","0.2175202152","main_expt","","0.1586268334","","0.221577246","","0.1024028154","","","","","",""
"616","","bandit","118","801674","0.0-80.0-0.0","88377512","wem/bandit_single","A21H2UDDHN8ZF","pain","3","","74","J","1","","0","0","1","","0.1953085145","false","43","","0.199004634","main_expt","","0.1953085145","","0.2937465132","","0.1842117743","","","","","",""
"445","","bandit","119","803910","0.0-81.0-0.0","88377512","wem/bandit_single","A21H2UDDHN8ZF","pain","3","","74","J","1","","0","1","0","","0.229373846","false","44","","0.1979694218","main_expt","","0.229373846","","0.2473378206","","0.2398699605","","","","","",""
"417","","bandit","120","806110","0.0-82.0-0.0","88377512","wem/bandit_single","A21H2UDDHN8ZF","pain","3","","74","J","1","","0","0","1","","0.2387173179","false","45","","0.1992427108","main_expt","","0.2387173179","","0.2911711657","","0.2666943954","","","","","",""
"535","","bandit","121","808461","0.0-83.0-0.0","88377512","wem/bandit_single","A21H2UDDHN8ZF","pain","3","","74","J","1","","0","0","1","","0.2142046797","false","46","","0.2240306516","main_expt","","0.2142046797","","0.2520057509","","0.3187479261","","","","","",""
"511","","bandit","122","810778","0.0-84.0-0.0","88377512","wem/bandit_single","A21H2UDDHN8ZF","pain","3","","74","J","1","","0","0","1","","0.2454335886","false","47","","0.2065012218","main_expt","","0.2454335886","","0.2527148282","","0.3190608455","","","","","",""
"585","","bandit","123","813138","0.0-85.0-0.0","88377512","wem/bandit_single","A21H2UDDHN8ZF","pain","3","","74","J","1","","0","0","1","","0.2810950816","false","48","","0.1926440163","main_expt","","0.2810950816","","0.273334487","","0.3135096665","","","","","",""
"22","","bandit","124","814948","0.0-86.0-0.0","88377512","wem/bandit_single","A21H2UDDHN8ZF","pain","3","","74","J","1","","0","0","1","","0.2547597437","false","49","","0.1670810943","main_expt","","0.2547597437","","0.3181736471","","0.3341811191","","","","","",""
"332","","bandit","125","817068","0.0-87.0-0.0","88377512","wem/bandit_single","A21H2UDDHN8ZF","pain","3","","74","J","1","","0","0","1","","0.224323175","false","50","","0.1198069869","main_expt","","0.224323175","","0.3806153608","","0.3459923598","","","","","",""
"43","","bandit","126","818883","0.0-88.0-0.0","88377512","wem/bandit_single","A21H2UDDHN8ZF","pain","3","","74","J","1","","0","0","1","","0.2755477452","false","51","","0.103394302","main_expt","","0.2755477452","","0.3949296296","","0.3331953563","","","","","",""
"1","","bandit","127","820677","0.0-89.0-0.0","88377512","wem/bandit_single","A21H2UDDHN8ZF","pain","3","","72","H","0","img/none_selected.jpg","0","1","0","","0.1018912343","false","52","","0.1018912343","main_expt","","0.3022170302","","0.3544293331","","0.3915962888","","","","","",""
"614","","bandit","128","823099","0.0-90.0-0.0","88377512","wem/bandit_single","A21H2UDDHN8ZF","pain","3","","72","H","0","img/none_selected.jpg","0","0","1","","0.07233269407","false","53","","0.07233269407","main_expt","","0.2886203433","","0.3007967805","","0.3984086051","","","","","",""
"201","","bandit","129","825111","0.0-91.0-0.0","88377512","wem/bandit_single","A21H2UDDHN8ZF","pain","3","","72","H","0","img/none_selected.jpg","0","0","1","","0.09210147888","false","54","","0.09210147888","main_expt","","0.3072524501","","0.3376398899","","0.4181407331","","","","","",""
"92","","bandit","130","827008","0.0-92.0-0.0","88377512","wem/bandit_single","A21H2UDDHN8ZF","pain","3","","72","H","0","img/none_selected.jpg","0","0","1","","0.08866102842","false","55","","0.08866102842","main_expt","","0.3847595325","","0.3625264345","","0.3964386999","","","","","",""
"610","","bandit","131","829422","0.0-93.0-0.0","88377512","wem/bandit_single","A21H2UDDHN8ZF","pain","3","","72","H","0","img/none_selected.jpg","0","1","0","","0.1208391037","false","56","","0.1208391037","main_expt","","0.4008313728","","0.313137485","","0.4043277199","","","","","",""
"280","","bandit","132","831502","0.0-94.0-0.0","88377512","wem/bandit_single","A21H2UDDHN8ZF","pain","3","","72","H","0","img/none_selected.jpg","0","0","1","","0.1429525169","false","57","","0.1429525169","main_expt","","0.3763680666","","0.3287581384","","0.3232173094","","","","","",""
"543","","bandit","133","833846","0.0-95.0-0.0","88377512","wem/bandit_single","A21H2UDDHN8ZF","pain","3","","72","H","0","img/none_selected.jpg","0","1","0","","0.1800007821","false","58","","0.1800007821","main_expt","","0.3630839511","","0.2891608333","","0.3352595409","","","","","",""
"974","","bandit","134","836618","0.0-96.0-0.0","88377512","wem/bandit_single","A21H2UDDHN8ZF","pain","3","","72","H","0","img/none_selected.jpg","0","0","1","","0.1168587732","false","59","","0.1168587732","main_expt","","0.3166885591","","0.2228703537","","0.3423270404","","","","","",""
"863","","bandit","135","839286","0.0-97.0-0.0","88377512","wem/bandit_single","A21H2UDDHN8ZF","pain","3","","72","H","0","img/none_selected.jpg","0","0","1","","0.08966050757","false","60","","0.08966050757","main_expt","","0.3339947878","","0.2694349638","","0.3326485747","","","","","",""
"232","","bandit","136","841331","0.0-98.0-0.0","88377512","wem/bandit_single","A21H2UDDHN8ZF","pain","3","","72","H","0","img/none_selected.jpg","0","0","1","","0.06827284498","false","61","","0.06827284498","main_expt","","0.3559621948","","0.3291501217","","0.3239501662","","","","","",""
"480","","bandit","137","843627","0.0-99.0-0.0","88377512","wem/bandit_single","A21H2UDDHN8ZF","pain","3","","72","H","0","img/none_selected.jpg","0","0","1","","0.0870528816","false","62","","0.0870528816","main_expt","","0.3565904981","","0.3516688484","","0.3140158541","","","","","",""
"735","","bandit","138","846149","0.0-100.0-0.0","88377512","wem/bandit_single","A21H2UDDHN8ZF","pain","3","","72","H","0","img/none_selected.jpg","0","0","1","","0.07384780705","false","63","","0.07384780705","main_expt","","0.3766945074","","0.3662001291","","0.2896297009","","","","","",""
"879","","bandit","139","848810","0.0-101.0-0.0","88377512","wem/bandit_single","A21H2UDDHN8ZF","pain","3","","72","H","0","img/none_selected.jpg","0","0","1","","0.09386223648","false","64","","0.09386223648","main_expt","","0.4038560084","","0.3986377969","","0.2848001348","","","","","",""
"493","","bandit","140","851082","0.0-102.0-0.0","88377512","wem/bandit_single","A21H2UDDHN8ZF","pain","3","","72","H","0","img/none_selected.jpg","0","0","1","","0.08656227431","false","65","","0.08656227431","main_expt","","0.4081833366","","0.4284050928","","0.2621939157","","","","","",""
"405","","bandit","141","853290","0.0-103.0-0.0","88377512","wem/bandit_single","A21H2UDDHN8ZF","pain","3","","72","H","0","img/none_selected.jpg","0","0","1","","0.1254260964","false","66","","0.1254260964","main_expt","","0.4111507483","","0.4295130084","","0.2218985249","","","","","",""
"398","","bandit","142","855491","0.0-104.0-0.0","88377512","wem/bandit_single","A21H2UDDHN8ZF","pain","3","","75","K","2","","0","1","0","","0.4192215244","false","67","","0.0848557225","main_expt","","0.3731562577","","0.4192215244","","0.2203007364","","","","","",""
"171","","bandit","143","857467","0.0-105.0-0.0","88377512","wem/bandit_single","A21H2UDDHN8ZF","pain","3","","75","K","2","","0","0","1","","0.4617344849","false","68","","0.1277621339","main_expt","","0.3471707475","","0.4617344849","","0.2163243509","","","","","",""
"94","","bandit","144","859377","0.0-106.0-0.0","88377512","wem/bandit_single","A21H2UDDHN8ZF","pain","3","","75","K","2","","0","0","1","","0.4496684627","false","69","","0.1425885083","main_expt","","0.3163780081","","0.4496684627","","0.1552451017","","","","","",""
"224","","bandit","145","861405","0.0-107.0-0.0","88377512","wem/bandit_single","A21H2UDDHN8ZF","pain","3","","75","K","2","","0","0","1","","0.4572021165","false","70","","0.1765985622","main_expt","","0.2872849644","","0.4572021165","","0.144295094","","","","","",""
"652","","bandit","146","863857","0.0-108.0-0.0","88377512","wem/bandit_single","A21H2UDDHN8ZF","pain","3","","75","K","2","","0","0","1","","0.457930868","false","71","","0.1520060204","main_expt","","0.300298776","","0.457930868","","0.1823242822","","","","","",""
"1344","","bandit","147","867010","0.0-109.0-0.0","88377512","wem/bandit_single","A21H2UDDHN8ZF","pain","3","","75","K","2","","0","0","1","","0.4687468973","false","72","","0.09933583891","main_expt","","0.3280152389","","0.4687468973","","0.144478384","","","","","",""
"1044","","bandit","148","869861","0.0-110.0-0.0","88377512","wem/bandit_single","A21H2UDDHN8ZF","pain","3","","75","K","2","","0","0","1","","0.4707862587","false","73","","0.1087995109","main_expt","","0.2758062481","","0.4707862587","","0.1420634247","","","","","",""
"208","","bandit","149","871871","0.0-111.0-0.0","88377512","wem/bandit_single","A21H2UDDHN8ZF","pain","3","","75","K","2","","0","0","1","","0.4602293826","false","74","","0.150223613","main_expt","","0.3370537031","","0.4602293826","","0.1358649702","","","","","",""
"825","","bandit","150","874498","0.0-112.0-0.0","88377512","wem/bandit_single","A21H2UDDHN8ZF","pain","3","","75","K","2","","0","0","1","","0.439891953","false","75","","0.1945690608","main_expt","","0.3323795279","","0.439891953","","0.09700523291","","","","","",""
"390","","bandit","151","876688","0.0-113.0-0.0","88377512","wem/bandit_single","A21H2UDDHN8ZF","pain","3","","76","L","3","","0","0","1","","0.07829726083","false","76","","0.2454913388","main_expt","","0.3822428931","","0.4424180744","","0.07829726083","","","","","",""
"396","","bandit","152","878877","0.0-114.0-0.0","88377512","wem/bandit_single","A21H2UDDHN8ZF","pain","3","","76","L","3","","0","0","1","","0.08460916486","false","77","","0.2181262922","main_expt","","0.4136836411","","0.4066280348","","0.08460916486","","","","","",""
"355","","bandit","153","881022","0.0-115.0-0.0","88377512","wem/bandit_single","A21H2UDDHN8ZF","pain","3","","76","L","3","","0","1","0","","0.0875988483","false","78","","0.2500794828","main_expt","","0.4505469687","","0.3969262671","","0.0875988483","","","","","",""
"543","","bandit","154","883367","0.0-116.0-0.0","88377512","wem/bandit_single","A21H2UDDHN8ZF","pain","3","","76","L","3","","0","0","1","","0.06491107755","false","79","","0.2021405589","main_expt","","0.4251749511","","0.4119020232","","0.06491107755","","","","","",""
"334","","bandit","155","885517","0.0-117.0-0.0","88377512","wem/bandit_single","A21H2UDDHN8ZF","pain","3","","76","L","3","","0","0","1","","0.1021818806","false","80","","0.1654874554","main_expt","","0.3976376265","","0.3797331509","","0.1021818806","","","","","",""
"492","","bandit","156","887825","0.0-118.0-0.0","88377512","wem/bandit_single","A21H2UDDHN8ZF","pain","3","","76","L","3","","0","0","1","","0.07175209231","false","81","","0.1281487551","main_expt","","0.409462467","","0.4024270851","","0.07175209231","","","","","",""
"260","","bandit","157","889889","0.0-119.0-0.0","88377512","wem/bandit_single","A21H2UDDHN8ZF","pain","3","","76","L","3","","0","0","1","","0.04651379375","false","82","","0.1167166884","main_expt","","0.4541942335","","0.3976574516","","0.04651379375","","","","","",""
"497","","bandit","158","892172","0.0-120.0-0.0","88377512","wem/bandit_single","A21H2UDDHN8ZF","pain","3","","76","L","3","","0","0","1","","0.03148502893","false","83","","0.1426109787","main_expt","","0.4452160763","","0.3749492802","","0.03148502893","","","","","",""
"357","","bandit","159","894320","0.0-121.0-0.0","88377512","wem/bandit_single","A21H2UDDHN8ZF","pain","3","","74","J","1","","0","1","0","","0.438985114","false","84","","0.121887906","main_expt","","0.438985114","","0.4021863709","","0.05186863446","","","","","",""
"451","","bandit","160","896564","0.0-122.0-0.0","88377512","wem/bandit_single","A21H2UDDHN8ZF","pain","3","","74","J","1","","0","1","0","","0.4331173667","false","85","","0.1361926199","main_expt","","0.4331173667","","0.3624574422","","0.04986731509","","","","","",""
"561","","bandit","161","898921","0.0-123.0-0.0","88377512","wem/bandit_single","A21H2UDDHN8ZF","pain","3","","74","J","1","","0","1","0","","0.447547065","false","86","","0.1287871674","main_expt","","0.447547065","","0.387939101","","0.05891938772","","","","","",""
"245","","bandit","162","900943","0.0-124.0-0.0","88377512","wem/bandit_single","A21H2UDDHN8ZF","pain","3","","74","J","1","","0","0","1","","0.4451560311","false","87","","0.13112728","main_expt","","0.4451560311","","0.3949621072","","0.06619539979","","","","","",""
"687","","bandit","163","903437","0.0-125.0-0.0","88377512","wem/bandit_single","A21H2UDDHN8ZF","pain","3","","74","J","1","","0","0","1","","0.4010299359","false","88","","0.1385028762","main_expt","","0.4010299359","","0.3789082299","","0.03553047297","","","","","",""
"427","","bandit","164","905672","0.0-126.0-0.0","88377512","wem/bandit_single","A21H2UDDHN8ZF","pain","3","","74","J","1","","0","1","0","","0.430672582","false","89","","0.1377901848","main_expt","","0.430672582","","0.3718344374","","0.03983007571","","","","","",""
"820","","bandit","165","908290","0.0-127.0-0.0","88377512","wem/bandit_single","A21H2UDDHN8ZF","pain","3","","74","J","1","","0","1","0","","0.4063924327","false","90","","0.1642812903","main_expt","","0.4063924327","","0.4341719303","","0.02618566652","","","","","",""
"504","","bandit","166","910601","0.0-128.0-0.0","88377512","wem/bandit_single","A21H2UDDHN8ZF","pain","3","","74","J","1","","0","0","1","","0.4115689239","false","91","","0.2115922749","main_expt","","0.4115689239","","0.4538289377","","0.03325063158","","","","","",""
"456","","bandit","167","912851","0.0-129.0-0.0","88377512","wem/bandit_single","A21H2UDDHN8ZF","pain","3","","74","J","1","","0","0","1","","0.4195244723","false","92","","0.1819790886","main_expt","","0.4195244723","","0.4508501544","","0.02042352937","","","","","",""
"336","","bandit","168","914982","0.0-130.0-0.0","88377512","wem/bandit_single","A21H2UDDHN8ZF","pain","3","","74","J","1","","0","0","1","","0.3976010387","false","93","","0.2039146085","main_expt","","0.3976010387","","0.4548943395","","0.01887694535","","","","","",""
"948","","bandit","169","917749","0.0-131.0-0.0","88377512","wem/bandit_single","A21H2UDDHN8ZF","pain","3","","74","J","1","","0","0","1","","0.3668479885","false","94","","0.2307813202","main_expt","","0.3668479885","","0.4646086811","","0.02367451168","","","","","",""
"311","","bandit","170","919862","0.0-132.0-0.0","88377512","wem/bandit_single","A21H2UDDHN8ZF","pain","3","","74","J","1","","0","1","0","","0.3332342888","false","95","","0.2213313998","main_expt","","0.3332342888","","0.467541367","","0.02723032617","","","","","",""
"393","","bandit","171","922043","0.0-133.0-0.0","88377512","wem/bandit_single","A21H2UDDHN8ZF","pain","3","","74","J","1","","0","1","0","","0.2884910782","false","96","","0.2568515079","main_expt","","0.2884910782","","0.4642351642","","0.02648196594","","","","","",""
"76","","bandit","172","923929","0.0-134.0-0.0","88377512","wem/bandit_single","A21H2UDDHN8ZF","pain","3","","74","J","1","","0","0","1","","0.2656891479","false","97","","0.2699845376","main_expt","","0.2656891479","","0.4467755515","","0.01585024216","","","","","",""
"795","","bandit","173","926521","0.0-135.0-0.0","88377512","wem/bandit_single","A21H2UDDHN8ZF","pain","3","","74","J","1","","0","0","1","","0.2595300749","false","98","","0.2797451528","main_expt","","0.2595300749","","0.4056350907","","0.01169409205","","","","","",""
"859","","bandit","174","929161","0.0-136.0-0.0","88377512","wem/bandit_single","A21H2UDDHN8ZF","pain","3","","74","J","1","","0","0","1","","0.2519900202","false","99","","0.3187705275","main_expt","","0.2519900202","","0.339742379","","0.01197913588","","","","","",""
"379","","bandit","175","931320","0.0-137.0-0.0","88377512","wem/bandit_single","A21H2UDDHN8ZF","pain","3","","74","J","1","","0","0","1","","0.2523409295","false","100","","0.3570824245","main_expt","","0.2523409295","","0.3381167522","","0.01759776774","","","","","",""
"224","","bandit","176","933398","0.0-138.0-0.0","88377512","wem/bandit_single","A21H2UDDHN8ZF","pain","3","","74","J","1","","0","1","0","","0.2146893193","false","101","","0.3489468272","main_expt","","0.2146893193","","0.2803213009","","0.04295615511","","","","","",""
"235","","bandit","177","935433","0.0-139.0-0.0","88377512","wem/bandit_single","A21H2UDDHN8ZF","pain","3","","74","J","1","","0","0","1","","0.1843767259","false","102","","0.3015799625","main_expt","","0.1843767259","","0.317644571","","0.06572998715","","","","","",""
"248","","bandit","178","937486","0.0-140.0-0.0","88377512","wem/bandit_single","A21H2UDDHN8ZF","pain","3","","74","J","1","","0","1","0","","0.2108432206","false","103","","0.2656450655","main_expt","","0.2108432206","","0.3024927185","","0.1043212589","","","","","",""
"249","","bandit","179","939528","0.0-141.0-0.0","88377512","wem/bandit_single","A21H2UDDHN8ZF","pain","3","","74","J","1","","0","0","1","","0.26792014","false","104","","0.261155182","main_expt","","0.26792014","","0.3339077782","","0.07063930719","","","","","",""
"887","","bandit","180","942227","0.0-142.0-0.0","88377512","wem/bandit_single","A21H2UDDHN8ZF","pain","3","","74","J","1","","0","0","1","","0.3302583292","false","105","","0.2794756432","main_expt","","0.3302583292","","0.2966783269","","0.09992353171","","","","","",""
"992","","bandit","181","945027","0.0-143.0-0.0","88377512","wem/bandit_single","A21H2UDDHN8ZF","pain","3","","74","J","1","","0","1","0","","0.3099187861","false","106","","0.2719827923","main_expt","","0.3099187861","","0.3722996478","","0.1074399807","","","","","",""
"1126","","bandit","182","947932","0.0-144.0-0.0","88377512","wem/bandit_single","A21H2UDDHN8ZF","pain","3","","74","J","1","","0","0","1","","0.3526315454","false","107","","0.2614179637","main_expt","","0.3526315454","","0.3764369168","","0.1398361659","","","","","",""
"249","","bandit","183","950001","0.0-145.0-0.0","88377512","wem/bandit_single","A21H2UDDHN8ZF","pain","3","","74","J","1","","0","1","0","","0.3741147492","false","108","","0.3154283329","main_expt","","0.3741147492","","0.3221289315","","0.1503356919","","","","","",""
"279","","bandit","184","952083","0.0-146.0-0.0","88377512","wem/bandit_single","A21H2UDDHN8ZF","pain","3","","74","J","1","","0","1","0","","0.3775387023","false","109","","0.3965133924","main_expt","","0.3775387023","","0.3394272446","","0.1554773292","","","","","",""
"380","","bandit","185","954285","0.0-147.0-0.0","88377512","wem/bandit_single","A21H2UDDHN8ZF","pain","3","","74","J","1","","0","0","1","","0.3603169275","false","110","","0.4096679205","main_expt","","0.3603169275","","0.3108194313","","0.1862379276","","","","","",""
"359","","bandit","186","956444","0.0-148.0-0.0","88377512","wem/bandit_single","A21H2UDDHN8ZF","pain","3","","74","J","1","","0","0","1","","0.3492898999","false","111","","0.4107972434","main_expt","","0.3492898999","","0.2754643313","","0.2096222548","","","","","",""
"196","","bandit","187","958440","0.0-149.0-0.0","88377512","wem/bandit_single","A21H2UDDHN8ZF","pain","3","","74","J","1","","0","0","1","","0.3332089306","false","112","","0.4229867006","main_expt","","0.3332089306","","0.2906444469","","0.2432579143","","","","","",""
"32","","bandit","188","960265","0.0-150.0-0.0","88377512","wem/bandit_single","A21H2UDDHN8ZF","pain","3","","74","J","1","","0","0","1","","0.3450976056","false","113","","0.4045712819","main_expt","","0.3450976056","","0.3006146448","","0.1721880852","","","","","",""
"37","","bandit","189","962105","0.0-151.0-0.0","88377512","wem/bandit_single","A21H2UDDHN8ZF","pain","3","","74","J","1","","0","1","0","","0.3725565121","false","114","","0.3821667802","main_expt","","0.3725565121","","0.2668468313","","0.2081909003","","","","","",""
"163","","bandit","190","964070","0.0-152.0-0.0","88377512","wem/bandit_single","A21H2UDDHN8ZF","pain","3","","74","J","1","","0","1","0","","0.3789561431","false","115","","0.3342096713","main_expt","","0.3789561431","","0.3032344037","","0.272711811","","","","","",""
"169","","bandit","191","966038","0.0-153.0-0.0","88377512","wem/bandit_single","A21H2UDDHN8ZF","pain","3","","74","J","1","","0","1","0","","0.3829881954","false","116","","0.3475890958","main_expt","","0.3829881954","","0.279678247","","0.2801201945","","","","","",""
"107","","bandit","192","967938","0.0-154.0-0.0","88377512","wem/bandit_single","A21H2UDDHN8ZF","pain","3","","74","J","1","","0","1","0","","0.3872477479","false","117","","0.3545652452","main_expt","","0.3872477479","","0.2762620489","","0.3615324036","","","","","",""
"109","","bandit","193","969845","0.0-155.0-0.0","88377512","wem/bandit_single","A21H2UDDHN8ZF","pain","3","","74","J","1","","0","0","1","","0.3952603005","false","118","","0.3542043025","main_expt","","0.3952603005","","0.2880572365","","0.3615177178","","","","","",""
"159","","bandit","194","971808","0.0-156.0-0.0","88377512","wem/bandit_single","A21H2UDDHN8ZF","pain","3","","74","J","1","","0","0","1","","0.3838673248","false","119","","0.3471352845","main_expt","","0.3838673248","","0.2807620685","","0.3875935955","","","","","",""
"76","","bandit","195","973678","0.0-157.0-0.0","88377512","wem/bandit_single","A21H2UDDHN8ZF","pain","3","","74","J","1","","0","0","1","","0.4148997213","false","120","","0.3343169965","main_expt","","0.4148997213","","0.2811576832","","0.4052723714","","","","","",""
"28","","bandit","196","975480","0.0-158.0-0.0","88377512","wem/bandit_single","A21H2UDDHN8ZF","pain","3","","74","J","1","","0","1","0","","0.4184259471","false","121","","0.3595120763","main_expt","","0.4184259471","","0.3016455194","","0.44462971","","","","","",""
"145","","bandit","197","977430","0.0-159.0-0.0","88377512","wem/bandit_single","A21H2UDDHN8ZF","pain","3","","74","J","1","","0","0","1","","0.4271141924","false","122","","0.3296914373","main_expt","","0.4271141924","","0.3161331551","","0.4338931322","","","","","",""
"232","","bandit","198","979474","0.0-160.0-0.0","88377512","wem/bandit_single","A21H2UDDHN8ZF","pain","3","","74","J","1","","0","0","1","","0.3994299035","false","123","","0.3369167856","main_expt","","0.3994299035","","0.2882518765","","0.4248885798","","","","","",""
"59","","bandit","199","981322","0.0-161.0-0.0","88377512","wem/bandit_single","A21H2UDDHN8ZF","pain","3","","74","J","1","","0","1","0","","0.4319292606","false","124","","0.3181772373","main_expt","","0.4319292606","","0.3426101702","","0.3773411534","","","","","",""
"1940","","bandit","200","985079","0.0-162.0-0.0","88377512","wem/bandit_single","A21H2UDDHN8ZF","pain","3","","74","J","1","","0","0","1","","0.4228137624","false","125","","0.3285823626","main_expt","","0.4228137624","","0.3623178769","","0.3322500489","","","","","",""
"233","","bandit","201","987126","0.0-163.0-0.0","88377512","wem/bandit_single","A21H2UDDHN8ZF","pain","3","","74","J","1","","0","1","0","","0.4445824992","false","126","","0.3203566048","main_expt","","0.4445824992","","0.3487147863","","0.3742157909","","","","","",""
"2151","","bandit","202","991075","0.0-164.0-0.0","88377512","wem/bandit_single","A21H2UDDHN8ZF","pain","3","","74","J","1","","0","0","1","","0.4525048151","false","127","","0.3852478983","main_expt","","0.4525048151","","0.4137567253","","0.3851047317","","","","","",""
"1676","","bandit","203","994565","0.0-165.0-0.0","88377512","wem/bandit_single","A21H2UDDHN8ZF","pain","3","","74","J","1","","0","1","0","","0.4692783601","false","128","","0.3389365807","main_expt","","0.4692783601","","0.3814482247","","0.4043255462","","","","","",""
"4755","","bandit","204","1001130","0.0-166.0-0.0","88377512","wem/bandit_single","A21H2UDDHN8ZF","pain","3","","74","J","1","","0","1","0","","0.4168961411","false","129","","0.3137404055","main_expt","","0.4168961411","","0.4168244781","","0.4123407707","","","","","",""
"2238","","bandit","205","1005159","0.0-167.0-0.0","88377512","wem/bandit_single","A21H2UDDHN8ZF","pain","3","","74","J","1","","0","1","0","","0.3790243023","false","130","","0.3258581953","main_expt","","0.3790243023","","0.4365918222","","0.4046971735","","","","","",""
"590","","bandit","206","1007555","0.0-168.0-0.0","88377512","wem/bandit_single","A21H2UDDHN8ZF","pain","3","","74","J","1","","0","0","1","","0.4049885765","false","131","","0.2883577813","main_expt","","0.4049885765","","0.4389841863","","0.4461276952","","","","","",""
"8134","","bandit","207","1017480","0.0-169.0-0.0","88377512","wem/bandit_single","A21H2UDDHN8ZF","pain","3","","74","J","1","","0","0","1","","0.4146365962","false","132","","0.3560589507","main_expt","","0.4146365962","","0.4152650591","","0.4611465992","","","","","",""
"76","","bandit","208","1019359","0.0-170.0-0.0","88377512","wem/bandit_single","A21H2UDDHN8ZF","pain","3","","74","J","1","","0","1","0","","0.3895917514","false","133","","0.358394082","main_expt","","0.3895917514","","0.4542457407","","0.4798080461","","","","","",""
"116","","bandit","209","1021269","0.0-171.0-0.0","88377512","wem/bandit_single","A21H2UDDHN8ZF","pain","3","","74","J","1","","0","0","1","","0.4031985028","false","134","","0.3605573227","main_expt","","0.4031985028","","0.4598844585","","0.4536835414","","","","","",""
"136","","bandit","210","1023217","0.0-172.0-0.0","88377512","wem/bandit_single","A21H2UDDHN8ZF","pain","3","","74","J","1","","0","1","0","","0.3950250086","false","135","","0.3695471057","main_expt","","0.3950250086","","0.4690925783","","0.4297718384","","","","","",""
"136","","bandit","211","1025151","0.0-173.0-0.0","88377512","wem/bandit_single","A21H2UDDHN8ZF","pain","3","","74","J","1","","0","0","1","","0.3958408827","false","136","","0.4060603524","main_expt","","0.3958408827","","0.4382452635","","0.4047290025","","","","","",""
"85","","bandit","212","1027041","0.0-174.0-0.0","88377512","wem/bandit_single","A21H2UDDHN8ZF","pain","3","","74","J","1","","0","1","0","","0.4025558346","false","137","","0.3977168634","main_expt","","0.4025558346","","0.4469583278","","0.4062789173","","","","","",""
"108","","bandit","213","1028953","0.0-175.0-0.0","88377512","wem/bandit_single","A21H2UDDHN8ZF","pain","3","","74","J","1","","0","0","1","","0.3901350715","false","138","","0.3884520433","main_expt","","0.3901350715","","0.44739429","","0.3893267926","","","","","",""
"32","","bandit","214","1030765","0.0-176.0-0.0","88377512","wem/bandit_single","A21H2UDDHN8ZF","pain","3","","74","J","1","","0","0","1","","0.4069565875","false","139","","0.3517782966","main_expt","","0.4069565875","","0.4329330235","","0.3355070849","","","","","",""
"771","","bandit","215","1033337","0.0-177.0-0.0","88377512","wem/bandit_single","A21H2UDDHN8ZF","pain","3","","74","J","1","","0","0","1","","0.4384632306","false","140","","0.3147433726","main_expt","","0.4384632306","","0.4427321083","","0.3033729388","","","","","",""
"65","","bandit","216","1035215","0.0-178.0-0.0","88377512","wem/bandit_single","A21H2UDDHN8ZF","pain","3","","74","J","1","","0","0","1","","0.4513823692","false","141","","0.315874603","main_expt","","0.4513823692","","0.4630674526","","0.3495942718","","","","","",""
"75","","bandit","217","1037104","0.0-179.0-0.0","88377512","wem/bandit_single","A21H2UDDHN8ZF","pain","3","","74","J","1","","0","0","1","","0.4477105457","false","142","","0.2660579121","main_expt","","0.4477105457","","0.4678156034","","0.373744609","","","","","",""
"1031","","bandit","218","1039931","0.0-180.0-0.0","88377512","wem/bandit_single","A21H2UDDHN8ZF","pain","3","","74","J","1","","0","1","0","","0.4399018081","false","143","","0.2791435274","main_expt","","0.4399018081","","0.4556942345","","0.3983109068","","","","","",""
"78","","bandit","219","1041800","0.0-181.0-0.0","88377512","wem/bandit_single","A21H2UDDHN8ZF","pain","3","","74","J","1","","0","0","1","","0.3929519584","false","144","","0.3232226047","main_expt","","0.3929519584","","0.4606745253","","0.4290647624","","","","","",""
"1218","","bandit","220","1044826","0.0-182.0-0.0","88377512","wem/bandit_single","A21H2UDDHN8ZF","pain","3","","74","J","1","","0","0","1","","0.3638959839","false","145","","0.2863527335","main_expt","","0.3638959839","","0.4493721712","","0.4360055891","","","","","",""
"341","","bandit","221","1046970","0.0-183.0-0.0","88377512","wem/bandit_single","A21H2UDDHN8ZF","pain","3","","74","J","1","","0","1","0","","0.3109408856","false","146","","0.2399582054","main_expt","","0.3109408856","","0.411205332","","0.4408793748","","","","","",""
"156","","bandit","222","1048918","0.0-184.0-0.0","88377512","wem/bandit_single","A21H2UDDHN8ZF","pain","3","","74","J","1","","0","0","1","","0.303790043","false","147","","0.2186627863","main_expt","","0.303790043","","0.4091009254","","0.4152856751","","","","","",""
"987","","bandit","223","1051687","0.0-185.0-0.0","88377512","wem/bandit_single","A21H2UDDHN8ZF","pain","3","","74","J","1","","0","0","1","","0.2836070719","false","148","","0.233860686","main_expt","","0.2836070719","","0.3878952866","","0.400149315","","","","","",""
"744","","bandit","224","1054217","0.0-186.0-0.0","88377512","wem/bandit_single","A21H2UDDHN8ZF","pain","3","","74","J","1","","0","0","1","","0.2132997302","false","149","","0.2752018233","main_expt","","0.2132997302","","0.39239053","","0.4081055764","","","","","",""
"1052","","bandit","225","1057065","0.0-187.0-0.0","88377512","wem/bandit_single","A21H2UDDHN8ZF","pain","3","","74","J","1","","0","1","0","","0.1906505553","false","150","","0.2306982087","main_expt","","0.1906505553","","0.3869122725","","0.3946041437","","","","","",""
"1302","","bandit","226","1060167","0.0-188.0-0.0","88377512","wem/bandit_single","A21H2UDDHN8ZF","pain","3","","74","J","1","","0","0","1","","0.1887938372","false","151","","0.272940168","main_expt","","0.1887938372","","0.3562084687","","0.3517385329","","","","","",""
"394","","bandit","227","1062367","0.0-189.0-0.0","88377512","wem/bandit_single","A21H2UDDHN8ZF","pain","3","","74","J","1","","0","0","1","","0.1452925277","false","152","","0.246833375","main_expt","","0.1452925277","","0.3975166132","","0.33807167","","","","","",""
"470","","bandit","228","1064647","0.0-190.0-0.0","88377512","wem/bandit_single","A21H2UDDHN8ZF","pain","3","","74","J","1","","0","0","1","","0.1236287895","false","153","","0.2555278221","main_expt","","0.1236287895","","0.4221253747","","0.3507556502","","","","","",""
"809","","bandit","229","1067249","0.0-191.0-0.0","88377512","wem/bandit_single","A21H2UDDHN8ZF","pain","3","","74","J","1","","0","0","1","","0.119712108","false","154","","0.1964980564","main_expt","","0.119712108","","0.3887365422","","0.3484399371","","","","","",""
"719","","bandit","230","1069754","0.0-192.0-0.0","88377512","wem/bandit_single","A21H2UDDHN8ZF","pain","3","","74","J","1","","0","0","1","","0.1638630184","false","155","","0.2158986014","main_expt","","0.1638630184","","0.3935049101","","0.4023996329","","","","","",""
"411","","bandit","231","1071942","0.0-193.0-0.0","88377512","wem/bandit_single","A21H2UDDHN8ZF","pain","3","","74","J","1","","0","0","1","","0.138562935","false","156","","0.2269609611","main_expt","","0.138562935","","0.4185769797","","0.3489947109","","","","","",""
"497","","bandit","232","1074242","0.0-194.0-0.0","88377512","wem/bandit_single","A21H2UDDHN8ZF","pain","3","","72","H","0","img/none_selected.jpg","0","0","1","","0.2997599927","false","157","","0.2997599927","main_expt","","0.1424057266","","0.412821327","","0.3223479281","","","","","",""
"393","","bandit","233","1076422","0.0-195.0-0.0","88377512","wem/bandit_single","A21H2UDDHN8ZF","pain","3","","72","H","0","img/none_selected.jpg","0","1","0","","0.2608946303","false","158","","0.2608946303","main_expt","","0.1068688432","","0.4433072999","","0.3334556671","","","","","",""
"623","","bandit","234","1078838","0.0-196.0-0.0","88377512","wem/bandit_single","A21H2UDDHN8ZF","pain","3","","72","H","0","img/none_selected.jpg","0","0","1","","0.2927903113","false","159","","0.2927903113","main_expt","","0.08394897778","","0.4600675837","","0.3686402331","","","","","",""
"419","","bandit","235","1081066","0.0-197.0-0.0","88377512","wem/bandit_single","A21H2UDDHN8ZF","pain","3","","72","H","0","img/none_selected.jpg","0","0","1","","0.3165869591","false","160","","0.3165869591","main_expt","","0.09909711901","","0.449399373","","0.3711838842","","","","","",""
"608","","bandit","236","1083472","0.0-198.0-0.0","88377512","wem/bandit_single","A21H2UDDHN8ZF","pain","3","","72","H","0","img/none_selected.jpg","0","1","0","","0.3355773311","false","161","","0.3355773311","main_expt","","0.09256485174","","0.4303005813","","0.385982022","","","","","",""
"766","","bandit","237","1086027","0.0-199.0-0.0","88377512","wem/bandit_single","A21H2UDDHN8ZF","pain","3","","72","H","0","img/none_selected.jpg","0","0","1","","0.3801839585","false","162","","0.3801839585","main_expt","","0.07550585721","","0.4319487415","","0.3435676447","","","","","",""
"873","","bandit","238","1088699","0.0-200.0-0.0","88377512","wem/bandit_single","A21H2UDDHN8ZF","pain","3","","72","H","0","img/none_selected.jpg","0","0","1","","0.3796909961","false","163","","0.3796909961","main_expt","","0.08055395315","","0.4459750046","","0.3840292687","","","","","",""
"613","","bandit","239","1091106","0.0-201.0-0.0","88377512","wem/bandit_single","A21H2UDDHN8ZF","pain","3","","72","H","0","img/none_selected.jpg","0","0","1","","0.3657353238","false","164","","0.3657353238","main_expt","","0.07824920034","","0.4529977304","","0.3427058888","","","","","",""
"261","","bandit","240","1093175","0.0-202.0-0.0","88377512","wem/bandit_single","A21H2UDDHN8ZF","pain","3","","72","H","0","img/none_selected.jpg","0","0","1","","0.3937598932","false","165","","0.3937598932","main_expt","","0.08439791844","","0.4472909282","","0.3258967388","","","","","",""
"7","","bandit","241","1094971","0.0-203.0-0.0","88377512","wem/bandit_single","A21H2UDDHN8ZF","pain","3","","72","H","0","img/none_selected.jpg","0","1","0","","0.3914196171","false","166","","0.3914196171","main_expt","","0.05039915739","","0.4399772256","","0.2704303424","","","","","",""
"575","","bandit","242","1097353","0.0-204.0-0.0","88377512","wem/bandit_single","A21H2UDDHN8ZF","pain","3","","72","H","0","img/none_selected.jpg","0","0","1","","0.3919877423","false","167","","0.3919877423","main_expt","","0.05759530337","","0.4636729032","","0.3205555932","","","","","",""
"1251","","bandit","243","1100405","0.0-205.0-0.0","88377512","wem/bandit_single","A21H2UDDHN8ZF","pain","3","","72","H","0","img/none_selected.jpg","0","0","1","","0.3647459683","false","168","","0.3647459683","main_expt","","0.04992464654","","0.4437796743","","0.3639109947","","","","","",""
"655","","bandit","244","1102865","0.0-206.0-0.0","88377512","wem/bandit_single","A21H2UDDHN8ZF","pain","3","","72","H","0","img/none_selected.jpg","0","1","0","","0.4058418149","false","169","","0.4058418149","main_expt","","0.03416660819","","0.456101387","","0.3733582142","","","","","",""
"847","","bandit","245","1105521","0.0-207.0-0.0","88377512","wem/bandit_single","A21H2UDDHN8ZF","pain","3","","72","H","0","img/none_selected.jpg","0","1","0","","0.3998590153","false","170","","0.3998590153","main_expt","","0.01917125828","","0.4571218852","","0.3832331311","","","","","",""
"751","","bandit","246","1108058","0.0-208.0-0.0","88377512","wem/bandit_single","A21H2UDDHN8ZF","pain","3","","72","H","0","img/none_selected.jpg","0","0","1","","0.3887500458","false","171","","0.3887500458","main_expt","","0.02244253376","","0.445510323","","0.3815339887","","","","","",""
"1333","","bandit","247","1111199","0.0-209.0-0.0","88377512","wem/bandit_single","A21H2UDDHN8ZF","pain","3","","72","H","0","img/none_selected.jpg","0","1","0","","0.4102182378","false","172","","0.4102182378","main_expt","","0.02619280326","","0.4280794999","","0.3471775219","","","","","",""
"1373","","bandit","248","1114394","0.0-210.0-0.0","88377512","wem/bandit_single","A21H2UDDHN8ZF","pain","3","","72","H","0","img/none_selected.jpg","0","0","1","","0.3895773165","false","173","","0.3895773165","main_expt","","0.0218428458","","0.4379780546","","0.340289466","","","","","",""
"1185","","bandit","249","1117397","0.0-211.0-0.0","88377512","wem/bandit_single","A21H2UDDHN8ZF","pain","3","","72","H","0","img/none_selected.jpg","0","0","1","","0.3826402373","false","174","","0.3826402373","main_expt","","0.02840617367","","0.4160926905","","0.3280863639","","","","","",""
"754","","bandit","250","1119962","0.0-212.0-0.0","88377512","wem/bandit_single","A21H2UDDHN8ZF","pain","3","","72","H","0","img/none_selected.jpg","0","0","1","","0.38572844","false","175","","0.38572844","main_expt","","0.0268928826","","0.44195178","","0.3782643392","","","","","",""
"421","","bandit","251","1122193","0.0-213.0-0.0","88377512","wem/bandit_single","A21H2UDDHN8ZF","pain","3","","72","H","0","img/none_selected.jpg","0","0","1","","0.3566605828","false","176","","0.3566605828","main_expt","","0.04471375276","","0.4469840309","","0.3714875018","","","","","",""
"510","","bandit","252","1124512","0.0-214.0-0.0","88377512","wem/bandit_single","A21H2UDDHN8ZF","pain","3","","72","H","0","img/none_selected.jpg","0","1","0","","0.3736379944","false","177","","0.3736379944","main_expt","","0.04508647299","","0.4732589693","","0.3110573775","","","","","",""
"1309","","bandit","253","1127647","0.0-215.0-0.0","88377512","wem/bandit_single","A21H2UDDHN8ZF","pain","3","","72","H","0","img/none_selected.jpg","0","1","0","","0.3835263095","false","178","","0.3835263095","main_expt","","0.07342594821","","0.4716065645","","0.3725785744","","","","","",""
"451","","bandit","254","1129911","0.0-216.0-0.0","88377512","wem/bandit_single","A21H2UDDHN8ZF","pain","3","","72","H","0","img/none_selected.jpg","0","1","0","","0.3531759074","false","179","","0.3531759074","main_expt","","0.08189943715","","0.4724187392","","0.4143512522","","","","","",""
"1251","","bandit","255","1132967","0.0-217.0-0.0","88377512","wem/bandit_single","A21H2UDDHN8ZF","pain","3","","72","H","0","img/none_selected.jpg","0","1","0","","0.3185705061","false","180","","0.3185705061","main_expt","","0.07894611151","","0.4551908631","","0.4240428135","","","","","",""
"321","","bandit","256","1135093","0.0-218.0-0.0","88377512","wem/bandit_single","A21H2UDDHN8ZF","pain","3","","72","H","0","img/none_selected.jpg","0","1","0","","0.2823592255","false","181","","0.2823592255","main_expt","","0.06982230443","","0.456416976","","0.4394908049","","","","","",""
"1083","","bandit","257","1137970","0.0-219.0-0.0","88377512","wem/bandit_single","A21H2UDDHN8ZF","pain","3","","72","H","0","img/none_selected.jpg","0","0","1","","0.2741397005","false","182","","0.2741397005","main_expt","","0.06674639092","","0.4525945541","","0.4180692962","","","","","",""
"1389","","bandit","258","1141186","0.0-220.0-0.0","88377512","wem/bandit_single","A21H2UDDHN8ZF","pain","3","","72","H","0","img/none_selected.jpg","0","0","1","","0.2936799338","false","183","","0.2936799338","main_expt","","0.04008595334","","0.4439654651","","0.4468782907","","","","","",""
"1064","","bandit","259","1144065","0.0-221.0-0.0","88377512","wem/bandit_single","A21H2UDDHN8ZF","pain","3","","72","H","0","img/none_selected.jpg","0","1","0","","0.3027831177","false","184","","0.3027831177","main_expt","","0.04652727321","","0.4366406792","","0.4489540851","","","","","",""
"819","","bandit","260","1146698","0.0-222.0-0.0","88377512","wem/bandit_single","A21H2UDDHN8ZF","pain","3","","72","H","0","img/none_selected.jpg","0","1","0","","0.3180510168","false","185","","0.3180510168","main_expt","","0.05033673313","","0.4282468188","","0.4669005471","","","","","",""
"162","","bandit","261","1148661","0.0-223.0-0.0","88377512","wem/bandit_single","A21H2UDDHN8ZF","pain","3","","72","H","0","img/none_selected.jpg","0","0","1","","0.3285352945","false","186","","0.3285352945","main_expt","","0.03009771755","","0.4249990568","","0.419417397","","","","","",""
"61","","bandit","262","1150523","0.0-224.0-0.0","88377512","wem/bandit_single","A21H2UDDHN8ZF","pain","3","","72","H","0","img/none_selected.jpg","0","0","1","","0.3278715557","false","187","","0.3278715557","main_expt","","0.02601150791","","0.4159118542","","0.3735271503","","","","","",""
"127","","bandit","263","1152442","0.0-225.0-0.0","88377512","wem/bandit_single","A21H2UDDHN8ZF","pain","3","","72","H","0","img/none_selected.jpg","0","0","1","","0.3408065186","false","188","","0.3408065186","main_expt","","0.02389042297","","0.4294829221","","0.3339942922","","","","","",""
"109","","bandit","264","1154367","0.0-226.0-0.0","88377512","wem/bandit_single","A21H2UDDHN8ZF","pain","3","","72","H","0","img/none_selected.jpg","0","0","1","","0.3335894225","false","189","","0.3335894225","main_expt","","0.02303770395","","0.4183094629","","0.3200911101","","","","","",""
"138","","bandit","265","1156298","0.0-227.0-0.0","88377512","wem/bandit_single","A21H2UDDHN8ZF","pain","3","","72","H","0","img/none_selected.jpg","0","1","0","","0.2560009578","false","190","","0.2560009578","main_expt","","0.0156858998","","0.3769048436","","0.379511296","","","","","",""
"385","","bandit","266","1158473","0.0-228.0-0.0","88377512","wem/bandit_single","A21H2UDDHN8ZF","pain","3","","72","H","0","img/none_selected.jpg","0","0","1","","0.2422543603","false","191","","0.2422543603","main_expt","","0.02184200568","","0.3654839124","","0.3475909393","","","","","",""
"326","","bandit","267","1160628","0.0-229.0-0.0","88377512","wem/bandit_single","A21H2UDDHN8ZF","pain","3","","72","H","0","img/none_selected.jpg","0","0","1","","0.2479432207","false","192","","0.2479432207","main_expt","","0.04159540118","","0.4158526776","","0.3248483226","","","","","",""
"452","","bandit","268","1162906","0.0-230.0-0.0","88377512","wem/bandit_single","A21H2UDDHN8ZF","pain","3","","72","H","0","img/none_selected.jpg","0","0","1","","0.2198669916","false","193","","0.2198669916","main_expt","","0.02418359434","","0.4294001388","","0.3530355579","","","","","",""
"420","","bandit","269","1165122","0.0-231.0-0.0","88377512","wem/bandit_single","A21H2UDDHN8ZF","pain","3","","72","H","0","img/none_selected.jpg","0","1","0","","0.1832858475","false","194","","0.1832858475","main_expt","","0.03036789999","","0.421006879","","0.3613612536","","","","","",""
"520","","bandit","270","1167461","0.0-232.0-0.0","88377512","wem/bandit_single","A21H2UDDHN8ZF","pain","3","","72","H","0","img/none_selected.jpg","0","0","1","","0.1758973168","false","195","","0.1758973168","main_expt","","0.0328032794","","0.3993762185","","0.3712676973","","","","","",""
"309","","bandit","271","1169584","0.0-233.0-0.0","88377512","wem/bandit_single","A21H2UDDHN8ZF","pain","3","","72","H","0","img/none_selected.jpg","0","0","1","","0.1472052011","false","196","","0.1472052011","main_expt","","0.03367124179","","0.3953591144","","0.3797177139","","","","","",""
"523","","bandit","272","1171901","0.0-234.0-0.0","88377512","wem/bandit_single","A21H2UDDHN8ZF","pain","3","","72","H","0","img/none_selected.jpg","0","0","1","","0.09357285733","false","197","","0.09357285733","main_expt","","0.03515804352","","0.4186523265","","0.3703437648","","","","","",""
"310","","bandit","273","1174020","0.0-235.0-0.0","88377512","wem/bandit_single","A21H2UDDHN8ZF","pain","3","","72","H","0","img/none_selected.jpg","0","0","1","","0.1466532231","false","198","","0.1466532231","main_expt","","0.0474911349","","0.4334783576","","0.3269028648","","","","","",""
"403","","bandit","274","1176236","0.0-236.0-0.0","88377512","wem/bandit_single","A21H2UDDHN8ZF","pain","3","","72","H","0","img/none_selected.jpg","0","0","1","","0.1745555733","false","199","","0.1745555733","main_expt","","0.04758635843","","0.452916177","","0.2972028605","","","","","",""
"201","","bandit","275","1178248","0.0-237.0-0.0","88377512","wem/bandit_single","A21H2UDDHN8ZF","pain","3","","75","K","2","","0","1","0","","0.4652130485","false","200","","0.1496088854","main_expt","","0.06637193447","","0.4652130485","","0.2548635421","","","","","",""
"526","","bandit","276","1180596","0.0-238.0-0.0","88377512","wem/bandit_single","A21H2UDDHN8ZF","pain","3","","75","K","2","","0","0","1","","0.4544628945","false","201","","0.1144678821","main_expt","","0.03961336895","","0.4544628945","","0.2360204523","","","","","",""
"761","","bandit","277","1183162","0.0-239.0-0.0","88377512","wem/bandit_single","A21H2UDDHN8ZF","pain","3","","75","K","2","","0","0","1","","0.4346785174","false","202","","0.08314182588","main_expt","","0.04217273593","","0.4346785174","","0.1847208139","","","","","",""
"982","","bandit","278","1185948","0.0-240.0-0.0","88377512","wem/bandit_single","A21H2UDDHN8ZF","pain","3","","75","K","2","","0","0","1","","0.4340895374","false","203","","0.1008304514","main_expt","","0.03601881868","","0.4340895374","","0.1740418795","","","","","",""
"880","","bandit","279","1188631","0.0-241.0-0.0","88377512","wem/bandit_single","A21H2UDDHN8ZF","pain","3","","75","K","2","","0","1","0","","0.4398780919","false","204","","0.1170364225","main_expt","","0.04663301139","","0.4398780919","","0.1469060572","","","","","",""
"358","","bandit","280","1190795","0.0-242.0-0.0","88377512","wem/bandit_single","A21H2UDDHN8ZF","pain","3","","75","K","2","","0","1","0","","0.4001316318","false","205","","0.1228414706","main_expt","","0.04643109282","","0.4001316318","","0.1162446513","","","","","",""
"350","","bandit","281","1192946","0.0-243.0-0.0","88377512","wem/bandit_single","A21H2UDDHN8ZF","pain","3","","75","K","2","","0","0","1","","0.4347617828","false","206","","0.1574749647","main_expt","","0.06886832812","","0.4347617828","","0.1289033918","","","","","",""
"250","","bandit","282","1195021","0.0-244.0-0.0","88377512","wem/bandit_single","A21H2UDDHN8ZF","pain","3","","75","K","2","","0","0","1","","0.4383015813","false","207","","0.1922173773","main_expt","","0.0600143171","","0.4383015813","","0.1261822501","","","","","",""
"187","","bandit","283","1197005","0.0-245.0-0.0","88377512","wem/bandit_single","A21H2UDDHN8ZF","pain","3","","75","K","2","","0","1","0","","0.4038237536","false","208","","0.1673160211","main_expt","","0.04637571639","","0.4038237536","","0.1024795668","","","","","",""
"125","","bandit","284","1198943","0.0-246.0-0.0","88377512","wem/bandit_single","A21H2UDDHN8ZF","pain","3","","75","K","2","","0","1","0","","0.3890753365","false","209","","0.1269527993","main_expt","","0.04040360689","","0.3890753365","","0.1129838087","","","","","",""
"280","","bandit","285","1201030","0.0-247.0-0.0","88377512","wem/bandit_single","A21H2UDDHN8ZF","pain","3","","75","K","2","","0","1","0","","0.3792373644","false","210","","0.1114377498","main_expt","","0.02069644656","","0.3792373644","","0.1562804612","","","","","",""
"141","","bandit","286","1202966","0.0-248.0-0.0","88377512","wem/bandit_single","A21H2UDDHN8ZF","pain","3","","75","K","2","","0","0","1","","0.3780611868","false","211","","0.1155820846","main_expt","","0.03173395488","","0.3780611868","","0.1363837251","","","","","",""
"451","","bandit","287","1205223","0.0-249.0-0.0","88377512","wem/bandit_single","A21H2UDDHN8ZF","pain","3","","75","K","2","","0","0","1","","0.3483689532","false","212","","0.1553323518","main_expt","","0.02469601981","","0.3483689532","","0.09358237554","","","","","",""
"343","","bandit","288","1207390","0.0-250.0-0.0","88377512","wem/bandit_single","A21H2UDDHN8ZF","pain","3","","75","K","2","","0","0","1","","0.2874103991","false","213","","0.2062901667","main_expt","","0.04258417901","","0.2874103991","","0.05743859841","","","","","",""
"374","","bandit","289","1209584","0.0-251.0-0.0","88377512","wem/bandit_single","A21H2UDDHN8ZF","pain","3","","75","K","2","","0","0","1","","0.2620706088","false","214","","0.2076956631","main_expt","","0.05493755721","","0.2620706088","","0.05800100084","","","","","",""
"514","","bandit","290","1211895","0.0-252.0-0.0","88377512","wem/bandit_single","A21H2UDDHN8ZF","pain","3","","75","K","2","","0","1","0","","0.2855520155","false","215","","0.2609492508","main_expt","","0.08978059799","","0.2855520155","","0.05413405856","","","","","",""
"668","","bandit","291","1214359","0.0-253.0-0.0","88377512","wem/bandit_single","A21H2UDDHN8ZF","pain","3","","75","K","2","","0","0","1","","0.2916786734","false","216","","0.2500101786","main_expt","","0.09809121306","","0.2916786734","","0.03942357166","","","","","",""
"55","","bandit","292","1216223","0.0-254.0-0.0","88377512","wem/bandit_single","A21H2UDDHN8ZF","pain","3","","75","K","2","","0","0","1","","0.2823685681","false","217","","0.2748248586","main_expt","","0.1427848958","","0.2823685681","","0.03801572204","","","","","",""
"358","","bandit","293","1218377","0.0-255.0-0.0","88377512","wem/bandit_single","A21H2UDDHN8ZF","pain","3","","75","K","2","","0","0","1","","0.2423520158","false","218","","0.311954441","main_expt","","0.1570322525","","0.2423520158","","0.03890441123","","","","","",""
"468","","bandit","294","1220650","0.0-256.0-0.0","88377512","wem/bandit_single","A21H2UDDHN8ZF","pain","3","","75","K","2","","0","0","1","","0.2949403562","false","219","","0.3632760336","main_expt","","0.1805036953","","0.2949403562","","0.01887456362","","","","","",""
"430","","bandit","295","1222885","0.0-257.0-0.0","88377512","wem/bandit_single","A21H2UDDHN8ZF","pain","3","","75","K","2","","0","1","0","","0.3123592507","false","220","","0.3369908474","main_expt","","0.1305519061","","0.3123592507","","0.02149820142","","","","","",""
"542","","bandit","296","1225220","0.0-258.0-0.0","88377512","wem/bandit_single","A21H2UDDHN8ZF","pain","3","","75","K","2","","0","0","1","","0.3184432139","false","221","","0.3047504054","main_expt","","0.09039333473","","0.3184432139","","0.03528878979","","","","","",""
"1109","","bandit","297","1228147","0.0-259.0-0.0","88377512","wem/bandit_single","A21H2UDDHN8ZF","pain","3","","75","K","2","","0","0","1","","0.3596246423","false","222","","0.3107799438","main_expt","","0.0801847008","","0.3596246423","","0.03906528797","","","","","",""
"342","","bandit","298","1230297","0.0-260.0-0.0","88377512","wem/bandit_single","A21H2UDDHN8ZF","pain","3","","75","K","2","","0","0","1","","0.3048299186","false","223","","0.3359374044","main_expt","","0.08930296305","","0.3048299186","","0.04285152396","","","","","",""
"744","","bandit","299","1232859","0.0-261.0-0.0","88377512","wem/bandit_single","A21H2UDDHN8ZF","pain","3","","75","K","2","","0","1","0","","0.3097637171","false","224","","0.354776332","main_expt","","0.0783544472","","0.3097637171","","0.03308098724","","","","","",""
"1749","","bandit","300","1236411","0.0-262.0-0.0","88377512","wem/bandit_single","A21H2UDDHN8ZF","pain","3","","75","K","2","","0","1","0","","0.3313621339","false","225","","0.3747964846","main_expt","","0.05733223117","","0.3313621339","","0.03318257961","","","","","",""
"1516","","bandit","301","1239757","0.0-263.0-0.0","88377512","wem/bandit_single","A21H2UDDHN8ZF","pain","3","","75","K","2","","0","0","1","","0.2611013425","false","226","","0.3530330239","main_expt","","0.09472546141","","0.2611013425","","0.02568716964","","","","","",""
"1424","","bandit","302","1242999","0.0-264.0-0.0","88377512","wem/bandit_single","A21H2UDDHN8ZF","pain","3","","75","K","2","","0","0","1","","0.2761398934","false","227","","0.3299445106","main_expt","","0.08353253247","","0.2761398934","","0.03534330031","","","","","",""
"2474","","bandit","303","1247270","0.0-265.0-0.0","88377512","wem/bandit_single","A21H2UDDHN8ZF","pain","3","","75","K","2","","0","0","1","","0.2358148364","false","228","","0.3286020352","main_expt","","0.06220105415","","0.2358148364","","0.03702628412","","","","","",""
"124","","bandit","304","1249186","0.0-266.0-0.0","88377512","wem/bandit_single","A21H2UDDHN8ZF","pain","3","","75","K","2","","0","0","1","","0.2091128555","false","229","","0.3178943429","main_expt","","0.06639782905","","0.2091128555","","0.03077125553","","","","","",""
"815","","bandit","305","1251782","0.0-267.0-0.0","88377512","wem/bandit_single","A21H2UDDHN8ZF","pain","3","","75","K","2","","0","0","1","","0.181986641","false","230","","0.3254915512","main_expt","","0.07029464087","","0.181986641","","0.03752036101","","","","","",""
"672","","bandit","306","1254263","0.0-268.0-0.0","88377512","wem/bandit_single","A21H2UDDHN8ZF","pain","3","","75","K","2","","0","0","1","","0.1599443191","false","231","","0.3298497064","main_expt","","0.07612781315","","0.1599443191","","0.02736090244","","","","","",""
"513","","bandit","307","1256599","0.0-269.0-0.0","88377512","wem/bandit_single","A21H2UDDHN8ZF","pain","3","","75","K","2","","0","0","1","","0.125214013","false","232","","0.300331178","main_expt","","0.04325191911","","0.125214013","","0.02154887034","","","","","",""
"343","","bandit","308","1258767","0.0-270.0-0.0","88377512","wem/bandit_single","A21H2UDDHN8ZF","pain","3","","75","K","2","","0","0","1","","0.134118517","false","233","","0.3357562734","main_expt","","0.04039924652","","0.134118517","","0.0228348974","","","","","",""
"470","","bandit","309","1261059","0.0-271.0-0.0","88377512","wem/bandit_single","A21H2UDDHN8ZF","pain","3","","75","K","2","","0","0","1","","0.1238594142","false","234","","0.3257461803","main_expt","","0.0435796211","","0.1238594142","","0.01030782054","","","","","",""
"310","","bandit","310","1263186","0.0-272.0-0.0","88377512","wem/bandit_single","A21H2UDDHN8ZF","pain","3","","75","K","2","","0","0","1","","0.1141846942","false","235","","0.3534766227","main_expt","","0.02315237623","","0.1141846942","","0.02615737471","","","","","",""
"267","","bandit","311","1265252","0.0-273.0-0.0","88377512","wem/bandit_single","A21H2UDDHN8ZF","pain","3","","76","L","3","","0","0","1","","0.0224272094","false","236","","0.3733068719","main_expt","","0.02010779399","","0.1101280349","","0.0224272094","","","","","",""
"343","","bandit","312","1267390","0.0-274.0-0.0","88377512","wem/bandit_single","A21H2UDDHN8ZF","pain","3","","76","L","3","","0","0","1","","0.02679999918","false","237","","0.4105295152","main_expt","","0.01796146932","","0.09079266978","","0.02679999918","","","","","",""
"355","","bandit","313","1269576","0.0-275.0-0.0","88377512","wem/bandit_single","A21H2UDDHN8ZF","pain","3","","76","L","3","","0","0","1","","0.07542988795","false","238","","0.4225156592","main_expt","","0.0167141813","","0.1365862295","","0.07542988795","","","","","",""
"281","","bandit","314","1271678","0.0-276.0-0.0","88377512","wem/bandit_single","A21H2UDDHN8ZF","pain","3","","76","L","3","","0","0","1","","0.09772903","false","239","","0.4360895212","main_expt","","0.03283355296","","0.1846819155","","0.09772903","","","","","",""
"343","","bandit","315","1273837","0.0-277.0-0.0","88377512","wem/bandit_single","A21H2UDDHN8ZF","pain","3","","76","L","3","","0","0","1","","0.1044145256","false","240","","0.423514393","main_expt","","0.05325110434","","0.1795044078","","0.1044145256","","","","","",""
"183","","bandit","316","1275821","0.0-278.0-0.0","88377512","wem/bandit_single","A21H2UDDHN8ZF","pain","3","","72","H","0","img/none_selected.jpg","0","0","1","","0.3824942702","false","241","","0.3824942702","main_expt","","0.04551940083","","0.1522343712","","0.109937241","","","","","",""
"544","","bandit","317","1278180","0.0-279.0-0.0","88377512","wem/bandit_single","A21H2UDDHN8ZF","pain","3","","72","H","0","img/none_selected.jpg","0","1","0","","0.3758562762","false","242","","0.3758562762","main_expt","","0.05503183359","","0.1433696576","","0.09239004846","","","","","",""
"474","","bandit","318","1280484","0.0-280.0-0.0","88377512","wem/bandit_single","A21H2UDDHN8ZF","pain","3","","72","H","0","img/none_selected.jpg","0","1","0","","0.2984655584","false","243","","0.2984655584","main_expt","","0.04467871076","","0.1427577162","","0.1014218366","","","","","",""
"532","","bandit","319","1282861","0.0-281.0-0.0","88377512","wem/bandit_single","A21H2UDDHN8ZF","pain","3","","72","H","0","img/none_selected.jpg","0","0","1","","0.2901672904","false","244","","0.2901672904","main_expt","","0.06552455376","","0.1340795621","","0.192841162","","","","","",""
"417","","bandit","320","1285075","0.0-282.0-0.0","88377512","wem/bandit_single","A21H2UDDHN8ZF","pain","3","","72","H","0","img/none_selected.jpg","0","0","1","","0.2495050599","false","245","","0.2495050599","main_expt","","0.1005127954","","0.1469719784","","0.1953250812","","","","","",""
"483","","bandit","321","1287358","0.0-283.0-0.0","88377512","wem/bandit_single","A21H2UDDHN8ZF","pain","3","","72","H","0","img/none_selected.jpg","0","0","1","","0.2406773486","false","246","","0.2406773486","main_expt","","0.11534406","","0.140914489","","0.1865380945","","","","","",""
"119","","bandit","322","1289280","0.0-284.0-0.0","88377512","wem/bandit_single","A21H2UDDHN8ZF","pain","3","","72","H","0","img/none_selected.jpg","0","0","1","","0.2265306157","false","247","","0.2265306157","main_expt","","0.08579934652","","0.1592666071","","0.221100819","","","","","",""
"798","","bandit","323","1291883","0.0-285.0-0.0","88377512","wem/bandit_single","A21H2UDDHN8ZF","pain","3","","72","H","0","img/none_selected.jpg","0","1","0","","0.2000380921","false","248","","0.2000380921","main_expt","","0.08554071629","","0.2210893918","","0.2106100544","","","","","",""
"450","","bandit","324","1294136","0.0-286.0-0.0","88377512","wem/bandit_single","A21H2UDDHN8ZF","pain","3","","72","H","0","img/none_selected.jpg","0","0","1","","0.1920984986","false","249","","0.1920984986","main_expt","","0.07137080198","","0.2306666851","","0.2172535859","","","","","",""
"1035","","bandit","325","1296981","0.0-287.0-0.0","88377512","wem/bandit_single","A21H2UDDHN8ZF","pain","3","","72","H","0","img/none_selected.jpg","0","0","1","","0.1624135027","false","250","","0.1624135027","main_expt","","0.06874505311","","0.2422322172","","0.1953648199","","","","","",""
"41","","bandit","326","1298827","0.0-288.0-0.0","88377512","wem/bandit_single","A21H2UDDHN8ZF","pain","3","","72","H","0","img/none_selected.jpg","0","0","1","","0.2057369507","false","251","","0.2057369507","main_expt","","0.04927492375","","0.2425189851","","0.2129795833","","","","","",""
"152","","bandit","327","1300809","0.0-289.0-0.0","88377512","wem/bandit_single","A21H2UDDHN8ZF","pain","3","","72","H","0","img/none_selected.jpg","0","0","1","","0.26034901","false","252","","0.26034901","main_expt","","0.0504542679","","0.1980379423","","0.2271134102","","","","","",""
"217","","bandit","328","1302836","0.0-290.0-0.0","88377512","wem/bandit_single","A21H2UDDHN8ZF","pain","3","","72","H","0","img/none_selected.jpg","0","0","1","","0.1886300366","false","253","","0.1886300366","main_expt","","0.0313618618","","0.2040952335","","0.2152809257","","","","","",""
"60","","bandit","329","1304713","0.0-291.0-0.0","88377512","wem/bandit_single","A21H2UDDHN8ZF","pain","3","","72","H","0","img/none_selected.jpg","0","0","1","","0.1978078828","false","254","","0.1978078828","main_expt","","0.0191685034","","0.1621407843","","0.2065685424","","","","","",""
"243","","bandit","330","1306772","0.0-292.0-0.0","88377512","wem/bandit_single","A21H2UDDHN8ZF","pain","3","","72","H","0","img/none_selected.jpg","0","0","1","","0.1544468143","false","255","","0.1544468143","main_expt","","0.01882474885","","0.1817956319","","0.2000715388","","","","","",""
"123","","bandit","331","1308707","0.0-293.0-0.0","88377512","wem/bandit_single","A21H2UDDHN8ZF","pain","3","","72","H","0","img/none_selected.jpg","0","0","1","","0.1552120094","false","256","","0.1552120094","main_expt","","0.01765542058","","0.1796151025","","0.1997851389","","","","","",""
"358","","bandit","332","1310874","0.0-294.0-0.0","88377512","wem/bandit_single","A21H2UDDHN8ZF","pain","3","","72","H","0","img/none_selected.jpg","0","0","1","","0.1337291471","false","257","","0.1337291471","main_expt","","0.0162265086","","0.1874922979","","0.1965173465","","","","","",""
"231","","bandit","333","1312900","0.0-295.0-0.0","88377512","wem/bandit_single","A21H2UDDHN8ZF","pain","3","","72","H","0","img/none_selected.jpg","0","0","1","","0.1279332347","false","258","","0.1279332347","main_expt","","0.01630278654","","0.2152410464","","0.1816932188","","","","","",""
"62","","bandit","334","1314773","0.0-296.0-0.0","88377512","wem/bandit_single","A21H2UDDHN8ZF","pain","3","","74","J","1","","0","0","1","","0.0149919991","false","259","","0.152418206","main_expt","","0.0149919991","","0.2311433436","","0.2275026539","","","","","",""
"528","","bandit","335","1317126","0.0-297.0-0.0","88377512","wem/bandit_single","A21H2UDDHN8ZF","pain","3","","74","J","1","","0","0","1","","0.02225913397","false","260","","0.1100328583","main_expt","","0.02225913397","","0.1621257941","","0.1798156178","","","","","",""
"125","","bandit","336","1319057","0.0-298.0-0.0","88377512","wem/bandit_single","A21H2UDDHN8ZF","pain","3","","74","J","1","","0","0","1","","0.02865634389","false","261","","0.1537012171","main_expt","","0.02865634389","","0.1219102136","","0.187122726","","","","","",""
"122","","bandit","337","1320977","0.0-299.0-0.0","88377512","wem/bandit_single","A21H2UDDHN8ZF","pain","3","","74","J","1","","0","0","1","","0.03173788073","false","262","","0.1302597035","main_expt","","0.03173788073","","0.1667536199","","0.1507521212","","","","","",""
"188","","bandit","338","1322980","0.0-300.0-0.0","88377512","wem/bandit_single","A21H2UDDHN8ZF","pain","3","","74","J","1","","0","0","1","","0.04250990858","false","263","","0.1297736826","main_expt","","0.04250990858","","0.1361259709","","0.1374951011","","","","","",""
"122","","bandit","339","1324904","0.0-301.0-0.0","88377512","wem/bandit_single","A21H2UDDHN8ZF","pain","3","","74","J","1","","0","0","1","","0.056503948","false","264","","0.1326654045","main_expt","","0.056503948","","0.1217381733","","0.1158818852","","","","","",""
"195","","bandit","340","1326912","0.0-302.0-0.0","88377512","wem/bandit_single","A21H2UDDHN8ZF","pain","3","","75","K","2","","0","0","1","","0.1258265959","false","265","","0.1586413096","main_expt","","0.07592662832","","0.1258265959","","0.1147359408","","","","","",""
"435","","bandit","341","1329163","0.0-303.0-0.0","88377512","wem/bandit_single","A21H2UDDHN8ZF","pain","3","","75","K","2","","0","0","1","","0.1445769791","false","266","","0.1496521415","main_expt","","0.1002340293","","0.1445769791","","0.09491002089","","","","","",""
"308","","bandit","342","1331252","0.0-304.0-0.0","88377512","wem/bandit_single","A21H2UDDHN8ZF","pain","3","","75","K","2","","0","0","1","","0.1014120844","false","267","","0.1410052581","main_expt","","0.1526998269","","0.1014120844","","0.1181284109","","","","","",""
"249","","bandit","343","1333298","0.0-305.0-0.0","88377512","wem/bandit_single","A21H2UDDHN8ZF","pain","3","","75","K","2","","0","0","1","","0.06386630904","false","268","","0.145208313","main_expt","","0.1340815566","","0.06386630904","","0.1054434992","","","","","",""
"90","","bandit","344","1335169","0.0-306.0-0.0","88377512","wem/bandit_single","A21H2UDDHN8ZF","pain","3","","76","L","3","","0","1","0","","0.1307900039","false","269","","0.1387339362","main_expt","","0.1350059692","","0.03725778621","","0.1307900039","","","","","",""
"358","","bandit","345","1337324","0.0-307.0-0.0","88377512","wem/bandit_single","A21H2UDDHN8ZF","pain","3","","76","L","3","","0","0","1","","0.1444746669","false","270","","0.1822325734","main_expt","","0.1008257698","","0.02825676517","","0.1444746669","","","","","",""
"267","","bandit","346","1339416","0.0-308.0-0.0","88377512","wem/bandit_single","A21H2UDDHN8ZF","pain","3","","76","L","3","","0","0","1","","0.1622504114","false","271","","0.1752825828","main_expt","","0.1257425884","","0.02967844624","","0.1622504114","","","","","",""
"464","","bandit","347","1341684","0.0-309.0-0.0","88377512","wem/bandit_single","A21H2UDDHN8ZF","pain","3","","76","L","3","","0","0","1","","0.1814673171","false","272","","0.1572277832","main_expt","","0.1363444874","","0.03051557875","","0.1814673171","","","","","",""
"265","","bandit","348","1343764","0.0-310.0-0.0","88377512","wem/bandit_single","A21H2UDDHN8ZF","pain","3","","76","L","3","","0","0","1","","0.1930303076","false","273","","0.1609880977","main_expt","","0.1090842693","","0.0408401102","","0.1930303076","","","","","",""
"141","","bandit","349","1345726","0.0-311.0-0.0","88377512","wem/bandit_single","A21H2UDDHN8ZF","pain","3","","76","L","3","","0","0","1","","0.1704680895","false","274","","0.2228580822","main_expt","","0.1397265487","","0.03240614182","","0.1704680895","","","","","",""
"136","","bandit","350","1347683","0.0-312.0-0.0","88377512","wem/bandit_single","A21H2UDDHN8ZF","pain","3","","76","L","3","","0","0","1","","0.1785534293","false","275","","0.2126640298","main_expt","","0.210641606","","0.04120982645","","0.1785534293","","","","","",""
"283","","bandit","351","1349764","0.0-313.0-0.0","88377512","wem/bandit_single","A21H2UDDHN8ZF","pain","3","","74","J","1","","0","0","1","","0.1523626192","false","276","","0.2006548762","main_expt","","0.1523626192","","0.04353307789","","0.1843971019","","","","","",""
"204","","bandit","352","1351770","0.0-314.0-0.0","88377512","wem/bandit_single","A21H2UDDHN8ZF","pain","3","","74","J","1","","0","0","1","","0.16102954","false","277","","0.1986275587","main_expt","","0.16102954","","0.0172565486","","0.2042268453","","","","","",""
"94","","bandit","353","1353692","0.0-315.0-0.0","88377512","wem/bandit_single","A21H2UDDHN8ZF","pain","3","","74","J","1","","0","0","1","","0.1166001048","false","278","","0.1321506531","main_expt","","0.1166001048","","0.02582715814","","0.1609113936","","","","","",""
"237","","bandit","354","1355745","0.0-316.0-0.0","88377512","wem/bandit_single","A21H2UDDHN8ZF","pain","3","","74","J","1","","0","0","1","","0.1427402012","false","279","","0.2112193978","main_expt","","0.1427402012","","0.03609925784","","0.1604878733","","","","","",""
"308","","bandit","355","1357875","0.0-317.0-0.0","88377512","wem/bandit_single","A21H2UDDHN8ZF","pain","3","","74","J","1","","0","0","1","","0.1524149458","false","280","","0.1872216356","main_expt","","0.1524149458","","0.02629944548","","0.1678567182","","","","","",""
"45","","bandit","356","1359781","0.0-318.0-0.0","88377512","wem/bandit_single","A21H2UDDHN8ZF","pain","3","","75","K","2","","0","0","1","","0.01890368782","false","281","","0.1635487084","main_expt","","0.1638207856","","0.01890368782","","0.1338700362","","","","","",""
"361","","bandit","357","1361961","0.0-319.0-0.0","88377512","wem/bandit_single","A21H2UDDHN8ZF","pain","3","","75","K","2","","0","0","1","","0.01508823693","false","282","","0.1576359327","main_expt","","0.1055747009","","0.01508823693","","0.2010661714","","","","","",""
"540","","bandit","358","1364309","0.0-320.0-0.0","88377512","wem/bandit_single","A21H2UDDHN8ZF","pain","3","","75","K","2","","0","0","1","","0.01359220223","false","283","","0.21861051","main_expt","","0.1121395768","","0.01359220223","","0.1763159594","","","","","",""
"434","","bandit","359","1366559","0.0-321.0-0.0","88377512","wem/bandit_single","A21H2UDDHN8ZF","pain","3","","75","K","2","","0","0","1","","0.01691173417","false","284","","0.180487154","main_expt","","0.1110051372","","0.01691173417","","0.2379754842","","","","","",""
"467","","bandit","360","1368876","0.0-322.0-0.0","88377512","wem/bandit_single","A21H2UDDHN8ZF","pain","3","","75","K","2","","0","0","1","","0.01734240677","false","285","","0.1641106304","main_expt","","0.1746572204","","0.01734240677","","0.2769670592","","","","","",""
"56","","bandit","361","1370715","0.0-323.0-0.0","88377512","wem/bandit_single","A21H2UDDHN8ZF","pain","3","","72","H","0","img/none_selected.jpg","0","0","1","","0.1866508097","false","286","","0.1866508097","main_expt","","0.2038956484","","0.01574531315","","0.3002963297","","","","","",""
"454","","bandit","362","1372951","0.0-324.0-0.0","88377512","wem/bandit_single","A21H2UDDHN8ZF","pain","3","","72","H","0","img/none_selected.jpg","0","1","0","","0.1339791425","false","287","","0.1339791425","main_expt","","0.2396876396","","0.011703364","","0.2804215723","","","","","",""
"388","","bandit","363","1375149","0.0-325.0-0.0","88377512","wem/bandit_single","A21H2UDDHN8ZF","pain","3","","72","H","0","img/none_selected.jpg","0","0","1","","0.1910191906","false","288","","0.1910191906","main_expt","","0.2300823482","","0.01499165326","","0.2873948651","","","","","",""
"261","","bandit","364","1377216","0.0-326.0-0.0","88377512","wem/bandit_single","A21H2UDDHN8ZF","pain","3","","72","H","0","img/none_selected.jpg","0","0","1","","0.1987886011","false","289","","0.1987886011","main_expt","","0.2697946193","","0.01307353483","","0.3383825142","","","","","",""
"421","","bandit","365","1379437","0.0-327.0-0.0","88377512","wem/bandit_single","A21H2UDDHN8ZF","pain","3","","72","H","0","img/none_selected.jpg","0","0","1","","0.2163493667","false","290","","0.2163493667","main_expt","","0.3030113395","","0.005839555229","","0.3597664772","","","","","",""
"457","","bandit","366","1381721","0.0-328.0-0.0","88377512","wem/bandit_single","A21H2UDDHN8ZF","pain","3","","72","H","0","img/none_selected.jpg","0","0","1","","0.1987756658","false","291","","0.1987756658","main_expt","","0.2903670118","","0.00760433752","","0.3684517111","","","","","",""
"828","","bandit","367","1384366","0.0-329.0-0.0","88377512","wem/bandit_single","A21H2UDDHN8ZF","pain","3","","72","H","0","img/none_selected.jpg","0","0","1","","0.1996771378","false","292","","0.1996771378","main_expt","","0.3219279298","","0.01807310376","","0.3471931258","","","","","",""
"271","","bandit","368","1386440","0.0-330.0-0.0","88377512","wem/bandit_single","A21H2UDDHN8ZF","pain","3","","72","H","0","img/none_selected.jpg","0","1","0","","0.2067525645","false","293","","0.2067525645","main_expt","","0.2585416619","","0.02882206876","","0.3742872252","","","","","",""
"313","","bandit","369","1388567","0.0-331.0-0.0","88377512","wem/bandit_single","A21H2UDDHN8ZF","pain","3","","72","H","0","img/none_selected.jpg","0","1","0","","0.230585761","false","294","","0.230585761","main_expt","","0.3093607287","","0.02728804169","","0.3937541296","","","","","",""
"545","","bandit","370","1390942","0.0-332.0-0.0","88377512","wem/bandit_single","A21H2UDDHN8ZF","pain","3","","72","H","0","img/none_selected.jpg","0","0","1","","0.1936278336","false","295","","0.1936278336","main_expt","","0.315069057","","0.01545304162","","0.3331550888","","","","","",""
"1377","","bandit","371","1394114","0.0-333.0-0.0","88377512","wem/bandit_single","A21H2UDDHN8ZF","pain","3","","72","H","0","img/none_selected.jpg","0","0","1","","0.1733248866","false","296","","0.1733248866","main_expt","","0.3556215031","","0.01463146341","","0.3564327955","","","","","",""
