"rt","responses","trial_type","trial_index","time_elapsed","internal_node_id","subjID","study","MID","cond","drift","key_press","respCharCode","respKey","respChoiceNum","respChoice","gems","bombs","no_reward","GemPrChosen","BombPrChosen","practice","trial_counter","WinPr_0","LosePr_0","trial_label","WinPr_1","LosePr_1","WinPr_2","LosePr_2","WinPr_3","LosePr_3","Q0","Q1","Q2","gender","age","ethnicity"
"18671","{""Q0"":""A4JU6ZFL8C1VG""}","survey-text","0","18680","0.0-0.0","89549857","wem/bandit_single","A4JU6ZFL8C1VG","gain","8","","","","","","","","","","","","","","","","","","","","","","","","","","",""
"1623","","text","1","21311","0.0-1.0","89549857","wem/bandit_single","A4JU6ZFL8C1VG","gain","8","32","","","","","","","","","","","","","","","","","","","","","","","","","",""
"3029","","text","2","24343","0.0-2.0","89549857","wem/bandit_single","A4JU6ZFL8C1VG","gain","8","32","","","","","","","","","","","","","","","","","","","","","","","","","",""
"11789","","text","3","36134","0.0-3.0","89549857","wem/bandit_single","A4JU6ZFL8C1VG","gain","8","32","","","","","","","","","","","","","","","","","","","","","","","","","",""
"8844","","text","4","44981","0.0-4.0","89549857","wem/bandit_single","A4JU6ZFL8C1VG","gain","8","32","","","","","","","","","","","","","","","","","","","","","","","","","",""
"6312","","text","5","51294","0.0-5.0","89549857","wem/bandit_single","A4JU6ZFL8C1VG","gain","8","32","","","","","","","","","","","","","","","","","","","","","","","","","",""
"4476","","text","6","55773","0.0-6.0","89549857","wem/bandit_single","A4JU6ZFL8C1VG","gain","8","32","","","","","","","","","","","","","","","","","","","","","","","","","",""
"2765","","text","7","58541","0.0-7.0","89549857","wem/bandit_single","A4JU6ZFL8C1VG","gain","8","32","","","","","","","","","","","","","","","","","","","","","","","","","",""
"3575","","text","8","62119","0.0-8.0","89549857","wem/bandit_single","A4JU6ZFL8C1VG","gain","8","32","","","","","","","","","","","","","","","","","","","","","","","","","",""
"2195","","text","9","64316","0.0-9.0","89549857","wem/bandit_single","A4JU6ZFL8C1VG","gain","8","32","","","","","","","","","","","","","","","","","","","","","","","","","",""
"2678","","text","10","66996","0.0-10.0","89549857","wem/bandit_single","A4JU6ZFL8C1VG","gain","8","32","","","","","","","","","","","","","","","","","","","","","","","","","",""
"8438","","text","11","75436","0.0-11.0","89549857","wem/bandit_single","A4JU6ZFL8C1VG","gain","8","32","","","","","","","","","","","","","","","","","","","","","","","","","",""
"1778","","bandit","12","78727","0.0-12.0-0.0","89549857","wem/bandit_single","A4JU6ZFL8C1VG","gain","8","","74","J","0","img/none_selected_demo.jpg","0","0","1","0","0","true","0","0","0","","","","","","","","","","","","",""
"986","","bandit","13","81480","0.0-13.0-0.0","89549857","wem/bandit_single","A4JU6ZFL8C1VG","gain","8","","75","K","0","img/none_selected_demo.jpg","0","0","1","0","0","true","0","0","0","","","","","","","","","","","","",""
"3186","","text","14","84922","0.0-14.0","89549857","wem/bandit_single","A4JU6ZFL8C1VG","gain","8","32","","","","","","","","","","","","","","","","","","","","","","","","","",""
"1092","","text","15","86017","0.0-15.0","89549857","wem/bandit_single","A4JU6ZFL8C1VG","gain","8","32","","","","","","","","","","","","","","","","","","","","","","","","","",""
"2630","","text","16","88649","0.0-16.0","89549857","wem/bandit_single","A4JU6ZFL8C1VG","gain","8","32","","","","","","","","","","","","","","","","","","","","","","","","","",""
"2933","","text","17","91585","0.0-17.0","89549857","wem/bandit_single","A4JU6ZFL8C1VG","gain","8","32","","","","","","","","","","","","","","","","","","","","","","","","","",""
"2468","","bandit","18","95562","0.0-18.0-0.0","89549857","wem/bandit_single","A4JU6ZFL8C1VG","gain","8","","74","J","0","img/none_selected_demo.jpg","1","0","0","0.8","0","true","0","0.8","0","80_20_practice","0.2","0","","","","","","","","","",""
"310","","bandit","19","97637","0.0-18.0-1.0","89549857","wem/bandit_single","A4JU6ZFL8C1VG","gain","8","","74","J","0","img/none_selected_demo.jpg","1","0","0","0.8","0","true","0","0.8","0","80_20_practice","0.2","0","","","","","","","","","",""
"218","","bandit","20","99620","0.0-18.0-2.0","89549857","wem/bandit_single","A4JU6ZFL8C1VG","gain","8","","74","J","0","img/none_selected_demo.jpg","1","0","0","0.8","0","true","0","0.8","0","80_20_practice","0.2","0","","","","","","","","","",""
"210","","bandit","21","101595","0.0-18.0-3.0","89549857","wem/bandit_single","A4JU6ZFL8C1VG","gain","8","","74","J","0","img/none_selected_demo.jpg","0","0","1","0.8","0","true","0","0.8","0","80_20_practice","0.2","0","","","","","","","","","",""
"514","","bandit","22","103871","0.0-18.0-4.0","89549857","wem/bandit_single","A4JU6ZFL8C1VG","gain","8","","74","J","0","img/none_selected_demo.jpg","1","0","0","0.8","0","true","0","0.8","0","80_20_practice","0.2","0","","","","","","","","","",""
"218","","bandit","23","105855","0.0-18.0-5.0","89549857","wem/bandit_single","A4JU6ZFL8C1VG","gain","8","","74","J","0","img/none_selected_demo.jpg","1","0","0","0.8","0","true","0","0.8","0","80_20_practice","0.2","0","","","","","","","","","",""
"154","","bandit","24","107775","0.0-18.0-6.0","89549857","wem/bandit_single","A4JU6ZFL8C1VG","gain","8","","74","J","0","img/none_selected_demo.jpg","0","0","1","0.8","0","true","0","0.8","0","80_20_practice","0.2","0","","","","","","","","","",""
"126","","bandit","25","109668","0.0-18.0-7.0","89549857","wem/bandit_single","A4JU6ZFL8C1VG","gain","8","","74","J","0","img/none_selected_demo.jpg","1","0","0","0.8","0","true","0","0.8","0","80_20_practice","0.2","0","","","","","","","","","",""
"173","","bandit","26","111607","0.0-18.0-8.0","89549857","wem/bandit_single","A4JU6ZFL8C1VG","gain","8","","74","J","0","img/none_selected_demo.jpg","1","0","0","0.8","0","true","0","0.8","0","80_20_practice","0.2","0","","","","","","","","","",""
"240","","bandit","27","113615","0.0-18.0-9.0","89549857","wem/bandit_single","A4JU6ZFL8C1VG","gain","8","","74","J","0","img/none_selected_demo.jpg","1","0","0","0.8","0","true","0","0.8","0","80_20_practice","0.2","0","","","","","","","","","",""
"79","","bandit","28","115461","0.0-18.0-10.0","89549857","wem/bandit_single","A4JU6ZFL8C1VG","gain","8","","74","J","0","img/none_selected_demo.jpg","0","0","1","0.8","0","true","0","0.8","0","80_20_practice","0.2","0","","","","","","","","","",""
"145","","bandit","29","117371","0.0-18.0-11.0","89549857","wem/bandit_single","A4JU6ZFL8C1VG","gain","8","","74","J","0","img/none_selected_demo.jpg","1","0","0","0.8","0","true","0","0.8","0","80_20_practice","0.2","0","","","","","","","","","",""
"140","","bandit","30","119275","0.0-18.0-12.0","89549857","wem/bandit_single","A4JU6ZFL8C1VG","gain","8","","74","J","0","img/none_selected_demo.jpg","1","0","0","0.8","0","true","0","0.8","0","80_20_practice","0.2","0","","","","","","","","","",""
"139","","bandit","31","121179","0.0-18.0-13.0","89549857","wem/bandit_single","A4JU6ZFL8C1VG","gain","8","","74","J","0","img/none_selected_demo.jpg","1","0","0","0.8","0","true","0","0.8","0","80_20_practice","0.2","0","","","","","","","","","",""
"59","","bandit","32","123001","0.0-18.0-14.0","89549857","wem/bandit_single","A4JU6ZFL8C1VG","gain","8","","75","K","1","","0","0","1","0.2","0","true","0","0.8","0","80_20_practice","0.2","0","","","","","","","","","",""
"333","","bandit","33","125094","0.0-18.0-15.0","89549857","wem/bandit_single","A4JU6ZFL8C1VG","gain","8","","74","J","0","img/none_selected_demo.jpg","0","0","1","0.8","0","true","0","0.8","0","80_20_practice","0.2","0","","","","","","","","","",""
"138","","bandit","34","126995","0.0-18.0-16.0","89549857","wem/bandit_single","A4JU6ZFL8C1VG","gain","8","","74","J","0","img/none_selected_demo.jpg","1","0","0","0.8","0","true","0","0.8","0","80_20_practice","0.2","0","","","","","","","","","",""
"98","","bandit","35","128858","0.0-18.0-17.0","89549857","wem/bandit_single","A4JU6ZFL8C1VG","gain","8","","74","J","0","img/none_selected_demo.jpg","0","0","1","0.8","0","true","0","0.8","0","80_20_practice","0.2","0","","","","","","","","","",""
"532","","bandit","36","131151","0.0-18.0-18.0","89549857","wem/bandit_single","A4JU6ZFL8C1VG","gain","8","","74","J","0","img/none_selected_demo.jpg","1","0","0","0.8","0","true","0","0.8","0","80_20_practice","0.2","0","","","","","","","","","",""
"70","","bandit","37","132983","0.0-18.0-19.0","89549857","wem/bandit_single","A4JU6ZFL8C1VG","gain","8","","74","J","0","img/none_selected_demo.jpg","1","0","0","0.8","0","true","0","0.8","0","80_20_practice","0.2","0","","","","","","","","","",""
"67","","text","38","133304","0.0-19.0","89549857","wem/bandit_single","A4JU6ZFL8C1VG","gain","8","32","","","","","","","","","","","","","","","","","","","","","","","","","",""
"1883","","bandit","39","136701","0.0-20.0-0.0","89549857","wem/bandit_single","A4JU6ZFL8C1VG","gain","8","","74","J","0","img/none_selected_demo.jpg","0","0","1","0","0","true","0","0","0","","0","0","","","","","","","","","",""
"3418","","text","40","140375","0.0-21.0","89549857","wem/bandit_single","A4JU6ZFL8C1VG","gain","8","32","","","","","","","","","","","","","","","","","","","","","","","","","",""
"3269","","text","41","143646","0.0-22.0","89549857","wem/bandit_single","A4JU6ZFL8C1VG","gain","8","32","","","","","","","","","","","","","","","","","","","","","","","","","",""
"1773","","text","42","145421","0.0-23.0","89549857","wem/bandit_single","A4JU6ZFL8C1VG","gain","8","32","","","","","","","","","","","","","","","","","","","","","","","","","",""
"2022","","text","43","147446","0.0-24.0","89549857","wem/bandit_single","A4JU6ZFL8C1VG","gain","8","32","","","","","","","","","","","","","","","","","","","","","","","","","",""
"4474","","text","44","151923","0.0-25.0","89549857","wem/bandit_single","A4JU6ZFL8C1VG","gain","8","32","","","","","","","","","","","","","","","","","","","","","","","","","",""
"2181","","text","45","154106","0.0-26.0","89549857","wem/bandit_single","A4JU6ZFL8C1VG","gain","8","32","","","","","","","","","","","","","","","","","","","","","","","","","",""
"2317","","text","46","156426","0.0-27.0","89549857","wem/bandit_single","A4JU6ZFL8C1VG","gain","8","32","","","","","","","","","","","","","","","","","","","","","","","","","",""
"1958","","text","47","158386","0.0-28.0","89549857","wem/bandit_single","A4JU6ZFL8C1VG","gain","8","32","","","","","","","","","","","","","","","","","","","","","","","","","",""
"2333","","text","48","160722","0.0-29.0","89549857","wem/bandit_single","A4JU6ZFL8C1VG","gain","8","32","","","","","","","","","","","","","","","","","","","","","","","","","",""
"2262","","text","49","162987","0.0-30.0","89549857","wem/bandit_single","A4JU6ZFL8C1VG","gain","8","32","","","","","","","","","","","","","","","","","","","","","","","","","",""
"3916","","text","50","166906","0.0-31.0","89549857","wem/bandit_single","A4JU6ZFL8C1VG","gain","8","32","","","","","","","","","","","","","","","","","","","","","","","","","",""
"1036","","bandit","51","169454","0.0-32.0-0.0","89549857","wem/bandit_single","A4JU6ZFL8C1VG","gain","8","","72","H","0","img/none_selected.jpg","1","0","0","0.8","0","true","0","0.8","0","full_practice","0.2","0","0.6","0","0.2","0","","","","","",""
"20","","bandit","52","171349","0.0-32.0-1.0","89549857","wem/bandit_single","A4JU6ZFL8C1VG","gain","8","","72","H","0","img/none_selected.jpg","0","0","1","0.8","0","true","0","0.8","0","full_practice","0.2","0","0.6","0","0.2","0","","","","","",""
"39","","bandit","53","173158","0.0-32.0-2.0","89549857","wem/bandit_single","A4JU6ZFL8C1VG","gain","8","","72","H","0","img/none_selected.jpg","1","0","0","0.8","0","true","0","0.8","0","full_practice","0.2","0","0.6","0","0.2","0","","","","","",""
"114","","bandit","54","175036","0.0-32.0-3.0","89549857","wem/bandit_single","A4JU6ZFL8C1VG","gain","8","","74","J","1","","0","0","1","0.2","0","true","0","0.8","0","full_practice","0.2","0","0.6","0","0.2","0","","","","","",""
"1013","","bandit","55","177863","0.0-32.0-4.0","89549857","wem/bandit_single","A4JU6ZFL8C1VG","gain","8","","75","K","2","","0","0","1","0.6","0","true","0","0.8","0","full_practice","0.2","0","0.6","0","0.2","0","","","","","",""
"25","","bandit","56","179651","0.0-32.0-5.0","89549857","wem/bandit_single","A4JU6ZFL8C1VG","gain","8","","76","L","3","","1","0","0","0.2","0","true","0","0.8","0","full_practice","0.2","0","0.6","0","0.2","0","","","","","",""
"44","","bandit","57","181462","0.0-32.0-6.0","89549857","wem/bandit_single","A4JU6ZFL8C1VG","gain","8","","76","L","3","","0","0","1","0.2","0","true","0","0.8","0","full_practice","0.2","0","0.6","0","0.2","0","","","","","",""
"113","","bandit","58","183337","0.0-32.0-7.0","89549857","wem/bandit_single","A4JU6ZFL8C1VG","gain","8","","76","L","3","","0","0","1","0.2","0","true","0","0.8","0","full_practice","0.2","0","0.6","0","0.2","0","","","","","",""
"416","","bandit","59","185517","0.0-32.0-8.0","89549857","wem/bandit_single","A4JU6ZFL8C1VG","gain","8","","72","H","0","img/none_selected.jpg","1","0","0","0.8","0","true","0","0.8","0","full_practice","0.2","0","0.6","0","0.2","0","","","","","",""
"160","","bandit","60","187446","0.0-32.0-9.0","89549857","wem/bandit_single","A4JU6ZFL8C1VG","gain","8","","72","H","0","img/none_selected.jpg","1","0","0","0.8","0","true","0","0.8","0","full_practice","0.2","0","0.6","0","0.2","0","","","","","",""
"1110","","bandit","61","190335","0.0-32.0-10.0","89549857","wem/bandit_single","A4JU6ZFL8C1VG","gain","8","","72","H","0","img/none_selected.jpg","1","0","0","0.8","0","true","0","0.8","0","full_practice","0.2","0","0.6","0","0.2","0","","","","","",""
"38","","bandit","62","192135","0.0-32.0-11.0","89549857","wem/bandit_single","A4JU6ZFL8C1VG","gain","8","","72","H","0","img/none_selected.jpg","1","0","0","0.8","0","true","0","0.8","0","full_practice","0.2","0","0.6","0","0.2","0","","","","","",""
"86","","bandit","63","193987","0.0-32.0-12.0","89549857","wem/bandit_single","A4JU6ZFL8C1VG","gain","8","","72","H","0","img/none_selected.jpg","1","0","0","0.8","0","true","0","0.8","0","full_practice","0.2","0","0.6","0","0.2","0","","","","","",""
"43","","bandit","64","195800","0.0-32.0-13.0","89549857","wem/bandit_single","A4JU6ZFL8C1VG","gain","8","","72","H","0","img/none_selected.jpg","1","0","0","0.8","0","true","0","0.8","0","full_practice","0.2","0","0.6","0","0.2","0","","","","","",""
"743","","bandit","65","198307","0.0-32.0-14.0","89549857","wem/bandit_single","A4JU6ZFL8C1VG","gain","8","","72","H","0","img/none_selected.jpg","1","0","0","0.8","0","true","0","0.8","0","full_practice","0.2","0","0.6","0","0.2","0","","","","","",""
"131","","bandit","66","200200","0.0-32.0-15.0","89549857","wem/bandit_single","A4JU6ZFL8C1VG","gain","8","","72","H","0","img/none_selected.jpg","1","0","0","0.8","0","true","0","0.8","0","full_practice","0.2","0","0.6","0","0.2","0","","","","","",""
"17","","bandit","67","202006","0.0-32.0-16.0","89549857","wem/bandit_single","A4JU6ZFL8C1VG","gain","8","","72","H","0","img/none_selected.jpg","1","0","0","0.8","0","true","0","0.8","0","full_practice","0.2","0","0.6","0","0.2","0","","","","","",""
"95","","bandit","68","203868","0.0-32.0-17.0","89549857","wem/bandit_single","A4JU6ZFL8C1VG","gain","8","","72","H","0","img/none_selected.jpg","0","0","1","0.8","0","true","0","0.8","0","full_practice","0.2","0","0.6","0","0.2","0","","","","","",""
"91","","bandit","69","205726","0.0-32.0-18.0","89549857","wem/bandit_single","A4JU6ZFL8C1VG","gain","8","","72","H","0","img/none_selected.jpg","1","0","0","0.8","0","true","0","0.8","0","full_practice","0.2","0","0.6","0","0.2","0","","","","","",""
"121","","bandit","70","207612","0.0-32.0-19.0","89549857","wem/bandit_single","A4JU6ZFL8C1VG","gain","8","","72","H","0","img/none_selected.jpg","1","0","0","0.8","0","true","0","0.8","0","full_practice","0.2","0","0.6","0","0.2","0","","","","","",""
"1684","","text","71","209560","0.0-33.0","89549857","wem/bandit_single","A4JU6ZFL8C1VG","gain","8","32","","","","","","","","","","","","","","","","","","","","","","","","","",""
"4960","","text","72","215526","0.0-34.0","89549857","wem/bandit_single","A4JU6ZFL8C1VG","gain","8","32","","","","","","","","","","","","","","","","","","","","","","","","","",""
"3166","","text","73","218695","0.0-35.0","89549857","wem/bandit_single","A4JU6ZFL8C1VG","gain","8","32","","","","","","","","","","","","","","","","","","","","","","","","","",""
"3600","","text","74","222302","0.0-36.0","89549857","wem/bandit_single","A4JU6ZFL8C1VG","gain","8","32","","","","","","","","","","","","","","","","","","","","","","","","","",""
"2308","","text","75","224614","0.0-37.0","89549857","wem/bandit_single","A4JU6ZFL8C1VG","gain","8","32","","","","","","","","","","","","","","","","","","","","","","","","","",""
"1675","","bandit","76","227798","0.0-38.0-0.0","89549857","wem/bandit_single","A4JU6ZFL8C1VG","gain","8","","72","H","0","img/none_selected.jpg","1","0","0","0.461186604","","false","1","0.461186604","","main_expt","0.4519399214","","0.2895646149","","0.2726752288","","","","","","",""
"148","","bandit","77","229723","0.0-39.0-0.0","89549857","wem/bandit_single","A4JU6ZFL8C1VG","gain","8","","72","H","0","img/none_selected.jpg","0","0","1","0.4745384616","","false","2","0.4745384616","","main_expt","0.4414774062","","0.3162770887","","0.2373300031","","","","","","",""
"130","","bandit","78","231620","0.0-40.0-0.0","89549857","wem/bandit_single","A4JU6ZFL8C1VG","gain","8","","72","H","0","img/none_selected.jpg","0","0","1","0.476270309","","false","3","0.476270309","","main_expt","0.4248782664","","0.3445892231","","0.2268539811","","","","","","",""
"214","","bandit","79","233601","0.0-41.0-0.0","89549857","wem/bandit_single","A4JU6ZFL8C1VG","gain","8","","74","J","1","","1","0","0","0.3797460064","","false","4","0.4750198572","","main_expt","0.3797460064","","0.318720175","","0.2312911009","","","","","","",""
"74","","bandit","80","235441","0.0-42.0-0.0","89549857","wem/bandit_single","A4JU6ZFL8C1VG","gain","8","","74","J","1","","0","0","1","0.3747955817","","false","5","0.4711191004","","main_expt","0.3747955817","","0.2768356494","","0.1875260819","","","","","","",""
"99","","bandit","81","237304","0.0-43.0-0.0","89549857","wem/bandit_single","A4JU6ZFL8C1VG","gain","8","","74","J","1","","1","0","0","0.3434652127","","false","6","0.4561500297","","main_expt","0.3434652127","","0.2660169375","","0.190272436","","","","","","",""
"51","","bandit","82","239121","0.0-44.0-0.0","89549857","wem/bandit_single","A4JU6ZFL8C1VG","gain","8","","74","J","1","","0","0","1","0.3450192323","","false","7","0.4549462182","","main_expt","0.3450192323","","0.3364590491","","0.1912500229","","","","","","",""
"52","","bandit","83","240941","0.0-45.0-0.0","89549857","wem/bandit_single","A4JU6ZFL8C1VG","gain","8","","74","J","1","","0","0","1","0.3319287687","","false","8","0.4738433377","","main_expt","0.3319287687","","0.2814314702","","0.2317086102","","","","","","",""
"343","","bandit","84","243051","0.0-46.0-0.0","89549857","wem/bandit_single","A4JU6ZFL8C1VG","gain","8","","75","K","2","","1","0","0","0.172204453","","false","9","0.4719526371","","main_expt","0.3592879842","","0.172204453","","0.2732709622","","","","","","",""
"127","","bandit","85","244942","0.0-47.0-0.0","89549857","wem/bandit_single","A4JU6ZFL8C1VG","gain","8","","75","K","2","","0","0","1","0.1714760066","","false","10","0.4102917743","","main_expt","0.4119036765","","0.1714760066","","0.2369361721","","","","","","",""
"123","","bandit","86","246830","0.0-48.0-0.0","89549857","wem/bandit_single","A4JU6ZFL8C1VG","gain","8","","75","K","2","","0","0","1","0.1477319919","","false","11","0.4247485268","","main_expt","0.440335537","","0.1477319919","","0.2428480584","","","","","","",""
"84","","bandit","87","248679","0.0-49.0-0.0","89549857","wem/bandit_single","A4JU6ZFL8C1VG","gain","8","","76","L","3","","0","0","1","0.3127978045","","false","12","0.3805001106","","main_expt","0.4198069009","","0.1195530135","","0.3127978045","","","","","","",""
"23","","bandit","88","250461","0.0-50.0-0.0","89549857","wem/bandit_single","A4JU6ZFL8C1VG","gain","8","","72","H","0","img/none_selected.jpg","1","0","0","0.3922463094","","false","13","0.3922463094","","main_expt","0.4095272681","","0.1097065617","","0.3411181312","","","","","","",""
"44","","bandit","89","252275","0.0-51.0-0.0","89549857","wem/bandit_single","A4JU6ZFL8C1VG","gain","8","","72","H","0","img/none_selected.jpg","0","0","1","0.3385893542","","false","14","0.3385893542","","main_expt","0.4393311008","","0.1146709003","","0.3547490374","","","","","","",""
"72","","bandit","90","254115","0.0-52.0-0.0","89549857","wem/bandit_single","A4JU6ZFL8C1VG","gain","8","","72","H","0","img/none_selected.jpg","0","0","1","0.2580729479","","false","15","0.2580729479","","main_expt","0.4232641195","","0.105598426","","0.3447780093","","","","","","",""
"96","","bandit","91","255978","0.0-53.0-0.0","89549857","wem/bandit_single","A4JU6ZFL8C1VG","gain","8","","74","J","1","","1","0","0","0.408879381","","false","16","0.3126944558","","main_expt","0.408879381","","0.1085338479","","0.3451486401","","","","","","",""
"129","","bandit","92","257870","0.0-54.0-0.0","89549857","wem/bandit_single","A4JU6ZFL8C1VG","gain","8","","74","J","1","","1","0","0","0.376774317","","false","17","0.3693960878","","main_expt","0.376774317","","0.1267686316","","0.3788599072","","","","","","",""
"45","","bandit","93","259681","0.0-55.0-0.0","89549857","wem/bandit_single","A4JU6ZFL8C1VG","gain","8","","74","J","1","","0","0","1","0.4245824949","","false","18","0.3881723811","","main_expt","0.4245824949","","0.2161611973","","0.3977159439","","","","","","",""
"106","","bandit","94","261551","0.0-56.0-0.0","89549857","wem/bandit_single","A4JU6ZFL8C1VG","gain","8","","74","J","1","","0","0","1","0.4391895307","","false","19","0.3762380044","","main_expt","0.4391895307","","0.2028493804","","0.3885232362","","","","","","",""
"79","","bandit","95","263397","0.0-57.0-0.0","89549857","wem/bandit_single","A4JU6ZFL8C1VG","gain","8","","74","J","1","","1","0","0","0.4621127774","","false","20","0.3842023068","","main_expt","0.4621127774","","0.2258994585","","0.3985462001","","","","","","",""
"6","","bandit","96","265166","0.0-58.0-0.0","89549857","wem/bandit_single","A4JU6ZFL8C1VG","gain","8","","74","J","1","","0","0","1","0.4621164646","","false","21","0.3509270449","","main_expt","0.4621164646","","0.1591174119","","0.349749023","","","","","","",""
"67","","bandit","97","267001","0.0-59.0-0.0","89549857","wem/bandit_single","A4JU6ZFL8C1VG","gain","8","","72","H","0","img/none_selected.jpg","0","0","1","0.3777441782","","false","22","0.3777441782","","main_expt","0.4347396303","","0.1526874152","","0.3437713834","","","","","","",""
"65","","bandit","98","268830","0.0-60.0-0.0","89549857","wem/bandit_single","A4JU6ZFL8C1VG","gain","8","","72","H","0","img/none_selected.jpg","0","0","1","0.3799964268","","false","23","0.3799964268","","main_expt","0.43496863","","0.1461335862","","0.3608333873","","","","","","",""
"69","","bandit","99","270664","0.0-61.0-0.0","89549857","wem/bandit_single","A4JU6ZFL8C1VG","gain","8","","74","J","1","","0","0","1","0.43684491","","false","24","0.4097073291","","main_expt","0.43684491","","0.194032511","","0.3832767268","","","","","","",""
"554","","bandit","100","272981","0.0-62.0-0.0","89549857","wem/bandit_single","A4JU6ZFL8C1VG","gain","8","","75","K","2","","0","0","1","0.1913779305","","false","25","0.4196977393","","main_expt","0.3785768995","","0.1913779305","","0.3839685871","","","","","","",""
"56","","bandit","101","274802","0.0-63.0-0.0","89549857","wem/bandit_single","A4JU6ZFL8C1VG","gain","8","","76","L","3","","0","0","1","0.3871157951","","false","26","0.3798545817","","main_expt","0.3754964585","","0.2830828826","","0.3871157951","","","","","","",""
"359","","bandit","102","276954","0.0-64.0-0.0","89549857","wem/bandit_single","A4JU6ZFL8C1VG","gain","8","","74","J","1","","0","0","1","0.3964499655","","false","27","0.3531061786","","main_expt","0.3964499655","","0.3268824087","","0.4093540125","","","","","","",""
"54","","bandit","103","278772","0.0-65.0-0.0","89549857","wem/bandit_single","A4JU6ZFL8C1VG","gain","8","","72","H","0","img/none_selected.jpg","0","0","1","0.3327392046","","false","28","0.3327392046","","main_expt","0.4243602908","","0.3092871108","","0.3781829904","","","","","","",""
"36","","bandit","104","280573","0.0-66.0-0.0","89549857","wem/bandit_single","A4JU6ZFL8C1VG","gain","8","","72","H","0","img/none_selected.jpg","0","0","1","0.2799969064","","false","29","0.2799969064","","main_expt","0.4296462108","","0.299803321","","0.3633234486","","","","","","",""
"13","","bandit","105","282349","0.0-67.0-0.0","89549857","wem/bandit_single","A4JU6ZFL8C1VG","gain","8","","74","J","1","","1","0","0","0.4442153724","","false","30","0.225268033","","main_expt","0.4442153724","","0.3318792252","","0.395486831","","","","","","",""
"76","","bandit","106","284189","0.0-68.0-0.0","89549857","wem/bandit_single","A4JU6ZFL8C1VG","gain","8","","74","J","1","","0","0","1","0.4425075274","","false","31","0.2195205817","","main_expt","0.4425075274","","0.3274080626","","0.353932484","","","","","","",""
"45","","bandit","107","286001","0.0-69.0-0.0","89549857","wem/bandit_single","A4JU6ZFL8C1VG","gain","8","","74","J","1","","1","0","0","0.4038806219","","false","32","0.2569702332","","main_expt","0.4038806219","","0.3233555863","","0.3902442546","","","","","","",""
"226","","bandit","108","287992","0.0-70.0-0.0","89549857","wem/bandit_single","A4JU6ZFL8C1VG","gain","8","","74","J","1","","1","0","0","0.4283701542","","false","33","0.2914027765","","main_expt","0.4283701542","","0.3836123675","","0.3727342875","","","","","","",""
"114","","bandit","109","289872","0.0-71.0-0.0","89549857","wem/bandit_single","A4JU6ZFL8C1VG","gain","8","","74","J","1","","0","0","1","0.4332078231","","false","34","0.2667004126","","main_expt","0.4332078231","","0.4200589335","","0.3940120807","","","","","","",""
"191","","bandit","110","291826","0.0-72.0-0.0","89549857","wem/bandit_single","A4JU6ZFL8C1VG","gain","8","","74","J","1","","0","0","1","0.3861361583","","false","35","0.3112773703","","main_expt","0.3861361583","","0.4280145355","","0.3682756201","","","","","","",""
"72","","bandit","111","293662","0.0-73.0-0.0","89549857","wem/bandit_single","A4JU6ZFL8C1VG","gain","8","","75","K","2","","1","0","0","0.3696194815","","false","36","0.3158013471","","main_expt","0.3176889815","","0.3696194815","","0.4136743311","","","","","","",""
"74","","bandit","112","295500","0.0-74.0-0.0","89549857","wem/bandit_single","A4JU6ZFL8C1VG","gain","8","","75","K","2","","0","0","1","0.3567242832","","false","37","0.3348696363","","main_expt","0.3333355096","","0.3567242832","","0.449594317","","","","","","",""
"99","","bandit","113","297366","0.0-75.0-0.0","89549857","wem/bandit_single","A4JU6ZFL8C1VG","gain","8","","75","K","2","","0","0","1","0.3139752797","","false","38","0.2967031697","","main_expt","0.3613286773","","0.3139752797","","0.4427192246","","","","","","",""
"91","","bandit","114","299224","0.0-76.0-0.0","89549857","wem/bandit_single","A4JU6ZFL8C1VG","gain","8","","75","K","2","","1","0","0","0.2884672813","","false","39","0.2816090282","","main_expt","0.3354588101","","0.2884672813","","0.4375360897","","","","","","",""
"90","","bandit","115","301087","0.0-77.0-0.0","89549857","wem/bandit_single","A4JU6ZFL8C1VG","gain","8","","75","K","2","","0","0","1","0.3253538103","","false","40","0.2900329111","","main_expt","0.4044898685","","0.3253538103","","0.452648821","","","","","","",""
"58","","bandit","116","302909","0.0-78.0-0.0","89549857","wem/bandit_single","A4JU6ZFL8C1VG","gain","8","","75","K","2","","0","0","1","0.2782289032","","false","41","0.3160732104","","main_expt","0.3615903795","","0.2782289032","","0.4689255384","","","","","","",""
"44","","bandit","117","304721","0.0-79.0-0.0","89549857","wem/bandit_single","A4JU6ZFL8C1VG","gain","8","","75","K","2","","0","0","1","0.2378060085","","false","42","0.370849222","","main_expt","0.3239257876","","0.2378060085","","0.470096522","","","","","","",""
"11","","bandit","118","306503","0.0-80.0-0.0","89549857","wem/bandit_single","A4JU6ZFL8C1VG","gain","8","","76","L","3","","0","0","1","0.4349244256","","false","43","0.385301305","","main_expt","0.2907144625","","0.2250536993","","0.4349244256","","","","","","",""
"255","","bandit","119","308526","0.0-81.0-0.0","89549857","wem/bandit_single","A4JU6ZFL8C1VG","gain","8","","72","H","0","img/none_selected.jpg","0","0","1","0.416838688","","false","44","0.416838688","","main_expt","0.2937558929","","0.2132249492","","0.4316966947","","","","","","",""
"41","","bandit","120","310341","0.0-82.0-0.0","89549857","wem/bandit_single","A4JU6ZFL8C1VG","gain","8","","74","J","1","","1","0","0","0.3667346614","","false","45","0.3927526088","","main_expt","0.3667346614","","0.2669052982","","0.4526201082","","","","","","",""
"84","","bandit","121","312192","0.0-83.0-0.0","89549857","wem/bandit_single","A4JU6ZFL8C1VG","gain","8","","74","J","1","","0","0","1","0.4084803937","","false","46","0.3789336214","","main_expt","0.4084803937","","0.259601005","","0.4696962879","","","","","","",""
"33","","bandit","122","313992","0.0-84.0-0.0","89549857","wem/bandit_single","A4JU6ZFL8C1VG","gain","8","","75","K","2","","0","0","1","0.2442503122","","false","47","0.3994803113","","main_expt","0.3956447052","","0.2442503122","","0.4591824552","","","","","","",""
"100","","bandit","123","315861","0.0-85.0-0.0","89549857","wem/bandit_single","A4JU6ZFL8C1VG","gain","8","","75","K","2","","1","0","0","0.2427668164","","false","48","0.3570668153","","main_expt","0.3859230678","","0.2427668164","","0.4548607847","","","","","","",""
"132","","bandit","124","317756","0.0-86.0-0.0","89549857","wem/bandit_single","A4JU6ZFL8C1VG","gain","8","","75","K","2","","0","0","1","0.218731525","","false","49","0.3500417472","","main_expt","0.394993817","","0.218731525","","0.4625410341","","","","","","",""
"76","","bandit","125","319602","0.0-87.0-0.0","89549857","wem/bandit_single","A4JU6ZFL8C1VG","gain","8","","75","K","2","","0","0","1","0.2187604329","","false","50","0.3110114061","","main_expt","0.4358915385","","0.2187604329","","0.4620574215","","","","","","",""
"60","","bandit","126","321425","0.0-88.0-0.0","89549857","wem/bandit_single","A4JU6ZFL8C1VG","gain","8","","75","K","2","","1","0","0","0.2764450854","","false","51","0.3165374422","","main_expt","0.4437026926","","0.2764450854","","0.4573118055","","","","","","",""
"54","","bandit","127","323244","0.0-89.0-0.0","89549857","wem/bandit_single","A4JU6ZFL8C1VG","gain","8","","75","K","2","","1","0","0","0.2735561336","","false","52","0.3212783944","","main_expt","0.4357441266","","0.2735561336","","0.4577170033","","","","","","",""
"55","","bandit","128","325084","0.0-90.0-0.0","89549857","wem/bandit_single","A4JU6ZFL8C1VG","gain","8","","75","K","2","","0","0","1","0.2558353256","","false","53","0.3079714244","","main_expt","0.3926545571","","0.2558353256","","0.4599667981","","","","","","",""
"46","","bandit","129","326896","0.0-91.0-0.0","89549857","wem/bandit_single","A4JU6ZFL8C1VG","gain","8","","75","K","2","","0","0","1","0.2856473895","","false","54","0.3538619638","","main_expt","0.3841940555","","0.2856473895","","0.4598989899","","","","","","",""
"16","","bandit","130","328676","0.0-92.0-0.0","89549857","wem/bandit_single","A4JU6ZFL8C1VG","gain","8","","74","J","1","","0","0","1","0.3733442546","","false","55","0.3390258849","","main_expt","0.3733442546","","0.3110799389","","0.4371040197","","","","","","",""
"23","","bandit","131","330464","0.0-93.0-0.0","89549857","wem/bandit_single","A4JU6ZFL8C1VG","gain","8","","74","J","1","","1","0","0","0.3500738246","","false","56","0.3282580673","","main_expt","0.3500738246","","0.2862995849","","0.3889704242","","","","","","",""
"85","","bandit","132","332317","0.0-94.0-0.0","89549857","wem/bandit_single","A4JU6ZFL8C1VG","gain","8","","75","K","2","","0","0","1","0.3029349154","","false","57","0.3014999451","","main_expt","0.3265916347","","0.3029349154","","0.4089883961","","","","","","",""
"475","","bandit","133","334556","0.0-95.0-0.0","89549857","wem/bandit_single","A4JU6ZFL8C1VG","gain","8","","75","K","2","","0","0","1","0.282602966","","false","58","0.2895525025","","main_expt","0.3203483638","","0.282602966","","0.3682078294","","","","","","",""
"34","","bandit","134","336357","0.0-96.0-0.0","89549857","wem/bandit_single","A4JU6ZFL8C1VG","gain","8","","75","K","2","","0","0","1","0.3271218703","","false","59","0.2538740387","","main_expt","0.258324817","","0.3271218703","","0.426053772","","","","","","",""
"2","","bandit","135","338128","0.0-97.0-0.0","89549857","wem/bandit_single","A4JU6ZFL8C1VG","gain","8","","75","K","2","","0","0","1","0.2978757068","","false","60","0.2509640494","","main_expt","0.2527557167","","0.2978757068","","0.4175969639","","","","","","",""
"11","","bandit","136","339910","0.0-98.0-0.0","89549857","wem/bandit_single","A4JU6ZFL8C1VG","gain","8","","74","J","1","","0","0","1","0.2925705146","","false","61","0.1930295055","","main_expt","0.2925705146","","0.1922553384","","0.4124946444","","","","","","",""
"149","","bandit","137","341820","0.0-99.0-0.0","89549857","wem/bandit_single","A4JU6ZFL8C1VG","gain","8","","72","H","0","img/none_selected.jpg","0","0","1","0.1259826115","","false","62","0.1259826115","","main_expt","0.310648962","","0.1408400783","","0.4077217862","","","","","","",""
"230","","bandit","138","343811","0.0-100.0-0.0","89549857","wem/bandit_single","A4JU6ZFL8C1VG","gain","8","","72","H","0","img/none_selected.jpg","0","0","1","0.1388804293","","false","63","0.1388804293","","main_expt","0.3175489896","","0.1779610645","","0.4258821936","","","","","","",""
"29","","bandit","139","345601","0.0-101.0-0.0","89549857","wem/bandit_single","A4JU6ZFL8C1VG","gain","8","","74","J","1","","0","0","1","0.2756852574","","false","64","0.1412297375","","main_expt","0.2756852574","","0.1733040919","","0.4314195329","","","","","","",""
"132","","bandit","140","347503","0.0-102.0-0.0","89549857","wem/bandit_single","A4JU6ZFL8C1VG","gain","8","","74","J","1","","0","0","1","0.2798966648","","false","65","0.07856201072","","main_expt","0.2798966648","","0.1669650696","","0.4174082156","","","","","","",""
"73","","bandit","141","349337","0.0-103.0-0.0","89549857","wem/bandit_single","A4JU6ZFL8C1VG","gain","8","","76","L","3","","0","0","1","0.4396479182","","false","66","0.04493535693","","main_expt","0.2440426105","","0.1439674443","","0.4396479182","","","","","","",""
"65","","bandit","142","351171","0.0-104.0-0.0","89549857","wem/bandit_single","A4JU6ZFL8C1VG","gain","8","","75","K","2","","0","0","1","0.1892066175","","false","67","0.06268984171","","main_expt","0.2630461485","","0.1892066175","","0.4080198752","","","","","","",""
"45","","bandit","143","352977","0.0-105.0-0.0","89549857","wem/bandit_single","A4JU6ZFL8C1VG","gain","8","","75","K","2","","0","0","1","0.1994174399","","false","68","0.0976634122","","main_expt","0.2456224984","","0.1994174399","","0.4137299856","","","","","","",""
"98","","bandit","144","354846","0.0-106.0-0.0","89549857","wem/bandit_single","A4JU6ZFL8C1VG","gain","8","","75","K","2","","1","0","0","0.1624567358","","false","69","0.1303859095","","main_expt","0.328759159","","0.1624567358","","0.3938947582","","","","","","",""
"59","","bandit","145","356669","0.0-107.0-0.0","89549857","wem/bandit_single","A4JU6ZFL8C1VG","gain","8","","75","K","2","","0","0","1","0.203142037","","false","70","0.09159795462","","main_expt","0.3063762308","","0.203142037","","0.3876621225","","","","","","",""
"6","","bandit","146","358439","0.0-108.0-0.0","89549857","wem/bandit_single","A4JU6ZFL8C1VG","gain","8","","75","K","2","","0","0","1","0.218187973","","false","71","0.07422050438","","main_expt","0.3509026903","","0.218187973","","0.3788053019","","","","","","",""
"72","","bandit","147","360484","0.0-109.0-0.0","89549857","wem/bandit_single","A4JU6ZFL8C1VG","gain","8","","74","J","1","","0","0","1","0.3695940198","","false","72","0.05420033029","","main_expt","0.3695940198","","0.2357875668","","0.3632611749","","","","","","",""
"29","","bandit","148","362282","0.0-110.0-0.0","89549857","wem/bandit_single","A4JU6ZFL8C1VG","gain","8","","74","J","1","","0","0","1","0.3532210052","","false","73","0.04794676006","","main_expt","0.3532210052","","0.1951490082","","0.3121818875","","","","","","",""
"335","","bandit","149","364381","0.0-111.0-0.0","89549857","wem/bandit_single","A4JU6ZFL8C1VG","gain","8","","72","H","0","img/none_selected.jpg","0","0","1","0.03645121522","","false","74","0.03645121522","","main_expt","0.3780170277","","0.208621177","","0.3385624816","","","","","","",""
"6","","bandit","150","366153","0.0-112.0-0.0","89549857","wem/bandit_single","A4JU6ZFL8C1VG","gain","8","","72","H","0","img/none_selected.jpg","0","0","1","0.04346784694","","false","75","0.04346784694","","main_expt","0.3141643986","","0.2016482668","","0.3393964734","","","","","","",""
"94","","bandit","151","368011","0.0-113.0-0.0","89549857","wem/bandit_single","A4JU6ZFL8C1VG","gain","8","","76","L","3","","0","0","1","0.3489067358","","false","76","0.05697420644","","main_expt","0.3520496016","","0.2495615647","","0.3489067358","","","","","","",""
"20","","bandit","152","369802","0.0-114.0-0.0","89549857","wem/bandit_single","A4JU6ZFL8C1VG","gain","8","","76","L","3","","0","0","1","0.3502211764","","false","77","0.05831686642","","main_expt","0.2628688268","","0.2225386599","","0.3502211764","","","","","","",""
"65","","bandit","153","371650","0.0-115.0-0.0","89549857","wem/bandit_single","A4JU6ZFL8C1VG","gain","8","","74","J","1","","1","0","0","0.2856335909","","false","78","0.0396837938","","main_expt","0.2856335909","","0.2525784454","","0.2979424841","","","","","","",""
"302","","bandit","154","373717","0.0-116.0-0.0","89549857","wem/bandit_single","A4JU6ZFL8C1VG","gain","8","","74","J","1","","1","0","0","0.3052483479","","false","79","0.03651397352","","main_expt","0.3052483479","","0.2691825077","","0.2779986596","","","","","","",""
"46","","bandit","155","375531","0.0-117.0-0.0","89549857","wem/bandit_single","A4JU6ZFL8C1VG","gain","8","","74","J","1","","1","0","0","0.2809417262","","false","80","0.0570793957","","main_expt","0.2809417262","","0.2749696362","","0.2681941829","","","","","","",""
"33","","bandit","156","377331","0.0-118.0-0.0","89549857","wem/bandit_single","A4JU6ZFL8C1VG","gain","8","","74","J","1","","0","0","1","0.2639407754","","false","81","0.05597964966","","main_expt","0.2639407754","","0.291945729","","0.2536714586","","","","","","",""
"218","","bandit","157","379320","0.0-119.0-0.0","89549857","wem/bandit_single","A4JU6ZFL8C1VG","gain","8","","74","J","1","","0","0","1","0.3352417475","","false","82","0.0589745046","","main_expt","0.3352417475","","0.2804178179","","0.1904528106","","","","","","",""
"43","","bandit","158","381130","0.0-120.0-0.0","89549857","wem/bandit_single","A4JU6ZFL8C1VG","gain","8","","74","J","1","","0","0","1","0.3246721101","","false","83","0.04461225985","","main_expt","0.3246721101","","0.2253075454","","0.2497062266","","","","","","",""
"53","","bandit","159","382947","0.0-121.0-0.0","89549857","wem/bandit_single","A4JU6ZFL8C1VG","gain","8","","74","J","1","","0","0","1","0.3082112656","","false","84","0.04600221485","","main_expt","0.3082112656","","0.2475548924","","0.2960017758","","","","","","",""
"89","","bandit","160","384805","0.0-122.0-0.0","89549857","wem/bandit_single","A4JU6ZFL8C1VG","gain","8","","74","J","1","","0","0","1","0.2733186338","","false","85","0.04782026086","","main_expt","0.2733186338","","0.2443994903","","0.2677312645","","","","","","",""
"20","","bandit","161","386610","0.0-123.0-0.0","89549857","wem/bandit_single","A4JU6ZFL8C1VG","gain","8","","74","J","1","","0","0","1","0.2595222796","","false","86","0.05551660222","","main_expt","0.2595222796","","0.2112262296","","0.2764415163","","","","","","",""
"53","","bandit","162","388427","0.0-124.0-0.0","89549857","wem/bandit_single","A4JU6ZFL8C1VG","gain","8","","75","K","2","","0","0","1","0.2188998383","","false","87","0.04708869331","","main_expt","0.2256999028","","0.2188998383","","0.324022149","","","","","","",""
"69","","bandit","163","390336","0.0-125.0-0.0","89549857","wem/bandit_single","A4JU6ZFL8C1VG","gain","8","","75","K","2","","0","0","1","0.2197891412","","false","88","0.02844544313","","main_expt","0.1990670624","","0.2197891412","","0.3109963835","","","","","","",""
"127","","bandit","164","392226","0.0-126.0-0.0","89549857","wem/bandit_single","A4JU6ZFL8C1VG","gain","8","","75","K","2","","0","0","1","0.1264972534","","false","89","0.02947982339","","main_expt","0.2125628639","","0.1264972534","","0.324941543","","","","","","",""
"26","","bandit","165","394022","0.0-127.0-0.0","89549857","wem/bandit_single","A4JU6ZFL8C1VG","gain","8","","75","K","2","","0","0","1","0.09492746395","","false","90","0.01544371513","","main_expt","0.2335475446","","0.09492746395","","0.3309337967","","","","","","",""
"52","","bandit","166","395845","0.0-128.0-0.0","89549857","wem/bandit_single","A4JU6ZFL8C1VG","gain","8","","74","J","1","","1","0","0","0.2803997126","","false","91","0.02662688154","","main_expt","0.2803997126","","0.0779798764","","0.2419508287","","","","","","",""
"57","","bandit","167","397668","0.0-129.0-0.0","89549857","wem/bandit_single","A4JU6ZFL8C1VG","gain","8","","74","J","1","","0","0","1","0.2771315147","","false","92","0.03471523835","","main_expt","0.2771315147","","0.1178574791","","0.2040869203","","","","","","",""
"51","","bandit","168","399484","0.0-130.0-0.0","89549857","wem/bandit_single","A4JU6ZFL8C1VG","gain","8","","74","J","1","","0","0","1","0.3069544445","","false","93","0.0252433293","","main_expt","0.3069544445","","0.1199697814","","0.1936143615","","","","","","",""
"66","","bandit","169","401310","0.0-131.0-0.0","89549857","wem/bandit_single","A4JU6ZFL8C1VG","gain","8","","74","J","1","","0","0","1","0.2585327286","","false","94","0.02873343753","","main_expt","0.2585327286","","0.1351842626","","0.2296452841","","","","","","",""
"94","","bandit","170","403171","0.0-132.0-0.0","89549857","wem/bandit_single","A4JU6ZFL8C1VG","gain","8","","72","H","0","img/none_selected.jpg","0","0","1","0.03754278977","","false","95","0.03754278977","","main_expt","0.2043747222","","0.1229387465","","0.3009770616","","","","","","",""
"43","","bandit","171","404982","0.0-133.0-0.0","89549857","wem/bandit_single","A4JU6ZFL8C1VG","gain","8","","72","H","0","img/none_selected.jpg","0","0","1","0.02045008397","","false","96","0.02045008397","","main_expt","0.2149370614","","0.1341504272","","0.3664634414","","","","","","",""
"129","","bandit","172","406877","0.0-134.0-0.0","89549857","wem/bandit_single","A4JU6ZFL8C1VG","gain","8","","72","H","0","img/none_selected.jpg","0","0","1","0.01282395838","","false","97","0.01282395838","","main_expt","0.1294523689","","0.08646330057","","0.3476641925","","","","","","",""
"338","","bandit","173","408981","0.0-135.0-0.0","89549857","wem/bandit_single","A4JU6ZFL8C1VG","gain","8","","74","J","1","","0","0","1","0.1653870254","","false","98","0.02206163243","","main_expt","0.1653870254","","0.07731746448","","0.3885632826","","","","","","",""
"59","","bandit","174","410810","0.0-136.0-0.0","89549857","wem/bandit_single","A4JU6ZFL8C1VG","gain","8","","74","J","1","","1","0","0","0.187235433","","false","99","0.03016500256","","main_expt","0.187235433","","0.05048608161","","0.3222143249","","","","","","",""
"125","","bandit","175","412702","0.0-137.0-0.0","89549857","wem/bandit_single","A4JU6ZFL8C1VG","gain","8","","74","J","1","","1","0","0","0.1583251777","","false","100","0.03237578522","","main_expt","0.1583251777","","0.03970728334","","0.3386714995","","","","","","",""
"57","","bandit","176","414527","0.0-138.0-0.0","89549857","wem/bandit_single","A4JU6ZFL8C1VG","gain","8","","74","J","1","","1","0","0","0.1337381207","","false","101","0.03241037075","","main_expt","0.1337381207","","0.02108340439","","0.3131396166","","","","","","",""
"52","","bandit","177","416348","0.0-139.0-0.0","89549857","wem/bandit_single","A4JU6ZFL8C1VG","gain","8","","74","J","1","","0","0","1","0.1163639012","","false","102","0.06000215667","","main_expt","0.1163639012","","0.05244648731","","0.3417288757","","","","","","",""
"27","","bandit","178","418138","0.0-140.0-0.0","89549857","wem/bandit_single","A4JU6ZFL8C1VG","gain","8","","74","J","1","","0","0","1","0.1118657557","","false","103","0.08726741307","","main_expt","0.1118657557","","0.04574159302","","0.3582654759","","","","","","",""
"177","","bandit","179","420083","0.0-141.0-0.0","89549857","wem/bandit_single","A4JU6ZFL8C1VG","gain","8","","74","J","1","","0","0","1","0.1501499683","","false","104","0.1067467257","","main_expt","0.1501499683","","0.05033190662","","0.3409136392","","","","","","",""
"80","","bandit","180","421936","0.0-142.0-0.0","89549857","wem/bandit_single","A4JU6ZFL8C1VG","gain","8","","74","J","1","","1","0","0","0.1354733374","","false","105","0.1004566838","","main_expt","0.1354733374","","0.1076128494","","0.3532992837","","","","","","",""
"116","","bandit","181","423818","0.0-143.0-0.0","89549857","wem/bandit_single","A4JU6ZFL8C1VG","gain","8","","74","J","1","","0","0","1","0.1727398631","","false","106","0.1055318719","","main_expt","0.1727398631","","0.06740855405","","0.335683565","","","","","","",""
"223","","bandit","182","425810","0.0-144.0-0.0","89549857","wem/bandit_single","A4JU6ZFL8C1VG","gain","8","","74","J","1","","0","0","1","0.1474174257","","false","107","0.1236328269","","main_expt","0.1474174257","","0.06658027063","","0.3924059951","","","","","","",""
"5","","bandit","183","427580","0.0-145.0-0.0","89549857","wem/bandit_single","A4JU6ZFL8C1VG","gain","8","","74","J","1","","0","0","1","0.1683059408","","false","108","0.1301170461","","main_expt","0.1683059408","","0.0777756245","","0.3626054341","","","","","","",""
"140","","bandit","184","429488","0.0-146.0-0.0","89549857","wem/bandit_single","A4JU6ZFL8C1VG","gain","8","","74","J","1","","0","0","1","0.1972223025","","false","109","0.1507941036","","main_expt","0.1972223025","","0.1117823495","","0.3806857721","","","","","","",""
"52","","bandit","185","431359","0.0-147.0-0.0","89549857","wem/bandit_single","A4JU6ZFL8C1VG","gain","8","","75","K","2","","0","0","1","0.08710900622","","false","110","0.1647590848","","main_expt","0.2085186414","","0.08710900622","","0.3452619283","","","","","","",""
"86","","bandit","186","433212","0.0-148.0-0.0","89549857","wem/bandit_single","A4JU6ZFL8C1VG","gain","8","","75","K","2","","0","0","1","0.107183683","","false","111","0.1574612326","","main_expt","0.1811180602","","0.107183683","","0.3653509784","","","","","","",""
"277","","bandit","187","435317","0.0-149.0-0.0","89549857","wem/bandit_single","A4JU6ZFL8C1VG","gain","8","","76","L","3","","1","0","0","0.3435522482","","false","112","0.1406493921","","main_expt","0.222295219","","0.1099425133","","0.3435522482","","","","","","",""
"64","","bandit","188","437143","0.0-150.0-0.0","89549857","wem/bandit_single","A4JU6ZFL8C1VG","gain","8","","76","L","3","","1","0","0","0.3424956272","","false","113","0.1367300214","","main_expt","0.254178783","","0.1457634924","","0.3424956272","","","","","","",""
"27","","bandit","189","438935","0.0-151.0-0.0","89549857","wem/bandit_single","A4JU6ZFL8C1VG","gain","8","","76","L","3","","0","0","1","0.3353894863","","false","114","0.1534665218","","main_expt","0.2315882939","","0.09824844824","","0.3353894863","","","","","","",""
"183","","bandit","190","440891","0.0-152.0-0.0","89549857","wem/bandit_single","A4JU6ZFL8C1VG","gain","8","","76","L","3","","0","0","1","0.3965113255","","false","115","0.1890238391","","main_expt","0.2079629003","","0.07202874502","","0.3965113255","","","","","","",""
"2","","bandit","191","442661","0.0-153.0-0.0","89549857","wem/bandit_single","A4JU6ZFL8C1VG","gain","8","","76","L","3","","1","0","0","0.3889101716","","false","116","0.1480670238","","main_expt","0.2117584369","","0.08386797302","","0.3889101716","","","","","","",""
"48","","bandit","192","444472","0.0-154.0-0.0","89549857","wem/bandit_single","A4JU6ZFL8C1VG","gain","8","","76","L","3","","0","0","1","0.412290601","","false","117","0.1450369027","","main_expt","0.1897465023","","0.1223406282","","0.412290601","","","","","","",""
"74","","bandit","193","446341","0.0-155.0-0.0","89549857","wem/bandit_single","A4JU6ZFL8C1VG","gain","8","","74","J","1","","0","0","1","0.2162179109","","false","118","0.1525061225","","main_expt","0.2162179109","","0.1131974311","","0.4090296977","","","","","","",""
"179","","bandit","194","448286","0.0-156.0-0.0","89549857","wem/bandit_single","A4JU6ZFL8C1VG","gain","8","","76","L","3","","0","0","1","0.3900906375","","false","119","0.1327940691","","main_expt","0.1954464435","","0.1214903214","","0.3900906375","","","","","","",""
"103","","bandit","195","450155","0.0-157.0-0.0","89549857","wem/bandit_single","A4JU6ZFL8C1VG","gain","8","","76","L","3","","0","0","1","0.3722828095","","false","120","0.1517026744","","main_expt","0.2433439763","","0.1379734046","","0.3722828095","","","","","","",""
"189","","bandit","196","452117","0.0-158.0-0.0","89549857","wem/bandit_single","A4JU6ZFL8C1VG","gain","8","","75","K","2","","1","0","0","0.1537473387","","false","121","0.09770447215","","main_expt","0.2093375247","","0.1537473387","","0.3593952677","","","","","","",""
"107","","bandit","197","453991","0.0-159.0-0.0","89549857","wem/bandit_single","A4JU6ZFL8C1VG","gain","8","","75","K","2","","1","0","0","0.1654199468","","false","122","0.1084092314","","main_expt","0.2030857612","","0.1654199468","","0.3670381393","","","","","","",""
"108","","bandit","198","455865","0.0-160.0-0.0","89549857","wem/bandit_single","A4JU6ZFL8C1VG","gain","8","","75","K","2","","0","0","1","0.1908187881","","false","123","0.1828660492","","main_expt","0.1810532848","","0.1908187881","","0.3587286137","","","","","","",""
"154","","bandit","199","457788","0.0-161.0-0.0","89549857","wem/bandit_single","A4JU6ZFL8C1VG","gain","8","","72","H","0","img/none_selected.jpg","0","0","1","0.1743556658","","false","124","0.1743556658","","main_expt","0.1582229448","","0.2229551501","","0.3492740793","","","","","","",""
"62","","bandit","200","459623","0.0-162.0-0.0","89549857","wem/bandit_single","A4JU6ZFL8C1VG","gain","8","","75","K","2","","1","0","0","0.2354127912","","false","125","0.2091647646","","main_expt","0.1223239468","","0.2354127912","","0.3031262708","","","","","","",""
"122","","bandit","201","461515","0.0-163.0-0.0","89549857","wem/bandit_single","A4JU6ZFL8C1VG","gain","8","","75","K","2","","1","0","0","0.25119817","","false","126","0.2089783764","","main_expt","0.08912034734","","0.25119817","","0.3272336491","","","","","","",""
"113","","bandit","202","463396","0.0-164.0-0.0","89549857","wem/bandit_single","A4JU6ZFL8C1VG","gain","8","","75","K","2","","0","0","1","0.2312690923","","false","127","0.21334071","","main_expt","0.05948163","","0.2312690923","","0.3153677968","","","","","","",""
"517","","bandit","203","465683","0.0-165.0-0.0","89549857","wem/bandit_single","A4JU6ZFL8C1VG","gain","8","","76","L","3","","0","0","1","0.3317710332","","false","128","0.1916283041","","main_expt","0.06525821595","","0.2741150261","","0.3317710332","","","","","","",""
"122","","bandit","204","467564","0.0-166.0-0.0","89549857","wem/bandit_single","A4JU6ZFL8C1VG","gain","8","","76","L","3","","0","0","1","0.3818586719","","false","129","0.1810604207","","main_expt","0.04677418535","","0.2804264122","","0.3818586719","","","","","","",""
"58","","bandit","205","469392","0.0-167.0-0.0","89549857","wem/bandit_single","A4JU6ZFL8C1VG","gain","8","","75","K","2","","0","0","1","0.2746384559","","false","130","0.1492319935","","main_expt","0.04931785787","","0.2746384559","","0.3778611376","","","","","","",""
"103","","bandit","206","471354","0.0-168.0-0.0","89549857","wem/bandit_single","A4JU6ZFL8C1VG","gain","8","","75","K","2","","1","0","0","0.3052944487","","false","131","0.129351286","","main_expt","0.03231589458","","0.3052944487","","0.3745485054","","","","","","",""
"50","","bandit","207","473177","0.0-169.0-0.0","89549857","wem/bandit_single","A4JU6ZFL8C1VG","gain","8","","75","K","2","","0","0","1","0.2871604017","","false","132","0.1020216346","","main_expt","0.0374336399","","0.2871604017","","0.3901944836","","","","","","",""
"66","","bandit","208","475012","0.0-170.0-0.0","89549857","wem/bandit_single","A4JU6ZFL8C1VG","gain","8","","75","K","2","","0","0","1","0.2262434135","","false","133","0.1100395313","","main_expt","0.04583961862","","0.2262434135","","0.3245875462","","","","","","",""
"427","","bandit","209","477258","0.0-171.0-0.0","89549857","wem/bandit_single","A4JU6ZFL8C1VG","gain","8","","75","K","2","","0","0","1","0.2020687113","","false","134","0.1078381017","","main_expt","0.04150300199","","0.2020687113","","0.2794858075","","","","","","",""
"349","","bandit","210","479376","0.0-172.0-0.0","89549857","wem/bandit_single","A4JU6ZFL8C1VG","gain","8","","76","L","3","","1","0","0","0.2867414221","","false","135","0.1093486249","","main_expt","0.04663842542","","0.2168620662","","0.2867414221","","","","","","",""
"70","","bandit","211","481217","0.0-173.0-0.0","89549857","wem/bandit_single","A4JU6ZFL8C1VG","gain","8","","76","L","3","","0","0","1","0.2388941587","","false","136","0.1246456113","","main_expt","0.06291357963","","0.151139006","","0.2388941587","","","","","","",""
"47","","bandit","212","483031","0.0-174.0-0.0","89549857","wem/bandit_single","A4JU6ZFL8C1VG","gain","8","","76","L","3","","0","0","1","0.2301747732","","false","137","0.1167447495","","main_expt","0.0848669819","","0.1452995234","","0.2301747732","","","","","","",""
"91","","bandit","213","484891","0.0-175.0-0.0","89549857","wem/bandit_single","A4JU6ZFL8C1VG","gain","8","","76","L","3","","0","0","1","0.2344721482","","false","138","0.1357570265","","main_expt","0.1250360552","","0.1599176777","","0.2344721482","","","","","","",""
"43","","bandit","214","486702","0.0-176.0-0.0","89549857","wem/bandit_single","A4JU6ZFL8C1VG","gain","8","","76","L","3","","1","0","0","0.2351335283","","false","139","0.1616689495","","main_expt","0.122190115","","0.1704699841","","0.2351335283","","","","","","",""
"86","","bandit","215","488554","0.0-177.0-0.0","89549857","wem/bandit_single","A4JU6ZFL8C1VG","gain","8","","76","L","3","","1","0","0","0.2876903143","","false","140","0.1979747013","","main_expt","0.08666030548","","0.1142956015","","0.2876903143","","","","","","",""
"26","","bandit","216","490346","0.0-178.0-0.0","89549857","wem/bandit_single","A4JU6ZFL8C1VG","gain","8","","76","L","3","","1","0","0","0.2865732071","","false","141","0.1708965128","","main_expt","0.09967801986","","0.1206890816","","0.2865732071","","","","","","",""
"56","","bandit","217","492170","0.0-179.0-0.0","89549857","wem/bandit_single","A4JU6ZFL8C1VG","gain","8","","76","L","3","","0","0","1","0.248943806","","false","142","0.204481367","","main_expt","0.1125289611","","0.1324259923","","0.248943806","","","","","","",""
"100","","bandit","218","494041","0.0-180.0-0.0","89549857","wem/bandit_single","A4JU6ZFL8C1VG","gain","8","","75","K","2","","0","0","1","0.09892217097","","false","143","0.1861099789","","main_expt","0.1467602081","","0.09892217097","","0.2839045407","","","","","","",""
"31","","bandit","219","495839","0.0-181.0-0.0","89549857","wem/bandit_single","A4JU6ZFL8C1VG","gain","8","","75","K","2","","0","0","1","0.1577744197","","false","144","0.1956465744","","main_expt","0.1467522766","","0.1577744197","","0.3150250783","","","","","","",""
"101","","bandit","220","497707","0.0-182.0-0.0","89549857","wem/bandit_single","A4JU6ZFL8C1VG","gain","8","","76","L","3","","1","0","0","0.3090395899","","false","145","0.2622876922","","main_expt","0.118212248","","0.1392006829","","0.3090395899","","","","","","",""
"112","","bandit","221","499594","0.0-183.0-0.0","89549857","wem/bandit_single","A4JU6ZFL8C1VG","gain","8","","76","L","3","","0","0","1","0.3122039877","","false","146","0.304745079","","main_expt","0.1089879874","","0.1262993523","","0.3122039877","","","","","","",""
"56","","bandit","222","501417","0.0-184.0-0.0","89549857","wem/bandit_single","A4JU6ZFL8C1VG","gain","8","","76","L","3","","0","0","1","0.2959619691","","false","147","0.2888799162","","main_expt","0.1200469816","","0.1970652478","","0.2959619691","","","","","","",""
"218","","bandit","223","503402","0.0-185.0-0.0","89549857","wem/bandit_single","A4JU6ZFL8C1VG","gain","8","","76","L","3","","0","0","1","0.2395536641","","false","148","0.2290209364","","main_expt","0.1276189258","","0.2502259542","","0.2395536641","","","","","","",""
"99","","bandit","224","505349","0.0-186.0-0.0","89549857","wem/bandit_single","A4JU6ZFL8C1VG","gain","8","","75","K","2","","0","0","1","0.264890558","","false","149","0.1626908122","","main_expt","0.1280703092","","0.264890558","","0.2650868272","","","","","","",""
"0","","bandit","225","507117","0.0-187.0-0.0","89549857","wem/bandit_single","A4JU6ZFL8C1VG","gain","8","","76","L","3","","1","0","0","0.2986082654","","false","150","0.1958031623","","main_expt","0.1260403861","","0.2458403893","","0.2986082654","","","","","","",""
"117","","bandit","226","509004","0.0-188.0-0.0","89549857","wem/bandit_single","A4JU6ZFL8C1VG","gain","8","","76","L","3","","0","0","1","0.2843767109","","false","151","0.2110526716","","main_expt","0.1472493067","","0.3021038309","","0.2843767109","","","","","","",""
"24","","bandit","227","510798","0.0-189.0-0.0","89549857","wem/bandit_single","A4JU6ZFL8C1VG","gain","8","","76","L","3","","0","0","1","0.2910803031","","false","152","0.239542308","","main_expt","0.1256460397","","0.2863751765","","0.2910803031","","","","","","",""
"45","","bandit","228","512609","0.0-190.0-0.0","89549857","wem/bandit_single","A4JU6ZFL8C1VG","gain","8","","75","K","2","","1","0","0","0.250244768","","false","153","0.2781725502","","main_expt","0.1567097088","","0.250244768","","0.2910028656","","","","","","",""
"87","","bandit","229","514466","0.0-191.0-0.0","89549857","wem/bandit_single","A4JU6ZFL8C1VG","gain","8","","75","K","2","","1","0","0","0.2127808211","","false","154","0.228047793","","main_expt","0.1473662378","","0.2127808211","","0.2845613835","","","","","","",""
"32","","bandit","230","516284","0.0-192.0-0.0","89549857","wem/bandit_single","A4JU6ZFL8C1VG","gain","8","","75","K","2","","0","0","1","0.205053704","","false","155","0.2683949018","","main_expt","0.1466549972","","0.205053704","","0.2707345723","","","","","","",""
"146","","bandit","231","518199","0.0-193.0-0.0","89549857","wem/bandit_single","A4JU6ZFL8C1VG","gain","8","","74","J","1","","0","0","1","0.1127453184","","false","156","0.3192141369","","main_expt","0.1127453184","","0.1648482415","","0.3156720475","","","","","","",""
"39","","bandit","232","520010","0.0-194.0-0.0","89549857","wem/bandit_single","A4JU6ZFL8C1VG","gain","8","","72","H","0","img/none_selected.jpg","1","0","0","0.3402823895","","false","157","0.3402823895","","main_expt","0.1577506677","","0.1888047422","","0.3101066834","","","","","","",""
"36","","bandit","233","521885","0.0-195.0-0.0","89549857","wem/bandit_single","A4JU6ZFL8C1VG","gain","8","","72","H","0","img/none_selected.jpg","0","0","1","0.2944958958","","false","158","0.2944958958","","main_expt","0.177177298","","0.1759444775","","0.3236654942","","","","","","",""
"57","","bandit","234","523713","0.0-196.0-0.0","89549857","wem/bandit_single","A4JU6ZFL8C1VG","gain","8","","72","H","0","img/none_selected.jpg","0","0","1","0.3007248388","","false","159","0.3007248388","","main_expt","0.1693510486","","0.2066832709","","0.2735657487","","","","","","",""
"27","","bandit","235","525513","0.0-197.0-0.0","89549857","wem/bandit_single","A4JU6ZFL8C1VG","gain","8","","72","H","0","img/none_selected.jpg","0","0","1","0.3179332055","","false","160","0.3179332055","","main_expt","0.1230292859","","0.2570817279","","0.2384912546","","","","","","",""
"26","","bandit","236","527304","0.0-198.0-0.0","89549857","wem/bandit_single","A4JU6ZFL8C1VG","gain","8","","72","H","0","img/none_selected.jpg","1","0","0","0.2506164635","","false","161","0.2506164635","","main_expt","0.07903667538","","0.2244749933","","0.2615252743","","","","","","",""
"58","","bandit","237","529126","0.0-199.0-0.0","89549857","wem/bandit_single","A4JU6ZFL8C1VG","gain","8","","72","H","0","img/none_selected.jpg","0","0","1","0.2858836385","","false","162","0.2858836385","","main_expt","0.1136507332","","0.23263707","","0.2187643747","","","","","","",""
"321","","bandit","238","531213","0.0-200.0-0.0","89549857","wem/bandit_single","A4JU6ZFL8C1VG","gain","8","","76","L","3","","0","0","1","0.1909081127","","false","163","0.2848163613","","main_expt","0.1137116213","","0.2287127565","","0.1909081127","","","","","","",""
"79","","bandit","239","533059","0.0-201.0-0.0","89549857","wem/bandit_single","A4JU6ZFL8C1VG","gain","8","","75","K","2","","0","0","1","0.2303253206","","false","164","0.2688566635","","main_expt","0.1254102563","","0.2303253206","","0.1808716434","","","","","","",""
"389","","bandit","240","535296","0.0-202.0-0.0","89549857","wem/bandit_single","A4JU6ZFL8C1VG","gain","8","","74","J","1","","1","0","0","0.1216805934","","false","165","0.2921202554","","main_expt","0.1216805934","","0.2771057403","","0.2118073572","","","","","","",""
"55","","bandit","241","537123","0.0-203.0-0.0","89549857","wem/bandit_single","A4JU6ZFL8C1VG","gain","8","","74","J","1","","0","0","1","0.1291529517","","false","166","0.3143591269","","main_expt","0.1291529517","","0.2371810998","","0.2410554973","","","","","","",""
"94","","bandit","242","538986","0.0-204.0-0.0","89549857","wem/bandit_single","A4JU6ZFL8C1VG","gain","8","","74","J","1","","0","0","1","0.1535345887","","false","167","0.2892924204","","main_expt","0.1535345887","","0.2349122652","","0.2574005288","","","","","","",""
"259","","bandit","243","541018","0.0-205.0-0.0","89549857","wem/bandit_single","A4JU6ZFL8C1VG","gain","8","","72","H","0","img/none_selected.jpg","0","0","1","0.2786305655","","false","168","0.2786305655","","main_expt","0.1435034989","","0.1959020284","","0.2729884233","","","","","","",""
"438","","bandit","244","543224","0.0-206.0-0.0","89549857","wem/bandit_single","A4JU6ZFL8C1VG","gain","8","","72","H","0","img/none_selected.jpg","1","0","0","0.246803054","","false","169","0.246803054","","main_expt","0.1957458285","","0.1899859579","","0.2625821735","","","","","","",""
"125","","bandit","245","545121","0.0-207.0-0.0","89549857","wem/bandit_single","A4JU6ZFL8C1VG","gain","8","","72","H","0","img/none_selected.jpg","0","0","1","0.2375021307","","false","170","0.2375021307","","main_expt","0.1308867566","","0.2213833812","","0.3100542845","","","","","","",""
"76","","bandit","246","546968","0.0-208.0-0.0","89549857","wem/bandit_single","A4JU6ZFL8C1VG","gain","8","","74","J","1","","0","0","1","0.1422271972","","false","171","0.2965678991","","main_expt","0.1422271972","","0.1589997081","","0.3083945368","","","","","","",""
"11","","bandit","247","548744","0.0-209.0-0.0","89549857","wem/bandit_single","A4JU6ZFL8C1VG","gain","8","","74","J","1","","0","0","1","0.1541925874","","false","172","0.2696718616","","main_expt","0.1541925874","","0.1669714507","","0.3929186772","","","","","","",""
"221","","bandit","248","550732","0.0-210.0-0.0","89549857","wem/bandit_single","A4JU6ZFL8C1VG","gain","8","","72","H","0","img/none_selected.jpg","1","0","0","0.2576521005","","false","173","0.2576521005","","main_expt","0.1416394444","","0.1699847696","","0.4107736206","","","","","","",""
"66","","bandit","249","552569","0.0-211.0-0.0","89549857","wem/bandit_single","A4JU6ZFL8C1VG","gain","8","","72","H","0","img/none_selected.jpg","0","0","1","0.2839516933","","false","174","0.2839516933","","main_expt","0.1207830423","","0.202136981","","0.4267170337","","","","","","",""
"67","","bandit","250","554409","0.0-212.0-0.0","89549857","wem/bandit_single","A4JU6ZFL8C1VG","gain","8","","72","H","0","img/none_selected.jpg","1","0","0","0.2932452363","","false","175","0.2932452363","","main_expt","0.1636312712","","0.1863880777","","0.420504823","","","","","","",""
"74","","bandit","251","556255","0.0-213.0-0.0","89549857","wem/bandit_single","A4JU6ZFL8C1VG","gain","8","","72","H","0","img/none_selected.jpg","1","0","0","0.3118313574","","false","176","0.3118313574","","main_expt","0.186569684","","0.1426909825","","0.3956962169","","","","","","",""
"6","","bandit","252","558032","0.0-214.0-0.0","89549857","wem/bandit_single","A4JU6ZFL8C1VG","gain","8","","72","H","0","img/none_selected.jpg","0","0","1","0.3378695823","","false","177","0.3378695823","","main_expt","0.1089038478","","0.1335645184","","0.3834761318","","","","","","",""
"28","","bandit","253","559831","0.0-215.0-0.0","89549857","wem/bandit_single","A4JU6ZFL8C1VG","gain","8","","72","H","0","img/none_selected.jpg","1","0","0","0.3234122319","","false","178","0.3234122319","","main_expt","0.08465244813","","0.09719791569","","0.4167112469","","","","","","",""
"59","","bandit","254","561659","0.0-216.0-0.0","89549857","wem/bandit_single","A4JU6ZFL8C1VG","gain","8","","72","H","0","img/none_selected.jpg","0","0","1","0.3281528324","","false","179","0.3281528324","","main_expt","0.1015747644","","0.07123289457","","0.4370197561","","","","","","",""
"50","","bandit","255","563483","0.0-217.0-0.0","89549857","wem/bandit_single","A4JU6ZFL8C1VG","gain","8","","72","H","0","img/none_selected.jpg","0","0","1","0.340497037","","false","180","0.340497037","","main_expt","0.1277953302","","0.05555663239","","0.3776598584","","","","","","",""
"28","","bandit","256","565316","0.0-218.0-0.0","89549857","wem/bandit_single","A4JU6ZFL8C1VG","gain","8","","72","H","0","img/none_selected.jpg","1","0","0","0.3007371283","","false","181","0.3007371283","","main_expt","0.1854921141","","0.04396828199","","0.3636519722","","","","","","",""
"181","","bandit","257","567261","0.0-219.0-0.0","89549857","wem/bandit_single","A4JU6ZFL8C1VG","gain","8","","72","H","0","img/none_selected.jpg","0","0","1","0.3190136055","","false","182","0.3190136055","","main_expt","0.2273529654","","0.02691259782","","0.3246411676","","","","","","",""
"90","","bandit","258","569119","0.0-220.0-0.0","89549857","wem/bandit_single","A4JU6ZFL8C1VG","gain","8","","72","H","0","img/none_selected.jpg","0","0","1","0.322323442","","false","183","0.322323442","","main_expt","0.2600234541","","0.04807599522","","0.3187018958","","","","","","",""
"241","","bandit","259","571124","0.0-221.0-0.0","89549857","wem/bandit_single","A4JU6ZFL8C1VG","gain","8","","72","H","0","img/none_selected.jpg","0","0","1","0.3086696071","","false","184","0.3086696071","","main_expt","0.2689652485","","0.05076165442","","0.3497063737","","","","","","",""
"140","","bandit","260","573031","0.0-222.0-0.0","89549857","wem/bandit_single","A4JU6ZFL8C1VG","gain","8","","72","H","0","img/none_selected.jpg","0","0","1","0.3146814862","","false","185","0.3146814862","","main_expt","0.2646203852","","0.1128087831","","0.3334532315","","","","","","",""
"52","","bandit","261","574854","0.0-223.0-0.0","89549857","wem/bandit_single","A4JU6ZFL8C1VG","gain","8","","74","J","1","","1","0","0","0.2038557162","","false","186","0.3353274036","","main_expt","0.2038557162","","0.1592260056","","0.3511592443","","","","","","",""
"17","","bandit","262","576633","0.0-224.0-0.0","89549857","wem/bandit_single","A4JU6ZFL8C1VG","gain","8","","74","J","1","","0","0","1","0.2643634763","","false","187","0.331036234","","main_expt","0.2643634763","","0.2195828404","","0.3758503369","","","","","","",""
"67","","bandit","263","578470","0.0-225.0-0.0","89549857","wem/bandit_single","A4JU6ZFL8C1VG","gain","8","","74","J","1","","0","0","1","0.2137054787","","false","188","0.3061178756","","main_expt","0.2137054787","","0.214856838","","0.3951098987","","","","","","",""
"293","","bandit","264","580531","0.0-226.0-0.0","89549857","wem/bandit_single","A4JU6ZFL8C1VG","gain","8","","72","H","0","img/none_selected.jpg","1","0","0","0.3455914038","","false","189","0.3455914038","","main_expt","0.2349639762","","0.2103369464","","0.3766733461","","","","","","",""
"85","","bandit","265","582383","0.0-227.0-0.0","89549857","wem/bandit_single","A4JU6ZFL8C1VG","gain","8","","72","H","0","img/none_selected.jpg","1","0","0","0.3734842368","","false","190","0.3734842368","","main_expt","0.2067261929","","0.1932940482","","0.3974997784","","","","","","",""
"126","","bandit","266","584277","0.0-228.0-0.0","89549857","wem/bandit_single","A4JU6ZFL8C1VG","gain","8","","72","H","0","img/none_selected.jpg","0","0","1","0.3648323685","","false","191","0.3648323685","","main_expt","0.275245882","","0.2285646161","","0.4174686418","","","","","","",""
"151","","bandit","267","586197","0.0-229.0-0.0","89549857","wem/bandit_single","A4JU6ZFL8C1VG","gain","8","","72","H","0","img/none_selected.jpg","0","0","1","0.3339781981","","false","192","0.3339781981","","main_expt","0.306220044","","0.2589031043","","0.3963748123","","","","","","",""
"23","","bandit","268","587990","0.0-230.0-0.0","89549857","wem/bandit_single","A4JU6ZFL8C1VG","gain","8","","72","H","0","img/none_selected.jpg","1","0","0","0.3342714415","","false","193","0.3342714415","","main_expt","0.3035773814","","0.2195537535","","0.3921748604","","","","","","",""
"23","","bandit","269","589783","0.0-231.0-0.0","89549857","wem/bandit_single","A4JU6ZFL8C1VG","gain","8","","72","H","0","img/none_selected.jpg","0","0","1","0.3241295504","","false","194","0.3241295504","","main_expt","0.2510827831","","0.2027550427","","0.3580841109","","","","","","",""
"282","","bandit","270","591839","0.0-232.0-0.0","89549857","wem/bandit_single","A4JU6ZFL8C1VG","gain","8","","74","J","1","","0","0","1","0.2455858858","","false","195","0.3116310431","","main_expt","0.2455858858","","0.1862287394","","0.3508589263","","","","","","",""
"36","","bandit","271","593646","0.0-233.0-0.0","89549857","wem/bandit_single","A4JU6ZFL8C1VG","gain","8","","74","J","1","","0","0","1","0.2514601016","","false","196","0.3757707762","","main_expt","0.2514601016","","0.1892299528","","0.3580593089","","","","","","",""
"127","","bandit","272","595539","0.0-234.0-0.0","89549857","wem/bandit_single","A4JU6ZFL8C1VG","gain","8","","75","K","2","","1","0","0","0.2217707201","","false","197","0.3510132286","","main_expt","0.2735270373","","0.2217707201","","0.325214339","","","","","","",""
"34","","bandit","273","597342","0.0-235.0-0.0","89549857","wem/bandit_single","A4JU6ZFL8C1VG","gain","8","","75","K","2","","0","0","1","0.2622368769","","false","198","0.3775824693","","main_expt","0.1856542716","","0.2622368769","","0.3214736551","","","","","","",""
"101","","bandit","274","599217","0.0-236.0-0.0","89549857","wem/bandit_single","A4JU6ZFL8C1VG","gain","8","","75","K","2","","0","0","1","0.2566369559","","false","199","0.3591355879","","main_expt","0.1439471636","","0.2566369559","","0.3134841864","","","","","","",""
"66","","bandit","275","601078","0.0-237.0-0.0","89549857","wem/bandit_single","A4JU6ZFL8C1VG","gain","8","","75","K","2","","0","0","1","0.2405232655","","false","200","0.4329566742","","main_expt","0.1920673188","","0.2405232655","","0.3484934822","","","","","","",""
"63","","bandit","276","602907","0.0-238.0-0.0","89549857","wem/bandit_single","A4JU6ZFL8C1VG","gain","8","","76","L","3","","0","0","1","0.3509587021","","false","201","0.4316294991","","main_expt","0.2139557707","","0.191632201","","0.3509587021","","","","","","",""
"60","","bandit","277","604743","0.0-239.0-0.0","89549857","wem/bandit_single","A4JU6ZFL8C1VG","gain","8","","75","K","2","","0","0","1","0.1860277461","","false","202","0.4446061493","","main_expt","0.2411081829","","0.1860277461","","0.3472711197","","","","","","",""
"318","","bandit","278","606829","0.0-240.0-0.0","89549857","wem/bandit_single","A4JU6ZFL8C1VG","gain","8","","74","J","1","","0","0","1","0.2229679022","","false","203","0.4350640844","","main_expt","0.2229679022","","0.1959395152","","0.3501901851","","","","","","",""
"80","","bandit","279","608679","0.0-241.0-0.0","89549857","wem/bandit_single","A4JU6ZFL8C1VG","gain","8","","72","H","0","img/none_selected.jpg","1","0","0","0.4511953558","","false","204","0.4511953558","","main_expt","0.2094072873","","0.1909798814","","0.4021923856","","","","","","",""
"36","","bandit","280","610482","0.0-242.0-0.0","89549857","wem/bandit_single","A4JU6ZFL8C1VG","gain","8","","72","H","0","img/none_selected.jpg","0","0","1","0.4444608137","","false","205","0.4444608137","","main_expt","0.2061243076","","0.1952925147","","0.4103624794","","","","","","",""
"42","","bandit","281","612295","0.0-243.0-0.0","89549857","wem/bandit_single","A4JU6ZFL8C1VG","gain","8","","72","H","0","img/none_selected.jpg","1","0","0","0.4174874576","","false","206","0.4174874576","","main_expt","0.1830656651","","0.2333477628","","0.3884407208","","","","","","",""
"576","","bandit","282","614646","0.0-244.0-0.0","89549857","wem/bandit_single","A4JU6ZFL8C1VG","gain","8","","72","H","0","img/none_selected.jpg","1","0","0","0.4473837798","","false","207","0.4473837798","","main_expt","0.1806213093","","0.2366383375","","0.4205181933","","","","","","",""
"467","","bandit","283","616887","0.0-245.0-0.0","89549857","wem/bandit_single","A4JU6ZFL8C1VG","gain","8","","72","H","0","img/none_selected.jpg","1","0","0","0.4423282801","","false","208","0.4423282801","","main_expt","0.1547428587","","0.2588239296","","0.39705837","","","","","","",""
"44","","bandit","284","618703","0.0-246.0-0.0","89549857","wem/bandit_single","A4JU6ZFL8C1VG","gain","8","","72","H","0","img/none_selected.jpg","1","0","0","0.4495798672","","false","209","0.4495798672","","main_expt","0.1633509089","","0.2109346514","","0.3763678409","","","","","","",""
"98","","bandit","285","620572","0.0-247.0-0.0","89549857","wem/bandit_single","A4JU6ZFL8C1VG","gain","8","","72","H","0","img/none_selected.jpg","1","0","0","0.4604116181","","false","210","0.4604116181","","main_expt","0.194224154","","0.2352346414","","0.329669689","","","","","","",""
"112","","bandit","286","622453","0.0-248.0-0.0","89549857","wem/bandit_single","A4JU6ZFL8C1VG","gain","8","","72","H","0","img/none_selected.jpg","1","0","0","0.4515605979","","false","211","0.4515605979","","main_expt","0.1428536625","","0.1919095989","","0.3234151823","","","","","","",""
"37","","bandit","287","624259","0.0-249.0-0.0","89549857","wem/bandit_single","A4JU6ZFL8C1VG","gain","8","","72","H","0","img/none_selected.jpg","0","0","1","0.3796359761","","false","212","0.3796359761","","main_expt","0.1876263767","","0.2511997366","","0.346289724","","","","","","",""
"55","","bandit","288","626079","0.0-250.0-0.0","89549857","wem/bandit_single","A4JU6ZFL8C1VG","gain","8","","72","H","0","img/none_selected.jpg","0","0","1","0.4098311692","","false","213","0.4098311692","","main_expt","0.1767426991","","0.2247602752","","0.3579646626","","","","","","",""
"144","","bandit","289","627991","0.0-251.0-0.0","89549857","wem/bandit_single","A4JU6ZFL8C1VG","gain","8","","72","H","0","img/none_selected.jpg","0","0","1","0.3758430492","","false","214","0.3758430492","","main_expt","0.1997003326","","0.2078026042","","0.3871938136","","","","","","",""
"275","","bandit","290","630038","0.0-252.0-0.0","89549857","wem/bandit_single","A4JU6ZFL8C1VG","gain","8","","75","K","2","","1","0","0","0.2000367883","","false","215","0.3391734167","","main_expt","0.1753208105","","0.2000367883","","0.4072701047","","","","","","",""
"17","","bandit","291","631898","0.0-253.0-0.0","89549857","wem/bandit_single","A4JU6ZFL8C1VG","gain","8","","75","K","2","","0","0","1","0.1850279066","","false","216","0.3292806148","","main_expt","0.1526073348","","0.1850279066","","0.4139997029","","","","","","",""
"196","","bandit","292","633867","0.0-254.0-0.0","89549857","wem/bandit_single","A4JU6ZFL8C1VG","gain","8","","75","K","2","","0","0","1","0.1862329662","","false","217","0.3672552775","","main_expt","0.1885901152","","0.1862329662","","0.4058129166","","","","","","",""
"59","","bandit","293","635694","0.0-255.0-0.0","89549857","wem/bandit_single","A4JU6ZFL8C1VG","gain","8","","72","H","0","img/none_selected.jpg","0","0","1","0.3540988412","","false","218","0.3540988412","","main_expt","0.2068683321","","0.2076422808","","0.3831507141","","","","","","",""
"372","","bandit","294","637842","0.0-256.0-0.0","89549857","wem/bandit_single","A4JU6ZFL8C1VG","gain","8","","74","J","1","","0","0","1","0.1830460615","","false","219","0.3705907093","","main_expt","0.1830460615","","0.1693095695","","0.3975704748","","","","","","",""
"49","","bandit","295","639663","0.0-257.0-0.0","89549857","wem/bandit_single","A4JU6ZFL8C1VG","gain","8","","76","L","3","","1","0","0","0.420208779","","false","220","0.4071767116","","main_expt","0.1510464272","","0.1643321708","","0.420208779","","","","","","",""
"78","","bandit","296","641511","0.0-258.0-0.0","89549857","wem/bandit_single","A4JU6ZFL8C1VG","gain","8","","76","L","3","","1","0","0","0.4277126104","","false","221","0.4000591573","","main_expt","0.1195154075","","0.1755642267","","0.4277126104","","","","","","",""
"80","","bandit","297","643362","0.0-259.0-0.0","89549857","wem/bandit_single","A4JU6ZFL8C1VG","gain","8","","76","L","3","","1","0","0","0.4098861052","","false","222","0.4257242725","","main_expt","0.1322821073","","0.2047466037","","0.4098861052","","","","","","",""
"40","","bandit","298","645173","0.0-260.0-0.0","89549857","wem/bandit_single","A4JU6ZFL8C1VG","gain","8","","76","L","3","","0","0","1","0.3865692481","","false","223","0.4084538547","","main_expt","0.1634864242","","0.1261696039","","0.3865692481","","","","","","",""
"398","","bandit","299","647426","0.0-261.0-0.0","89549857","wem/bandit_single","A4JU6ZFL8C1VG","gain","8","","75","K","2","","0","0","1","0.1671605087","","false","224","0.3756333804","","main_expt","0.1927622759","","0.1671605087","","0.3942994903","","","","","","",""
"105","","bandit","300","649301","0.0-262.0-0.0","89549857","wem/bandit_single","A4JU6ZFL8C1VG","gain","8","","74","J","1","","1","0","0","0.1949177646","","false","225","0.3977261909","","main_expt","0.1949177646","","0.1498322393","","0.3444994861","","","","","","",""
"62","","bandit","301","651129","0.0-263.0-0.0","89549857","wem/bandit_single","A4JU6ZFL8C1VG","gain","8","","74","J","1","","1","0","0","0.1675301724","","false","226","0.3876796808","","main_expt","0.1675301724","","0.106170416","","0.4042132592","","","","","","",""
"97","","bandit","302","652992","0.0-264.0-0.0","89549857","wem/bandit_single","A4JU6ZFL8C1VG","gain","8","","74","J","1","","0","0","1","0.163375113","","false","227","0.3213858912","","main_expt","0.163375113","","0.0897934899","","0.3906229402","","","","","","",""
"329","","bandit","303","655093","0.0-265.0-0.0","89549857","wem/bandit_single","A4JU6ZFL8C1VG","gain","8","","74","J","1","","0","0","1","0.195474145","","false","228","0.3331191915","","main_expt","0.195474145","","0.09443294629","","0.3417164876","","","","","","",""
"86","","bandit","304","656946","0.0-266.0-0.0","89549857","wem/bandit_single","A4JU6ZFL8C1VG","gain","8","","76","L","3","","1","0","0","0.3222205624","","false","229","0.308496805","","main_expt","0.2410354958","","0.0848669953","","0.3222205624","","","","","","",""
"104","","bandit","305","658816","0.0-267.0-0.0","89549857","wem/bandit_single","A4JU6ZFL8C1VG","gain","8","","76","L","3","","0","0","1","0.3442672336","","false","230","0.2734654059","","main_expt","0.2567648542","","0.0701458292","","0.3442672336","","","","","","",""
"85","","bandit","306","660678","0.0-268.0-0.0","89549857","wem/bandit_single","A4JU6ZFL8C1VG","gain","8","","75","K","2","","0","0","1","0.1251282835","","false","231","0.292212981","","main_expt","0.2304241664","","0.1251282835","","0.3164459362","","","","","","",""
"25","","bandit","307","662472","0.0-269.0-0.0","89549857","wem/bandit_single","A4JU6ZFL8C1VG","gain","8","","72","H","0","img/none_selected.jpg","0","0","1","0.2516656152","","false","232","0.2516656152","","main_expt","0.2264886823","","0.1124912266","","0.3396906789","","","","","","",""
"58","","bandit","308","664304","0.0-270.0-0.0","89549857","wem/bandit_single","A4JU6ZFL8C1VG","gain","8","","74","J","1","","0","0","1","0.1892320941","","false","233","0.2563877418","","main_expt","0.1892320941","","0.1535494164","","0.3008540409","","","","","","",""
"188","","bandit","309","666326","0.0-271.0-0.0","89549857","wem/bandit_single","A4JU6ZFL8C1VG","gain","8","","75","K","2","","0","0","1","0.1389628654","","false","234","0.283882603","","main_expt","0.1556895318","","0.1389628654","","0.2767988229","","","","","","",""
"146","","bandit","310","668243","0.0-272.0-0.0","89549857","wem/bandit_single","A4JU6ZFL8C1VG","gain","8","","76","L","3","","1","0","0","0.2507781603","","false","235","0.2758852766","","main_expt","0.1976044491","","0.1680793718","","0.2507781603","","","","","","",""
"31","","bandit","311","670070","0.0-273.0-0.0","89549857","wem/bandit_single","A4JU6ZFL8C1VG","gain","8","","76","L","3","","0","0","1","0.3091667607","","false","236","0.2434452049","","main_expt","0.1468950029","","0.2037097706","","0.3091667607","","","","","","",""
"159","","bandit","312","672009","0.0-274.0-0.0","89549857","wem/bandit_single","A4JU6ZFL8C1VG","gain","8","","76","L","3","","0","0","1","0.2883211118","","false","237","0.2405517979","","main_expt","0.1365515699","","0.1897176974","","0.2883211118","","","","","","",""
"344","","bandit","313","674122","0.0-275.0-0.0","89549857","wem/bandit_single","A4JU6ZFL8C1VG","gain","8","","75","K","2","","0","0","1","0.2317710791","","false","238","0.2260832521","","main_expt","0.1527077476","","0.2317710791","","0.2756444762","","","","","","",""
"48","","bandit","314","675945","0.0-276.0-0.0","89549857","wem/bandit_single","A4JU6ZFL8C1VG","gain","8","","72","H","0","img/none_selected.jpg","0","0","1","0.2061693665","","false","239","0.2061693665","","main_expt","0.1315224722","","0.2206906913","","0.3061346513","","","","","","",""
"10","","bandit","315","677721","0.0-277.0-0.0","89549857","wem/bandit_single","A4JU6ZFL8C1VG","gain","8","","74","J","1","","0","0","1","0.1398926963","","false","240","0.2203195159","","main_expt","0.1398926963","","0.2155283076","","0.3274201615","","","","","","",""
"76","","bandit","316","679573","0.0-278.0-0.0","89549857","wem/bandit_single","A4JU6ZFL8C1VG","gain","8","","76","L","3","","0","0","1","0.2838770346","","false","241","0.2230507071","","main_expt","0.1698873683","","0.2386015387","","0.2838770346","","","","","","",""
"467","","bandit","317","681813","0.0-279.0-0.0","89549857","wem/bandit_single","A4JU6ZFL8C1VG","gain","8","","76","L","3","","0","0","1","0.261873528","","false","242","0.1834748297","","main_expt","0.1693915972","","0.2178179326","","0.261873528","","","","","","",""
"172","","bandit","318","683754","0.0-280.0-0.0","89549857","wem/bandit_single","A4JU6ZFL8C1VG","gain","8","","75","K","2","","0","0","1","0.2209910316","","false","243","0.1450766806","","main_expt","0.2011280514","","0.2209910316","","0.2346518895","","","","","","",""
"139","","bandit","319","685668","0.0-281.0-0.0","89549857","wem/bandit_single","A4JU6ZFL8C1VG","gain","8","","74","J","1","","1","0","0","0.283074141","","false","244","0.1407015906","","main_expt","0.283074141","","0.2202366047","","0.2253303202","","","","","","",""
"38","","bandit","320","687473","0.0-282.0-0.0","89549857","wem/bandit_single","A4JU6ZFL8C1VG","gain","8","","74","J","1","","0","0","1","0.2960363525","","false","245","0.1386250556","","main_expt","0.2960363525","","0.2369425358","","0.2379184421","","","","","","",""
"141","","bandit","321","689389","0.0-283.0-0.0","89549857","wem/bandit_single","A4JU6ZFL8C1VG","gain","8","","74","J","1","","0","0","1","0.2985154159","","false","246","0.1561911267","","main_expt","0.2985154159","","0.2437218948","","0.1704118475","","","","","","",""
"51","","bandit","322","691211","0.0-284.0-0.0","89549857","wem/bandit_single","A4JU6ZFL8C1VG","gain","8","","72","H","0","img/none_selected.jpg","0","0","1","0.251644506","","false","247","0.251644506","","main_expt","0.3159682012","","0.2573167276","","0.1520093858","","","","","","",""
"12","","bandit","323","692994","0.0-285.0-0.0","89549857","wem/bandit_single","A4JU6ZFL8C1VG","gain","8","","75","K","2","","0","0","1","0.255349996","","false","248","0.2541276422","","main_expt","0.2937445921","","0.255349996","","0.1246217458","","","","","","",""
"261","","bandit","324","695025","0.0-286.0-0.0","89549857","wem/bandit_single","A4JU6ZFL8C1VG","gain","8","","74","J","1","","0","0","1","0.2794909668","","false","249","0.1924412691","","main_expt","0.2794909668","","0.2866877344","","0.1525969556","","","","","","",""
"124","","bandit","325","696945","0.0-287.0-0.0","89549857","wem/bandit_single","A4JU6ZFL8C1VG","gain","8","","76","L","3","","0","0","1","0.1500628479","","false","250","0.1397358892","","main_expt","0.2327966623","","0.2330780591","","0.1500628479","","","","","","",""
"320","","bandit","326","699036","0.0-288.0-0.0","89549857","wem/bandit_single","A4JU6ZFL8C1VG","gain","8","","76","L","3","","0","0","1","0.1141396938","","false","251","0.1362233376","","main_expt","0.2595602212","","0.2580196572","","0.1141396938","","","","","","",""
"318","","bandit","327","701117","0.0-289.0-0.0","89549857","wem/bandit_single","A4JU6ZFL8C1VG","gain","8","","75","K","2","","0","0","1","0.2003146692","","false","252","0.1796418735","","main_expt","0.2715763176","","0.2003146692","","0.1476089834","","","","","","",""
"17","","bandit","328","702902","0.0-290.0-0.0","89549857","wem/bandit_single","A4JU6ZFL8C1VG","gain","8","","72","H","0","img/none_selected.jpg","0","0","1","0.1833608075","","false","253","0.1833608075","","main_expt","0.3146654463","","0.1651092288","","0.175183139","","","","","","",""
"146","","bandit","329","704818","0.0-291.0-0.0","89549857","wem/bandit_single","A4JU6ZFL8C1VG","gain","8","","74","J","1","","0","0","1","0.3037610447","","false","254","0.1983034343","","main_expt","0.3037610447","","0.1413675546","","0.1916323123","","","","","","",""
"252","","bandit","330","706840","0.0-292.0-0.0","89549857","wem/bandit_single","A4JU6ZFL8C1VG","gain","8","","74","J","1","","0","0","1","0.287825992","","false","255","0.2286544637","","main_expt","0.287825992","","0.1801919014","","0.1888714334","","","","","","",""
"139","","bandit","331","708746","0.0-293.0-0.0","89549857","wem/bandit_single","A4JU6ZFL8C1VG","gain","8","","75","K","2","","0","0","1","0.1883387327","","false","256","0.2502735072","","main_expt","0.2673332977","","0.1883387327","","0.2338577058","","","","","","",""
"156","","bandit","332","710673","0.0-294.0-0.0","89549857","wem/bandit_single","A4JU6ZFL8C1VG","gain","8","","76","L","3","","0","0","1","0.2235288738","","false","257","0.2657937058","","main_expt","0.2867614738","","0.1757220287","","0.2235288738","","","","","","",""
"51","","bandit","333","712494","0.0-295.0-0.0","89549857","wem/bandit_single","A4JU6ZFL8C1VG","gain","8","","76","L","3","","0","0","1","0.2256298632","","false","258","0.2326681124","","main_expt","0.2432485896","","0.1817694486","","0.2256298632","","","","","","",""
"575","","bandit","334","714843","0.0-296.0-0.0","89549857","wem/bandit_single","A4JU6ZFL8C1VG","gain","8","","75","K","2","","0","0","1","0.1938363466","","false","259","0.2128848171","","main_expt","0.2433124215","","0.1938363466","","0.229367941","","","","","","",""
"181","","bandit","335","716793","0.0-297.0-0.0","89549857","wem/bandit_single","A4JU6ZFL8C1VG","gain","8","","74","J","1","","0","0","1","0.202057327","","false","260","0.261065439","","main_expt","0.202057327","","0.2129025296","","0.2585863351","","","","","","",""
"18","","bandit","336","718577","0.0-298.0-0.0","89549857","wem/bandit_single","A4JU6ZFL8C1VG","gain","8","","74","J","1","","0","0","1","0.163702413","","false","261","0.2693274395","","main_expt","0.163702413","","0.1931457884","","0.2748644017","","","","","","",""
"11","","bandit","337","720363","0.0-299.0-0.0","89549857","wem/bandit_single","A4JU6ZFL8C1VG","gain","8","","72","H","0","img/none_selected.jpg","1","0","0","0.3386888623","","false","262","0.3386888623","","main_expt","0.1317961998","","0.183306516","","0.288340978","","","","","","",""
"31","","bandit","338","722163","0.0-300.0-0.0","89549857","wem/bandit_single","A4JU6ZFL8C1VG","gain","8","","72","H","0","img/none_selected.jpg","0","0","1","0.3645909238","","false","263","0.3645909238","","main_expt","0.09680570831","","0.1293037787","","0.3151532186","","","","","","",""
"52","","bandit","339","723985","0.0-301.0-0.0","89549857","wem/bandit_single","A4JU6ZFL8C1VG","gain","8","","72","H","0","img/none_selected.jpg","1","0","0","0.3437159196","","false","264","0.3437159196","","main_expt","0.08846786375","","0.1386072774","","0.2931268787","","","","","","",""
"111","","bandit","340","725863","0.0-302.0-0.0","89549857","wem/bandit_single","A4JU6ZFL8C1VG","gain","8","","72","H","0","img/none_selected.jpg","0","0","1","0.3644358952","","false","265","0.3644358952","","main_expt","0.08556864258","","0.1511252148","","0.3131275506","","","","","","",""
"90","","bandit","341","727718","0.0-303.0-0.0","89549857","wem/bandit_single","A4JU6ZFL8C1VG","gain","8","","72","H","0","img/none_selected.jpg","0","0","1","0.3904852039","","false","266","0.3904852039","","main_expt","0.0706515048","","0.2186772706","","0.336523231","","","","","","",""
"137","","bandit","342","729627","0.0-304.0-0.0","89549857","wem/bandit_single","A4JU6ZFL8C1VG","gain","8","","72","H","0","img/none_selected.jpg","1","0","0","0.3896615427","","false","267","0.3896615427","","main_expt","0.0747424838","","0.2625163009","","0.2850369317","","","","","","",""
"11","","bandit","343","731410","0.0-305.0-0.0","89549857","wem/bandit_single","A4JU6ZFL8C1VG","gain","8","","72","H","0","img/none_selected.jpg","0","0","1","0.4017278216","","false","268","0.4017278216","","main_expt","0.112617448","","0.3140442454","","0.3163307124","","","","","","",""
"309","","bandit","344","733484","0.0-306.0-0.0","89549857","wem/bandit_single","A4JU6ZFL8C1VG","gain","8","","72","H","0","img/none_selected.jpg","0","0","1","0.370996795","","false","269","0.370996795","","main_expt","0.1406639307","","0.3069084364","","0.2956683275","","","","","","",""
"45","","bandit","345","735314","0.0-307.0-0.0","89549857","wem/bandit_single","A4JU6ZFL8C1VG","gain","8","","72","H","0","img/none_selected.jpg","0","0","1","0.4255483526","","false","270","0.4255483526","","main_expt","0.1398727949","","0.2814908846","","0.3574655381","","","","","","",""
"104","","bandit","346","737185","0.0-308.0-0.0","89549857","wem/bandit_single","A4JU6ZFL8C1VG","gain","8","","72","H","0","img/none_selected.jpg","0","0","1","0.3948114384","","false","271","0.3948114384","","main_expt","0.1430486157","","0.3060786573","","0.3969117111","","","","","","",""
"53","","bandit","347","739008","0.0-309.0-0.0","89549857","wem/bandit_single","A4JU6ZFL8C1VG","gain","8","","76","L","3","","0","0","1","0.3938657786","","false","272","0.3713372483","","main_expt","0.1872928851","","0.3555003363","","0.3938657786","","","","","","",""
"110","","bandit","348","740889","0.0-310.0-0.0","89549857","wem/bandit_single","A4JU6ZFL8C1VG","gain","8","","75","K","2","","0","0","1","0.3980140183","","false","273","0.3650537767","","main_expt","0.1769074474","","0.3980140183","","0.3903330825","","","","","","",""
"95","","bandit","349","742752","0.0-311.0-0.0","89549857","wem/bandit_single","A4JU6ZFL8C1VG","gain","8","","75","K","2","","1","0","0","0.4077181827","","false","274","0.3414565802","","main_expt","0.1820324592","","0.4077181827","","0.4236793781","","","","","","",""
"37","","bandit","350","744557","0.0-312.0-0.0","89549857","wem/bandit_single","A4JU6ZFL8C1VG","gain","8","","75","K","2","","1","0","0","0.4142369189","","false","275","0.3027622838","","main_expt","0.1923133529","","0.4142369189","","0.4320968281","","","","","","",""
"33","","bandit","351","746363","0.0-313.0-0.0","89549857","wem/bandit_single","A4JU6ZFL8C1VG","gain","8","","75","K","2","","0","0","1","0.4250096067","","false","276","0.3125082267","","main_expt","0.1917589367","","0.4250096067","","0.4017915655","","","","","","",""
"69","","bandit","352","748203","0.0-314.0-0.0","89549857","wem/bandit_single","A4JU6ZFL8C1VG","gain","8","","75","K","2","","1","0","0","0.4378988515","","false","277","0.348890663","","main_expt","0.1667093518","","0.4378988515","","0.3548215972","","","","","","",""
"204","","bandit","353","750176","0.0-315.0-0.0","89549857","wem/bandit_single","A4JU6ZFL8C1VG","gain","8","","75","K","2","","1","0","0","0.4323676568","","false","278","0.3341457036","","main_expt","0.1695638059","","0.4323676568","","0.3683165275","","","","","","",""
"209","","bandit","354","752156","0.0-316.0-0.0","89549857","wem/bandit_single","A4JU6ZFL8C1VG","gain","8","","75","K","2","","0","0","1","0.4391545144","","false","279","0.2341959149","","main_expt","0.1696283439","","0.4391545144","","0.3750953637","","","","","","",""
"179","","bandit","355","754107","0.0-317.0-0.0","89549857","wem/bandit_single","A4JU6ZFL8C1VG","gain","8","","74","J","1","","0","0","1","0.09227733008","","false","280","0.1839622844","","main_expt","0.09227733008","","0.4467207207","","0.3557095414","","","","","","",""
"27","","bandit","356","755906","0.0-318.0-0.0","89549857","wem/bandit_single","A4JU6ZFL8C1VG","gain","8","","74","J","1","","0","0","1","0.08059064446","","false","281","0.1303375237","","main_expt","0.08059064446","","0.3922333676","","0.374333358","","","","","","",""
"149","","bandit","357","757828","0.0-319.0-0.0","89549857","wem/bandit_single","A4JU6ZFL8C1VG","gain","8","","75","K","2","","1","0","0","0.4243132136","","false","282","0.07449941097","","main_expt","0.06236597977","","0.4243132136","","0.3786855632","","","","","","",""
"98","","bandit","358","759699","0.0-320.0-0.0","89549857","wem/bandit_single","A4JU6ZFL8C1VG","gain","8","","75","K","2","","0","0","1","0.4187362854","","false","283","0.08783129911","","main_expt","0.07782340279","","0.4187362854","","0.437514669","","","","","","",""
"69","","bandit","359","761531","0.0-321.0-0.0","89549857","wem/bandit_single","A4JU6ZFL8C1VG","gain","8","","76","L","3","","0","0","1","0.410198323","","false","284","0.08228152097","","main_expt","0.07564660971","","0.422543139","","0.410198323","","","","","","",""
"115","","bandit","360","763417","0.0-322.0-0.0","89549857","wem/bandit_single","A4JU6ZFL8C1VG","gain","8","","76","L","3","","0","0","1","0.3777139522","","false","285","0.09246744832","","main_expt","0.08237135124","","0.434302279","","0.3777139522","","","","","","",""
"44","","bandit","361","765318","0.0-323.0-0.0","89549857","wem/bandit_single","A4JU6ZFL8C1VG","gain","8","","72","H","0","img/none_selected.jpg","0","0","1","0.08394792075","","false","286","0.08394792075","","main_expt","0.05670298638","","0.4094725029","","0.3841171753","","","","","","",""
"155","","bandit","362","767237","0.0-324.0-0.0","89549857","wem/bandit_single","A4JU6ZFL8C1VG","gain","8","","74","J","1","","0","0","1","0.06647452785","","false","287","0.1021913287","","main_expt","0.06647452785","","0.3778080042","","0.3641862554","","","","","","",""
"705","","bandit","363","769716","0.0-325.0-0.0","89549857","wem/bandit_single","A4JU6ZFL8C1VG","gain","8","","75","K","2","","0","0","1","0.3671495563","","false","288","0.1188664616","","main_expt","0.04859701272","","0.3671495563","","0.3192590496","","","","","","",""
"242","","bandit","364","771724","0.0-326.0-0.0","89549857","wem/bandit_single","A4JU6ZFL8C1VG","gain","8","","76","L","3","","0","0","1","0.3384054944","","false","289","0.1050513492","","main_expt","0.04246321062","","0.3622055636","","0.3384054944","","","","","","",""
"297","","bandit","365","773793","0.0-327.0-0.0","89549857","wem/bandit_single","A4JU6ZFL8C1VG","gain","8","","74","J","1","","0","0","1","0.08307379137","","false","290","0.1304324694","","main_expt","0.08307379137","","0.3616647964","","0.329366118","","","","","","",""
"217","","bandit","366","775863","0.0-328.0-0.0","89549857","wem/bandit_single","A4JU6ZFL8C1VG","gain","8","","75","K","2","","1","0","0","0.3521760992","","false","291","0.09707891459","","main_expt","0.09664054691","","0.3521760992","","0.38061917","","","","","","",""
"209","","bandit","367","777842","0.0-329.0-0.0","89549857","wem/bandit_single","A4JU6ZFL8C1VG","gain","8","","75","K","2","","0","0","1","0.3062989856","","false","292","0.1166693976","","main_expt","0.1089287446","","0.3062989856","","0.3703624541","","","","","","",""
"251","","bandit","368","779863","0.0-330.0-0.0","89549857","wem/bandit_single","A4JU6ZFL8C1VG","gain","8","","72","H","0","img/none_selected.jpg","0","0","1","0.1448282665","","false","293","0.1448282665","","main_expt","0.1426967363","","0.2594623792","","0.3554666564","","","","","","",""
"703","","bandit","369","782335","0.0-331.0-0.0","89549857","wem/bandit_single","A4JU6ZFL8C1VG","gain","8","","74","J","1","","0","0","1","0.08295656842","","false","294","0.1486412875","","main_expt","0.08295656842","","0.2666401727","","0.3976604504","","","","","","",""
"78","","bandit","370","784187","0.0-332.0-0.0","89549857","wem/bandit_single","A4JU6ZFL8C1VG","gain","8","","75","K","2","","0","0","1","0.2160621863","","false","295","0.1266024918","","main_expt","0.07441347029","","0.2160621863","","0.3567340825","","","","","","",""
"579","","bandit","371","786537","0.0-333.0-0.0","89549857","wem/bandit_single","A4JU6ZFL8C1VG","gain","8","","76","L","3","","0","0","1","0.3802278382","","false","296","0.1499702932","","main_expt","0.08167080543","","0.1924669582","","0.3802278382","","","","","","",""
"196","","bandit","372","788506","0.0-334.0-0.0","89549857","wem/bandit_single","A4JU6ZFL8C1VG","gain","8","","72","H","0","img/none_selected.jpg","0","0","1","0.1124444021","","false","297","0.1124444021","","main_expt","0.06721412472","","0.2572135825","","0.3764104085","","","","","","",""
"196","","bandit","373","790474","0.0-335.0-0.0","89549857","wem/bandit_single","A4JU6ZFL8C1VG","gain","8","","74","J","1","","0","0","1","0.1106754059","","false","298","0.122133656","","main_expt","0.1106754059","","0.2660288188","","0.3801851674","","","","","","",""
"99","","bandit","374","792343","0.0-336.0-0.0","89549857","wem/bandit_single","A4JU6ZFL8C1VG","gain","8","","72","H","0","img/none_selected.jpg","0","0","1","0.1064281731","","false","299","0.1064281731","","main_expt","0.146580741","","0.2708303459","","0.37372938","","","","","","",""
