"rt","responses","trial_type","trial_index","time_elapsed","internal_node_id","subjID","study","MID","cond","drift","key_press","respCharCode","respKey","respChoiceNum","respChoice","gems","bombs","no_reward","GemPrChosen","BombPrChosen","practice","trial_counter","WinPr_0","LosePr_0","trial_label","WinPr_1","LosePr_1","WinPr_2","LosePr_2","WinPr_3","LosePr_3","Q0","Q1","Q2","gender","age","ethnicity"
"10676","{""Q0"":""A3U5CRG5S8I800""}","survey-text","0","10684","0.0-0.0","90200205","wem/bandit_single","A3U5CRG5S8I800","pain","6","","","","","","","","","","","","","","","","","","","","","","","","","","",""
"3461","","text","1","15148","0.0-1.0","90200205","wem/bandit_single","A3U5CRG5S8I800","pain","6","32","","","","","","","","","","","","","","","","","","","","","","","","","",""
"7751","","text","2","22901","0.0-2.0","90200205","wem/bandit_single","A3U5CRG5S8I800","pain","6","32","","","","","","","","","","","","","","","","","","","","","","","","","",""
"28941","","text","3","51844","0.0-3.0","90200205","wem/bandit_single","A3U5CRG5S8I800","pain","6","32","","","","","","","","","","","","","","","","","","","","","","","","","",""
"18868","","text","4","70716","0.0-4.0","90200205","wem/bandit_single","A3U5CRG5S8I800","pain","6","32","","","","","","","","","","","","","","","","","","","","","","","","","",""
"23775","","text","5","94494","0.0-5.0","90200205","wem/bandit_single","A3U5CRG5S8I800","pain","6","32","","","","","","","","","","","","","","","","","","","","","","","","","",""
"12457","","text","6","106957","0.0-6.0","90200205","wem/bandit_single","A3U5CRG5S8I800","pain","6","32","","","","","","","","","","","","","","","","","","","","","","","","","",""
"6426","","text","7","113389","0.0-7.0","90200205","wem/bandit_single","A3U5CRG5S8I800","pain","6","32","","","","","","","","","","","","","","","","","","","","","","","","","",""
"9337","","text","8","122732","0.0-8.0","90200205","wem/bandit_single","A3U5CRG5S8I800","pain","6","32","","","","","","","","","","","","","","","","","","","","","","","","","",""
"6097","","text","9","128832","0.0-9.0","90200205","wem/bandit_single","A3U5CRG5S8I800","pain","6","32","","","","","","","","","","","","","","","","","","","","","","","","","",""
"5622","","text","10","134459","0.0-10.0","90200205","wem/bandit_single","A3U5CRG5S8I800","pain","6","32","","","","","","","","","","","","","","","","","","","","","","","","","",""
"7474","","text","11","141938","0.0-11.0","90200205","wem/bandit_single","A3U5CRG5S8I800","pain","6","32","","","","","","","","","","","","","","","","","","","","","","","","","",""
"1838","","bandit","12","145287","0.0-12.0-0.0","90200205","wem/bandit_single","A3U5CRG5S8I800","pain","6","","74","J","0","img/none_selected_demo.jpg","0","0","1","0","0","true","0","0","0","","","","","","","","","","","","",""
"1025","","bandit","13","148069","0.0-13.0-0.0","90200205","wem/bandit_single","A3U5CRG5S8I800","pain","6","","75","K","0","img/none_selected_demo.jpg","0","0","1","0","0","true","0","0","0","","","","","","","","","","","","",""
"3846","","text","14","152168","0.0-14.0","90200205","wem/bandit_single","A3U5CRG5S8I800","pain","6","32","","","","","","","","","","","","","","","","","","","","","","","","","",""
"3789","","text","15","155960","0.0-15.0","90200205","wem/bandit_single","A3U5CRG5S8I800","pain","6","32","","","","","","","","","","","","","","","","","","","","","","","","","",""
"4508","","text","16","160471","0.0-16.0","90200205","wem/bandit_single","A3U5CRG5S8I800","pain","6","32","","","","","","","","","","","","","","","","","","","","","","","","","",""
"4671","","text","17","165144","0.0-17.0","90200205","wem/bandit_single","A3U5CRG5S8I800","pain","6","32","","","","","","","","","","","","","","","","","","","","","","","","","",""
"2033","","bandit","18","168686","0.0-18.0-0.0","90200205","wem/bandit_single","A3U5CRG5S8I800","pain","6","","74","J","0","img/none_selected_demo.jpg","0","1","0","0","0.8","true","0","0","0.8","80_20_practice","0","0.2","","","","","","","","","",""
"492","","bandit","19","171013","0.0-18.0-1.0","90200205","wem/bandit_single","A3U5CRG5S8I800","pain","6","","74","J","0","img/none_selected_demo.jpg","0","1","0","0","0.8","true","0","0","0.8","80_20_practice","0","0.2","","","","","","","","","",""
"507","","bandit","20","173277","0.0-18.0-2.0","90200205","wem/bandit_single","A3U5CRG5S8I800","pain","6","","74","J","0","img/none_selected_demo.jpg","0","1","0","0","0.8","true","0","0","0.8","80_20_practice","0","0.2","","","","","","","","","",""
"371","","bandit","21","175406","0.0-18.0-3.0","90200205","wem/bandit_single","A3U5CRG5S8I800","pain","6","","74","J","0","img/none_selected_demo.jpg","0","0","1","0","0.8","true","0","0","0.8","80_20_practice","0","0.2","","","","","","","","","",""
"419","","bandit","22","177587","0.0-18.0-4.0","90200205","wem/bandit_single","A3U5CRG5S8I800","pain","6","","74","J","0","img/none_selected_demo.jpg","0","1","0","0","0.8","true","0","0","0.8","80_20_practice","0","0.2","","","","","","","","","",""
"229","","bandit","23","179572","0.0-18.0-5.0","90200205","wem/bandit_single","A3U5CRG5S8I800","pain","6","","74","J","0","img/none_selected_demo.jpg","0","1","0","0","0.8","true","0","0","0.8","80_20_practice","0","0.2","","","","","","","","","",""
"211","","bandit","24","181541","0.0-18.0-6.0","90200205","wem/bandit_single","A3U5CRG5S8I800","pain","6","","74","J","0","img/none_selected_demo.jpg","0","1","0","0","0.8","true","0","0","0.8","80_20_practice","0","0.2","","","","","","","","","",""
"255","","bandit","25","183554","0.0-18.0-7.0","90200205","wem/bandit_single","A3U5CRG5S8I800","pain","6","","74","J","0","img/none_selected_demo.jpg","0","0","1","0","0.8","true","0","0","0.8","80_20_practice","0","0.2","","","","","","","","","",""
"133","","bandit","26","185445","0.0-18.0-8.0","90200205","wem/bandit_single","A3U5CRG5S8I800","pain","6","","74","J","0","img/none_selected_demo.jpg","0","0","1","0","0.8","true","0","0","0.8","80_20_practice","0","0.2","","","","","","","","","",""
"331","","bandit","27","187532","0.0-18.0-9.0","90200205","wem/bandit_single","A3U5CRG5S8I800","pain","6","","74","J","0","img/none_selected_demo.jpg","0","1","0","0","0.8","true","0","0","0.8","80_20_practice","0","0.2","","","","","","","","","",""
"228","","bandit","28","189518","0.0-18.0-10.0","90200205","wem/bandit_single","A3U5CRG5S8I800","pain","6","","74","J","0","img/none_selected_demo.jpg","0","1","0","0","0.8","true","0","0","0.8","80_20_practice","0","0.2","","","","","","","","","",""
"99","","bandit","29","191380","0.0-18.0-11.0","90200205","wem/bandit_single","A3U5CRG5S8I800","pain","6","","74","J","0","img/none_selected_demo.jpg","0","1","0","0","0.8","true","0","0","0.8","80_20_practice","0","0.2","","","","","","","","","",""
"91","","bandit","30","193228","0.0-18.0-12.0","90200205","wem/bandit_single","A3U5CRG5S8I800","pain","6","","74","J","0","img/none_selected_demo.jpg","0","1","0","0","0.8","true","0","0","0.8","80_20_practice","0","0.2","","","","","","","","","",""
"60","","bandit","31","195054","0.0-18.0-13.0","90200205","wem/bandit_single","A3U5CRG5S8I800","pain","6","","74","J","0","img/none_selected_demo.jpg","0","1","0","0","0.8","true","0","0","0.8","80_20_practice","0","0.2","","","","","","","","","",""
"94","","bandit","32","196918","0.0-18.0-14.0","90200205","wem/bandit_single","A3U5CRG5S8I800","pain","6","","74","J","0","img/none_selected_demo.jpg","0","1","0","0","0.8","true","0","0","0.8","80_20_practice","0","0.2","","","","","","","","","",""
"138","","bandit","33","198813","0.0-18.0-15.0","90200205","wem/bandit_single","A3U5CRG5S8I800","pain","6","","74","J","0","img/none_selected_demo.jpg","0","1","0","0","0.8","true","0","0","0.8","80_20_practice","0","0.2","","","","","","","","","",""
"42","","bandit","34","200611","0.0-18.0-16.0","90200205","wem/bandit_single","A3U5CRG5S8I800","pain","6","","74","J","0","img/none_selected_demo.jpg","0","0","1","0","0.8","true","0","0","0.8","80_20_practice","0","0.2","","","","","","","","","",""
"122","","bandit","35","202542","0.0-18.0-17.0","90200205","wem/bandit_single","A3U5CRG5S8I800","pain","6","","74","J","0","img/none_selected_demo.jpg","0","1","0","0","0.8","true","0","0","0.8","80_20_practice","0","0.2","","","","","","","","","",""
"136","","bandit","36","204437","0.0-18.0-18.0","90200205","wem/bandit_single","A3U5CRG5S8I800","pain","6","","74","J","0","img/none_selected_demo.jpg","0","1","0","0","0.8","true","0","0","0.8","80_20_practice","0","0.2","","","","","","","","","",""
"75","","bandit","37","206267","0.0-18.0-19.0","90200205","wem/bandit_single","A3U5CRG5S8I800","pain","6","","74","J","0","img/none_selected_demo.jpg","0","1","0","0","0.8","true","0","0","0.8","80_20_practice","0","0.2","","","","","","","","","",""
"7013","","text","38","213534","0.0-19.0","90200205","wem/bandit_single","A3U5CRG5S8I800","pain","6","32","","","","","","","","","","","","","","","","","","","","","","","","","",""
"15356","","bandit","39","230400","0.0-20.0-0.0","90200205","wem/bandit_single","A3U5CRG5S8I800","pain","6","","74","J","0","img/none_selected_demo.jpg","0","0","1","0","0","true","0","0","0","","0","0","","","","","","","","","",""
"9639","","text","40","240294","0.0-21.0","90200205","wem/bandit_single","A3U5CRG5S8I800","pain","6","32","","","","","","","","","","","","","","","","","","","","","","","","","",""
"6996","","text","41","247293","0.0-22.0","90200205","wem/bandit_single","A3U5CRG5S8I800","pain","6","32","","","","","","","","","","","","","","","","","","","","","","","","","",""
"9428","","text","42","256725","0.0-23.0","90200205","wem/bandit_single","A3U5CRG5S8I800","pain","6","32","","","","","","","","","","","","","","","","","","","","","","","","","",""
"3747","","text","43","260476","0.0-24.0","90200205","wem/bandit_single","A3U5CRG5S8I800","pain","6","32","","","","","","","","","","","","","","","","","","","","","","","","","",""
"12357","","text","44","272840","0.0-25.0","90200205","wem/bandit_single","A3U5CRG5S8I800","pain","6","32","","","","","","","","","","","","","","","","","","","","","","","","","",""
"3680","","text","45","276526","0.0-26.0","90200205","wem/bandit_single","A3U5CRG5S8I800","pain","6","32","","","","","","","","","","","","","","","","","","","","","","","","","",""
"6970","","text","46","283503","0.0-27.0","90200205","wem/bandit_single","A3U5CRG5S8I800","pain","6","32","","","","","","","","","","","","","","","","","","","","","","","","","",""
"3937","","text","47","287443","0.0-28.0","90200205","wem/bandit_single","A3U5CRG5S8I800","pain","6","32","","","","","","","","","","","","","","","","","","","","","","","","","",""
"6869","","text","48","294316","0.0-29.0","90200205","wem/bandit_single","A3U5CRG5S8I800","pain","6","32","","","","","","","","","","","","","","","","","","","","","","","","","",""
"8450","","text","49","302771","0.0-30.0","90200205","wem/bandit_single","A3U5CRG5S8I800","pain","6","32","","","","","","","","","","","","","","","","","","","","","","","","","",""
"3378","","text","50","306153","0.0-31.0","90200205","wem/bandit_single","A3U5CRG5S8I800","pain","6","32","","","","","","","","","","","","","","","","","","","","","","","","","",""
"1042","","bandit","51","308713","0.0-32.0-0.0","90200205","wem/bandit_single","A3U5CRG5S8I800","pain","6","","72","H","0","img/none_selected.jpg","0","1","0","0","0.8","true","0","0","0.8","full_practice","0","0.2","0","0.6","0","0.2","","","","","",""
"178","","bandit","52","310651","0.0-32.0-1.0","90200205","wem/bandit_single","A3U5CRG5S8I800","pain","6","","72","H","0","img/none_selected.jpg","0","1","0","0","0.8","true","0","0","0.8","full_practice","0","0.2","0","0.6","0","0.2","","","","","",""
"167","","bandit","53","312575","0.0-32.0-2.0","90200205","wem/bandit_single","A3U5CRG5S8I800","pain","6","","72","H","0","img/none_selected.jpg","0","1","0","0","0.8","true","0","0","0.8","full_practice","0","0.2","0","0.6","0","0.2","","","","","",""
"98","","bandit","54","314453","0.0-32.0-3.0","90200205","wem/bandit_single","A3U5CRG5S8I800","pain","6","","72","H","0","img/none_selected.jpg","0","1","0","0","0.8","true","0","0","0.8","full_practice","0","0.2","0","0.6","0","0.2","","","","","",""
"108","","bandit","55","316320","0.0-32.0-4.0","90200205","wem/bandit_single","A3U5CRG5S8I800","pain","6","","72","H","0","img/none_selected.jpg","0","1","0","0","0.8","true","0","0","0.8","full_practice","0","0.2","0","0.6","0","0.2","","","","","",""
"222","","bandit","56","318299","0.0-32.0-5.0","90200205","wem/bandit_single","A3U5CRG5S8I800","pain","6","","72","H","0","img/none_selected.jpg","0","0","1","0","0.8","true","0","0","0.8","full_practice","0","0.2","0","0.6","0","0.2","","","","","",""
"71","","bandit","57","320127","0.0-32.0-6.0","90200205","wem/bandit_single","A3U5CRG5S8I800","pain","6","","72","H","0","img/none_selected.jpg","0","1","0","0","0.8","true","0","0","0.8","full_practice","0","0.2","0","0.6","0","0.2","","","","","",""
"84","","bandit","58","322010","0.0-32.0-7.0","90200205","wem/bandit_single","A3U5CRG5S8I800","pain","6","","72","H","0","img/none_selected.jpg","0","1","0","0","0.8","true","0","0","0.8","full_practice","0","0.2","0","0.6","0","0.2","","","","","",""
"191","","bandit","59","324000","0.0-32.0-8.0","90200205","wem/bandit_single","A3U5CRG5S8I800","pain","6","","72","H","0","img/none_selected.jpg","0","1","0","0","0.8","true","0","0","0.8","full_practice","0","0.2","0","0.6","0","0.2","","","","","",""
"298","","bandit","60","326055","0.0-32.0-9.0","90200205","wem/bandit_single","A3U5CRG5S8I800","pain","6","","72","H","0","img/none_selected.jpg","0","1","0","0","0.8","true","0","0","0.8","full_practice","0","0.2","0","0.6","0","0.2","","","","","",""
"98","","bandit","61","327911","0.0-32.0-10.0","90200205","wem/bandit_single","A3U5CRG5S8I800","pain","6","","72","H","0","img/none_selected.jpg","0","1","0","0","0.8","true","0","0","0.8","full_practice","0","0.2","0","0.6","0","0.2","","","","","",""
"172","","bandit","62","329844","0.0-32.0-11.0","90200205","wem/bandit_single","A3U5CRG5S8I800","pain","6","","72","H","0","img/none_selected.jpg","0","1","0","0","0.8","true","0","0","0.8","full_practice","0","0.2","0","0.6","0","0.2","","","","","",""
"107","","bandit","63","331746","0.0-32.0-12.0","90200205","wem/bandit_single","A3U5CRG5S8I800","pain","6","","72","H","0","img/none_selected.jpg","0","1","0","0","0.8","true","0","0","0.8","full_practice","0","0.2","0","0.6","0","0.2","","","","","",""
"83","","bandit","64","333585","0.0-32.0-13.0","90200205","wem/bandit_single","A3U5CRG5S8I800","pain","6","","72","H","0","img/none_selected.jpg","0","0","1","0","0.8","true","0","0","0.8","full_practice","0","0.2","0","0.6","0","0.2","","","","","",""
"111","","bandit","65","335477","0.0-32.0-14.0","90200205","wem/bandit_single","A3U5CRG5S8I800","pain","6","","72","H","0","img/none_selected.jpg","0","1","0","0","0.8","true","0","0","0.8","full_practice","0","0.2","0","0.6","0","0.2","","","","","",""
"58","","bandit","66","337297","0.0-32.0-15.0","90200205","wem/bandit_single","A3U5CRG5S8I800","pain","6","","72","H","0","img/none_selected.jpg","0","1","0","0","0.8","true","0","0","0.8","full_practice","0","0.2","0","0.6","0","0.2","","","","","",""
"111","","bandit","67","339166","0.0-32.0-16.0","90200205","wem/bandit_single","A3U5CRG5S8I800","pain","6","","72","H","0","img/none_selected.jpg","0","1","0","0","0.8","true","0","0","0.8","full_practice","0","0.2","0","0.6","0","0.2","","","","","",""
"178","","bandit","68","341101","0.0-32.0-17.0","90200205","wem/bandit_single","A3U5CRG5S8I800","pain","6","","72","H","0","img/none_selected.jpg","0","1","0","0","0.8","true","0","0","0.8","full_practice","0","0.2","0","0.6","0","0.2","","","","","",""
"83","","bandit","69","342944","0.0-32.0-18.0","90200205","wem/bandit_single","A3U5CRG5S8I800","pain","6","","72","H","0","img/none_selected.jpg","0","1","0","0","0.8","true","0","0","0.8","full_practice","0","0.2","0","0.6","0","0.2","","","","","",""
"414","","bandit","70","345116","0.0-32.0-19.0","90200205","wem/bandit_single","A3U5CRG5S8I800","pain","6","","72","H","0","img/none_selected.jpg","0","1","0","0","0.8","true","0","0","0.8","full_practice","0","0.2","0","0.6","0","0.2","","","","","",""
"4588","","text","71","349961","0.0-33.0","90200205","wem/bandit_single","A3U5CRG5S8I800","pain","6","32","","","","","","","","","","","","","","","","","","","","","","","","","",""
"10778","","text","72","361745","0.0-34.0","90200205","wem/bandit_single","A3U5CRG5S8I800","pain","6","32","","","","","","","","","","","","","","","","","","","","","","","","","",""
"8042","","text","73","369793","0.0-35.0","90200205","wem/bandit_single","A3U5CRG5S8I800","pain","6","32","","","","","","","","","","","","","","","","","","","","","","","","","",""
"6227","","text","74","376025","0.0-36.0","90200205","wem/bandit_single","A3U5CRG5S8I800","pain","6","32","","","","","","","","","","","","","","","","","","","","","","","","","",""
"6016","","text","75","382046","0.0-37.0","90200205","wem/bandit_single","A3U5CRG5S8I800","pain","6","32","","","","","","","","","","","","","","","","","","","","","","","","","",""
"1130","","bandit","76","384686","0.0-38.0-0.0","90200205","wem/bandit_single","A3U5CRG5S8I800","pain","6","","72","H","0","img/none_selected.jpg","0","0","1","","0.1142009487","false","1","","0.1142009487","main_expt","","0.1623639982","","0.1940838181","","0.3785571591","","","","","",""
"112","","bandit","77","386556","0.0-39.0-0.0","90200205","wem/bandit_single","A3U5CRG5S8I800","pain","6","","72","H","0","img/none_selected.jpg","0","1","0","","0.09165924831","false","2","","0.09165924831","main_expt","","0.1864124343","","0.2410489397","","0.3894156921","","","","","",""
"215","","bandit","78","388533","0.0-40.0-0.0","90200205","wem/bandit_single","A3U5CRG5S8I800","pain","6","","72","H","0","img/none_selected.jpg","0","1","0","","0.1174954382","false","3","","0.1174954382","main_expt","","0.1494323563","","0.2645422736","","0.4125386255","","","","","",""
"144","","bandit","79","390437","0.0-41.0-0.0","90200205","wem/bandit_single","A3U5CRG5S8I800","pain","6","","72","H","0","img/none_selected.jpg","0","0","1","","0.1426329369","false","4","","0.1426329369","main_expt","","0.1266436655","","0.1984909652","","0.3990363537","","","","","",""
"116","","bandit","80","392332","0.0-42.0-0.0","90200205","wem/bandit_single","A3U5CRG5S8I800","pain","6","","72","H","0","img/none_selected.jpg","0","1","0","","0.1503595054","false","5","","0.1503595054","main_expt","","0.1476492511","","0.1239860826","","0.454435597","","","","","",""
"147","","bandit","81","394236","0.0-43.0-0.0","90200205","wem/bandit_single","A3U5CRG5S8I800","pain","6","","72","H","0","img/none_selected.jpg","0","0","1","","0.1646450236","false","6","","0.1646450236","main_expt","","0.1525625276","","0.06805906468","","0.4583077461","","","","","",""
"224","","bandit","82","396232","0.0-44.0-0.0","90200205","wem/bandit_single","A3U5CRG5S8I800","pain","6","","72","H","0","img/none_selected.jpg","0","0","1","","0.2031930874","false","7","","0.2031930874","main_expt","","0.1856713893","","0.05890971721","","0.4617786505","","","","","",""
"150","","bandit","83","398140","0.0-45.0-0.0","90200205","wem/bandit_single","A3U5CRG5S8I800","pain","6","","72","H","0","img/none_selected.jpg","0","1","0","","0.181996894","false","8","","0.181996894","main_expt","","0.2108076934","","0.0832196585","","0.475168559","","","","","",""
"187","","bandit","84","400084","0.0-46.0-0.0","90200205","wem/bandit_single","A3U5CRG5S8I800","pain","6","","72","H","0","img/none_selected.jpg","0","0","1","","0.1673845292","false","9","","0.1673845292","main_expt","","0.1956497028","","0.1325638406","","0.458325554","","","","","",""
"171","","bandit","85","402013","0.0-47.0-0.0","90200205","wem/bandit_single","A3U5CRG5S8I800","pain","6","","75","K","2","","0","0","1","","0.1196898321","false","10","","0.2328473308","main_expt","","0.1582923175","","0.1196898321","","0.4316924572","","","","","",""
"61","","bandit","86","403877","0.0-48.0-0.0","90200205","wem/bandit_single","A3U5CRG5S8I800","pain","6","","75","K","2","","0","1","0","","0.1103103944","false","11","","0.20589494","main_expt","","0.167734997","","0.1103103944","","0.3756511011","","","","","",""
"210","","bandit","87","405844","0.0-49.0-0.0","90200205","wem/bandit_single","A3U5CRG5S8I800","pain","6","","75","K","2","","0","0","1","","0.06819125589","false","12","","0.2246944015","main_expt","","0.2150601968","","0.06819125589","","0.3549088727","","","","","",""
"194","","bandit","88","407812","0.0-50.0-0.0","90200205","wem/bandit_single","A3U5CRG5S8I800","pain","6","","75","K","2","","0","0","1","","0.07076675629","false","13","","0.2613447163","main_expt","","0.252216208","","0.07076675629","","0.3455803359","","","","","",""
"140","","bandit","89","409733","0.0-51.0-0.0","90200205","wem/bandit_single","A3U5CRG5S8I800","pain","6","","74","J","1","","0","0","1","","0.2184022087","false","14","","0.212655478","main_expt","","0.2184022087","","0.09241451512","","0.3809937316","","","","","",""
"88","","bandit","90","411580","0.0-52.0-0.0","90200205","wem/bandit_single","A3U5CRG5S8I800","pain","6","","74","J","1","","0","0","1","","0.210005203","false","15","","0.1679070286","main_expt","","0.210005203","","0.07205700739","","0.3479508526","","","","","",""
"59","","bandit","91","413396","0.0-53.0-0.0","90200205","wem/bandit_single","A3U5CRG5S8I800","pain","6","","76","L","3","","0","0","1","","0.3287514515","false","16","","0.1774383452","main_expt","","0.2402495983","","0.04760190598","","0.3287514515","","","","","",""
"58","","bandit","92","415233","0.0-54.0-0.0","90200205","wem/bandit_single","A3U5CRG5S8I800","pain","6","","76","L","3","","0","0","1","","0.4008698656","false","17","","0.1562672395","main_expt","","0.2766196603","","0.03958098904","","0.4008698656","","","","","",""
"97","","bandit","93","417092","0.0-55.0-0.0","90200205","wem/bandit_single","A3U5CRG5S8I800","pain","6","","76","L","3","","0","0","1","","0.3845126264","false","18","","0.1407597156","main_expt","","0.3193638145","","0.03128671198","","0.3845126264","","","","","",""
"11","","bandit","94","418898","0.0-56.0-0.0","90200205","wem/bandit_single","A3U5CRG5S8I800","pain","6","","72","H","0","img/none_selected.jpg","0","1","0","","0.1310890834","false","19","","0.1310890834","main_expt","","0.2953318626","","0.04453616628","","0.3979941068","","","","","",""
"20","","bandit","95","420675","0.0-57.0-0.0","90200205","wem/bandit_single","A3U5CRG5S8I800","pain","6","","72","H","0","img/none_selected.jpg","0","0","1","","0.1317163977","false","20","","0.1317163977","main_expt","","0.3007143328","","0.04596917346","","0.3920029867","","","","","",""
"59","","bandit","96","422499","0.0-58.0-0.0","90200205","wem/bandit_single","A3U5CRG5S8I800","pain","6","","72","H","0","img/none_selected.jpg","0","0","1","","0.1752537558","false","21","","0.1752537558","main_expt","","0.3105995928","","0.04297504417","","0.4057752261","","","","","",""
"97","","bandit","97","424355","0.0-59.0-0.0","90200205","wem/bandit_single","A3U5CRG5S8I800","pain","6","","72","H","0","img/none_selected.jpg","0","0","1","","0.2064983175","false","22","","0.2064983175","main_expt","","0.3742057862","","0.04739698515","","0.4072420822","","","","","",""
"130","","bandit","98","426251","0.0-60.0-0.0","90200205","wem/bandit_single","A3U5CRG5S8I800","pain","6","","75","K","2","","0","0","1","","0.08003173613","false","23","","0.216691321","main_expt","","0.3439758112","","0.08003173613","","0.3798298113","","","","","",""
"147","","bandit","99","428171","0.0-61.0-0.0","90200205","wem/bandit_single","A3U5CRG5S8I800","pain","6","","75","K","2","","0","0","1","","0.09868307827","false","24","","0.2342773894","main_expt","","0.3549138733","","0.09868307827","","0.3329856024","","","","","",""
"405","","bandit","100","430336","0.0-62.0-0.0","90200205","wem/bandit_single","A3U5CRG5S8I800","pain","6","","75","K","2","","0","0","1","","0.07950464875","false","25","","0.2378870173","main_expt","","0.3811330683","","0.07950464875","","0.3337381726","","","","","",""
"245","","bandit","101","432338","0.0-63.0-0.0","90200205","wem/bandit_single","A3U5CRG5S8I800","pain","6","","74","J","1","","0","0","1","","0.3131907418","false","26","","0.2555438901","main_expt","","0.3131907418","","0.09697268327","","0.3650510818","","","","","",""
"68","","bandit","102","434178","0.0-64.0-0.0","90200205","wem/bandit_single","A3U5CRG5S8I800","pain","6","","74","J","1","","0","0","1","","0.3210571327","false","27","","0.2487754609","main_expt","","0.3210571327","","0.09831328215","","0.3930286133","","","","","",""
"44","","bandit","103","436009","0.0-65.0-0.0","90200205","wem/bandit_single","A3U5CRG5S8I800","pain","6","","74","J","1","","0","0","1","","0.3350138966","false","28","","0.2023297646","main_expt","","0.3350138966","","0.08798585883","","0.3849328395","","","","","",""
"75","","bandit","104","437843","0.0-66.0-0.0","90200205","wem/bandit_single","A3U5CRG5S8I800","pain","6","","76","L","3","","0","0","1","","0.3635333449","false","29","","0.1824385616","main_expt","","0.3491704597","","0.1001400419","","0.3635333449","","","","","",""
"67","","bandit","105","439667","0.0-67.0-0.0","90200205","wem/bandit_single","A3U5CRG5S8I800","pain","6","","76","L","3","","0","1","0","","0.3870800473","false","30","","0.2108935763","main_expt","","0.3515390533","","0.100360092","","0.3870800473","","","","","",""
"116","","bandit","106","441584","0.0-68.0-0.0","90200205","wem/bandit_single","A3U5CRG5S8I800","pain","6","","76","L","3","","0","0","1","","0.407818568","false","31","","0.2212072473","main_expt","","0.3116189274","","0.1235489826","","0.407818568","","","","","",""
"928","","bandit","107","444499","0.0-69.0-0.0","90200205","wem/bandit_single","A3U5CRG5S8I800","pain","6","","76","L","3","","0","1","0","","0.4365503818","false","32","","0.2349080289","main_expt","","0.2923613921","","0.0999088058","","0.4365503818","","","","","",""
"194","","bandit","108","446455","0.0-70.0-0.0","90200205","wem/bandit_single","A3U5CRG5S8I800","pain","6","","76","L","3","","0","0","1","","0.438397095","false","33","","0.2233211346","main_expt","","0.2833872006","","0.1229353218","","0.438397095","","","","","",""
"182","","bandit","109","448419","0.0-71.0-0.0","90200205","wem/bandit_single","A3U5CRG5S8I800","pain","6","","76","L","3","","0","1","0","","0.4225996483","false","34","","0.2328620384","main_expt","","0.251012165","","0.1174339591","","0.4225996483","","","","","",""
"104","","bandit","110","450282","0.0-72.0-0.0","90200205","wem/bandit_single","A3U5CRG5S8I800","pain","6","","76","L","3","","0","1","0","","0.3719427837","false","35","","0.2442853791","main_expt","","0.2150204629","","0.08922948311","","0.3719427837","","","","","",""
"139","","bandit","111","452178","0.0-73.0-0.0","90200205","wem/bandit_single","A3U5CRG5S8I800","pain","6","","76","L","3","","0","0","1","","0.3643608465","false","36","","0.2536962779","main_expt","","0.2003821391","","0.1065429935","","0.3643608465","","","","","",""
"202","","bandit","112","454146","0.0-74.0-0.0","90200205","wem/bandit_single","A3U5CRG5S8I800","pain","6","","76","L","3","","0","0","1","","0.3951734682","false","37","","0.1968410568","main_expt","","0.1584744983","","0.119331244","","0.3951734682","","","","","",""
"75","","bandit","113","456033","0.0-75.0-0.0","90200205","wem/bandit_single","A3U5CRG5S8I800","pain","6","","76","L","3","","0","1","0","","0.4106313244","false","38","","0.1903576104","main_expt","","0.1107345946","","0.1140529394","","0.4106313244","","","","","",""
"299","","bandit","114","458095","0.0-76.0-0.0","90200205","wem/bandit_single","A3U5CRG5S8I800","pain","6","","76","L","3","","0","1","0","","0.385877281","false","39","","0.2094560733","main_expt","","0.1922112034","","0.1377706652","","0.385877281","","","","","",""
"133","","bandit","115","459986","0.0-77.0-0.0","90200205","wem/bandit_single","A3U5CRG5S8I800","pain","6","","76","L","3","","0","1","0","","0.3814638094","false","40","","0.2157952434","main_expt","","0.202991566","","0.1686011578","","0.3814638094","","","","","",""
"226","","bandit","116","461971","0.0-78.0-0.0","90200205","wem/bandit_single","A3U5CRG5S8I800","pain","6","","76","L","3","","0","0","1","","0.3569976603","false","41","","0.1982376225","main_expt","","0.257249123","","0.1640814413","","0.3569976603","","","","","",""
"63","","bandit","117","463795","0.0-79.0-0.0","90200205","wem/bandit_single","A3U5CRG5S8I800","pain","6","","76","L","3","","0","0","1","","0.3254656301","false","42","","0.1815133425","main_expt","","0.3139605103","","0.1444461896","","0.3254656301","","","","","",""
"129","","bandit","118","465683","0.0-80.0-0.0","90200205","wem/bandit_single","A3U5CRG5S8I800","pain","6","","76","L","3","","0","0","1","","0.3061667188","false","43","","0.1804658283","main_expt","","0.2859416922","","0.1466097136","","0.3061667188","","","","","",""
"250","","bandit","119","467690","0.0-81.0-0.0","90200205","wem/bandit_single","A3U5CRG5S8I800","pain","6","","76","L","3","","0","0","1","","0.3247162798","false","44","","0.1453808853","main_expt","","0.2344477797","","0.1701376127","","0.3247162798","","","","","",""
"67","","bandit","120","469523","0.0-82.0-0.0","90200205","wem/bandit_single","A3U5CRG5S8I800","pain","6","","75","K","2","","0","0","1","","0.2382164817","false","45","","0.1975985391","main_expt","","0.25278305","","0.2382164817","","0.3464274235","","","","","",""
"253","","bandit","121","471538","0.0-83.0-0.0","90200205","wem/bandit_single","A3U5CRG5S8I800","pain","6","","75","K","2","","0","0","1","","0.2817064876","false","46","","0.2099331931","main_expt","","0.2447001663","","0.2817064876","","0.2853596265","","","","","",""
"178","","bandit","122","473491","0.0-84.0-0.0","90200205","wem/bandit_single","A3U5CRG5S8I800","pain","6","","75","K","2","","0","1","0","","0.3449614965","false","47","","0.2373708448","main_expt","","0.2439886488","","0.3449614965","","0.2781892211","","","","","",""
"134","","bandit","123","475406","0.0-85.0-0.0","90200205","wem/bandit_single","A3U5CRG5S8I800","pain","6","","75","K","2","","0","0","1","","0.2846403666","false","48","","0.2929879582","main_expt","","0.3453423138","","0.2846403666","","0.2802769371","","","","","",""
"675","","bandit","124","477842","0.0-86.0-0.0","90200205","wem/bandit_single","A3U5CRG5S8I800","pain","6","","75","K","2","","0","1","0","","0.3292227521","false","49","","0.2643709298","main_expt","","0.3208634608","","0.3292227521","","0.3162769287","","","","","",""
"178","","bandit","125","479777","0.0-87.0-0.0","90200205","wem/bandit_single","A3U5CRG5S8I800","pain","6","","75","K","2","","0","0","1","","0.270904054","false","50","","0.2666646559","main_expt","","0.2600740437","","0.270904054","","0.2524095143","","","","","",""
"155","","bandit","126","481779","0.0-88.0-0.0","90200205","wem/bandit_single","A3U5CRG5S8I800","pain","6","","75","K","2","","0","0","1","","0.2503066232","false","51","","0.2550538978","main_expt","","0.2451527442","","0.2503066232","","0.2630113652","","","","","",""
"777","","bandit","127","484347","0.0-89.0-0.0","90200205","wem/bandit_single","A3U5CRG5S8I800","pain","6","","74","J","1","","0","0","1","","0.1882651979","false","52","","0.3235330097","main_expt","","0.1882651979","","0.2405173112","","0.2707742251","","","","","",""
"33","","bandit","128","486137","0.0-90.0-0.0","90200205","wem/bandit_single","A3U5CRG5S8I800","pain","6","","74","J","1","","0","0","1","","0.1930778153","false","53","","0.347433539","main_expt","","0.1930778153","","0.2966352861","","0.2150274285","","","","","",""
"82","","bandit","129","488011","0.0-91.0-0.0","90200205","wem/bandit_single","A3U5CRG5S8I800","pain","6","","74","J","1","","0","0","1","","0.2216955806","false","54","","0.3368202787","main_expt","","0.2216955806","","0.2887198369","","0.2326572497","","","","","",""
"471","","bandit","130","490269","0.0-92.0-0.0","90200205","wem/bandit_single","A3U5CRG5S8I800","pain","6","","72","H","0","img/none_selected.jpg","0","0","1","","0.3503124627","false","55","","0.3503124627","main_expt","","0.2422165651","","0.2801160178","","0.2134399586","","","","","",""
"14","","bandit","131","492041","0.0-93.0-0.0","90200205","wem/bandit_single","A3U5CRG5S8I800","pain","6","","72","H","0","img/none_selected.jpg","0","0","1","","0.368841946","false","56","","0.368841946","main_expt","","0.228979269","","0.3022415889","","0.2394891912","","","","","",""
"184","","bandit","132","493986","0.0-94.0-0.0","90200205","wem/bandit_single","A3U5CRG5S8I800","pain","6","","76","L","3","","0","0","1","","0.2942469327","false","57","","0.3883837061","main_expt","","0.243325051","","0.3300995428","","0.2942469327","","","","","",""
"145","","bandit","133","495896","0.0-95.0-0.0","90200205","wem/bandit_single","A3U5CRG5S8I800","pain","6","","76","L","3","","0","1","0","","0.369295693","false","58","","0.4116863428","main_expt","","0.2326991071","","0.3393984951","","0.369295693","","","","","",""
"84","","bandit","134","497808","0.0-96.0-0.0","90200205","wem/bandit_single","A3U5CRG5S8I800","pain","6","","76","L","3","","0","0","1","","0.3663837161","false","59","","0.3980375199","main_expt","","0.2480349675","","0.3592245678","","0.3663837161","","","","","",""
"171","","bandit","135","499738","0.0-97.0-0.0","90200205","wem/bandit_single","A3U5CRG5S8I800","pain","6","","76","L","3","","0","0","1","","0.3578669063","false","60","","0.3849919156","main_expt","","0.2591134247","","0.3431938453","","0.3578669063","","","","","",""
"81","","bandit","136","501578","0.0-98.0-0.0","90200205","wem/bandit_single","A3U5CRG5S8I800","pain","6","","76","L","3","","0","0","1","","0.3901807011","false","61","","0.3822359719","main_expt","","0.2828027123","","0.3622980041","","0.3901807011","","","","","",""
"664","","bandit","137","504001","0.0-99.0-0.0","90200205","wem/bandit_single","A3U5CRG5S8I800","pain","6","","74","J","1","","0","0","1","","0.2645717152","false","62","","0.3356955782","main_expt","","0.2645717152","","0.3898917795","","0.4199484271","","","","","",""
"41","","bandit","138","505800","0.0-100.0-0.0","90200205","wem/bandit_single","A3U5CRG5S8I800","pain","6","","74","J","1","","0","0","1","","0.3164731366","false","63","","0.2961333539","main_expt","","0.3164731366","","0.3730814422","","0.431710707","","","","","",""
"50","","bandit","139","507607","0.0-101.0-0.0","90200205","wem/bandit_single","A3U5CRG5S8I800","pain","6","","74","J","1","","0","0","1","","0.3549458842","false","64","","0.3332154777","main_expt","","0.3549458842","","0.359514794","","0.4302834116","","","","","",""
"501","","bandit","140","509943","0.0-102.0-0.0","90200205","wem/bandit_single","A3U5CRG5S8I800","pain","6","","75","K","2","","0","1","0","","0.3114607296","false","65","","0.35785358","main_expt","","0.288515421","","0.3114607296","","0.3985691748","","","","","",""
"18","","bandit","141","511725","0.0-103.0-0.0","90200205","wem/bandit_single","A3U5CRG5S8I800","pain","6","","75","K","2","","0","1","0","","0.2942291023","false","66","","0.406057841","main_expt","","0.3011993237","","0.2942291023","","0.4041176093","","","","","",""
"77","","bandit","142","513560","0.0-104.0-0.0","90200205","wem/bandit_single","A3U5CRG5S8I800","pain","6","","75","K","2","","0","0","1","","0.3320533568","false","67","","0.4196038874","main_expt","","0.345072876","","0.3320533568","","0.4007812862","","","","","",""
"90","","bandit","143","515409","0.0-105.0-0.0","90200205","wem/bandit_single","A3U5CRG5S8I800","pain","6","","75","K","2","","0","1","0","","0.3600975808","false","68","","0.3890604874","main_expt","","0.3196529892","","0.3600975808","","0.4294162969","","","","","",""
"88","","bandit","144","517257","0.0-106.0-0.0","90200205","wem/bandit_single","A3U5CRG5S8I800","pain","6","","75","K","2","","0","0","1","","0.2872110667","false","69","","0.4084138829","main_expt","","0.3649702463","","0.2872110667","","0.3767619451","","","","","",""
"129","","bandit","145","519144","0.0-107.0-0.0","90200205","wem/bandit_single","A3U5CRG5S8I800","pain","6","","75","K","2","","0","0","1","","0.295141158","false","70","","0.3468887804","main_expt","","0.356932825","","0.295141158","","0.3777248691","","","","","",""
"275","","bandit","146","521206","0.0-108.0-0.0","90200205","wem/bandit_single","A3U5CRG5S8I800","pain","6","","75","K","2","","0","1","0","","0.3206647592","false","71","","0.341524862","main_expt","","0.3835678776","","0.3206647592","","0.3795242786","","","","","",""
"183","","bandit","147","523192","0.0-109.0-0.0","90200205","wem/bandit_single","A3U5CRG5S8I800","pain","6","","75","K","2","","0","0","1","","0.3264000429","false","72","","0.3749246652","main_expt","","0.4212385026","","0.3264000429","","0.3665841139","","","","","",""
"147","","bandit","148","525097","0.0-110.0-0.0","90200205","wem/bandit_single","A3U5CRG5S8I800","pain","6","","75","K","2","","0","0","1","","0.333972891","false","73","","0.3871824506","main_expt","","0.4261424303","","0.333972891","","0.3651794524","","","","","",""
"370","","bandit","149","527224","0.0-111.0-0.0","90200205","wem/bandit_single","A3U5CRG5S8I800","pain","6","","74","J","1","","0","1","0","","0.3977974162","false","74","","0.3721906724","main_expt","","0.3977974162","","0.3616968722","","0.3550305672","","","","","",""
"93","","bandit","150","529082","0.0-112.0-0.0","90200205","wem/bandit_single","A3U5CRG5S8I800","pain","6","","74","J","1","","0","0","1","","0.4267201321","false","75","","0.3111946895","main_expt","","0.4267201321","","0.3975057441","","0.2927321298","","","","","",""
"111","","bandit","151","530952","0.0-113.0-0.0","90200205","wem/bandit_single","A3U5CRG5S8I800","pain","6","","74","J","1","","0","1","0","","0.4263250047","false","76","","0.3336428477","main_expt","","0.4263250047","","0.3807363423","","0.2842047713","","","","","",""
"138","","bandit","152","532847","0.0-114.0-0.0","90200205","wem/bandit_single","A3U5CRG5S8I800","pain","6","","74","J","1","","0","0","1","","0.4081139898","false","77","","0.2972108807","main_expt","","0.4081139898","","0.394346207","","0.291961298","","","","","",""
"338","","bandit","153","534972","0.0-115.0-0.0","90200205","wem/bandit_single","A3U5CRG5S8I800","pain","6","","74","J","1","","0","1","0","","0.4081745619","false","78","","0.3500338334","main_expt","","0.4081745619","","0.4130135997","","0.2772504781","","","","","",""
"247","","bandit","154","536989","0.0-116.0-0.0","90200205","wem/bandit_single","A3U5CRG5S8I800","pain","6","","74","J","1","","0","1","0","","0.4210543479","false","79","","0.3382579744","main_expt","","0.4210543479","","0.388257836","","0.2910266255","","","","","",""
"183","","bandit","155","538930","0.0-117.0-0.0","90200205","wem/bandit_single","A3U5CRG5S8I800","pain","6","","74","J","1","","0","0","1","","0.4173400146","false","80","","0.2848378437","main_expt","","0.4173400146","","0.402189785","","0.3236474027","","","","","",""
"215","","bandit","156","540961","0.0-118.0-0.0","90200205","wem/bandit_single","A3U5CRG5S8I800","pain","6","","74","J","1","","0","1","0","","0.3876294662","false","81","","0.2824957966","main_expt","","0.3876294662","","0.4188164015","","0.3171491255","","","","","",""
"141","","bandit","157","542864","0.0-119.0-0.0","90200205","wem/bandit_single","A3U5CRG5S8I800","pain","6","","74","J","1","","0","1","0","","0.3960397656","false","82","","0.2921189703","main_expt","","0.3960397656","","0.3923487362","","0.3253049084","","","","","",""
"107","","bandit","158","544771","0.0-120.0-0.0","90200205","wem/bandit_single","A3U5CRG5S8I800","pain","6","","74","J","1","","0","0","1","","0.4048972575","false","83","","0.346808059","main_expt","","0.4048972575","","0.3765831671","","0.2650825447","","","","","",""
"126","","bandit","159","546656","0.0-121.0-0.0","90200205","wem/bandit_single","A3U5CRG5S8I800","pain","6","","74","J","1","","0","1","0","","0.4261464595","false","84","","0.3142369957","main_expt","","0.4261464595","","0.3744655151","","0.2860936523","","","","","",""
"193","","bandit","160","548609","0.0-122.0-0.0","90200205","wem/bandit_single","A3U5CRG5S8I800","pain","6","","74","J","1","","0","1","0","","0.4252889048","false","85","","0.3336664699","main_expt","","0.4252889048","","0.4097897279","","0.2965161573","","","","","",""
"150","","bandit","161","550519","0.0-123.0-0.0","90200205","wem/bandit_single","A3U5CRG5S8I800","pain","6","","74","J","1","","0","1","0","","0.4234238012","false","86","","0.3487181938","main_expt","","0.4234238012","","0.4365994201","","0.2718920201","","","","","",""
"170","","bandit","162","552447","0.0-124.0-0.0","90200205","wem/bandit_single","A3U5CRG5S8I800","pain","6","","74","J","1","","0","1","0","","0.4493325849","false","87","","0.3595256023","main_expt","","0.4493325849","","0.4485753971","","0.2663647104","","","","","",""
"202","","bandit","163","554414","0.0-125.0-0.0","90200205","wem/bandit_single","A3U5CRG5S8I800","pain","6","","74","J","1","","0","0","1","","0.4618336953","false","88","","0.3633435887","main_expt","","0.4618336953","","0.4682155013","","0.2505207396","","","","","",""
"220","","bandit","164","556408","0.0-126.0-0.0","90200205","wem/bandit_single","A3U5CRG5S8I800","pain","6","","74","J","1","","0","1","0","","0.470357169","false","89","","0.3301577903","main_expt","","0.470357169","","0.455546077","","0.2380326514","","","","","",""
"248","","bandit","165","558414","0.0-127.0-0.0","90200205","wem/bandit_single","A3U5CRG5S8I800","pain","6","","74","J","1","","0","0","1","","0.4756012524","false","90","","0.2983975746","main_expt","","0.4756012524","","0.4648286352","","0.2825572521","","","","","",""
"177","","bandit","166","560389","0.0-128.0-0.0","90200205","wem/bandit_single","A3U5CRG5S8I800","pain","6","","74","J","1","","0","0","1","","0.4661355378","false","91","","0.2708507867","main_expt","","0.4661355378","","0.4597569826","","0.3629334232","","","","","",""
"290","","bandit","167","562443","0.0-129.0-0.0","90200205","wem/bandit_single","A3U5CRG5S8I800","pain","6","","74","J","1","","0","0","1","","0.4640816948","false","92","","0.2025174094","main_expt","","0.4640816948","","0.4636055165","","0.4318733099","","","","","",""
"301","","bandit","168","564521","0.0-130.0-0.0","90200205","wem/bandit_single","A3U5CRG5S8I800","pain","6","","74","J","1","","0","0","1","","0.4745032584","false","93","","0.1991535532","main_expt","","0.4745032584","","0.4344757896","","0.4354989634","","","","","",""
"135","","bandit","169","566414","0.0-131.0-0.0","90200205","wem/bandit_single","A3U5CRG5S8I800","pain","6","","75","K","2","","0","1","0","","0.4540573516","false","94","","0.2072674268","main_expt","","0.4713826624","","0.4540573516","","0.4569950804","","","","","",""
"215","","bandit","170","568445","0.0-132.0-0.0","90200205","wem/bandit_single","A3U5CRG5S8I800","pain","6","","75","K","2","","0","1","0","","0.467393544","false","95","","0.2139910976","main_expt","","0.4518091014","","0.467393544","","0.4626037768","","","","","",""
"336","","bandit","171","570542","0.0-133.0-0.0","90200205","wem/bandit_single","A3U5CRG5S8I800","pain","6","","75","K","2","","0","0","1","","0.4523779492","false","96","","0.1714021876","main_expt","","0.4610288074","","0.4523779492","","0.4632162831","","","","","",""
"287","","bandit","172","572587","0.0-134.0-0.0","90200205","wem/bandit_single","A3U5CRG5S8I800","pain","6","","75","K","2","","0","0","1","","0.4734298584","false","97","","0.1776734449","main_expt","","0.4610411697","","0.4734298584","","0.4574348148","","","","","",""
"228","","bandit","173","574576","0.0-135.0-0.0","90200205","wem/bandit_single","A3U5CRG5S8I800","pain","6","","75","K","2","","0","0","1","","0.4822123269","false","98","","0.2143852757","main_expt","","0.4658458747","","0.4822123269","","0.4551488225","","","","","",""
"117","","bandit","174","576502","0.0-136.0-0.0","90200205","wem/bandit_single","A3U5CRG5S8I800","pain","6","","75","K","2","","0","1","0","","0.4829706494","false","99","","0.2341872784","main_expt","","0.4372748216","","0.4829706494","","0.4604873832","","","","","",""
"160","","bandit","175","578423","0.0-137.0-0.0","90200205","wem/bandit_single","A3U5CRG5S8I800","pain","6","","75","K","2","","0","1","0","","0.4918551361","false","100","","0.2835639283","main_expt","","0.4237986198","","0.4918551361","","0.4364445071","","","","","",""
"209","","bandit","176","580389","0.0-138.0-0.0","90200205","wem/bandit_single","A3U5CRG5S8I800","pain","6","","75","K","2","","0","0","1","","0.4891782125","false","101","","0.3342764243","main_expt","","0.4239408107","","0.4891782125","","0.4152010141","","","","","",""
"195","","bandit","177","582374","0.0-139.0-0.0","90200205","wem/bandit_single","A3U5CRG5S8I800","pain","6","","75","K","2","","0","1","0","","0.484620563","false","102","","0.3693598309","main_expt","","0.4482877494","","0.484620563","","0.4463558977","","","","","",""
"128","","bandit","178","584269","0.0-140.0-0.0","90200205","wem/bandit_single","A3U5CRG5S8I800","pain","6","","75","K","2","","0","0","1","","0.4880888492","false","103","","0.3465782007","main_expt","","0.4319618448","","0.4880888492","","0.4519222506","","","","","",""
"131","","bandit","179","586216","0.0-141.0-0.0","90200205","wem/bandit_single","A3U5CRG5S8I800","pain","6","","75","K","2","","0","1","0","","0.4862983338","false","104","","0.356437927","main_expt","","0.3989131432","","0.4862983338","","0.44950272","","","","","",""
"112","","bandit","180","588086","0.0-142.0-0.0","90200205","wem/bandit_single","A3U5CRG5S8I800","pain","6","","75","K","2","","0","0","1","","0.4761426531","false","105","","0.349556789","main_expt","","0.3718051273","","0.4761426531","","0.4631277203","","","","","",""
"192","","bandit","181","590051","0.0-143.0-0.0","90200205","wem/bandit_single","A3U5CRG5S8I800","pain","6","","75","K","2","","0","1","0","","0.4724420891","false","106","","0.3368343046","main_expt","","0.3820213715","","0.4724420891","","0.4761070442","","","","","",""
"155","","bandit","182","591965","0.0-144.0-0.0","90200205","wem/bandit_single","A3U5CRG5S8I800","pain","6","","75","K","2","","0","1","0","","0.4544285192","false","107","","0.3492990444","main_expt","","0.3903902173","","0.4544285192","","0.4574049266","","","","","",""
"169","","bandit","183","593941","0.0-145.0-0.0","90200205","wem/bandit_single","A3U5CRG5S8I800","pain","6","","75","K","2","","0","0","1","","0.4489506099","false","108","","0.3657086014","main_expt","","0.424383047","","0.4489506099","","0.4342229458","","","","","",""
"193","","bandit","184","595905","0.0-146.0-0.0","90200205","wem/bandit_single","A3U5CRG5S8I800","pain","6","","75","K","2","","0","1","0","","0.4357570441","false","109","","0.3473329542","main_expt","","0.3732822228","","0.4357570441","","0.4437976733","","","","","",""
"163","","bandit","185","597831","0.0-147.0-0.0","90200205","wem/bandit_single","A3U5CRG5S8I800","pain","6","","75","K","2","","0","0","1","","0.4243789051","false","110","","0.3937482981","main_expt","","0.3545846445","","0.4243789051","","0.4131704669","","","","","",""
"1017","","bandit","186","600694","0.0-148.0-0.0","90200205","wem/bandit_single","A3U5CRG5S8I800","pain","6","","75","K","2","","0","0","1","","0.4235572131","false","111","","0.4067223002","main_expt","","0.2861948885","","0.4235572131","","0.3849612216","","","","","",""
"310","","bandit","187","602774","0.0-149.0-0.0","90200205","wem/bandit_single","A3U5CRG5S8I800","pain","6","","75","K","2","","0","1","0","","0.4216330179","false","112","","0.3791461054","main_expt","","0.3148935151","","0.4216330179","","0.4197473064","","","","","",""
"319","","bandit","188","604853","0.0-150.0-0.0","90200205","wem/bandit_single","A3U5CRG5S8I800","pain","6","","75","K","2","","0","0","1","","0.3981229654","false","113","","0.3697872407","main_expt","","0.310891148","","0.3981229654","","0.4477672952","","","","","",""
"629","","bandit","189","607240","0.0-151.0-0.0","90200205","wem/bandit_single","A3U5CRG5S8I800","pain","6","","75","K","2","","0","1","0","","0.4051483532","false","114","","0.3542284497","main_expt","","0.3312817134","","0.4051483532","","0.4347577032","","","","","",""
"309","","bandit","190","609374","0.0-152.0-0.0","90200205","wem/bandit_single","A3U5CRG5S8I800","pain","6","","75","K","2","","0","1","0","","0.3664587937","false","115","","0.3424252445","main_expt","","0.3328181623","","0.3664587937","","0.4123529648","","","","","",""
"224","","bandit","191","611360","0.0-153.0-0.0","90200205","wem/bandit_single","A3U5CRG5S8I800","pain","6","","75","K","2","","0","1","0","","0.3815824605","false","116","","0.3364913945","main_expt","","0.282168926","","0.3815824605","","0.4374051313","","","","","",""
"230","","bandit","192","613348","0.0-154.0-0.0","90200205","wem/bandit_single","A3U5CRG5S8I800","pain","6","","75","K","2","","0","1","0","","0.3718524962","false","117","","0.3607093693","main_expt","","0.3282440564","","0.3718524962","","0.4336999329","","","","","",""
"53","","bandit","193","615384","0.0-155.0-0.0","90200205","wem/bandit_single","A3U5CRG5S8I800","pain","6","","75","K","2","","0","0","1","","0.3228128462","false","118","","0.3651530194","main_expt","","0.3735758205","","0.3228128462","","0.4609057125","","","","","",""
"45","","bandit","194","617190","0.0-156.0-0.0","90200205","wem/bandit_single","A3U5CRG5S8I800","pain","6","","75","K","2","","0","1","0","","0.3303119184","false","119","","0.391691743","main_expt","","0.4085136599","","0.3303119184","","0.4644995027","","","","","",""
"119","","bandit","195","619068","0.0-157.0-0.0","90200205","wem/bandit_single","A3U5CRG5S8I800","pain","6","","75","K","2","","0","0","1","","0.3566896217","false","120","","0.3892352466","main_expt","","0.4152109264","","0.3566896217","","0.4699288035","","","","","",""
"73","","bandit","196","621012","0.0-158.0-0.0","90200205","wem/bandit_single","A3U5CRG5S8I800","pain","6","","75","K","2","","0","0","1","","0.3938610898","false","121","","0.4119078466","main_expt","","0.4362055741","","0.3938610898","","0.48416914","","","","","",""
"49","","bandit","197","622824","0.0-159.0-0.0","90200205","wem/bandit_single","A3U5CRG5S8I800","pain","6","","75","K","2","","0","0","1","","0.3846692282","false","122","","0.3864510994","main_expt","","0.4381361327","","0.3846692282","","0.4744752566","","","","","",""
"388","","bandit","198","624972","0.0-160.0-0.0","90200205","wem/bandit_single","A3U5CRG5S8I800","pain","6","","72","H","0","img/none_selected.jpg","0","0","1","","0.3206095238","false","123","","0.3206095238","main_expt","","0.4266523018","","0.3479888462","","0.4770694964","","","","","",""
"96","","bandit","199","626839","0.0-161.0-0.0","90200205","wem/bandit_single","A3U5CRG5S8I800","pain","6","","72","H","0","img/none_selected.jpg","0","0","1","","0.3004639257","false","124","","0.3004639257","main_expt","","0.3976500929","","0.3446564944","","0.4882663864","","","","","",""
"92","","bandit","200","628693","0.0-162.0-0.0","90200205","wem/bandit_single","A3U5CRG5S8I800","pain","6","","72","H","0","img/none_selected.jpg","0","0","1","","0.2718713493","false","125","","0.2718713493","main_expt","","0.4004048686","","0.3742116014","","0.4867438878","","","","","",""
"15","","bandit","201","630468","0.0-163.0-0.0","90200205","wem/bandit_single","A3U5CRG5S8I800","pain","6","","76","L","3","","0","0","1","","0.4859509926","false","126","","0.312825386","main_expt","","0.3978852423","","0.3522130289","","0.4859509926","","","","","",""
"96","","bandit","202","632323","0.0-164.0-0.0","90200205","wem/bandit_single","A3U5CRG5S8I800","pain","6","","76","L","3","","0","1","0","","0.4910312391","false","127","","0.2929193121","main_expt","","0.4164913371","","0.4136983804","","0.4910312391","","","","","",""
"102","","bandit","203","634202","0.0-165.0-0.0","90200205","wem/bandit_single","A3U5CRG5S8I800","pain","6","","76","L","3","","0","0","1","","0.4916106826","false","128","","0.3483635392","main_expt","","0.4273270633","","0.3740150402","","0.4916106826","","","","","",""
"517","","bandit","204","636637","0.0-166.0-0.0","90200205","wem/bandit_single","A3U5CRG5S8I800","pain","6","","76","L","3","","0","0","1","","0.4774596984","false","129","","0.3180783589","main_expt","","0.4403517336","","0.3561584853","","0.4774596984","","","","","",""
"116","","bandit","205","638534","0.0-167.0-0.0","90200205","wem/bandit_single","A3U5CRG5S8I800","pain","6","","76","L","3","","0","0","1","","0.4792113904","false","130","","0.332672873","main_expt","","0.436469863","","0.3781611856","","0.4792113904","","","","","",""
"16","","bandit","206","640315","0.0-168.0-0.0","90200205","wem/bandit_single","A3U5CRG5S8I800","pain","6","","74","J","1","","0","0","1","","0.467157068","false","131","","0.3172252399","main_expt","","0.467157068","","0.3972118802","","0.4761250173","","","","","",""
"44","","bandit","207","642170","0.0-169.0-0.0","90200205","wem/bandit_single","A3U5CRG5S8I800","pain","6","","74","J","1","","0","0","1","","0.4747764211","false","132","","0.2808852702","main_expt","","0.4747764211","","0.3951630556","","0.4782449011","","","","","",""
"65","","bandit","208","643996","0.0-170.0-0.0","90200205","wem/bandit_single","A3U5CRG5S8I800","pain","6","","74","J","1","","0","1","0","","0.4662147581","false","133","","0.2846237695","main_expt","","0.4662147581","","0.3918056992","","0.4789501527","","","","","",""
"120","","bandit","209","645874","0.0-171.0-0.0","90200205","wem/bandit_single","A3U5CRG5S8I800","pain","6","","74","J","1","","0","1","0","","0.4711951182","false","134","","0.3115497245","main_expt","","0.4711951182","","0.395342783","","0.4821877595","","","","","",""
"73","","bandit","210","647711","0.0-172.0-0.0","90200205","wem/bandit_single","A3U5CRG5S8I800","pain","6","","74","J","1","","0","0","1","","0.4540730246","false","135","","0.3413582918","main_expt","","0.4540730246","","0.3867762939","","0.4863767518","","","","","",""
"156","","bandit","211","649627","0.0-173.0-0.0","90200205","wem/bandit_single","A3U5CRG5S8I800","pain","6","","74","J","1","","0","1","0","","0.4412688847","false","136","","0.316763081","main_expt","","0.4412688847","","0.3929594686","","0.4887786445","","","","","",""
"224","","bandit","212","651611","0.0-174.0-0.0","90200205","wem/bandit_single","A3U5CRG5S8I800","pain","6","","74","J","1","","0","0","1","","0.4585130214","false","137","","0.2585559296","main_expt","","0.4585130214","","0.3067223256","","0.4896902137","","","","","",""
"104","","bandit","213","653474","0.0-175.0-0.0","90200205","wem/bandit_single","A3U5CRG5S8I800","pain","6","","74","J","1","","0","0","1","","0.4413786145","false","138","","0.2320291273","main_expt","","0.4413786145","","0.3444805877","","0.4754525561","","","","","",""
"208","","bandit","214","655446","0.0-176.0-0.0","90200205","wem/bandit_single","A3U5CRG5S8I800","pain","6","","74","J","1","","0","0","1","","0.4235974169","false","139","","0.2705305451","main_expt","","0.4235974169","","0.4025185773","","0.4525902595","","","","","",""
"61","","bandit","215","657267","0.0-177.0-0.0","90200205","wem/bandit_single","A3U5CRG5S8I800","pain","6","","72","H","0","img/none_selected.jpg","0","0","1","","0.2115164241","false","140","","0.2115164241","main_expt","","0.3993595144","","0.4000290511","","0.474141966","","","","","",""
"128","","bandit","216","659154","0.0-178.0-0.0","90200205","wem/bandit_single","A3U5CRG5S8I800","pain","6","","72","H","0","img/none_selected.jpg","0","0","1","","0.2166269704","false","141","","0.2166269704","main_expt","","0.3845482665","","0.4052231698","","0.4642583801","","","","","",""
"249","","bandit","217","661216","0.0-179.0-0.0","90200205","wem/bandit_single","A3U5CRG5S8I800","pain","6","","72","H","0","img/none_selected.jpg","0","1","0","","0.2477117994","false","142","","0.2477117994","main_expt","","0.3636407915","","0.3881257509","","0.4713728632","","","","","",""
"114","","bandit","218","663091","0.0-180.0-0.0","90200205","wem/bandit_single","A3U5CRG5S8I800","pain","6","","72","H","0","img/none_selected.jpg","0","1","0","","0.2347168821","false","143","","0.2347168821","main_expt","","0.3360879677","","0.4101759482","","0.4714731714","","","","","",""
"151","","bandit","219","665002","0.0-181.0-0.0","90200205","wem/bandit_single","A3U5CRG5S8I800","pain","6","","72","H","0","img/none_selected.jpg","0","0","1","","0.190213181","false","144","","0.190213181","main_expt","","0.2886719504","","0.4100488723","","0.4777196865","","","","","",""
"273","","bandit","220","667036","0.0-182.0-0.0","90200205","wem/bandit_single","A3U5CRG5S8I800","pain","6","","72","H","0","img/none_selected.jpg","0","1","0","","0.2873677543","false","145","","0.2873677543","main_expt","","0.2607344777","","0.4294240464","","0.467438704","","","","","",""
"224","","bandit","221","669070","0.0-183.0-0.0","90200205","wem/bandit_single","A3U5CRG5S8I800","pain","6","","72","H","0","img/none_selected.jpg","0","0","1","","0.3434581746","false","146","","0.3434581746","main_expt","","0.261523257","","0.4447984025","","0.4764572222","","","","","",""
"84","","bandit","222","670926","0.0-184.0-0.0","90200205","wem/bandit_single","A3U5CRG5S8I800","pain","6","","72","H","0","img/none_selected.jpg","0","0","1","","0.3677167414","false","147","","0.3677167414","main_expt","","0.2768268543","","0.4339083406","","0.4670163239","","","","","",""
"318","","bandit","223","673003","0.0-185.0-0.0","90200205","wem/bandit_single","A3U5CRG5S8I800","pain","6","","72","H","0","img/none_selected.jpg","0","1","0","","0.378672096","false","148","","0.378672096","main_expt","","0.2822793125","","0.4200875786","","0.4762727371","","","","","",""
"165","","bandit","224","674974","0.0-186.0-0.0","90200205","wem/bandit_single","A3U5CRG5S8I800","pain","6","","72","H","0","img/none_selected.jpg","0","1","0","","0.3447579657","false","149","","0.3447579657","main_expt","","0.3100291085","","0.4370731276","","0.4763998188","","","","","",""
"192","","bandit","225","676927","0.0-187.0-0.0","90200205","wem/bandit_single","A3U5CRG5S8I800","pain","6","","72","H","0","img/none_selected.jpg","0","0","1","","0.3225325285","false","150","","0.3225325285","main_expt","","0.3473977335","","0.4606741766","","0.4534074178","","","","","",""
"107","","bandit","226","678793","0.0-188.0-0.0","90200205","wem/bandit_single","A3U5CRG5S8I800","pain","6","","72","H","0","img/none_selected.jpg","0","0","1","","0.2971371866","false","151","","0.2971371866","main_expt","","0.3755194153","","0.4831185644","","0.4518750411","","","","","",""
"134","","bandit","227","680712","0.0-189.0-0.0","90200205","wem/bandit_single","A3U5CRG5S8I800","pain","6","","72","H","0","img/none_selected.jpg","0","0","1","","0.2436525959","false","152","","0.2436525959","main_expt","","0.3931135366","","0.489350082","","0.4724220712","","","","","",""
"213","","bandit","228","682691","0.0-190.0-0.0","90200205","wem/bandit_single","A3U5CRG5S8I800","pain","6","","72","H","0","img/none_selected.jpg","0","1","0","","0.2745817176","false","153","","0.2745817176","main_expt","","0.3704791656","","0.4874668037","","0.4655138208","","","","","",""
"80","","bandit","229","684579","0.0-191.0-0.0","90200205","wem/bandit_single","A3U5CRG5S8I800","pain","6","","72","H","0","img/none_selected.jpg","0","1","0","","0.2354012901","false","154","","0.2354012901","main_expt","","0.3918087328","","0.4906252114","","0.466892577","","","","","",""
"151","","bandit","230","686489","0.0-192.0-0.0","90200205","wem/bandit_single","A3U5CRG5S8I800","pain","6","","72","H","0","img/none_selected.jpg","0","0","1","","0.2125693007","false","155","","0.2125693007","main_expt","","0.3629162862","","0.4807331657","","0.4696525674","","","","","",""
"80","","bandit","231","688341","0.0-193.0-0.0","90200205","wem/bandit_single","A3U5CRG5S8I800","pain","6","","75","K","2","","0","0","1","","0.4886913858","false","156","","0.2344806361","main_expt","","0.3329402669","","0.4886913858","","0.4798639378","","","","","",""
"44","","bandit","232","690146","0.0-194.0-0.0","90200205","wem/bandit_single","A3U5CRG5S8I800","pain","6","","75","K","2","","0","0","1","","0.4791259403","false","157","","0.1314384861","main_expt","","0.2681960896","","0.4791259403","","0.4706110477","","","","","",""
"288","","bandit","233","692194","0.0-195.0-0.0","90200205","wem/bandit_single","A3U5CRG5S8I800","pain","6","","74","J","1","","0","0","1","","0.2540197996","false","158","","0.181857365","main_expt","","0.2540197996","","0.4733263956","","0.4469873257","","","","","",""
"88","","bandit","234","694075","0.0-196.0-0.0","90200205","wem/bandit_single","A3U5CRG5S8I800","pain","6","","74","J","1","","0","1","0","","0.2609952623","false","159","","0.158015958","main_expt","","0.2609952623","","0.4815819336","","0.4239904196","","","","","",""
"142","","bandit","235","695979","0.0-197.0-0.0","90200205","wem/bandit_single","A3U5CRG5S8I800","pain","6","","74","J","1","","0","0","1","","0.2023108268","false","160","","0.141078422","main_expt","","0.2023108268","","0.4721468952","","0.4459131135","","","","","",""
"96","","bandit","236","697834","0.0-198.0-0.0","90200205","wem/bandit_single","A3U5CRG5S8I800","pain","6","","74","J","1","","0","0","1","","0.2500661268","false","161","","0.1347361735","main_expt","","0.2500661268","","0.4711146003","","0.4186734055","","","","","",""
"90","","bandit","237","699690","0.0-199.0-0.0","90200205","wem/bandit_single","A3U5CRG5S8I800","pain","6","","76","L","3","","0","1","0","","0.3857154427","false","162","","0.09535719087","main_expt","","0.2540596089","","0.4712261849","","0.3857154427","","","","","",""
"191","","bandit","238","701643","0.0-200.0-0.0","90200205","wem/bandit_single","A3U5CRG5S8I800","pain","6","","76","L","3","","0","1","0","","0.4174701589","false","163","","0.08326456225","main_expt","","0.2601053227","","0.4845321786","","0.4174701589","","","","","",""
"110","","bandit","239","703514","0.0-201.0-0.0","90200205","wem/bandit_single","A3U5CRG5S8I800","pain","6","","76","L","3","","0","0","1","","0.3890878976","false","164","","0.09053498257","main_expt","","0.2541421927","","0.4759389929","","0.3890878976","","","","","",""
"207","","bandit","240","705481","0.0-202.0-0.0","90200205","wem/bandit_single","A3U5CRG5S8I800","pain","6","","76","L","3","","0","1","0","","0.4138915172","false","165","","0.08506048778","main_expt","","0.2481661974","","0.4720948066","","0.4138915172","","","","","",""
"168","","bandit","241","707587","0.0-203.0-0.0","90200205","wem/bandit_single","A3U5CRG5S8I800","pain","6","","76","L","3","","0","1","0","","0.3965001983","false","166","","0.1313511463","main_expt","","0.2774316831","","0.4785392204","","0.3965001983","","","","","",""
"52","","bandit","242","709402","0.0-204.0-0.0","90200205","wem/bandit_single","A3U5CRG5S8I800","pain","6","","76","L","3","","0","0","1","","0.3565429409","false","167","","0.1176964862","main_expt","","0.2487678046","","0.4807372421","","0.3565429409","","","","","",""
"71","","bandit","243","711233","0.0-205.0-0.0","90200205","wem/bandit_single","A3U5CRG5S8I800","pain","6","","76","L","3","","0","0","1","","0.3697134737","false","168","","0.08442850793","main_expt","","0.3058486258","","0.4679921472","","0.3697134737","","","","","",""
"176","","bandit","244","713169","0.0-206.0-0.0","90200205","wem/bandit_single","A3U5CRG5S8I800","pain","6","","76","L","3","","0","0","1","","0.3754926497","false","169","","0.08508452716","main_expt","","0.3196595105","","0.4504326489","","0.3754926497","","","","","",""
"86","","bandit","245","715162","0.0-207.0-0.0","90200205","wem/bandit_single","A3U5CRG5S8I800","pain","6","","76","L","3","","0","1","0","","0.3688606114","false","170","","0.06647736925","main_expt","","0.2675331271","","0.4575738232","","0.3688606114","","","","","",""
"197","","bandit","246","717121","0.0-208.0-0.0","90200205","wem/bandit_single","A3U5CRG5S8I800","pain","6","","76","L","3","","0","1","0","","0.3548436987","false","171","","0.05048422731","main_expt","","0.2898788388","","0.4515033555","","0.3548436987","","","","","",""
"95","","bandit","247","718977","0.0-209.0-0.0","90200205","wem/bandit_single","A3U5CRG5S8I800","pain","6","","76","L","3","","0","0","1","","0.3789739593","false","172","","0.05782489063","main_expt","","0.3066863737","","0.4804896953","","0.3789739593","","","","","",""
"55","","bandit","248","720793","0.0-210.0-0.0","90200205","wem/bandit_single","A3U5CRG5S8I800","pain","6","","76","L","3","","0","1","0","","0.361488512","false","173","","0.05297704283","main_expt","","0.2694007619","","0.4915792717","","0.361488512","","","","","",""
"85","","bandit","249","722641","0.0-211.0-0.0","90200205","wem/bandit_single","A3U5CRG5S8I800","pain","6","","76","L","3","","0","0","1","","0.3460135238","false","174","","0.05353397103","main_expt","","0.2754062015","","0.4861742571","","0.3460135238","","","","","",""
"120","","bandit","250","724520","0.0-212.0-0.0","90200205","wem/bandit_single","A3U5CRG5S8I800","pain","6","","76","L","3","","0","1","0","","0.3522158256","false","175","","0.03778759003","main_expt","","0.296446081","","0.4817940596","","0.3522158256","","","","","",""
"153","","bandit","251","726435","0.0-213.0-0.0","90200205","wem/bandit_single","A3U5CRG5S8I800","pain","6","","76","L","3","","0","0","1","","0.2998164985","false","176","","0.02527008277","main_expt","","0.3058710094","","0.4757066075","","0.2998164985","","","","","",""
"405","","bandit","252","728617","0.0-214.0-0.0","90200205","wem/bandit_single","A3U5CRG5S8I800","pain","6","","76","L","3","","0","0","1","","0.2523084086","false","177","","0.03305249037","main_expt","","0.2349503117","","0.4781570811","","0.2523084086","","","","","",""
"254","","bandit","253","730633","0.0-215.0-0.0","90200205","wem/bandit_single","A3U5CRG5S8I800","pain","6","","76","L","3","","0","0","1","","0.304071788","false","178","","0.03386287722","main_expt","","0.2619038699","","0.4800614517","","0.304071788","","","","","",""
"368","","bandit","254","732823","0.0-216.0-0.0","90200205","wem/bandit_single","A3U5CRG5S8I800","pain","6","","72","H","0","img/none_selected.jpg","0","0","1","","0.04065763291","false","179","","0.04065763291","main_expt","","0.2830684205","","0.4829502963","","0.2871062198","","","","","",""
"513","","bandit","255","735099","0.0-217.0-0.0","90200205","wem/bandit_single","A3U5CRG5S8I800","pain","6","","72","H","0","img/none_selected.jpg","0","0","1","","0.05743716857","false","180","","0.05743716857","main_expt","","0.3534450431","","0.4858173281","","0.2266659288","","","","","",""
"65","","bandit","256","736936","0.0-218.0-0.0","90200205","wem/bandit_single","A3U5CRG5S8I800","pain","6","","72","H","0","img/none_selected.jpg","0","0","1","","0.04418568229","false","181","","0.04418568229","main_expt","","0.3212605574","","0.4744777914","","0.221928096","","","","","",""
"159","","bandit","257","738856","0.0-219.0-0.0","90200205","wem/bandit_single","A3U5CRG5S8I800","pain","6","","74","J","1","","0","0","1","","0.3315430587","false","182","","0.08176319179","main_expt","","0.3315430587","","0.4845259409","","0.2300829386","","","","","",""
"79","","bandit","258","740697","0.0-220.0-0.0","90200205","wem/bandit_single","A3U5CRG5S8I800","pain","6","","74","J","1","","0","0","1","","0.3284942609","false","183","","0.127405614","main_expt","","0.3284942609","","0.481953826","","0.236046558","","","","","",""
"45","","bandit","259","742582","0.0-221.0-0.0","90200205","wem/bandit_single","A3U5CRG5S8I800","pain","6","","75","K","2","","0","1","0","","0.4855041368","false","184","","0.08615736955","main_expt","","0.3122619856","","0.4855041368","","0.2923178249","","","","","",""
"9","","bandit","260","744351","0.0-222.0-0.0","90200205","wem/bandit_single","A3U5CRG5S8I800","pain","6","","75","K","2","","0","0","1","","0.4698046591","false","185","","0.1184297318","main_expt","","0.2923416166","","0.4698046591","","0.2808840613","","","","","",""
"62","","bandit","261","746202","0.0-223.0-0.0","90200205","wem/bandit_single","A3U5CRG5S8I800","pain","6","","75","K","2","","0","1","0","","0.4595088788","false","186","","0.1909222977","main_expt","","0.2743414945","","0.4595088788","","0.2016881086","","","","","",""
"157","","bandit","262","748120","0.0-224.0-0.0","90200205","wem/bandit_single","A3U5CRG5S8I800","pain","6","","75","K","2","","0","1","0","","0.4646501277","false","187","","0.156943311","main_expt","","0.3313242874","","0.4646501277","","0.2403842116","","","","","",""
"33","","bandit","263","749947","0.0-225.0-0.0","90200205","wem/bandit_single","A3U5CRG5S8I800","pain","6","","75","K","2","","0","0","1","","0.4587354039","false","188","","0.139104156","main_expt","","0.3665806697","","0.4587354039","","0.2559443775","","","","","",""
"109","","bandit","264","751815","0.0-226.0-0.0","90200205","wem/bandit_single","A3U5CRG5S8I800","pain","6","","75","K","2","","0","0","1","","0.4433819168","false","189","","0.1984961232","main_expt","","0.3982105691","","0.4433819168","","0.2450962267","","","","","",""
"185","","bandit","265","753774","0.0-227.0-0.0","90200205","wem/bandit_single","A3U5CRG5S8I800","pain","6","","75","K","2","","0","0","1","","0.441597313","false","190","","0.3152507924","main_expt","","0.4063069195","","0.441597313","","0.2520413598","","","","","",""
"248","","bandit","266","755785","0.0-228.0-0.0","90200205","wem/bandit_single","A3U5CRG5S8I800","pain","6","","76","L","3","","0","0","1","","0.3069822625","false","191","","0.34868685","main_expt","","0.4073058099","","0.4447050695","","0.3069822625","","","","","",""
"493","","bandit","267","758039","0.0-229.0-0.0","90200205","wem/bandit_single","A3U5CRG5S8I800","pain","6","","76","L","3","","0","0","1","","0.269658105","false","192","","0.3244392246","main_expt","","0.3597632315","","0.3903647542","","0.269658105","","","","","",""
"425","","bandit","268","760280","0.0-230.0-0.0","90200205","wem/bandit_single","A3U5CRG5S8I800","pain","6","","72","H","0","img/none_selected.jpg","0","0","1","","0.3077199203","false","193","","0.3077199203","main_expt","","0.3512918873","","0.37796371","","0.2337652902","","","","","",""
"27","","bandit","269","762090","0.0-231.0-0.0","90200205","wem/bandit_single","A3U5CRG5S8I800","pain","6","","72","H","0","img/none_selected.jpg","0","0","1","","0.3089314305","false","194","","0.3089314305","main_expt","","0.2959519196","","0.4130200877","","0.232364398","","","","","",""
"434","","bandit","270","764288","0.0-232.0-0.0","90200205","wem/bandit_single","A3U5CRG5S8I800","pain","6","","74","J","1","","0","0","1","","0.335494982","false","195","","0.2747286701","main_expt","","0.335494982","","0.4247195967","","0.3001816851","","","","","",""
"78","","bandit","271","766128","0.0-233.0-0.0","90200205","wem/bandit_single","A3U5CRG5S8I800","pain","6","","74","J","1","","0","0","1","","0.349715921","false","196","","0.234477082","main_expt","","0.349715921","","0.4243543636","","0.3408234979","","","","","",""
"78","","bandit","272","767969","0.0-234.0-0.0","90200205","wem/bandit_single","A3U5CRG5S8I800","pain","6","","74","J","1","","0","1","0","","0.301359959","false","197","","0.2134381397","main_expt","","0.301359959","","0.3856928417","","0.3048500693","","","","","",""
"116","","bandit","273","769847","0.0-235.0-0.0","90200205","wem/bandit_single","A3U5CRG5S8I800","pain","6","","74","J","1","","0","0","1","","0.2948231879","false","198","","0.1732682886","main_expt","","0.2948231879","","0.3619593125","","0.320222978","","","","","",""
"244","","bandit","274","771855","0.0-236.0-0.0","90200205","wem/bandit_single","A3U5CRG5S8I800","pain","6","","74","J","1","","0","1","0","","0.2739130918","false","199","","0.1702760897","main_expt","","0.2739130918","","0.367752629","","0.3267381451","","","","","",""
"218","","bandit","275","773928","0.0-237.0-0.0","90200205","wem/bandit_single","A3U5CRG5S8I800","pain","6","","74","J","1","","0","0","1","","0.2519174554","false","200","","0.1149890083","main_expt","","0.2519174554","","0.3243939248","","0.3471124056","","","","","",""
"222","","bandit","276","775919","0.0-238.0-0.0","90200205","wem/bandit_single","A3U5CRG5S8I800","pain","6","","74","J","1","","0","0","1","","0.2607800984","false","201","","0.1378425817","main_expt","","0.2607800984","","0.309205964","","0.377370495","","","","","",""
"30","","bandit","277","777711","0.0-239.0-0.0","90200205","wem/bandit_single","A3U5CRG5S8I800","pain","6","","72","H","0","img/none_selected.jpg","0","0","1","","0.1351165101","false","202","","0.1351165101","main_expt","","0.2144757733","","0.2762714965","","0.4118986778","","","","","",""
"26","","bandit","278","779498","0.0-240.0-0.0","90200205","wem/bandit_single","A3U5CRG5S8I800","pain","6","","72","H","0","img/none_selected.jpg","0","0","1","","0.105254576","false","203","","0.105254576","main_expt","","0.3006883459","","0.296808735","","0.4232074982","","","","","",""
"28","","bandit","279","781287","0.0-241.0-0.0","90200205","wem/bandit_single","A3U5CRG5S8I800","pain","6","","72","H","0","img/none_selected.jpg","0","1","0","","0.09939331469","false","204","","0.09939331469","main_expt","","0.3059688055","","0.3198559136","","0.422672589","","","","","",""
"53","","bandit","280","783103","0.0-242.0-0.0","90200205","wem/bandit_single","A3U5CRG5S8I800","pain","6","","72","H","0","img/none_selected.jpg","0","0","1","","0.1099723927","false","205","","0.1099723927","main_expt","","0.2810212056","","0.3814451683","","0.4290364806","","","","","",""
"30","","bandit","281","784903","0.0-243.0-0.0","90200205","wem/bandit_single","A3U5CRG5S8I800","pain","6","","72","H","0","img/none_selected.jpg","0","1","0","","0.1203356594","false","206","","0.1203356594","main_expt","","0.2427537705","","0.3836436308","","0.4412489094","","","","","",""
"94","","bandit","282","786759","0.0-244.0-0.0","90200205","wem/bandit_single","A3U5CRG5S8I800","pain","6","","72","H","0","img/none_selected.jpg","0","0","1","","0.1887874267","false","207","","0.1887874267","main_expt","","0.2312113295","","0.3943212714","","0.461161346","","","","","",""
"130","","bandit","283","788669","0.0-245.0-0.0","90200205","wem/bandit_single","A3U5CRG5S8I800","pain","6","","72","H","0","img/none_selected.jpg","0","0","1","","0.1570662604","false","208","","0.1570662604","main_expt","","0.2502246517","","0.4100076043","","0.4749000037","","","","","",""
"55","","bandit","284","790487","0.0-246.0-0.0","90200205","wem/bandit_single","A3U5CRG5S8I800","pain","6","","76","L","3","","0","0","1","","0.4677638209","false","209","","0.2050570797","main_expt","","0.2378747501","","0.4207901851","","0.4677638209","","","","","",""
"50","","bandit","285","792329","0.0-247.0-0.0","90200205","wem/bandit_single","A3U5CRG5S8I800","pain","6","","76","L","3","","0","1","0","","0.4507398287","false","210","","0.1803355731","main_expt","","0.2323826376","","0.4261573075","","0.4507398287","","","","","",""
"451","","bandit","286","794584","0.0-248.0-0.0","90200205","wem/bandit_single","A3U5CRG5S8I800","pain","6","","76","L","3","","0","0","1","","0.4275102647","false","211","","0.2066302241","main_expt","","0.2346446126","","0.3677002177","","0.4275102647","","","","","",""
"530","","bandit","287","796878","0.0-249.0-0.0","90200205","wem/bandit_single","A3U5CRG5S8I800","pain","6","","76","L","3","","0","1","0","","0.4147803006","false","212","","0.2190460355","main_expt","","0.2017096022","","0.4030871251","","0.4147803006","","","","","",""
"150","","bandit","288","798791","0.0-250.0-0.0","90200205","wem/bandit_single","A3U5CRG5S8I800","pain","6","","76","L","3","","0","0","1","","0.4119553225","false","213","","0.2433731683","main_expt","","0.2149770465","","0.3616850983","","0.4119553225","","","","","",""
"250","","bandit","289","800802","0.0-251.0-0.0","90200205","wem/bandit_single","A3U5CRG5S8I800","pain","6","","76","L","3","","0","1","0","","0.4097086646","false","214","","0.2355486522","main_expt","","0.2323699387","","0.3380837625","","0.4097086646","","","","","",""
"225","","bandit","290","802790","0.0-252.0-0.0","90200205","wem/bandit_single","A3U5CRG5S8I800","pain","6","","76","L","3","","0","1","0","","0.4553079268","false","215","","0.2493822419","main_expt","","0.1880023584","","0.3788103814","","0.4553079268","","","","","",""
"110","","bandit","291","804662","0.0-253.0-0.0","90200205","wem/bandit_single","A3U5CRG5S8I800","pain","6","","76","L","3","","0","0","1","","0.4360341733","false","216","","0.2455091026","main_expt","","0.2305078945","","0.3844600678","","0.4360341733","","","","","",""
"148","","bandit","292","806573","0.0-254.0-0.0","90200205","wem/bandit_single","A3U5CRG5S8I800","pain","6","","76","L","3","","0","1","0","","0.4337093526","false","217","","0.193913996","main_expt","","0.2042922501","","0.3747540642","","0.4337093526","","","","","",""
"170","","bandit","293","808511","0.0-255.0-0.0","90200205","wem/bandit_single","A3U5CRG5S8I800","pain","6","","76","L","3","","0","1","0","","0.4646024675","false","218","","0.2375794361","main_expt","","0.1827914188","","0.373903774","","0.4646024675","","","","","",""
"125","","bandit","294","810398","0.0-256.0-0.0","90200205","wem/bandit_single","A3U5CRG5S8I800","pain","6","","76","L","3","","0","0","1","","0.4630893692","false","219","","0.2477723709","main_expt","","0.2630445196","","0.3735380413","","0.4630893692","","","","","",""
"174","","bandit","295","812334","0.0-257.0-0.0","90200205","wem/bandit_single","A3U5CRG5S8I800","pain","6","","76","L","3","","0","1","0","","0.4683356487","false","220","","0.2543503475","main_expt","","0.311946342","","0.383917491","","0.4683356487","","","","","",""
"71","","bandit","296","814169","0.0-258.0-0.0","90200205","wem/bandit_single","A3U5CRG5S8I800","pain","6","","76","L","3","","0","0","1","","0.4682635517","false","221","","0.2776519347","main_expt","","0.2972788283","","0.3479973737","","0.4682635517","","","","","",""
"77","","bandit","297","816031","0.0-259.0-0.0","90200205","wem/bandit_single","A3U5CRG5S8I800","pain","6","","76","L","3","","0","0","1","","0.4771668828","false","222","","0.2291835432","main_expt","","0.3550400804","","0.3845595158","","0.4771668828","","","","","",""
"133","","bandit","298","817926","0.0-260.0-0.0","90200205","wem/bandit_single","A3U5CRG5S8I800","pain","6","","76","L","3","","0","0","1","","0.4773959318","false","223","","0.2266132179","main_expt","","0.3246239653","","0.368723436","","0.4773959318","","","","","",""
"217","","bandit","299","819918","0.0-261.0-0.0","90200205","wem/bandit_single","A3U5CRG5S8I800","pain","6","","76","L","3","","0","0","1","","0.4567335023","false","224","","0.2124948974","main_expt","","0.351266899","","0.3566991655","","0.4567335023","","","","","",""
"261","","bandit","300","821988","0.0-262.0-0.0","90200205","wem/bandit_single","A3U5CRG5S8I800","pain","6","","72","H","0","img/none_selected.jpg","0","0","1","","0.2168010387","false","225","","0.2168010387","main_expt","","0.3617362435","","0.3557331736","","0.4545703871","","","","","",""
"10","","bandit","301","823781","0.0-263.0-0.0","90200205","wem/bandit_single","A3U5CRG5S8I800","pain","6","","72","H","0","img/none_selected.jpg","0","0","1","","0.2286352314","false","226","","0.2286352314","main_expt","","0.3625162538","","0.3620904828","","0.4563055184","","","","","",""
"85","","bandit","302","825629","0.0-264.0-0.0","90200205","wem/bandit_single","A3U5CRG5S8I800","pain","6","","72","H","0","img/none_selected.jpg","0","0","1","","0.2349833204","false","227","","0.2349833204","main_expt","","0.3638477037","","0.3794330306","","0.4414344485","","","","","",""
"142","","bandit","303","827535","0.0-265.0-0.0","90200205","wem/bandit_single","A3U5CRG5S8I800","pain","6","","74","J","1","","0","0","1","","0.321865515","false","228","","0.2376541641","main_expt","","0.321865515","","0.3480060926","","0.4509897562","","","","","",""
"72","","bandit","304","829408","0.0-266.0-0.0","90200205","wem/bandit_single","A3U5CRG5S8I800","pain","6","","74","J","1","","0","1","0","","0.2574970425","false","229","","0.2141250471","main_expt","","0.2574970425","","0.3197951212","","0.4355264455","","","","","",""
"150","","bandit","305","831333","0.0-267.0-0.0","90200205","wem/bandit_single","A3U5CRG5S8I800","pain","6","","74","J","1","","0","1","0","","0.3167366343","false","230","","0.1986478114","main_expt","","0.3167366343","","0.2360623461","","0.4393215817","","","","","",""
"54","","bandit","306","833148","0.0-268.0-0.0","90200205","wem/bandit_single","A3U5CRG5S8I800","pain","6","","74","J","1","","0","1","0","","0.359889087","false","231","","0.1632677176","main_expt","","0.359889087","","0.228441671","","0.426442838","","","","","",""
"82","","bandit","307","835031","0.0-269.0-0.0","90200205","wem/bandit_single","A3U5CRG5S8I800","pain","6","","74","J","1","","0","0","1","","0.3765691143","false","232","","0.1437929512","main_expt","","0.3765691143","","0.2233622879","","0.4455015341","","","","","",""
"244","","bandit","308","837037","0.0-270.0-0.0","90200205","wem/bandit_single","A3U5CRG5S8I800","pain","6","","74","J","1","","0","0","1","","0.351320345","false","233","","0.2490618922","main_expt","","0.351320345","","0.1782647691","","0.4370113712","","","","","",""
"454","","bandit","309","839253","0.0-271.0-0.0","90200205","wem/bandit_single","A3U5CRG5S8I800","pain","6","","74","J","1","","0","0","1","","0.2997083133","false","234","","0.2811602772","main_expt","","0.2997083133","","0.1971530904","","0.4228056097","","","","","",""
"503","","bandit","310","841678","0.0-272.0-0.0","90200205","wem/bandit_single","A3U5CRG5S8I800","pain","6","","74","J","1","","0","0","1","","0.3526624454","false","235","","0.332316849","main_expt","","0.3526624454","","0.2109348075","","0.4176536857","","","","","",""
"28","","bandit","311","843470","0.0-273.0-0.0","90200205","wem/bandit_single","A3U5CRG5S8I800","pain","6","","75","K","2","","0","0","1","","0.1891579582","false","236","","0.3059905229","main_expt","","0.3050627859","","0.1891579582","","0.419442654","","","","","",""
"70","","bandit","312","845300","0.0-274.0-0.0","90200205","wem/bandit_single","A3U5CRG5S8I800","pain","6","","75","K","2","","0","0","1","","0.1278978542","false","237","","0.3058344165","main_expt","","0.312969263","","0.1278978542","","0.4082659589","","","","","",""
"24","","bandit","313","847085","0.0-275.0-0.0","90200205","wem/bandit_single","A3U5CRG5S8I800","pain","6","","75","K","2","","0","0","1","","0.1509653188","false","238","","0.2931512536","main_expt","","0.380225341","","0.1509653188","","0.4108407801","","","","","",""
"201","","bandit","314","849061","0.0-276.0-0.0","90200205","wem/bandit_single","A3U5CRG5S8I800","pain","6","","72","H","0","img/none_selected.jpg","0","0","1","","0.2922133777","false","239","","0.2922133777","main_expt","","0.3657076542","","0.1919733462","","0.4378360478","","","","","",""
"118","","bandit","315","850940","0.0-277.0-0.0","90200205","wem/bandit_single","A3U5CRG5S8I800","pain","6","","72","H","0","img/none_selected.jpg","0","1","0","","0.3452033359","false","240","","0.3452033359","main_expt","","0.3815359164","","0.1751407906","","0.4467030129","","","","","",""
"63","","bandit","316","852765","0.0-278.0-0.0","90200205","wem/bandit_single","A3U5CRG5S8I800","pain","6","","72","H","0","img/none_selected.jpg","0","1","0","","0.3682897549","false","241","","0.3682897549","main_expt","","0.3251101936","","0.1759125222","","0.4705393647","","","","","",""
"217","","bandit","317","854745","0.0-279.0-0.0","90200205","wem/bandit_single","A3U5CRG5S8I800","pain","6","","72","H","0","img/none_selected.jpg","0","1","0","","0.3628947189","false","242","","0.3628947189","main_expt","","0.3212185421","","0.2137068054","","0.4610792938","","","","","",""
"153","","bandit","318","856661","0.0-280.0-0.0","90200205","wem/bandit_single","A3U5CRG5S8I800","pain","6","","72","H","0","img/none_selected.jpg","0","0","1","","0.3766569032","false","243","","0.3766569032","main_expt","","0.3270030252","","0.2179170348","","0.4437729889","","","","","",""
"223","","bandit","319","858653","0.0-281.0-0.0","90200205","wem/bandit_single","A3U5CRG5S8I800","pain","6","","72","H","0","img/none_selected.jpg","0","0","1","","0.377991886","false","244","","0.377991886","main_expt","","0.309973419","","0.2426329099","","0.4199869792","","","","","",""
"61","","bandit","320","860478","0.0-282.0-0.0","90200205","wem/bandit_single","A3U5CRG5S8I800","pain","6","","72","H","0","img/none_selected.jpg","0","0","1","","0.304751896","false","245","","0.304751896","main_expt","","0.3342881273","","0.2351694379","","0.4183767379","","","","","",""
"25","","bandit","321","862338","0.0-283.0-0.0","90200205","wem/bandit_single","A3U5CRG5S8I800","pain","6","","72","H","0","img/none_selected.jpg","0","1","0","","0.3348187262","false","246","","0.3348187262","main_expt","","0.3149240913","","0.2111663312","","0.4292136751","","","","","",""
"85","","bandit","322","864184","0.0-284.0-0.0","90200205","wem/bandit_single","A3U5CRG5S8I800","pain","6","","72","H","0","img/none_selected.jpg","0","0","1","","0.3307987246","false","247","","0.3307987246","main_expt","","0.296458043","","0.1899020887","","0.4577956797","","","","","",""
"66","","bandit","323","866077","0.0-285.0-0.0","90200205","wem/bandit_single","A3U5CRG5S8I800","pain","6","","72","H","0","img/none_selected.jpg","0","0","1","","0.3774544282","false","248","","0.3774544282","main_expt","","0.3038576119","","0.2151484255","","0.4586239927","","","","","",""
"132","","bandit","324","867973","0.0-286.0-0.0","90200205","wem/bandit_single","A3U5CRG5S8I800","pain","6","","74","J","1","","0","0","1","","0.3383832125","false","249","","0.3553688181","main_expt","","0.3383832125","","0.2454548658","","0.4709187109","","","","","",""
"52","","bandit","325","869808","0.0-287.0-0.0","90200205","wem/bandit_single","A3U5CRG5S8I800","pain","6","","74","J","1","","0","0","1","","0.3505221498","false","250","","0.3209961504","main_expt","","0.3505221498","","0.1973527755","","0.4742496359","","","","","",""
"66","","bandit","326","871636","0.0-288.0-0.0","90200205","wem/bandit_single","A3U5CRG5S8I800","pain","6","","74","J","1","","0","0","1","","0.3439557404","false","251","","0.2938420796","main_expt","","0.3439557404","","0.2459600056","","0.4684276702","","","","","",""
"87","","bandit","327","873491","0.0-289.0-0.0","90200205","wem/bandit_single","A3U5CRG5S8I800","pain","6","","76","L","3","","0","0","1","","0.465775704","false","252","","0.2377141092","main_expt","","0.3394881367","","0.2361341643","","0.465775704","","","","","",""
"141","","bandit","328","875398","0.0-290.0-0.0","90200205","wem/bandit_single","A3U5CRG5S8I800","pain","6","","76","L","3","","0","0","1","","0.4739398589","false","253","","0.28098189","main_expt","","0.3195186677","","0.2263014677","","0.4739398589","","","","","",""
"13","","bandit","329","877178","0.0-291.0-0.0","90200205","wem/bandit_single","A3U5CRG5S8I800","pain","6","","75","K","2","","0","0","1","","0.2384195691","false","254","","0.36168886","main_expt","","0.3607388593","","0.2384195691","","0.4709597483","","","","","",""
"64","","bandit","330","879004","0.0-292.0-0.0","90200205","wem/bandit_single","A3U5CRG5S8I800","pain","6","","75","K","2","","0","0","1","","0.2186709452","false","255","","0.3196270919","main_expt","","0.3801942793","","0.2186709452","","0.468651231","","","","","",""
"102","","bandit","331","880878","0.0-293.0-0.0","90200205","wem/bandit_single","A3U5CRG5S8I800","pain","6","","75","K","2","","0","1","0","","0.1625458568","false","256","","0.3201998045","main_expt","","0.2987962353","","0.1625458568","","0.4837462493","","","","","",""
"29","","bandit","332","882677","0.0-294.0-0.0","90200205","wem/bandit_single","A3U5CRG5S8I800","pain","6","","75","K","2","","0","1","0","","0.159361747","false","257","","0.3576002339","main_expt","","0.272571782","","0.159361747","","0.4842399178","","","","","",""
"28","","bandit","333","884484","0.0-295.0-0.0","90200205","wem/bandit_single","A3U5CRG5S8I800","pain","6","","75","K","2","","0","0","1","","0.1556255119","false","258","","0.3715220428","main_expt","","0.2593204486","","0.1556255119","","0.4878873921","","","","","",""
"87","","bandit","334","886392","0.0-296.0-0.0","90200205","wem/bandit_single","A3U5CRG5S8I800","pain","6","","75","K","2","","0","0","1","","0.1256368346","false","259","","0.3730860303","main_expt","","0.2951424317","","0.1256368346","","0.4869160663","","","","","",""
"89","","bandit","335","888249","0.0-297.0-0.0","90200205","wem/bandit_single","A3U5CRG5S8I800","pain","6","","75","K","2","","0","0","1","","0.1449854444","false","260","","0.3724964978","main_expt","","0.2369093976","","0.1449854444","","0.4912834456","","","","","",""
"272","","bandit","336","890328","0.0-298.0-0.0","90200205","wem/bandit_single","A3U5CRG5S8I800","pain","6","","72","H","0","img/none_selected.jpg","0","1","0","","0.3574286068","false","261","","0.3574286068","main_expt","","0.2234433316","","0.1647157085","","0.4907072989","","","","","",""
"513","","bandit","337","892622","0.0-299.0-0.0","90200205","wem/bandit_single","A3U5CRG5S8I800","pain","6","","72","H","0","img/none_selected.jpg","0","0","1","","0.4204463107","false","262","","0.4204463107","main_expt","","0.215626833","","0.1586541082","","0.4904114062","","","","","",""
"146","","bandit","338","894570","0.0-300.0-0.0","90200205","wem/bandit_single","A3U5CRG5S8I800","pain","6","","72","H","0","img/none_selected.jpg","0","0","1","","0.4244263348","false","263","","0.4244263348","main_expt","","0.2227197798","","0.1683870388","","0.4900075499","","","","","",""
"286","","bandit","339","896622","0.0-301.0-0.0","90200205","wem/bandit_single","A3U5CRG5S8I800","pain","6","","72","H","0","img/none_selected.jpg","0","1","0","","0.4217668892","false","264","","0.4217668892","main_expt","","0.2113558788","","0.2205087037","","0.4922230388","","","","","",""
"171","","bandit","340","898555","0.0-302.0-0.0","90200205","wem/bandit_single","A3U5CRG5S8I800","pain","6","","72","H","0","img/none_selected.jpg","0","0","1","","0.3908218086","false","265","","0.3908218086","main_expt","","0.1814287308","","0.1554736059","","0.4892111554","","","","","",""
"109","","bandit","341","900429","0.0-303.0-0.0","90200205","wem/bandit_single","A3U5CRG5S8I800","pain","6","","72","H","0","img/none_selected.jpg","0","1","0","","0.350583855","false","266","","0.350583855","main_expt","","0.2579261203","","0.1556775797","","0.4894097466","","","","","",""
"138","","bandit","342","902331","0.0-304.0-0.0","90200205","wem/bandit_single","A3U5CRG5S8I800","pain","6","","72","H","0","img/none_selected.jpg","0","0","1","","0.2971845499","false","267","","0.2971845499","main_expt","","0.3033521226","","0.1732223335","","0.4898547377","","","","","",""
"174","","bandit","343","904266","0.0-305.0-0.0","90200205","wem/bandit_single","A3U5CRG5S8I800","pain","6","","72","H","0","img/none_selected.jpg","0","1","0","","0.3271935382","false","268","","0.3271935382","main_expt","","0.2697057224","","0.1670192172","","0.4960714099","","","","","",""
"39","","bandit","344","906066","0.0-306.0-0.0","90200205","wem/bandit_single","A3U5CRG5S8I800","pain","6","","72","H","0","img/none_selected.jpg","0","0","1","","0.2912245063","false","269","","0.2912245063","main_expt","","0.3075876552","","0.1666577124","","0.4951393121","","","","","",""
"64","","bandit","345","907932","0.0-307.0-0.0","90200205","wem/bandit_single","A3U5CRG5S8I800","pain","6","","72","H","0","img/none_selected.jpg","0","1","0","","0.3007980493","false","270","","0.3007980493","main_expt","","0.3437361696","","0.1133531577","","0.4903783272","","","","","",""
"131","","bandit","346","909826","0.0-308.0-0.0","90200205","wem/bandit_single","A3U5CRG5S8I800","pain","6","","72","H","0","img/none_selected.jpg","0","1","0","","0.3025875308","false","271","","0.3025875308","main_expt","","0.2596534978","","0.1453503833","","0.4932948231","","","","","",""
"64","","bandit","347","911673","0.0-309.0-0.0","90200205","wem/bandit_single","A3U5CRG5S8I800","pain","6","","72","H","0","img/none_selected.jpg","0","0","1","","0.2608882705","false","272","","0.2608882705","main_expt","","0.2680739133","","0.1542373291","","0.4950636705","","","","","",""
"94","","bandit","348","913532","0.0-310.0-0.0","90200205","wem/bandit_single","A3U5CRG5S8I800","pain","6","","72","H","0","img/none_selected.jpg","0","0","1","","0.2985246063","false","273","","0.2985246063","main_expt","","0.2287209558","","0.1312836042","","0.4866982898","","","","","",""
"163","","bandit","349","915471","0.0-311.0-0.0","90200205","wem/bandit_single","A3U5CRG5S8I800","pain","6","","72","H","0","img/none_selected.jpg","0","0","1","","0.296104213","false","274","","0.296104213","main_expt","","0.2659047846","","0.1616535947","","0.4654226264","","","","","",""
"105","","bandit","350","917337","0.0-312.0-0.0","90200205","wem/bandit_single","A3U5CRG5S8I800","pain","6","","72","H","0","img/none_selected.jpg","0","0","1","","0.2897414639","false","275","","0.2897414639","main_expt","","0.2303642271","","0.163822666","","0.4633702838","","","","","",""
"190","","bandit","351","919310","0.0-313.0-0.0","90200205","wem/bandit_single","A3U5CRG5S8I800","pain","6","","76","L","3","","0","0","1","","0.4741710053","false","276","","0.296822441","main_expt","","0.2631654739","","0.1500588852","","0.4741710053","","","","","",""
"322","","bandit","352","921412","0.0-314.0-0.0","90200205","wem/bandit_single","A3U5CRG5S8I800","pain","6","","76","L","3","","0","0","1","","0.4821206929","false","277","","0.2769528726","main_expt","","0.2660527836","","0.1975700973","","0.4821206929","","","","","",""
"278","","bandit","353","923539","0.0-315.0-0.0","90200205","wem/bandit_single","A3U5CRG5S8I800","pain","6","","76","L","3","","0","0","1","","0.4704549119","false","278","","0.3356585436","main_expt","","0.2869547209","","0.1355298524","","0.4704549119","","","","","",""
"188","","bandit","354","925490","0.0-316.0-0.0","90200205","wem/bandit_single","A3U5CRG5S8I800","pain","6","","75","K","2","","0","0","1","","0.1437345226","false","279","","0.3222384225","main_expt","","0.3594721793","","0.1437345226","","0.4749598821","","","","","",""
"284","","bandit","355","927645","0.0-317.0-0.0","90200205","wem/bandit_single","A3U5CRG5S8I800","pain","6","","75","K","2","","0","0","1","","0.126787642","false","280","","0.27346357","main_expt","","0.3903699723","","0.126787642","","0.4385317488","","","","","",""
"49","","bandit","356","929458","0.0-318.0-0.0","90200205","wem/bandit_single","A3U5CRG5S8I800","pain","6","","75","K","2","","0","1","0","","0.1765789866","false","281","","0.3633072925","main_expt","","0.4583904318","","0.1765789866","","0.4397970497","","","","","",""
"85","","bandit","357","931350","0.0-319.0-0.0","90200205","wem/bandit_single","A3U5CRG5S8I800","pain","6","","75","K","2","","0","0","1","","0.1659157347","false","282","","0.3269934488","main_expt","","0.4689346609","","0.1659157347","","0.4485424667","","","","","",""
"105","","bandit","358","933220","0.0-320.0-0.0","90200205","wem/bandit_single","A3U5CRG5S8I800","pain","6","","75","K","2","","0","1","0","","0.1876778028","false","283","","0.324321327","main_expt","","0.460541741","","0.1876778028","","0.4460930912","","","","","",""
"170","","bandit","359","935154","0.0-321.0-0.0","90200205","wem/bandit_single","A3U5CRG5S8I800","pain","6","","75","K","2","","0","0","1","","0.2072959333","false","284","","0.2677217275","main_expt","","0.4485703909","","0.2072959333","","0.46041158","","","","","",""
"191","","bandit","360","937144","0.0-322.0-0.0","90200205","wem/bandit_single","A3U5CRG5S8I800","pain","6","","75","K","2","","0","1","0","","0.2171876524","false","285","","0.2832280908","main_expt","","0.4493749552","","0.2171876524","","0.4722631388","","","","","",""
"207","","bandit","361","939112","0.0-323.0-0.0","90200205","wem/bandit_single","A3U5CRG5S8I800","pain","6","","75","K","2","","0","0","1","","0.224404947","false","286","","0.3338799161","main_expt","","0.4223312446","","0.224404947","","0.4710864859","","","","","",""
"269","","bandit","362","941204","0.0-324.0-0.0","90200205","wem/bandit_single","A3U5CRG5S8I800","pain","6","","75","K","2","","0","0","1","","0.2249093708","false","287","","0.3484096991","main_expt","","0.457140216","","0.2249093708","","0.4400158941","","","","","",""
"130","","bandit","363","943098","0.0-325.0-0.0","90200205","wem/bandit_single","A3U5CRG5S8I800","pain","6","","75","K","2","","0","0","1","","0.2219747159","false","288","","0.3215301514","main_expt","","0.4411377771","","0.2219747159","","0.4036546776","","","","","",""
"454","","bandit","364","945345","0.0-326.0-0.0","90200205","wem/bandit_single","A3U5CRG5S8I800","pain","6","","74","J","1","","0","0","1","","0.4501271696","false","289","","0.2965974011","main_expt","","0.4501271696","","0.2183007497","","0.4324218596","","","","","",""
"45","","bandit","365","947154","0.0-327.0-0.0","90200205","wem/bandit_single","A3U5CRG5S8I800","pain","6","","74","J","1","","0","1","0","","0.4436507911","false","290","","0.2926361454","main_expt","","0.4436507911","","0.2481136515","","0.4536473803","","","","","",""
"222","","bandit","366","949143","0.0-328.0-0.0","90200205","wem/bandit_single","A3U5CRG5S8I800","pain","6","","74","J","1","","0","0","1","","0.4381939672","false","291","","0.243163711","main_expt","","0.4381939672","","0.2972088317","","0.4634661847","","","","","",""
"55","","bandit","367","950961","0.0-329.0-0.0","90200205","wem/bandit_single","A3U5CRG5S8I800","pain","6","","74","J","1","","0","0","1","","0.4101305143","false","292","","0.2064952975","main_expt","","0.4101305143","","0.2998647236","","0.4609966616","","","","","",""
"56","","bandit","368","952788","0.0-330.0-0.0","90200205","wem/bandit_single","A3U5CRG5S8I800","pain","6","","72","H","0","img/none_selected.jpg","0","0","1","","0.2099334792","false","293","","0.2099334792","main_expt","","0.4297915702","","0.2861810992","","0.4648618971","","","","","",""
"97","","bandit","369","954649","0.0-331.0-0.0","90200205","wem/bandit_single","A3U5CRG5S8I800","pain","6","","72","H","0","img/none_selected.jpg","0","0","1","","0.2507358833","false","294","","0.2507358833","main_expt","","0.4537219743","","0.345484004","","0.4582487824","","","","","",""
"53","","bandit","370","956465","0.0-332.0-0.0","90200205","wem/bandit_single","A3U5CRG5S8I800","pain","6","","76","L","3","","0","1","0","","0.4482247061","false","295","","0.2494268831","main_expt","","0.4694953972","","0.3251772281","","0.4482247061","","","","","",""
"102","","bandit","371","958328","0.0-333.0-0.0","90200205","wem/bandit_single","A3U5CRG5S8I800","pain","6","","76","L","3","","0","1","0","","0.42326912","false","296","","0.2867080039","main_expt","","0.4880383038","","0.2953905587","","0.42326912","","","","","",""
"63","","bandit","372","960154","0.0-334.0-0.0","90200205","wem/bandit_single","A3U5CRG5S8I800","pain","6","","76","L","3","","0","1","0","","0.4151021773","false","297","","0.2983387387","main_expt","","0.4916251568","","0.2717848064","","0.4151021773","","","","","",""
