"rt","responses","trial_type","trial_index","time_elapsed","internal_node_id","subjID","study","MID","cond","drift","key_press","respCharCode","respKey","respChoiceNum","respChoice","gems","bombs","no_reward","GemPrChosen","BombPrChosen","practice","trial_counter","WinPr_0","LosePr_0","trial_label","WinPr_1","LosePr_1","WinPr_2","LosePr_2","WinPr_3","LosePr_3","Q0","Q1","Q2","gender","age","ethnicity"
"152856","{""Q0"":""AUAN582MLI96N""}","survey-text","0","152872","0.0-0.0","90502714","wem/bandit_single","AUAN582MLI96N","pain","4","","","","","","","","","","","","","","","","","","","","","","","","","","",""
"3160","","text","1","157051","0.0-1.0","90502714","wem/bandit_single","AUAN582MLI96N","pain","4","32","","","","","","","","","","","","","","","","","","","","","","","","","",""
"4017","","text","2","161070","0.0-2.0","90502714","wem/bandit_single","AUAN582MLI96N","pain","4","32","","","","","","","","","","","","","","","","","","","","","","","","","",""
"391980","","text","3","553057","0.0-3.0","90502714","wem/bandit_single","AUAN582MLI96N","pain","4","32","","","","","","","","","","","","","","","","","","","","","","","","","",""
"9016","","text","4","562079","0.0-4.0","90502714","wem/bandit_single","AUAN582MLI96N","pain","4","32","","","","","","","","","","","","","","","","","","","","","","","","","",""
"11468","","text","5","573549","0.0-5.0","90502714","wem/bandit_single","AUAN582MLI96N","pain","4","32","","","","","","","","","","","","","","","","","","","","","","","","","",""
"6885","","text","6","580436","0.0-6.0","90502714","wem/bandit_single","AUAN582MLI96N","pain","4","32","","","","","","","","","","","","","","","","","","","","","","","","","",""
"4220","","text","7","584658","0.0-7.0","90502714","wem/bandit_single","AUAN582MLI96N","pain","4","32","","","","","","","","","","","","","","","","","","","","","","","","","",""
"2787","","text","8","587449","0.0-8.0","90502714","wem/bandit_single","AUAN582MLI96N","pain","4","32","","","","","","","","","","","","","","","","","","","","","","","","","",""
"1894","","text","9","589345","0.0-9.0","90502714","wem/bandit_single","AUAN582MLI96N","pain","4","32","","","","","","","","","","","","","","","","","","","","","","","","","",""
"6622","","text","10","595969","0.0-10.0","90502714","wem/bandit_single","AUAN582MLI96N","pain","4","32","","","","","","","","","","","","","","","","","","","","","","","","","",""
"7658","","text","11","603631","0.0-11.0","90502714","wem/bandit_single","AUAN582MLI96N","pain","4","32","","","","","","","","","","","","","","","","","","","","","","","","","",""
"1447","","bandit","12","606594","0.0-12.0-0.0","90502714","wem/bandit_single","AUAN582MLI96N","pain","4","","74","J","0","img/none_selected_demo.jpg","0","0","1","0","0","true","0","0","0","","","","","","","","","","","","",""
"539","","bandit","13","608898","0.0-13.0-0.0","90502714","wem/bandit_single","AUAN582MLI96N","pain","4","","75","K","0","img/none_selected_demo.jpg","0","0","1","0","0","true","0","0","0","","","","","","","","","","","","",""
"3722","","text","14","612884","0.0-14.0","90502714","wem/bandit_single","AUAN582MLI96N","pain","4","32","","","","","","","","","","","","","","","","","","","","","","","","","",""
"1338","","text","15","614225","0.0-15.0","90502714","wem/bandit_single","AUAN582MLI96N","pain","4","32","","","","","","","","","","","","","","","","","","","","","","","","","",""
"6195","","text","16","620422","0.0-16.0","90502714","wem/bandit_single","AUAN582MLI96N","pain","4","32","","","","","","","","","","","","","","","","","","","","","","","","","",""
"1756","","text","17","622181","0.0-17.0","90502714","wem/bandit_single","AUAN582MLI96N","pain","4","32","","","","","","","","","","","","","","","","","","","","","","","","","",""
"1538","","bandit","18","625254","0.0-18.0-0.0","90502714","wem/bandit_single","AUAN582MLI96N","pain","4","","74","J","0","img/none_selected_demo.jpg","0","1","0","0","0.8","true","0","0","0.8","80_20_practice","0","0.2","","","","","","","","","",""
"308","","bandit","19","627325","0.0-18.0-1.0","90502714","wem/bandit_single","AUAN582MLI96N","pain","4","","75","K","1","","0","1","0","0","0.2","true","0","0","0.8","80_20_practice","0","0.2","","","","","","","","","",""
"40","","bandit","20","629131","0.0-18.0-2.0","90502714","wem/bandit_single","AUAN582MLI96N","pain","4","","75","K","1","","0","1","0","0","0.2","true","0","0","0.8","80_20_practice","0","0.2","","","","","","","","","",""
"68","","bandit","21","630959","0.0-18.0-3.0","90502714","wem/bandit_single","AUAN582MLI96N","pain","4","","75","K","1","","0","0","1","0","0.2","true","0","0","0.8","80_20_practice","0","0.2","","","","","","","","","",""
"1107","","bandit","22","633823","0.0-18.0-4.0","90502714","wem/bandit_single","AUAN582MLI96N","pain","4","","75","K","1","","0","0","1","0","0.2","true","0","0","0.8","80_20_practice","0","0.2","","","","","","","","","",""
"1109","","bandit","23","636744","0.0-18.0-5.0","90502714","wem/bandit_single","AUAN582MLI96N","pain","4","","74","J","0","img/none_selected_demo.jpg","0","1","0","0","0.8","true","0","0","0.8","80_20_practice","0","0.2","","","","","","","","","",""
"1072","","bandit","24","639582","0.0-18.0-6.0","90502714","wem/bandit_single","AUAN582MLI96N","pain","4","","74","J","0","img/none_selected_demo.jpg","0","1","0","0","0.8","true","0","0","0.8","80_20_practice","0","0.2","","","","","","","","","",""
"153","","bandit","25","641494","0.0-18.0-7.0","90502714","wem/bandit_single","AUAN582MLI96N","pain","4","","75","K","1","","0","0","1","0","0.2","true","0","0","0.8","80_20_practice","0","0.2","","","","","","","","","",""
"987","","bandit","26","644241","0.0-18.0-8.0","90502714","wem/bandit_single","AUAN582MLI96N","pain","4","","74","J","0","img/none_selected_demo.jpg","0","1","0","0","0.8","true","0","0","0.8","80_20_practice","0","0.2","","","","","","","","","",""
"131","","bandit","27","646817","0.0-18.0-9.0","90502714","wem/bandit_single","AUAN582MLI96N","pain","4","","74","J","0","img/none_selected_demo.jpg","0","1","0","0","0.8","true","0","0","0.8","80_20_practice","0","0.2","","","","","","","","","",""
"6949","","bandit","28","656275","0.0-18.0-10.0","90502714","wem/bandit_single","AUAN582MLI96N","pain","4","","74","J","0","img/none_selected_demo.jpg","0","1","0","0","0.8","true","0","0","0.8","80_20_practice","0","0.2","","","","","","","","","",""
"314","","bandit","29","658375","0.0-18.0-11.0","90502714","wem/bandit_single","AUAN582MLI96N","pain","4","","74","J","0","img/none_selected_demo.jpg","0","1","0","0","0.8","true","0","0","0.8","80_20_practice","0","0.2","","","","","","","","","",""
"655","","bandit","30","660817","0.0-18.0-12.0","90502714","wem/bandit_single","AUAN582MLI96N","pain","4","","74","J","0","img/none_selected_demo.jpg","0","1","0","0","0.8","true","0","0","0.8","80_20_practice","0","0.2","","","","","","","","","",""
"39352","","bandit","31","701951","0.0-18.0-13.0","90502714","wem/bandit_single","AUAN582MLI96N","pain","4","","74","J","0","img/none_selected_demo.jpg","0","1","0","0","0.8","true","0","0","0.8","80_20_practice","0","0.2","","","","","","","","","",""
"397","","bandit","32","704127","0.0-18.0-14.0","90502714","wem/bandit_single","AUAN582MLI96N","pain","4","","74","J","0","img/none_selected_demo.jpg","0","0","1","0","0.8","true","0","0","0.8","80_20_practice","0","0.2","","","","","","","","","",""
"204","","bandit","33","706125","0.0-18.0-15.0","90502714","wem/bandit_single","AUAN582MLI96N","pain","4","","74","J","0","img/none_selected_demo.jpg","0","0","1","0","0.8","true","0","0","0.8","80_20_practice","0","0.2","","","","","","","","","",""
"99147","","bandit","34","807049","0.0-18.0-16.0","90502714","wem/bandit_single","AUAN582MLI96N","pain","4","","74","J","0","img/none_selected_demo.jpg","0","0","1","0","0.8","true","0","0","0.8","80_20_practice","0","0.2","","","","","","","","","",""
"33","","bandit","35","808864","0.0-18.0-17.0","90502714","wem/bandit_single","AUAN582MLI96N","pain","4","","75","K","1","","0","1","0","0","0.2","true","0","0","0.8","80_20_practice","0","0.2","","","","","","","","","",""
"85","","bandit","36","810732","0.0-18.0-18.0","90502714","wem/bandit_single","AUAN582MLI96N","pain","4","","75","K","1","","0","0","1","0","0.2","true","0","0","0.8","80_20_practice","0","0.2","","","","","","","","","",""
"199","","bandit","37","812715","0.0-18.0-19.0","90502714","wem/bandit_single","AUAN582MLI96N","pain","4","","74","J","0","img/none_selected_demo.jpg","0","1","0","0","0.8","true","0","0","0.8","80_20_practice","0","0.2","","","","","","","","","",""
"7341","","text","38","820315","0.0-19.0","90502714","wem/bandit_single","AUAN582MLI96N","pain","4","32","","","","","","","","","","","","","","","","","","","","","","","","","",""
"2441","","bandit","39","824282","0.0-20.0-0.0","90502714","wem/bandit_single","AUAN582MLI96N","pain","4","","74","J","0","img/none_selected_demo.jpg","0","0","1","0","0","true","0","0","0","","0","0","","","","","","","","","",""
"3075","","text","40","827616","0.0-21.0","90502714","wem/bandit_single","AUAN582MLI96N","pain","4","74","","","","","","","","","","","","","","","","","","","","","","","","","",""
"3791","","text","41","831410","0.0-22.0","90502714","wem/bandit_single","AUAN582MLI96N","pain","4","32","","","","","","","","","","","","","","","","","","","","","","","","","",""
"1068","","text","42","832481","0.0-23.0","90502714","wem/bandit_single","AUAN582MLI96N","pain","4","32","","","","","","","","","","","","","","","","","","","","","","","","","",""
"882","","text","43","833366","0.0-24.0","90502714","wem/bandit_single","AUAN582MLI96N","pain","4","32","","","","","","","","","","","","","","","","","","","","","","","","","",""
"2281","","text","44","835650","0.0-25.0","90502714","wem/bandit_single","AUAN582MLI96N","pain","4","32","","","","","","","","","","","","","","","","","","","","","","","","","",""
"760","","text","45","836416","0.0-26.0","90502714","wem/bandit_single","AUAN582MLI96N","pain","4","32","","","","","","","","","","","","","","","","","","","","","","","","","",""
"707","","text","46","837127","0.0-27.0","90502714","wem/bandit_single","AUAN582MLI96N","pain","4","32","","","","","","","","","","","","","","","","","","","","","","","","","",""
"1298","","text","47","838430","0.0-28.0","90502714","wem/bandit_single","AUAN582MLI96N","pain","4","32","","","","","","","","","","","","","","","","","","","","","","","","","",""
"18408","","text","48","856841","0.0-29.0","90502714","wem/bandit_single","AUAN582MLI96N","pain","4","32","","","","","","","","","","","","","","","","","","","","","","","","","",""
"536","","text","49","857380","0.0-30.0","90502714","wem/bandit_single","AUAN582MLI96N","pain","4","32","","","","","","","","","","","","","","","","","","","","","","","","","",""
"3028","","text","50","860413","0.0-31.0","90502714","wem/bandit_single","AUAN582MLI96N","pain","4","32","","","","","","","","","","","","","","","","","","","","","","","","","",""
"438","","bandit","51","862369","0.0-32.0-0.0","90502714","wem/bandit_single","AUAN582MLI96N","pain","4","","72","H","0","img/none_selected.jpg","0","1","0","0","0.8","true","0","0","0.8","full_practice","0","0.2","0","0.6","0","0.2","","","","","",""
"41","","bandit","52","864193","0.0-32.0-1.0","90502714","wem/bandit_single","AUAN582MLI96N","pain","4","","72","H","0","img/none_selected.jpg","0","0","1","0","0.8","true","0","0","0.8","full_practice","0","0.2","0","0.6","0","0.2","","","","","",""
"38","","bandit","53","866009","0.0-32.0-2.0","90502714","wem/bandit_single","AUAN582MLI96N","pain","4","","72","H","0","img/none_selected.jpg","0","1","0","0","0.8","true","0","0","0.8","full_practice","0","0.2","0","0.6","0","0.2","","","","","",""
"14","","bandit","54","867793","0.0-32.0-3.0","90502714","wem/bandit_single","AUAN582MLI96N","pain","4","","72","H","0","img/none_selected.jpg","0","1","0","0","0.8","true","0","0","0.8","full_practice","0","0.2","0","0.6","0","0.2","","","","","",""
"1203","","bandit","55","870768","0.0-32.0-4.0","90502714","wem/bandit_single","AUAN582MLI96N","pain","4","","72","H","0","img/none_selected.jpg","0","1","0","0","0.8","true","0","0","0.8","full_practice","0","0.2","0","0.6","0","0.2","","","","","",""
"119","","bandit","56","872685","0.0-32.0-5.0","90502714","wem/bandit_single","AUAN582MLI96N","pain","4","","72","H","0","img/none_selected.jpg","0","1","0","0","0.8","true","0","0","0.8","full_practice","0","0.2","0","0.6","0","0.2","","","","","",""
"115","","bandit","57","874566","0.0-32.0-6.0","90502714","wem/bandit_single","AUAN582MLI96N","pain","4","","72","H","0","img/none_selected.jpg","0","1","0","0","0.8","true","0","0","0.8","full_practice","0","0.2","0","0.6","0","0.2","","","","","",""
"112","","bandit","58","876451","0.0-32.0-7.0","90502714","wem/bandit_single","AUAN582MLI96N","pain","4","","72","H","0","img/none_selected.jpg","0","1","0","0","0.8","true","0","0","0.8","full_practice","0","0.2","0","0.6","0","0.2","","","","","",""
"1004","","bandit","59","879241","0.0-32.0-8.0","90502714","wem/bandit_single","AUAN582MLI96N","pain","4","","72","H","0","img/none_selected.jpg","0","0","1","0","0.8","true","0","0","0.8","full_practice","0","0.2","0","0.6","0","0.2","","","","","",""
"20","","bandit","60","881044","0.0-32.0-9.0","90502714","wem/bandit_single","AUAN582MLI96N","pain","4","","72","H","0","img/none_selected.jpg","0","1","0","0","0.8","true","0","0","0.8","full_practice","0","0.2","0","0.6","0","0.2","","","","","",""
"1074","","bandit","61","883895","0.0-32.0-10.0","90502714","wem/bandit_single","AUAN582MLI96N","pain","4","","72","H","0","img/none_selected.jpg","0","1","0","0","0.8","true","0","0","0.8","full_practice","0","0.2","0","0.6","0","0.2","","","","","",""
"60","","bandit","62","885757","0.0-32.0-11.0","90502714","wem/bandit_single","AUAN582MLI96N","pain","4","","72","H","0","img/none_selected.jpg","0","1","0","0","0.8","true","0","0","0.8","full_practice","0","0.2","0","0.6","0","0.2","","","","","",""
"474","","bandit","63","888020","0.0-32.0-12.0","90502714","wem/bandit_single","AUAN582MLI96N","pain","4","","72","H","0","img/none_selected.jpg","0","1","0","0","0.8","true","0","0","0.8","full_practice","0","0.2","0","0.6","0","0.2","","","","","",""
"280","","bandit","64","890152","0.0-32.0-13.0","90502714","wem/bandit_single","AUAN582MLI96N","pain","4","","72","H","0","img/none_selected.jpg","0","0","1","0","0.8","true","0","0","0.8","full_practice","0","0.2","0","0.6","0","0.2","","","","","",""
"17","","bandit","65","891946","0.0-32.0-14.0","90502714","wem/bandit_single","AUAN582MLI96N","pain","4","","74","J","1","","0","1","0","0","0.2","true","0","0","0.8","full_practice","0","0.2","0","0.6","0","0.2","","","","","",""
"1237","","bandit","66","894952","0.0-32.0-15.0","90502714","wem/bandit_single","AUAN582MLI96N","pain","4","","74","J","1","","0","0","1","0","0.2","true","0","0","0.8","full_practice","0","0.2","0","0.6","0","0.2","","","","","",""
"120","","bandit","67","896857","0.0-32.0-16.0","90502714","wem/bandit_single","AUAN582MLI96N","pain","4","","74","J","1","","0","0","1","0","0.2","true","0","0","0.8","full_practice","0","0.2","0","0.6","0","0.2","","","","","",""
"139","","bandit","68","898787","0.0-32.0-17.0","90502714","wem/bandit_single","AUAN582MLI96N","pain","4","","75","K","2","","0","0","1","0","0.6","true","0","0","0.8","full_practice","0","0.2","0","0.6","0","0.2","","","","","",""
"49","","bandit","69","900625","0.0-32.0-18.0","90502714","wem/bandit_single","AUAN582MLI96N","pain","4","","75","K","2","","0","1","0","0","0.6","true","0","0","0.8","full_practice","0","0.2","0","0.6","0","0.2","","","","","",""
"421","","bandit","70","902826","0.0-32.0-19.0","90502714","wem/bandit_single","AUAN582MLI96N","pain","4","","75","K","2","","0","1","0","0","0.6","true","0","0","0.8","full_practice","0","0.2","0","0.6","0","0.2","","","","","",""
"2729","","text","71","905826","0.0-33.0","90502714","wem/bandit_single","AUAN582MLI96N","pain","4","32","","","","","","","","","","","","","","","","","","","","","","","","","",""
"6324","","text","72","913155","0.0-34.0","90502714","wem/bandit_single","AUAN582MLI96N","pain","4","32","","","","","","","","","","","","","","","","","","","","","","","","","",""
"5264","","text","73","918422","0.0-35.0","90502714","wem/bandit_single","AUAN582MLI96N","pain","4","32","","","","","","","","","","","","","","","","","","","","","","","","","",""
"626","","text","74","919053","0.0-36.0","90502714","wem/bandit_single","AUAN582MLI96N","pain","4","32","","","","","","","","","","","","","","","","","","","","","","","","","",""
"1446","","text","75","920504","0.0-37.0","90502714","wem/bandit_single","AUAN582MLI96N","pain","4","32","","","","","","","","","","","","","","","","","","","","","","","","","",""
"1661","","bandit","76","923701","0.0-38.0-0.0","90502714","wem/bandit_single","AUAN582MLI96N","pain","4","","72","H","0","img/none_selected.jpg","0","0","1","","0.2633340886","false","1","","0.2633340886","main_expt","","0.1534711312","","0.04789219489","","0.1530555908","","","","","",""
"1177","","bandit","77","926665","0.0-39.0-0.0","90502714","wem/bandit_single","AUAN582MLI96N","pain","4","","72","H","0","img/none_selected.jpg","0","0","1","","0.288049036","false","2","","0.288049036","main_expt","","0.1140054314","","0.06526788736","","0.103598712","","","","","",""
"28","","bandit","78","928471","0.0-40.0-0.0","90502714","wem/bandit_single","AUAN582MLI96N","pain","4","","74","J","1","","0","0","1","","0.1012650834","false","3","","0.2979487298","main_expt","","0.1012650834","","0.04764418461","","0.08136741005","","","","","",""
"79","","bandit","79","930345","0.0-41.0-0.0","90502714","wem/bandit_single","AUAN582MLI96N","pain","4","","74","J","1","","0","0","1","","0.09541256236","false","4","","0.3306303211","main_expt","","0.09541256236","","0.05056035824","","0.08723083084","","","","","",""
"387","","bandit","80","932530","0.0-42.0-0.0","90502714","wem/bandit_single","AUAN582MLI96N","pain","4","","75","K","2","","0","0","1","","0.05944929255","false","5","","0.2438199519","main_expt","","0.07842998328","","0.05944929255","","0.1255982651","","","","","",""
"505","","bandit","81","934839","0.0-43.0-0.0","90502714","wem/bandit_single","AUAN582MLI96N","pain","4","","75","K","2","","0","0","1","","0.09562353852","false","6","","0.2362074668","main_expt","","0.09158282766","","0.09562353852","","0.09044777998","","","","","",""
"64","","bandit","82","936690","0.0-44.0-0.0","90502714","wem/bandit_single","AUAN582MLI96N","pain","4","","76","L","3","","0","0","1","","0.1067491613","false","7","","0.2591683673","main_expt","","0.09712353232","","0.08069121891","","0.1067491613","","","","","",""
"8","","bandit","83","938484","0.0-45.0-0.0","90502714","wem/bandit_single","AUAN582MLI96N","pain","4","","76","L","3","","0","0","1","","0.15597148","false","8","","0.2299415188","main_expt","","0.08440361392","","0.07203927837","","0.15597148","","","","","",""
"93","","bandit","84","940367","0.0-46.0-0.0","90502714","wem/bandit_single","AUAN582MLI96N","pain","4","","72","H","0","img/none_selected.jpg","0","0","1","","0.2057198223","false","9","","0.2057198223","main_expt","","0.102519384","","0.08219025907","","0.2250404859","","","","","",""
"451","","bandit","85","942625","0.0-47.0-0.0","90502714","wem/bandit_single","AUAN582MLI96N","pain","4","","72","H","0","img/none_selected.jpg","0","0","1","","0.2002554128","false","10","","0.2002554128","main_expt","","0.06157476224","","0.06517742799","","0.2205918947","","","","","",""
"650","","bandit","86","945057","0.0-48.0-0.0","90502714","wem/bandit_single","AUAN582MLI96N","pain","4","","74","J","1","","0","0","1","","0.05516119966","false","11","","0.2390702858","main_expt","","0.05516119966","","0.0549201251","","0.1999173076","","","","","",""
"71","","bandit","87","946911","0.0-49.0-0.0","90502714","wem/bandit_single","AUAN582MLI96N","pain","4","","74","J","1","","0","0","1","","0.04311537102","false","12","","0.2309669968","main_expt","","0.04311537102","","0.0630283727","","0.2006159367","","","","","",""
"222","","bandit","88","948909","0.0-50.0-0.0","90502714","wem/bandit_single","AUAN582MLI96N","pain","4","","74","J","1","","0","0","1","","0.03895599675","false","13","","0.2667386483","main_expt","","0.03895599675","","0.07136250487","","0.202674457","","","","","",""
"139","","bandit","89","950820","0.0-51.0-0.0","90502714","wem/bandit_single","AUAN582MLI96N","pain","4","","74","J","1","","0","0","1","","0.03256744162","false","14","","0.2057326914","main_expt","","0.03256744162","","0.07333211558","","0.152812741","","","","","",""
"84","","bandit","90","952689","0.0-52.0-0.0","90502714","wem/bandit_single","AUAN582MLI96N","pain","4","","75","K","2","","0","0","1","","0.1154740655","false","15","","0.2081585857","main_expt","","0.01982065674","","0.1154740655","","0.1648564856","","","","","",""
"1110","","bandit","91","955591","0.0-53.0-0.0","90502714","wem/bandit_single","AUAN582MLI96N","pain","4","","75","K","2","","0","1","0","","0.1011313391","false","16","","0.1909184248","main_expt","","0.04082574049","","0.1011313391","","0.1619055423","","","","","",""
"1195","","bandit","92","958559","0.0-54.0-0.0","90502714","wem/bandit_single","AUAN582MLI96N","pain","4","","75","K","2","","0","1","0","","0.1447019112","false","17","","0.2198432556","main_expt","","0.0363298649","","0.1447019112","","0.1651197045","","","","","",""
"825","","bandit","93","961146","0.0-55.0-0.0","90502714","wem/bandit_single","AUAN582MLI96N","pain","4","","75","K","2","","0","0","1","","0.1039364862","false","18","","0.2347766335","main_expt","","0.07917382237","","0.1039364862","","0.1079041081","","","","","",""
"116","","bandit","94","963056","0.0-56.0-0.0","90502714","wem/bandit_single","AUAN582MLI96N","pain","4","","75","K","2","","0","1","0","","0.08759831402","false","19","","0.24668571","main_expt","","0.08476555987","","0.08759831402","","0.1059999363","","","","","",""
"112","","bandit","95","964945","0.0-57.0-0.0","90502714","wem/bandit_single","AUAN582MLI96N","pain","4","","75","K","2","","0","0","1","","0.08010338479","false","20","","0.2355281317","main_expt","","0.04047152317","","0.08010338479","","0.1197169881","","","","","",""
"473","","bandit","96","967217","0.0-58.0-0.0","90502714","wem/bandit_single","AUAN582MLI96N","pain","4","","75","K","2","","0","1","0","","0.07820488182","false","21","","0.2290721377","main_expt","","0.07021106672","","0.07820488182","","0.1338215077","","","","","",""
"377","","bandit","97","969365","0.0-59.0-0.0","90502714","wem/bandit_single","AUAN582MLI96N","pain","4","","75","K","2","","0","0","1","","0.06301774499","false","22","","0.1982968879","main_expt","","0.08794503477","","0.06301774499","","0.1691749215","","","","","",""
"536","","bandit","98","971695","0.0-60.0-0.0","90502714","wem/bandit_single","AUAN582MLI96N","pain","4","","75","K","2","","0","0","1","","0.04380944514","false","23","","0.1991555028","main_expt","","0.07274518233","","0.04380944514","","0.2100599157","","","","","",""
"1548","","bandit","99","975039","0.0-61.0-0.0","90502714","wem/bandit_single","AUAN582MLI96N","pain","4","","75","K","2","","0","0","1","","0.04485861341","false","24","","0.1700743611","main_expt","","0.09602528561","","0.04485861341","","0.1763606332","","","","","",""
"703","","bandit","100","977544","0.0-62.0-0.0","90502714","wem/bandit_single","AUAN582MLI96N","pain","4","","75","K","2","","0","0","1","","0.08350983839","false","25","","0.2303117276","main_expt","","0.07148754983","","0.08350983839","","0.1155065599","","","","","",""
"609","","bandit","101","979930","0.0-63.0-0.0","90502714","wem/bandit_single","AUAN582MLI96N","pain","4","","75","K","2","","0","0","1","","0.04946014148","false","26","","0.2615068669","main_expt","","0.05591681381","","0.04946014148","","0.08411514459","","","","","",""
"9","","bandit","102","981728","0.0-64.0-0.0","90502714","wem/bandit_single","AUAN582MLI96N","pain","4","","76","L","3","","0","0","1","","0.1192049255","false","27","","0.2108316327","main_expt","","0.06488914964","","0.07008172503","","0.1192049255","","","","","",""
"5","","bandit","103","983518","0.0-65.0-0.0","90502714","wem/bandit_single","AUAN582MLI96N","pain","4","","76","L","3","","0","0","1","","0.1530516972","false","28","","0.2616222854","main_expt","","0.07067710387","","0.09766989806","","0.1530516972","","","","","",""
"768","","bandit","104","986098","0.0-66.0-0.0","90502714","wem/bandit_single","AUAN582MLI96N","pain","4","","76","L","3","","0","0","1","","0.1243035263","false","29","","0.2754145478","main_expt","","0.06184318105","","0.1020433103","","0.1243035263","","","","","",""
"107","","bandit","105","988004","0.0-67.0-0.0","90502714","wem/bandit_single","AUAN582MLI96N","pain","4","","75","K","2","","0","0","1","","0.1128186897","false","30","","0.3091083038","main_expt","","0.06562203124","","0.1128186897","","0.2106934108","","","","","",""
"168","","bandit","106","989968","0.0-68.0-0.0","90502714","wem/bandit_single","AUAN582MLI96N","pain","4","","75","K","2","","0","1","0","","0.1021038766","false","31","","0.3032558385","main_expt","","0.06340423818","","0.1021038766","","0.269819176","","","","","",""
"26","","bandit","107","991781","0.0-69.0-0.0","90502714","wem/bandit_single","AUAN582MLI96N","pain","4","","75","K","2","","0","0","1","","0.1010238501","false","32","","0.3160124579","main_expt","","0.08582013972","","0.1010238501","","0.2415851803","","","","","",""
"141","","bandit","108","993700","0.0-70.0-0.0","90502714","wem/bandit_single","AUAN582MLI96N","pain","4","","75","K","2","","0","0","1","","0.0674926465","false","33","","0.355825184","main_expt","","0.1020351259","","0.0674926465","","0.2754451294","","","","","",""
"515","","bandit","109","996022","0.0-71.0-0.0","90502714","wem/bandit_single","AUAN582MLI96N","pain","4","","75","K","2","","0","1","0","","0.1007783216","false","34","","0.3380280112","main_expt","","0.07925884201","","0.1007783216","","0.3566428969","","","","","",""
"17","","bandit","110","997807","0.0-72.0-0.0","90502714","wem/bandit_single","AUAN582MLI96N","pain","4","","75","K","2","","0","0","1","","0.09542819821","false","35","","0.3772093912","main_expt","","0.06071167626","","0.09542819821","","0.2652811253","","","","","",""
"515","","bandit","111","1000129","0.0-73.0-0.0","90502714","wem/bandit_single","AUAN582MLI96N","pain","4","","75","K","2","","0","0","1","","0.07425724813","false","36","","0.3916459715","main_expt","","0.05331310492","","0.07425724813","","0.2472166127","","","","","",""
"1498","","bandit","112","1003413","0.0-74.0-0.0","90502714","wem/bandit_single","AUAN582MLI96N","pain","4","","75","K","2","","0","0","1","","0.07325651263","false","37","","0.3724196513","main_expt","","0.08395737389","","0.07325651263","","0.2941536534","","","","","",""
"89","","bandit","113","1005283","0.0-75.0-0.0","90502714","wem/bandit_single","AUAN582MLI96N","pain","4","","75","K","2","","0","0","1","","0.06058557764","false","38","","0.3885064771","main_expt","","0.07562804978","","0.06058557764","","0.2850199379","","","","","",""
"1459","","bandit","114","1008521","0.0-76.0-0.0","90502714","wem/bandit_single","AUAN582MLI96N","pain","4","","75","K","2","","0","0","1","","0.05480529152","false","39","","0.4332305888","main_expt","","0.06339693541","","0.05480529152","","0.2308750992","","","","","",""
"1114","","bandit","115","1011406","0.0-77.0-0.0","90502714","wem/bandit_single","AUAN582MLI96N","pain","4","","72","H","0","img/none_selected.jpg","0","1","0","","0.4320021358","false","40","","0.4320021358","main_expt","","0.07741261751","","0.08480448704","","0.2166928419","","","","","",""
"313","","bandit","116","1013507","0.0-78.0-0.0","90502714","wem/bandit_single","AUAN582MLI96N","pain","4","","72","H","0","img/none_selected.jpg","0","1","0","","0.4378374231","false","41","","0.4378374231","main_expt","","0.08199889575","","0.07863220129","","0.222341992","","","","","",""
"928","","bandit","117","1016223","0.0-79.0-0.0","90502714","wem/bandit_single","AUAN582MLI96N","pain","4","","72","H","0","img/none_selected.jpg","0","0","1","","0.4138470733","false","42","","0.4138470733","main_expt","","0.1252939417","","0.07947159818","","0.2420609394","","","","","",""
"540","","bandit","118","1018531","0.0-80.0-0.0","90502714","wem/bandit_single","AUAN582MLI96N","pain","4","","72","H","0","img/none_selected.jpg","0","0","1","","0.3618848001","false","43","","0.3618848001","main_expt","","0.1464491551","","0.0747194724","","0.2683234569","","","","","",""
"108","","bandit","119","1020441","0.0-81.0-0.0","90502714","wem/bandit_single","AUAN582MLI96N","pain","4","","72","H","0","img/none_selected.jpg","0","0","1","","0.3902132048","false","44","","0.3902132048","main_expt","","0.1846315016","","0.06873866496","","0.2592073096","","","","","",""
"105","","bandit","120","1022330","0.0-82.0-0.0","90502714","wem/bandit_single","AUAN582MLI96N","pain","4","","72","H","0","img/none_selected.jpg","0","0","1","","0.370584769","false","45","","0.370584769","main_expt","","0.1454302639","","0.05624711086","","0.258850709","","","","","",""
"35","","bandit","121","1024156","0.0-83.0-0.0","90502714","wem/bandit_single","AUAN582MLI96N","pain","4","","72","H","0","img/none_selected.jpg","0","1","0","","0.3416192418","false","46","","0.3416192418","main_expt","","0.1420401956","","0.06710767933","","0.2162528617","","","","","",""
"77","","bandit","122","1026000","0.0-84.0-0.0","90502714","wem/bandit_single","AUAN582MLI96N","pain","4","","72","H","0","img/none_selected.jpg","0","0","1","","0.3254497978","false","47","","0.3254497978","main_expt","","0.2049545467","","0.05828218186","","0.1380472806","","","","","",""
"6621","","bandit","123","1034405","0.0-85.0-0.0","90502714","wem/bandit_single","AUAN582MLI96N","pain","4","","72","H","0","img/none_selected.jpg","0","1","0","","0.3438960799","false","48","","0.3438960799","main_expt","","0.1608881285","","0.1161016377","","0.1673270425","","","","","",""
"234","","bandit","124","1036423","0.0-86.0-0.0","90502714","wem/bandit_single","AUAN582MLI96N","pain","4","","72","H","0","img/none_selected.jpg","0","0","1","","0.3405395495","false","49","","0.3405395495","main_expt","","0.2001806823","","0.1135844416","","0.1637821127","","","","","",""
"724","","bandit","125","1038937","0.0-87.0-0.0","90502714","wem/bandit_single","AUAN582MLI96N","pain","4","","72","H","0","img/none_selected.jpg","0","1","0","","0.3305224856","false","50","","0.3305224856","main_expt","","0.2061381611","","0.1646239324","","0.1826101584","","","","","",""
"188","","bandit","126","1040903","0.0-88.0-0.0","90502714","wem/bandit_single","AUAN582MLI96N","pain","4","","72","H","0","img/none_selected.jpg","0","0","1","","0.2304924019","false","51","","0.2304924019","main_expt","","0.2369791141","","0.1699716213","","0.2270371056","","","","","",""
"212","","bandit","127","1042903","0.0-89.0-0.0","90502714","wem/bandit_single","AUAN582MLI96N","pain","4","","72","H","0","img/none_selected.jpg","0","1","0","","0.2832256505","false","52","","0.2832256505","main_expt","","0.2378663067","","0.1762937123","","0.2203225001","","","","","",""
"428","","bandit","128","1045110","0.0-90.0-0.0","90502714","wem/bandit_single","AUAN582MLI96N","pain","4","","72","H","0","img/none_selected.jpg","0","0","1","","0.2391441838","false","53","","0.2391441838","main_expt","","0.2063519028","","0.2287193473","","0.2776849753","","","","","",""
"21","","bandit","129","1046919","0.0-91.0-0.0","90502714","wem/bandit_single","AUAN582MLI96N","pain","4","","72","H","0","img/none_selected.jpg","0","1","0","","0.2697071588","false","54","","0.2697071588","main_expt","","0.2439582882","","0.2356834932","","0.2454572706","","","","","",""
"255","","bandit","130","1048958","0.0-92.0-0.0","90502714","wem/bandit_single","AUAN582MLI96N","pain","4","","72","H","0","img/none_selected.jpg","0","0","1","","0.2875326611","false","55","","0.2875326611","main_expt","","0.2381950618","","0.306547883","","0.2382153161","","","","","",""
"17","","bandit","131","1050762","0.0-93.0-0.0","90502714","wem/bandit_single","AUAN582MLI96N","pain","4","","74","J","1","","0","0","1","","0.1800346575","false","56","","0.2854258916","main_expt","","0.1800346575","","0.2853582168","","0.1960908288","","","","","",""
"92","","bandit","132","1052641","0.0-94.0-0.0","90502714","wem/bandit_single","AUAN582MLI96N","pain","4","","74","J","1","","0","0","1","","0.2336203315","false","57","","0.3445045135","main_expt","","0.2336203315","","0.2834250679","","0.2042340564","","","","","",""
"4","","bandit","133","1054436","0.0-95.0-0.0","90502714","wem/bandit_single","AUAN582MLI96N","pain","4","","74","J","1","","0","0","1","","0.189887459","false","58","","0.3390226593","main_expt","","0.189887459","","0.2690284398","","0.1490893454","","","","","",""
"123","","bandit","134","1056352","0.0-96.0-0.0","90502714","wem/bandit_single","AUAN582MLI96N","pain","4","","75","K","2","","0","0","1","","0.2616697142","false","59","","0.2666291788","main_expt","","0.1548607402","","0.2616697142","","0.1581154669","","","","","",""
"2109","","bandit","135","1060263","0.0-97.0-0.0","90502714","wem/bandit_single","AUAN582MLI96N","pain","4","","75","K","2","","0","1","0","","0.2704186185","false","60","","0.246985882","main_expt","","0.1233285174","","0.2704186185","","0.1715954381","","","","","",""
"60","","bandit","136","1062110","0.0-98.0-0.0","90502714","wem/bandit_single","AUAN582MLI96N","pain","4","","75","K","2","","0","0","1","","0.3376037184","false","61","","0.2171589204","main_expt","","0.186549837","","0.3376037184","","0.1999420892","","","","","",""
"2891","","bandit","137","1066774","0.0-99.0-0.0","90502714","wem/bandit_single","AUAN582MLI96N","pain","4","","75","K","2","","0","0","1","","0.3098521258","false","62","","0.2677831299","main_expt","","0.1420872584","","0.3098521258","","0.1539309088","","","","","",""
"907","","bandit","138","1069468","0.0-100.0-0.0","90502714","wem/bandit_single","AUAN582MLI96N","pain","4","","75","K","2","","0","0","1","","0.3137631198","false","63","","0.2303454974","main_expt","","0.151707711","","0.3137631198","","0.1085632924","","","","","",""
"10","","bandit","139","1071266","0.0-101.0-0.0","90502714","wem/bandit_single","AUAN582MLI96N","pain","4","","76","L","3","","0","0","1","","0.1370187426","false","64","","0.196947777","main_expt","","0.1474827626","","0.3179430645","","0.1370187426","","","","","",""
"1443","","bandit","140","1074479","0.0-102.0-0.0","90502714","wem/bandit_single","AUAN582MLI96N","pain","4","","76","L","3","","0","1","0","","0.1322062037","false","65","","0.1645630622","main_expt","","0.1746529425","","0.2980330155","","0.1322062037","","","","","",""
"542","","bandit","141","1076817","0.0-103.0-0.0","90502714","wem/bandit_single","AUAN582MLI96N","pain","4","","76","L","3","","0","0","1","","0.1496501041","false","66","","0.1533283495","main_expt","","0.1310865155","","0.2537140377","","0.1496501041","","","","","",""
"784","","bandit","142","1079393","0.0-104.0-0.0","90502714","wem/bandit_single","AUAN582MLI96N","pain","4","","76","L","3","","0","0","1","","0.1626820295","false","67","","0.1708403009","main_expt","","0.1370872981","","0.2153704701","","0.1626820295","","","","","",""
"1698","","bandit","143","1082851","0.0-105.0-0.0","90502714","wem/bandit_single","AUAN582MLI96N","pain","4","","76","L","3","","0","0","1","","0.1989514297","false","68","","0.1887917493","main_expt","","0.09914494933","","0.2417705853","","0.1989514297","","","","","",""
"344","","bandit","144","1084971","0.0-106.0-0.0","90502714","wem/bandit_single","AUAN582MLI96N","pain","4","","76","L","3","","0","0","1","","0.1888867792","false","69","","0.2160515082","main_expt","","0.1092411584","","0.3235463827","","0.1888867792","","","","","",""
"42","","bandit","145","1086787","0.0-107.0-0.0","90502714","wem/bandit_single","AUAN582MLI96N","pain","4","","72","H","0","img/none_selected.jpg","0","0","1","","0.2778565133","false","70","","0.2778565133","main_expt","","0.1213917008","","0.3647615206","","0.1767550628","","","","","",""
"1024","","bandit","146","1089617","0.0-108.0-0.0","90502714","wem/bandit_single","AUAN582MLI96N","pain","4","","72","H","0","img/none_selected.jpg","0","0","1","","0.2623699359","false","71","","0.2623699359","main_expt","","0.1479005197","","0.3472934012","","0.1253641033","","","","","",""
"2056","","bandit","147","1093470","0.0-109.0-0.0","90502714","wem/bandit_single","AUAN582MLI96N","pain","4","","72","H","0","img/none_selected.jpg","0","1","0","","0.2574081817","false","72","","0.2574081817","main_expt","","0.1931369739","","0.2965124106","","0.1319365506","","","","","",""
"286","","bandit","148","1095550","0.0-110.0-0.0","90502714","wem/bandit_single","AUAN582MLI96N","pain","4","","72","H","0","img/none_selected.jpg","0","0","1","","0.2503470883","false","73","","0.2503470883","main_expt","","0.1900103681","","0.2823595977","","0.1061905376","","","","","",""
"386","","bandit","149","1097735","0.0-111.0-0.0","90502714","wem/bandit_single","AUAN582MLI96N","pain","4","","72","H","0","img/none_selected.jpg","0","0","1","","0.2710758316","false","74","","0.2710758316","main_expt","","0.1344428369","","0.2835749375","","0.1303083533","","","","","",""
"852","","bandit","150","1100378","0.0-112.0-0.0","90502714","wem/bandit_single","AUAN582MLI96N","pain","4","","72","H","0","img/none_selected.jpg","0","1","0","","0.260759121","false","75","","0.260759121","main_expt","","0.1528357022","","0.3526847528","","0.1359111238","","","","","",""
"478","","bandit","151","1102653","0.0-113.0-0.0","90502714","wem/bandit_single","AUAN582MLI96N","pain","4","","72","H","0","img/none_selected.jpg","0","0","1","","0.2610050464","false","76","","0.2610050464","main_expt","","0.1898592508","","0.3434196486","","0.1128391495","","","","","",""
"23","","bandit","152","1104473","0.0-114.0-0.0","90502714","wem/bandit_single","AUAN582MLI96N","pain","4","","72","H","0","img/none_selected.jpg","0","0","1","","0.1920601856","false","77","","0.1920601856","main_expt","","0.191464519","","0.3073782559","","0.1118044987","","","","","",""
"2179","","bandit","153","1108455","0.0-115.0-0.0","90502714","wem/bandit_single","AUAN582MLI96N","pain","4","","72","H","0","img/none_selected.jpg","0","0","1","","0.1726035312","false","78","","0.1726035312","main_expt","","0.2665821314","","0.3200097729","","0.1315400358","","","","","",""
"554","","bandit","154","1110815","0.0-116.0-0.0","90502714","wem/bandit_single","AUAN582MLI96N","pain","4","","74","J","1","","0","1","0","","0.2510402579","false","79","","0.1974193715","main_expt","","0.2510402579","","0.3406321397","","0.1421279646","","","","","",""
"3989","","bandit","155","1116593","0.0-117.0-0.0","90502714","wem/bandit_single","AUAN582MLI96N","pain","4","","74","J","1","","0","0","1","","0.2803090616","false","80","","0.1771423485","main_expt","","0.2803090616","","0.2934749235","","0.1666910293","","","","","",""
"31","","bandit","156","1118397","0.0-118.0-0.0","90502714","wem/bandit_single","AUAN582MLI96N","pain","4","","75","K","2","","0","0","1","","0.3080678564","false","81","","0.1689426189","main_expt","","0.3053401272","","0.3080678564","","0.1514130178","","","","","",""
"170","","bandit","157","1120354","0.0-119.0-0.0","90502714","wem/bandit_single","AUAN582MLI96N","pain","4","","75","K","2","","0","1","0","","0.3118316764","false","82","","0.2008945118","main_expt","","0.3079009489","","0.3118316764","","0.1667518413","","","","","",""
"7","","bandit","158","1122176","0.0-120.0-0.0","90502714","wem/bandit_single","AUAN582MLI96N","pain","4","","75","K","2","","0","0","1","","0.2539803618","false","83","","0.2679993971","main_expt","","0.3294465445","","0.2539803618","","0.1620161121","","","","","",""
"165","","bandit","159","1124121","0.0-121.0-0.0","90502714","wem/bandit_single","AUAN582MLI96N","pain","4","","75","K","2","","0","0","1","","0.2665148507","false","84","","0.2187304288","main_expt","","0.3567704092","","0.2665148507","","0.1920696542","","","","","",""
"87","","bandit","160","1125990","0.0-122.0-0.0","90502714","wem/bandit_single","AUAN582MLI96N","pain","4","","75","K","2","","0","0","1","","0.2638978108","false","85","","0.2668074714","main_expt","","0.3637986046","","0.2638978108","","0.1790321084","","","","","",""
"36","","bandit","161","1127819","0.0-123.0-0.0","90502714","wem/bandit_single","AUAN582MLI96N","pain","4","","75","K","2","","0","0","1","","0.2430370424","false","86","","0.3011617684","main_expt","","0.3661817966","","0.2430370424","","0.1644507099","","","","","",""
"4","","bandit","162","1129603","0.0-124.0-0.0","90502714","wem/bandit_single","AUAN582MLI96N","pain","4","","75","K","2","","0","0","1","","0.2369050713","false","87","","0.2866912597","main_expt","","0.349996741","","0.2369050713","","0.1731377232","","","","","",""
"73","","bandit","163","1131455","0.0-125.0-0.0","90502714","wem/bandit_single","AUAN582MLI96N","pain","4","","76","L","3","","0","0","1","","0.1562940882","false","88","","0.2921806028","main_expt","","0.3021468993","","0.2322244834","","0.1562940882","","","","","",""
"257","","bandit","164","1133503","0.0-126.0-0.0","90502714","wem/bandit_single","AUAN582MLI96N","pain","4","","76","L","3","","0","0","1","","0.1344734597","false","89","","0.2877077994","main_expt","","0.2752269066","","0.214722025","","0.1344734597","","","","","",""
"210","","bandit","165","1135515","0.0-127.0-0.0","90502714","wem/bandit_single","AUAN582MLI96N","pain","4","","76","L","3","","0","1","0","","0.1192135027","false","90","","0.2390413286","main_expt","","0.3172240337","","0.1767670318","","0.1192135027","","","","","",""
"202","","bandit","166","1137515","0.0-128.0-0.0","90502714","wem/bandit_single","AUAN582MLI96N","pain","4","","76","L","3","","0","1","0","","0.1639104845","false","91","","0.2582098676","main_expt","","0.3049723864","","0.1391375388","","0.1639104845","","","","","",""
"153","","bandit","167","1139453","0.0-129.0-0.0","90502714","wem/bandit_single","AUAN582MLI96N","pain","4","","76","L","3","","0","1","0","","0.1960431165","false","92","","0.3066747335","main_expt","","0.3261529518","","0.1283323985","","0.1960431165","","","","","",""
"156","","bandit","168","1141414","0.0-130.0-0.0","90502714","wem/bandit_single","AUAN582MLI96N","pain","4","","76","L","3","","0","0","1","","0.2137056669","false","93","","0.3051362106","main_expt","","0.3550538726","","0.07538544447","","0.2137056669","","","","","",""
"45","","bandit","169","1143241","0.0-131.0-0.0","90502714","wem/bandit_single","AUAN582MLI96N","pain","4","","76","L","3","","0","1","0","","0.2188004936","false","94","","0.3433649514","main_expt","","0.3335231974","","0.07407963518","","0.2188004936","","","","","",""
"766","","bandit","170","1145819","0.0-132.0-0.0","90502714","wem/bandit_single","AUAN582MLI96N","pain","4","","76","L","3","","0","0","1","","0.2442185641","false","95","","0.3638642947","main_expt","","0.3060397856","","0.06265185683","","0.2442185641","","","","","",""
"64","","bandit","171","1147671","0.0-133.0-0.0","90502714","wem/bandit_single","AUAN582MLI96N","pain","4","","76","L","3","","0","1","0","","0.2062156096","false","96","","0.3433071503","main_expt","","0.3420618169","","0.0626930361","","0.2062156096","","","","","",""
"239","","bandit","172","1149705","0.0-134.0-0.0","90502714","wem/bandit_single","AUAN582MLI96N","pain","4","","76","L","3","","0","0","1","","0.1824441478","false","97","","0.3287523936","main_expt","","0.3451805041","","0.03702031205","","0.1824441478","","","","","",""
"214","","bandit","173","1151713","0.0-135.0-0.0","90502714","wem/bandit_single","AUAN582MLI96N","pain","4","","76","L","3","","0","0","1","","0.1741419228","false","98","","0.3384657171","main_expt","","0.3067376926","","0.02896114516","","0.1741419228","","","","","",""
"167","","bandit","174","1153685","0.0-136.0-0.0","90502714","wem/bandit_single","AUAN582MLI96N","pain","4","","76","L","3","","0","0","1","","0.1402348549","false","99","","0.3929596429","main_expt","","0.2980645096","","0.04301278827","","0.1402348549","","","","","",""
"5","","bandit","175","1155471","0.0-137.0-0.0","90502714","wem/bandit_single","AUAN582MLI96N","pain","4","","76","L","3","","0","0","1","","0.1856728267","false","100","","0.3972918561","main_expt","","0.2862788702","","0.03198738169","","0.1856728267","","","","","",""
"1835","","bandit","176","1159167","0.0-138.0-0.0","90502714","wem/bandit_single","AUAN582MLI96N","pain","4","","76","L","3","","0","0","1","","0.1731032509","false","101","","0.4064604032","main_expt","","0.2622165861","","0.03387094668","","0.1731032509","","","","","",""
"1044","","bandit","177","1162002","0.0-139.0-0.0","90502714","wem/bandit_single","AUAN582MLI96N","pain","4","","76","L","3","","0","0","1","","0.1387116465","false","102","","0.4273413635","main_expt","","0.3261799811","","0.0235124197","","0.1387116465","","","","","",""
"282","","bandit","178","1164066","0.0-140.0-0.0","90502714","wem/bandit_single","AUAN582MLI96N","pain","4","","76","L","3","","0","0","1","","0.1880660303","false","103","","0.4566487837","main_expt","","0.334814711","","0.02482610326","","0.1880660303","","","","","",""
"292","","bandit","179","1166134","0.0-141.0-0.0","90502714","wem/bandit_single","AUAN582MLI96N","pain","4","","76","L","3","","0","0","1","","0.142060421","false","104","","0.459539636","main_expt","","0.3486298313","","0.03330094042","","0.142060421","","","","","",""
"168","","bandit","180","1168104","0.0-142.0-0.0","90502714","wem/bandit_single","AUAN582MLI96N","pain","4","","76","L","3","","0","1","0","","0.1839839798","false","105","","0.4462881264","main_expt","","0.3538911629","","0.06543537915","","0.1839839798","","","","","",""
"305","","bandit","181","1170202","0.0-143.0-0.0","90502714","wem/bandit_single","AUAN582MLI96N","pain","4","","76","L","3","","0","0","1","","0.1691947451","false","106","","0.4417011126","main_expt","","0.3886974852","","0.07051160025","","0.1691947451","","","","","",""
"258","","bandit","182","1172240","0.0-144.0-0.0","90502714","wem/bandit_single","AUAN582MLI96N","pain","4","","76","L","3","","0","0","1","","0.180010917","false","107","","0.4419194373","main_expt","","0.3489433712","","0.08830456602","","0.180010917","","","","","",""
"276","","bandit","183","1174298","0.0-145.0-0.0","90502714","wem/bandit_single","AUAN582MLI96N","pain","4","","76","L","3","","0","0","1","","0.1338722415","false","108","","0.4061848383","main_expt","","0.3901728218","","0.05921849724","","0.1338722415","","","","","",""
"156","","bandit","184","1176246","0.0-146.0-0.0","90502714","wem/bandit_single","AUAN582MLI96N","pain","4","","76","L","3","","0","0","1","","0.1350853679","false","109","","0.3906669636","main_expt","","0.4006799949","","0.04581125366","","0.1350853679","","","","","",""
"27","","bandit","185","1178059","0.0-147.0-0.0","90502714","wem/bandit_single","AUAN582MLI96N","pain","4","","76","L","3","","0","0","1","","0.184551263","false","110","","0.3969614195","main_expt","","0.3867714499","","0.08345510588","","0.184551263","","","","","",""
"349","","bandit","186","1180195","0.0-148.0-0.0","90502714","wem/bandit_single","AUAN582MLI96N","pain","4","","76","L","3","","0","0","1","","0.2635344293","false","111","","0.370186674","main_expt","","0.4252141842","","0.07355878572","","0.2635344293","","","","","",""
"1348","","bandit","187","1183317","0.0-149.0-0.0","90502714","wem/bandit_single","AUAN582MLI96N","pain","4","","76","L","3","","0","0","1","","0.2972025743","false","112","","0.3488043283","main_expt","","0.4197282726","","0.09226575929","","0.2972025743","","","","","",""
"970","","bandit","188","1186116","0.0-150.0-0.0","90502714","wem/bandit_single","AUAN582MLI96N","pain","4","","76","L","3","","0","0","1","","0.2853398636","false","113","","0.2886117592","main_expt","","0.4371411526","","0.07711661396","","0.2853398636","","","","","",""
"142","","bandit","189","1188040","0.0-151.0-0.0","90502714","wem/bandit_single","AUAN582MLI96N","pain","4","","76","L","3","","0","0","1","","0.2354235092","false","114","","0.3507025671","main_expt","","0.4523407119","","0.09366406151","","0.2354235092","","","","","",""
"1140","","bandit","190","1190987","0.0-152.0-0.0","90502714","wem/bandit_single","AUAN582MLI96N","pain","4","","76","L","3","","0","0","1","","0.2228923984","false","115","","0.3308051733","main_expt","","0.4544977282","","0.09297781317","","0.2228923984","","","","","",""
"193","","bandit","191","1192964","0.0-153.0-0.0","90502714","wem/bandit_single","AUAN582MLI96N","pain","4","","76","L","3","","0","1","0","","0.182615248","false","116","","0.2696902145","main_expt","","0.4458191396","","0.09292735615","","0.182615248","","","","","",""
"261","","bandit","192","1195001","0.0-154.0-0.0","90502714","wem/bandit_single","AUAN582MLI96N","pain","4","","76","L","3","","0","0","1","","0.1702457594","false","117","","0.3048340551","main_expt","","0.4384124693","","0.1277349031","","0.1702457594","","","","","",""
"296","","bandit","193","1197089","0.0-155.0-0.0","90502714","wem/bandit_single","AUAN582MLI96N","pain","4","","76","L","3","","0","0","1","","0.2075823826","false","118","","0.2682044258","main_expt","","0.4590850855","","0.1057820856","","0.2075823826","","","","","",""
"270","","bandit","194","1199145","0.0-156.0-0.0","90502714","wem/bandit_single","AUAN582MLI96N","pain","4","","76","L","3","","0","0","1","","0.2281388084","false","119","","0.2314514612","main_expt","","0.4718937063","","0.08453932314","","0.2281388084","","","","","",""
"962","","bandit","195","1201914","0.0-157.0-0.0","90502714","wem/bandit_single","AUAN582MLI96N","pain","4","","76","L","3","","0","1","0","","0.2620651535","false","120","","0.197474053","main_expt","","0.4645470247","","0.1106897037","","0.2620651535","","","","","",""
"169","","bandit","196","1203854","0.0-158.0-0.0","90502714","wem/bandit_single","AUAN582MLI96N","pain","4","","76","L","3","","0","1","0","","0.2953433235","false","121","","0.1819521248","main_expt","","0.4422277234","","0.1200625234","","0.2953433235","","","","","",""
"69","","bandit","197","1205711","0.0-159.0-0.0","90502714","wem/bandit_single","AUAN582MLI96N","pain","4","","76","L","3","","0","1","0","","0.2702367277","false","122","","0.171732915","main_expt","","0.4150525319","","0.1570760405","","0.2702367277","","","","","",""
"233","","bandit","198","1207752","0.0-160.0-0.0","90502714","wem/bandit_single","AUAN582MLI96N","pain","4","","76","L","3","","0","1","0","","0.3190818872","false","123","","0.1577660673","main_expt","","0.4356762379","","0.1616024906","","0.3190818872","","","","","",""
"220","","bandit","199","1209775","0.0-161.0-0.0","90502714","wem/bandit_single","AUAN582MLI96N","pain","4","","76","L","3","","0","0","1","","0.3415455108","false","124","","0.1384195938","main_expt","","0.4475351861","","0.1371750093","","0.3415455108","","","","","",""
"213","","bandit","200","1211772","0.0-162.0-0.0","90502714","wem/bandit_single","AUAN582MLI96N","pain","4","","76","L","3","","0","0","1","","0.3955313072","false","125","","0.1367208018","main_expt","","0.4310995666","","0.1293707667","","0.3955313072","","","","","",""
"488","","bandit","201","1214031","0.0-163.0-0.0","90502714","wem/bandit_single","AUAN582MLI96N","pain","4","","76","L","3","","0","0","1","","0.4150522509","false","126","","0.14570125","main_expt","","0.4246911586","","0.1231453761","","0.4150522509","","","","","",""
"358","","bandit","202","1216171","0.0-164.0-0.0","90502714","wem/bandit_single","AUAN582MLI96N","pain","4","","76","L","3","","0","1","0","","0.3803228979","false","127","","0.116128816","main_expt","","0.3855858577","","0.1044431599","","0.3803228979","","","","","",""
"3359","","bandit","203","1221315","0.0-165.0-0.0","90502714","wem/bandit_single","AUAN582MLI96N","pain","4","","76","L","3","","0","0","1","","0.4028097642","false","128","","0.1118736017","main_expt","","0.3886900275","","0.07509994275","","0.4028097642","","","","","",""
"122","","bandit","204","1223219","0.0-166.0-0.0","90502714","wem/bandit_single","AUAN582MLI96N","pain","4","","76","L","3","","0","1","0","","0.3759087187","false","129","","0.1153634536","main_expt","","0.3712880315","","0.07499531951","","0.3759087187","","","","","",""
"69","","bandit","205","1225086","0.0-167.0-0.0","90502714","wem/bandit_single","AUAN582MLI96N","pain","4","","76","L","3","","0","0","1","","0.3578404683","false","130","","0.09323577747","main_expt","","0.3163545042","","0.06898381409","","0.3578404683","","","","","",""
"249","","bandit","206","1227139","0.0-168.0-0.0","90502714","wem/bandit_single","AUAN582MLI96N","pain","4","","76","L","3","","0","0","1","","0.3874222675","false","131","","0.1064947735","main_expt","","0.3203759455","","0.08255272978","","0.3874222675","","","","","",""
"189","","bandit","207","1229137","0.0-169.0-0.0","90502714","wem/bandit_single","AUAN582MLI96N","pain","4","","76","L","3","","0","0","1","","0.3773694481","false","132","","0.1574274544","main_expt","","0.3128419263","","0.06266196304","","0.3773694481","","","","","",""
"29","","bandit","208","1230954","0.0-170.0-0.0","90502714","wem/bandit_single","AUAN582MLI96N","pain","4","","76","L","3","","0","0","1","","0.3961249281","false","133","","0.1613106331","main_expt","","0.3057041938","","0.06584579886","","0.3961249281","","","","","",""
"111","","bandit","209","1232843","0.0-171.0-0.0","90502714","wem/bandit_single","AUAN582MLI96N","pain","4","","76","L","3","","0","1","0","","0.4152923946","false","134","","0.1660744508","main_expt","","0.2816585421","","0.05935363428","","0.4152923946","","","","","",""
"238","","bandit","210","1234895","0.0-172.0-0.0","90502714","wem/bandit_single","AUAN582MLI96N","pain","4","","76","L","3","","0","0","1","","0.4424865849","false","135","","0.1973964499","main_expt","","0.2955422992","","0.05732645975","","0.4424865849","","","","","",""
"636","","bandit","211","1237327","0.0-173.0-0.0","90502714","wem/bandit_single","AUAN582MLI96N","pain","4","","76","L","3","","0","0","1","","0.4465543098","false","136","","0.1813196928","main_expt","","0.3509846551","","0.07342087183","","0.4465543098","","","","","",""
"115","","bandit","212","1239245","0.0-174.0-0.0","90502714","wem/bandit_single","AUAN582MLI96N","pain","4","","76","L","3","","0","0","1","","0.4520996047","false","137","","0.1859539446","main_expt","","0.3344410146","","0.07676045657","","0.4520996047","","","","","",""
"984","","bandit","213","1242028","0.0-175.0-0.0","90502714","wem/bandit_single","AUAN582MLI96N","pain","4","","76","L","3","","0","0","1","","0.428300575","false","138","","0.1014888705","main_expt","","0.2657268636","","0.09127868582","","0.428300575","","","","","",""
"88","","bandit","214","1243911","0.0-176.0-0.0","90502714","wem/bandit_single","AUAN582MLI96N","pain","4","","76","L","3","","0","1","0","","0.419833238","false","139","","0.09034098631","main_expt","","0.2267955479","","0.1057771966","","0.419833238","","","","","",""
"218","","bandit","215","1245918","0.0-177.0-0.0","90502714","wem/bandit_single","AUAN582MLI96N","pain","4","","76","L","3","","0","1","0","","0.423721229","false","140","","0.09102227313","main_expt","","0.2278141127","","0.1134354218","","0.423721229","","","","","",""
"10","","bandit","216","1247718","0.0-178.0-0.0","90502714","wem/bandit_single","AUAN582MLI96N","pain","4","","76","L","3","","0","1","0","","0.4382479885","false","141","","0.1095349378","main_expt","","0.23653477","","0.1205694848","","0.4382479885","","","","","",""
"66","","bandit","217","1249560","0.0-179.0-0.0","90502714","wem/bandit_single","AUAN582MLI96N","pain","4","","76","L","3","","0","1","0","","0.4247465964","false","142","","0.1184068784","main_expt","","0.2155890047","","0.1423721259","","0.4247465964","","","","","",""
"46","","bandit","218","1251390","0.0-180.0-0.0","90502714","wem/bandit_single","AUAN582MLI96N","pain","4","","76","L","3","","0","1","0","","0.3978340057","false","143","","0.1056920569","main_expt","","0.2203428631","","0.1199770031","","0.3978340057","","","","","",""
"206","","bandit","219","1253381","0.0-181.0-0.0","90502714","wem/bandit_single","AUAN582MLI96N","pain","4","","76","L","3","","0","0","1","","0.4094639435","false","144","","0.1563123998","main_expt","","0.1834171178","","0.1431068991","","0.4094639435","","","","","",""
"158","","bandit","220","1255338","0.0-182.0-0.0","90502714","wem/bandit_single","AUAN582MLI96N","pain","4","","76","L","3","","0","0","1","","0.4198905501","false","145","","0.09088636348","main_expt","","0.2064693802","","0.1630017245","","0.4198905501","","","","","",""
"41","","bandit","221","1257163","0.0-183.0-0.0","90502714","wem/bandit_single","AUAN582MLI96N","pain","4","","76","L","3","","0","0","1","","0.4050886303","false","146","","0.0827806059","main_expt","","0.1342941172","","0.145034553","","0.4050886303","","","","","",""
"184","","bandit","222","1259143","0.0-184.0-0.0","90502714","wem/bandit_single","AUAN582MLI96N","pain","4","","76","L","3","","0","1","0","","0.3785891444","false","147","","0.1149215639","main_expt","","0.1515740161","","0.1488017726","","0.3785891444","","","","","",""
"217","","bandit","223","1261151","0.0-185.0-0.0","90502714","wem/bandit_single","AUAN582MLI96N","pain","4","","76","L","3","","0","0","1","","0.3854511928","false","148","","0.1099148444","main_expt","","0.1212747878","","0.1582677895","","0.3854511928","","","","","",""
"21","","bandit","224","1262960","0.0-186.0-0.0","90502714","wem/bandit_single","AUAN582MLI96N","pain","4","","76","L","3","","0","0","1","","0.3928641012","false","149","","0.1127327795","main_expt","","0.08453377975","","0.1647072654","","0.3928641012","","","","","",""
"149","","bandit","225","1264923","0.0-187.0-0.0","90502714","wem/bandit_single","AUAN582MLI96N","pain","4","","76","L","3","","0","0","1","","0.3981420368","false","150","","0.1477728786","main_expt","","0.1060211344","","0.1333243968","","0.3981420368","","","","","",""
"60","","bandit","226","1266792","0.0-188.0-0.0","90502714","wem/bandit_single","AUAN582MLI96N","pain","4","","75","K","2","","0","0","1","","0.1232516149","false","151","","0.1634569086","main_expt","","0.06473992137","","0.1232516149","","0.3954234158","","","","","",""
"158","","bandit","227","1268748","0.0-189.0-0.0","90502714","wem/bandit_single","AUAN582MLI96N","pain","4","","75","K","2","","0","1","0","","0.1218764731","false","152","","0.2119786212","main_expt","","0.07847139908","","0.1218764731","","0.3684376671","","","","","",""
"161","","bandit","228","1270715","0.0-190.0-0.0","90502714","wem/bandit_single","AUAN582MLI96N","pain","4","","75","K","2","","0","0","1","","0.1181944444","false","153","","0.190815194","main_expt","","0.06170083269","","0.1181944444","","0.3586265296","","","","","",""
"301","","bandit","229","1272816","0.0-191.0-0.0","90502714","wem/bandit_single","AUAN582MLI96N","pain","4","","75","K","2","","0","0","1","","0.1524072167","false","154","","0.2539230859","main_expt","","0.07752027139","","0.1524072167","","0.3711835277","","","","","",""
"61","","bandit","230","1274680","0.0-192.0-0.0","90502714","wem/bandit_single","AUAN582MLI96N","pain","4","","75","K","2","","0","0","1","","0.2181316645","false","155","","0.2214647723","main_expt","","0.07430376846","","0.2181316645","","0.3296220366","","","","","",""
"239","","bandit","231","1276716","0.0-193.0-0.0","90502714","wem/bandit_single","AUAN582MLI96N","pain","4","","75","K","2","","0","1","0","","0.213475765","false","156","","0.1812397975","main_expt","","0.05925504694","","0.213475765","","0.287903252","","","","","",""
"81","","bandit","232","1278579","0.0-194.0-0.0","90502714","wem/bandit_single","AUAN582MLI96N","pain","4","","75","K","2","","0","0","1","","0.2264995707","false","157","","0.1447548225","main_expt","","0.0737155059","","0.2264995707","","0.296290929","","","","","",""
"86","","bandit","233","1280453","0.0-195.0-0.0","90502714","wem/bandit_single","AUAN582MLI96N","pain","4","","75","K","2","","0","0","1","","0.2991482761","false","158","","0.1458137519","main_expt","","0.05755321342","","0.2991482761","","0.2721348168","","","","","",""
"174","","bandit","234","1282413","0.0-196.0-0.0","90502714","wem/bandit_single","AUAN582MLI96N","pain","4","","75","K","2","","0","1","0","","0.3365391658","false","159","","0.1035755389","main_expt","","0.1007830752","","0.3365391658","","0.2765185667","","","","","",""
"41","","bandit","235","1284256","0.0-197.0-0.0","90502714","wem/bandit_single","AUAN582MLI96N","pain","4","","75","K","2","","0","0","1","","0.313402929","false","160","","0.1142027444","main_expt","","0.06149362121","","0.313402929","","0.3162688162","","","","","",""
"10","","bandit","236","1286044","0.0-198.0-0.0","90502714","wem/bandit_single","AUAN582MLI96N","pain","4","","74","J","1","","0","0","1","","0.09516109007","false","161","","0.1510988582","main_expt","","0.09516109007","","0.3529908654","","0.3302336848","","","","","",""
"185","","bandit","237","1288014","0.0-199.0-0.0","90502714","wem/bandit_single","AUAN582MLI96N","pain","4","","74","J","1","","0","0","1","","0.08429007215","false","162","","0.1720124831","main_expt","","0.08429007215","","0.3608295961","","0.3622896815","","","","","",""
"168","","bandit","238","1289955","0.0-200.0-0.0","90502714","wem/bandit_single","AUAN582MLI96N","pain","4","","74","J","1","","0","1","0","","0.1199893575","false","163","","0.2119433459","main_expt","","0.1199893575","","0.4197284319","","0.3696580379","","","","","",""
"171","","bandit","239","1291926","0.0-201.0-0.0","90502714","wem/bandit_single","AUAN582MLI96N","pain","4","","74","J","1","","0","0","1","","0.1353867718","false","164","","0.2413639604","main_expt","","0.1353867718","","0.4162507976","","0.3217553384","","","","","",""
"96","","bandit","240","1293804","0.0-202.0-0.0","90502714","wem/bandit_single","AUAN582MLI96N","pain","4","","74","J","1","","0","0","1","","0.08700720397","false","165","","0.3231443763","main_expt","","0.08700720397","","0.424344073","","0.2370356752","","","","","",""
"62","","bandit","241","1295660","0.0-203.0-0.0","90502714","wem/bandit_single","AUAN582MLI96N","pain","4","","72","H","0","img/none_selected.jpg","0","1","0","","0.2907209657","false","166","","0.2907209657","main_expt","","0.09613155095","","0.4385436022","","0.1952619304","","","","","",""
"179","","bandit","242","1297636","0.0-204.0-0.0","90502714","wem/bandit_single","AUAN582MLI96N","pain","4","","72","H","0","img/none_selected.jpg","0","0","1","","0.2386263765","false","167","","0.2386263765","main_expt","","0.08740230362","","0.4428370211","","0.2008635704","","","","","",""
"84","","bandit","243","1299522","0.0-205.0-0.0","90502714","wem/bandit_single","AUAN582MLI96N","pain","4","","72","H","0","img/none_selected.jpg","0","0","1","","0.2802872421","false","168","","0.2802872421","main_expt","","0.1033010443","","0.4475632301","","0.2872582577","","","","","",""
"72","","bandit","244","1301396","0.0-206.0-0.0","90502714","wem/bandit_single","AUAN582MLI96N","pain","4","","72","H","0","img/none_selected.jpg","0","0","1","","0.2858578204","false","169","","0.2858578204","main_expt","","0.1288835215","","0.4358894507","","0.2478638945","","","","","",""
"137","","bandit","245","1303330","0.0-207.0-0.0","90502714","wem/bandit_single","AUAN582MLI96N","pain","4","","72","H","0","img/none_selected.jpg","0","0","1","","0.3542119366","false","170","","0.3542119366","main_expt","","0.0821831217","","0.4401344765","","0.2335785199","","","","","",""
"44","","bandit","246","1305200","0.0-208.0-0.0","90502714","wem/bandit_single","AUAN582MLI96N","pain","4","","76","L","3","","0","1","0","","0.263029084","false","171","","0.363516632","main_expt","","0.08448133796","","0.4182824287","","0.263029084","","","","","",""
"22","","bandit","247","1307007","0.0-209.0-0.0","90502714","wem/bandit_single","AUAN582MLI96N","pain","4","","76","L","3","","0","1","0","","0.282237019","false","172","","0.3285232471","main_expt","","0.1142172702","","0.4206293302","","0.282237019","","","","","",""
"203","","bandit","248","1309000","0.0-210.0-0.0","90502714","wem/bandit_single","AUAN582MLI96N","pain","4","","76","L","3","","0","0","1","","0.2798091978","false","173","","0.3379934215","main_expt","","0.1585219493","","0.4424673434","","0.2798091978","","","","","",""
"264","","bandit","249","1311054","0.0-211.0-0.0","90502714","wem/bandit_single","AUAN582MLI96N","pain","4","","76","L","3","","0","0","1","","0.2782342077","false","174","","0.2937018888","main_expt","","0.2167008269","","0.4470793942","","0.2782342077","","","","","",""
"218","","bandit","250","1313060","0.0-212.0-0.0","90502714","wem/bandit_single","AUAN582MLI96N","pain","4","","76","L","3","","0","1","0","","0.3095951925","false","175","","0.2691073907","main_expt","","0.2564405216","","0.4466152725","","0.3095951925","","","","","",""
"179","","bandit","251","1315026","0.0-213.0-0.0","90502714","wem/bandit_single","AUAN582MLI96N","pain","4","","76","L","3","","0","0","1","","0.3149167583","false","176","","0.2797966768","main_expt","","0.2740916264","","0.4622816701","","0.3149167583","","","","","",""
"3","","bandit","252","1316810","0.0-214.0-0.0","90502714","wem/bandit_single","AUAN582MLI96N","pain","4","","76","L","3","","0","0","1","","0.3057016371","false","177","","0.2956207272","main_expt","","0.2701885048","","0.4791174255","","0.3057016371","","","","","",""
"79","","bandit","253","1318701","0.0-215.0-0.0","90502714","wem/bandit_single","AUAN582MLI96N","pain","4","","76","L","3","","0","0","1","","0.2973749651","false","178","","0.2903749226","main_expt","","0.2525299603","","0.4878404122","","0.2973749651","","","","","",""
"182","","bandit","254","1320658","0.0-216.0-0.0","90502714","wem/bandit_single","AUAN582MLI96N","pain","4","","76","L","3","","0","1","0","","0.3205080684","false","179","","0.2324022499","main_expt","","0.2923151224","","0.4871204803","","0.3205080684","","","","","",""
"17","","bandit","255","1322468","0.0-217.0-0.0","90502714","wem/bandit_single","AUAN582MLI96N","pain","4","","76","L","3","","0","1","0","","0.3668921479","false","180","","0.157369965","main_expt","","0.2712435876","","0.4783768728","","0.3668921479","","","","","",""
"145","","bandit","256","1324414","0.0-218.0-0.0","90502714","wem/bandit_single","AUAN582MLI96N","pain","4","","76","L","3","","0","0","1","","0.36743573","false","181","","0.1928111427","main_expt","","0.2911825171","","0.4791844977","","0.36743573","","","","","",""
"222","","bandit","257","1326438","0.0-219.0-0.0","90502714","wem/bandit_single","AUAN582MLI96N","pain","4","","76","L","3","","0","0","1","","0.3444330154","false","182","","0.1831473083","main_expt","","0.2812290194","","0.4796326775","","0.3444330154","","","","","",""
"133","","bandit","258","1328359","0.0-220.0-0.0","90502714","wem/bandit_single","AUAN582MLI96N","pain","4","","76","L","3","","0","1","0","","0.376594699","false","183","","0.1367876881","main_expt","","0.2998653002","","0.4610412729","","0.376594699","","","","","",""
"160","","bandit","259","1330307","0.0-221.0-0.0","90502714","wem/bandit_single","AUAN582MLI96N","pain","4","","75","K","2","","0","1","0","","0.4654872089","false","184","","0.1225312115","main_expt","","0.3019566185","","0.4654872089","","0.3576767422","","","","","",""
"174","","bandit","260","1332281","0.0-222.0-0.0","90502714","wem/bandit_single","AUAN582MLI96N","pain","4","","75","K","2","","0","1","0","","0.4579605539","false","185","","0.1342014861","main_expt","","0.3297019868","","0.4579605539","","0.3420219295","","","","","",""
"224","","bandit","261","1334287","0.0-223.0-0.0","90502714","wem/bandit_single","AUAN582MLI96N","pain","4","","75","K","2","","0","0","1","","0.4285966985","false","186","","0.1302900424","main_expt","","0.3522504082","","0.4285966985","","0.3398722127","","","","","",""
"233","","bandit","262","1336297","0.0-224.0-0.0","90502714","wem/bandit_single","AUAN582MLI96N","pain","4","","75","K","2","","0","0","1","","0.4348535533","false","187","","0.1721475048","main_expt","","0.3716798598","","0.4348535533","","0.3329123812","","","","","",""
"33","","bandit","263","1338100","0.0-225.0-0.0","90502714","wem/bandit_single","AUAN582MLI96N","pain","4","","75","K","2","","0","0","1","","0.4485299143","false","188","","0.194848396","main_expt","","0.3516931858","","0.4485299143","","0.3185375489","","","","","",""
"4","","bandit","264","1339894","0.0-226.0-0.0","90502714","wem/bandit_single","AUAN582MLI96N","pain","4","","75","K","2","","0","0","1","","0.4108460603","false","189","","0.2010474049","main_expt","","0.311825216","","0.4108460603","","0.2819885058","","","","","",""
"166","","bandit","265","1341853","0.0-227.0-0.0","90502714","wem/bandit_single","AUAN582MLI96N","pain","4","","75","K","2","","0","0","1","","0.4276881046","false","190","","0.2388592571","main_expt","","0.3228194114","","0.4276881046","","0.2938453289","","","","","",""
"174","","bandit","266","1343817","0.0-228.0-0.0","90502714","wem/bandit_single","AUAN582MLI96N","pain","4","","76","L","3","","0","0","1","","0.3252392313","false","191","","0.2125939305","main_expt","","0.3070679034","","0.4252680513","","0.3252392313","","","","","",""
"27","","bandit","267","1345627","0.0-229.0-0.0","90502714","wem/bandit_single","AUAN582MLI96N","pain","4","","76","L","3","","0","1","0","","0.2886148476","false","192","","0.2494953747","main_expt","","0.3224985291","","0.4128843357","","0.2886148476","","","","","",""
"270","","bandit","268","1347698","0.0-230.0-0.0","90502714","wem/bandit_single","AUAN582MLI96N","pain","4","","76","L","3","","0","1","0","","0.2985788169","false","193","","0.2831479201","main_expt","","0.3869795439","","0.3935422506","","0.2985788169","","","","","",""
"195","","bandit","269","1349669","0.0-231.0-0.0","90502714","wem/bandit_single","AUAN582MLI96N","pain","4","","76","L","3","","0","0","1","","0.2480640489","false","194","","0.3119862296","main_expt","","0.4012627402","","0.3844836544","","0.2480640489","","","","","",""
"65","","bandit","270","1351545","0.0-232.0-0.0","90502714","wem/bandit_single","AUAN582MLI96N","pain","4","","76","L","3","","0","0","1","","0.2512767584","false","195","","0.3216729489","main_expt","","0.3984750166","","0.3676726872","","0.2512767584","","","","","",""
"456","","bandit","271","1353788","0.0-233.0-0.0","90502714","wem/bandit_single","AUAN582MLI96N","pain","4","","76","L","3","","0","0","1","","0.2465093633","false","196","","0.3321806914","main_expt","","0.354698241","","0.3789354293","","0.2465093633","","","","","",""
"113","","bandit","272","1355708","0.0-234.0-0.0","90502714","wem/bandit_single","AUAN582MLI96N","pain","4","","76","L","3","","0","0","1","","0.2064088789","false","197","","0.3046277309","main_expt","","0.388220233","","0.3163718389","","0.2064088789","","","","","",""
"554","","bandit","273","1358057","0.0-235.0-0.0","90502714","wem/bandit_single","AUAN582MLI96N","pain","4","","76","L","3","","0","0","1","","0.1991167995","false","198","","0.2780350238","main_expt","","0.3702696144","","0.3791854339","","0.1991167995","","","","","",""
"134","","bandit","274","1360004","0.0-236.0-0.0","90502714","wem/bandit_single","AUAN582MLI96N","pain","4","","76","L","3","","0","0","1","","0.217931059","false","199","","0.2933352516","main_expt","","0.3901406761","","0.3677616307","","0.217931059","","","","","",""
"22","","bandit","275","1361795","0.0-237.0-0.0","90502714","wem/bandit_single","AUAN582MLI96N","pain","4","","76","L","3","","0","1","0","","0.1684289921","false","200","","0.2826656477","main_expt","","0.3606677237","","0.3696360463","","0.1684289921","","","","","",""
"34","","bandit","276","1363619","0.0-238.0-0.0","90502714","wem/bandit_single","AUAN582MLI96N","pain","4","","76","L","3","","0","0","1","","0.1526494416","false","201","","0.2337361703","main_expt","","0.3608273241","","0.3685313937","","0.1526494416","","","","","",""
"19","","bandit","277","1365437","0.0-239.0-0.0","90502714","wem/bandit_single","AUAN582MLI96N","pain","4","","76","L","3","","0","0","1","","0.1474087426","false","202","","0.1697000529","main_expt","","0.3495453025","","0.354480527","","0.1474087426","","","","","",""
"81","","bandit","278","1367320","0.0-240.0-0.0","90502714","wem/bandit_single","AUAN582MLI96N","pain","4","","76","L","3","","0","1","0","","0.1499100939","false","203","","0.1941246875","main_expt","","0.3660628182","","0.3420940801","","0.1499100939","","","","","",""
"105","","bandit","279","1369221","0.0-241.0-0.0","90502714","wem/bandit_single","AUAN582MLI96N","pain","4","","76","L","3","","0","0","1","","0.173155318","false","204","","0.2006574904","main_expt","","0.337040125","","0.3365711719","","0.173155318","","","","","",""
"196","","bandit","280","1371218","0.0-242.0-0.0","90502714","wem/bandit_single","AUAN582MLI96N","pain","4","","76","L","3","","0","0","1","","0.1813441082","false","205","","0.1905393187","main_expt","","0.303371863","","0.3517226909","","0.1813441082","","","","","",""
"223","","bandit","281","1373223","0.0-243.0-0.0","90502714","wem/bandit_single","AUAN582MLI96N","pain","4","","76","L","3","","0","0","1","","0.1491413167","false","206","","0.1715448013","main_expt","","0.256221391","","0.3476038752","","0.1491413167","","","","","",""
"190","","bandit","282","1375213","0.0-244.0-0.0","90502714","wem/bandit_single","AUAN582MLI96N","pain","4","","72","H","0","img/none_selected.jpg","0","0","1","","0.1857981004","false","207","","0.1857981004","main_expt","","0.2368802791","","0.3349551135","","0.08847738283","","","","","",""
"251","","bandit","283","1377255","0.0-245.0-0.0","90502714","wem/bandit_single","AUAN582MLI96N","pain","4","","72","H","0","img/none_selected.jpg","0","1","0","","0.2102455122","false","208","","0.2102455122","main_expt","","0.1949321076","","0.342580335","","0.1283817583","","","","","",""
"80","","bandit","284","1379129","0.0-246.0-0.0","90502714","wem/bandit_single","AUAN582MLI96N","pain","4","","72","H","0","img/none_selected.jpg","0","0","1","","0.2400108979","false","209","","0.2400108979","main_expt","","0.1838736563","","0.3043768385","","0.116273769","","","","","",""
"208","","bandit","285","1381134","0.0-247.0-0.0","90502714","wem/bandit_single","AUAN582MLI96N","pain","4","","72","H","0","img/none_selected.jpg","0","1","0","","0.2756077388","false","210","","0.2756077388","main_expt","","0.2021797606","","0.2578785415","","0.1255054793","","","","","",""
"313","","bandit","286","1383224","0.0-248.0-0.0","90502714","wem/bandit_single","AUAN582MLI96N","pain","4","","72","H","0","img/none_selected.jpg","0","0","1","","0.2509099491","false","211","","0.2509099491","main_expt","","0.1724183734","","0.2684152162","","0.1183517879","","","","","",""
"360","","bandit","287","1385374","0.0-249.0-0.0","90502714","wem/bandit_single","AUAN582MLI96N","pain","4","","72","H","0","img/none_selected.jpg","0","0","1","","0.1980821896","false","212","","0.1980821896","main_expt","","0.1730984207","","0.2734791169","","0.05794836862","","","","","",""
"1","","bandit","288","1387155","0.0-250.0-0.0","90502714","wem/bandit_single","AUAN582MLI96N","pain","4","","72","H","0","img/none_selected.jpg","0","0","1","","0.1925164192","false","213","","0.1925164192","main_expt","","0.1324166562","","0.2278558496","","0.05975327623","","","","","",""
"255","","bandit","289","1389208","0.0-251.0-0.0","90502714","wem/bandit_single","AUAN582MLI96N","pain","4","","72","H","0","img/none_selected.jpg","0","0","1","","0.2265747235","false","214","","0.2265747235","main_expt","","0.1503769339","","0.3028606466","","0.08438277685","","","","","",""
"158","","bandit","290","1391141","0.0-252.0-0.0","90502714","wem/bandit_single","AUAN582MLI96N","pain","4","","72","H","0","img/none_selected.jpg","0","0","1","","0.2019374621","false","215","","0.2019374621","main_expt","","0.1957560139","","0.2931323275","","0.06249742642","","","","","",""
"262","","bandit","291","1393206","0.0-253.0-0.0","90502714","wem/bandit_single","AUAN582MLI96N","pain","4","","72","H","0","img/none_selected.jpg","0","0","1","","0.1789305456","false","216","","0.1789305456","main_expt","","0.2405167914","","0.3496422565","","0.03962767808","","","","","",""
"266","","bandit","292","1395262","0.0-254.0-0.0","90502714","wem/bandit_single","AUAN582MLI96N","pain","4","","72","H","0","img/none_selected.jpg","0","0","1","","0.1749198907","false","217","","0.1749198907","main_expt","","0.1730494568","","0.3773047798","","0.04234009702","","","","","",""
"231","","bandit","293","1397271","0.0-255.0-0.0","90502714","wem/bandit_single","AUAN582MLI96N","pain","4","","72","H","0","img/none_selected.jpg","0","0","1","","0.1735363699","false","218","","0.1735363699","main_expt","","0.194438436","","0.3416605923","","0.03503126556","","","","","",""
"106","","bandit","294","1399152","0.0-256.0-0.0","90502714","wem/bandit_single","AUAN582MLI96N","pain","4","","72","H","0","img/none_selected.jpg","0","0","1","","0.2007391453","false","219","","0.2007391453","main_expt","","0.1883779435","","0.3559276739","","0.04555228435","","","","","",""
"1","","bandit","295","1400933","0.0-257.0-0.0","90502714","wem/bandit_single","AUAN582MLI96N","pain","4","","72","H","0","img/none_selected.jpg","0","0","1","","0.2082644318","false","220","","0.2082644318","main_expt","","0.146052069","","0.3535435837","","0.03183460319","","","","","",""
"118","","bandit","296","1402846","0.0-258.0-0.0","90502714","wem/bandit_single","AUAN582MLI96N","pain","4","","72","H","0","img/none_selected.jpg","0","0","1","","0.1821586712","false","221","","0.1821586712","main_expt","","0.1494285134","","0.3418709783","","0.05071015327","","","","","",""
"29","","bandit","297","1404806","0.0-259.0-0.0","90502714","wem/bandit_single","AUAN582MLI96N","pain","4","","72","H","0","img/none_selected.jpg","0","0","1","","0.2158533928","false","222","","0.2158533928","main_expt","","0.182387278","","0.3004905908","","0.04027023507","","","","","",""
"364","","bandit","298","1407629","0.0-260.0-0.0","90502714","wem/bandit_single","AUAN582MLI96N","pain","4","","72","H","0","img/none_selected.jpg","0","1","0","","0.1832968935","false","223","","0.1832968935","main_expt","","0.198140534","","0.3691689592","","0.05247893246","","","","","",""
"120","","bandit","299","1409543","0.0-261.0-0.0","90502714","wem/bandit_single","AUAN582MLI96N","pain","4","","72","H","0","img/none_selected.jpg","0","0","1","","0.1701073256","false","224","","0.1701073256","main_expt","","0.1957066115","","0.2915556832","","0.06352932029","","","","","",""
"242","","bandit","300","1411598","0.0-262.0-0.0","90502714","wem/bandit_single","AUAN582MLI96N","pain","4","","72","H","0","img/none_selected.jpg","0","0","1","","0.1599508429","false","225","","0.1599508429","main_expt","","0.2132826896","","0.3175642321","","0.04388745626","","","","","",""
"193","","bandit","301","1413584","0.0-263.0-0.0","90502714","wem/bandit_single","AUAN582MLI96N","pain","4","","72","H","0","img/none_selected.jpg","0","0","1","","0.1801289829","false","226","","0.1801289829","main_expt","","0.2679811769","","0.2803716623","","0.0536624769","","","","","",""
"662","","bandit","302","1416021","0.0-264.0-0.0","90502714","wem/bandit_single","AUAN582MLI96N","pain","4","","72","H","0","img/none_selected.jpg","0","0","1","","0.1920788888","false","227","","0.1920788888","main_expt","","0.2101601544","","0.2506224893","","0.07211167966","","","","","",""
"209","","bandit","303","1418020","0.0-265.0-0.0","90502714","wem/bandit_single","AUAN582MLI96N","pain","4","","72","H","0","img/none_selected.jpg","0","0","1","","0.1540575712","false","228","","0.1540575712","main_expt","","0.1808571688","","0.2890404278","","0.04486621846","","","","","",""
"479","","bandit","304","1420286","0.0-266.0-0.0","90502714","wem/bandit_single","AUAN582MLI96N","pain","4","","72","H","0","img/none_selected.jpg","0","0","1","","0.161449161","false","229","","0.161449161","main_expt","","0.1132309001","","0.2746035793","","0.05387953984","","","","","",""
"284","","bandit","305","1422378","0.0-267.0-0.0","90502714","wem/bandit_single","AUAN582MLI96N","pain","4","","72","H","0","img/none_selected.jpg","0","0","1","","0.1413021421","false","230","","0.1413021421","main_expt","","0.1450818377","","0.282726532","","0.03848872117","","","","","",""
"190","","bandit","306","1424377","0.0-268.0-0.0","90502714","wem/bandit_single","AUAN582MLI96N","pain","4","","72","H","0","img/none_selected.jpg","0","0","1","","0.1745796094","false","231","","0.1745796094","main_expt","","0.1077137685","","0.3472256411","","0.04669383004","","","","","",""
"602","","bandit","307","1426771","0.0-269.0-0.0","90502714","wem/bandit_single","AUAN582MLI96N","pain","4","","72","H","0","img/none_selected.jpg","0","1","0","","0.1680880834","false","232","","0.1680880834","main_expt","","0.06427161289","","0.3994934702","","0.03395804074","","","","","",""
"640","","bandit","308","1429208","0.0-270.0-0.0","90502714","wem/bandit_single","AUAN582MLI96N","pain","4","","72","H","0","img/none_selected.jpg","0","0","1","","0.213250795","false","233","","0.213250795","main_expt","","0.1060089469","","0.4029083043","","0.05150109453","","","","","",""
"409","","bandit","309","1431393","0.0-271.0-0.0","90502714","wem/bandit_single","AUAN582MLI96N","pain","4","","72","H","0","img/none_selected.jpg","0","0","1","","0.221091899","false","234","","0.221091899","main_expt","","0.1117154146","","0.4486287737","","0.06099663442","","","","","",""
"365","","bandit","310","1433542","0.0-272.0-0.0","90502714","wem/bandit_single","AUAN582MLI96N","pain","4","","72","H","0","img/none_selected.jpg","0","1","0","","0.2688923835","false","235","","0.2688923835","main_expt","","0.1276115887","","0.4561120354","","0.05202127711","","","","","",""
"144","","bandit","311","1435465","0.0-273.0-0.0","90502714","wem/bandit_single","AUAN582MLI96N","pain","4","","72","H","0","img/none_selected.jpg","0","0","1","","0.2323123402","false","236","","0.2323123402","main_expt","","0.1786916187","","0.4375102443","","0.07001303924","","","","","",""
"270","","bandit","312","1437526","0.0-274.0-0.0","90502714","wem/bandit_single","AUAN582MLI96N","pain","4","","72","H","0","img/none_selected.jpg","0","0","1","","0.174764536","false","237","","0.174764536","main_expt","","0.1896980961","","0.4582573195","","0.07602679398","","","","","",""
"35","","bandit","313","1439361","0.0-275.0-0.0","90502714","wem/bandit_single","AUAN582MLI96N","pain","4","","72","H","0","img/none_selected.jpg","0","0","1","","0.1654919337","false","238","","0.1654919337","main_expt","","0.2205101014","","0.4463811869","","0.08775462142","","","","","",""
"180","","bandit","314","1441349","0.0-276.0-0.0","90502714","wem/bandit_single","AUAN582MLI96N","pain","4","","72","H","0","img/none_selected.jpg","0","0","1","","0.2402574844","false","239","","0.2402574844","main_expt","","0.2661717939","","0.4507479662","","0.06721086637","","","","","",""
"399","","bandit","315","1443554","0.0-277.0-0.0","90502714","wem/bandit_single","AUAN582MLI96N","pain","4","","72","H","0","img/none_selected.jpg","0","0","1","","0.2445968751","false","240","","0.2445968751","main_expt","","0.1972661282","","0.4504038859","","0.07433064979","","","","","",""
"190","","bandit","316","1445543","0.0-278.0-0.0","90502714","wem/bandit_single","AUAN582MLI96N","pain","4","","72","H","0","img/none_selected.jpg","0","0","1","","0.2708632627","false","241","","0.2708632627","main_expt","","0.1868253343","","0.4346931185","","0.08919714094","","","","","",""
"359","","bandit","317","1447692","0.0-279.0-0.0","90502714","wem/bandit_single","AUAN582MLI96N","pain","4","","72","H","0","img/none_selected.jpg","0","0","1","","0.2047807489","false","242","","0.2047807489","main_expt","","0.1649449253","","0.3898892773","","0.06159770715","","","","","",""
"150","","bandit","318","1449631","0.0-280.0-0.0","90502714","wem/bandit_single","AUAN582MLI96N","pain","4","","72","H","0","img/none_selected.jpg","0","0","1","","0.222122474","false","243","","0.222122474","main_expt","","0.184368772","","0.4033463229","","0.05299296545","","","","","",""
"195","","bandit","319","1451626","0.0-281.0-0.0","90502714","wem/bandit_single","AUAN582MLI96N","pain","4","","72","H","0","img/none_selected.jpg","0","0","1","","0.2425992204","false","244","","0.2425992204","main_expt","","0.2121467569","","0.4096532456","","0.06275569833","","","","","",""
"220","","bandit","320","1453659","0.0-282.0-0.0","90502714","wem/bandit_single","AUAN582MLI96N","pain","4","","72","H","0","img/none_selected.jpg","0","0","1","","0.2173978931","false","245","","0.2173978931","main_expt","","0.1894702338","","0.3779527256","","0.06673215917","","","","","",""
"154","","bandit","321","1455616","0.0-283.0-0.0","90502714","wem/bandit_single","AUAN582MLI96N","pain","4","","72","H","0","img/none_selected.jpg","0","0","1","","0.2218069129","false","246","","0.2218069129","main_expt","","0.2018459735","","0.3953318503","","0.06500670021","","","","","",""
"283","","bandit","322","1457711","0.0-284.0-0.0","90502714","wem/bandit_single","AUAN582MLI96N","pain","4","","74","J","1","","0","1","0","","0.1986179994","false","247","","0.1888628326","main_expt","","0.1986179994","","0.4287890539","","0.07271559664","","","","","",""
"160","","bandit","323","1459693","0.0-285.0-0.0","90502714","wem/bandit_single","AUAN582MLI96N","pain","4","","74","J","1","","0","0","1","","0.1299779064","false","248","","0.1722509531","main_expt","","0.1299779064","","0.4104310255","","0.09654775784","","","","","",""
"635","","bandit","324","1462130","0.0-286.0-0.0","90502714","wem/bandit_single","AUAN582MLI96N","pain","4","","74","J","1","","0","0","1","","0.1590650881","false","249","","0.2541205998","main_expt","","0.1590650881","","0.4116337798","","0.1179039307","","","","","",""
"146","","bandit","325","1464067","0.0-287.0-0.0","90502714","wem/bandit_single","AUAN582MLI96N","pain","4","","74","J","1","","0","0","1","","0.1213614167","false","250","","0.2664885101","main_expt","","0.1213614167","","0.426505214","","0.1265890049","","","","","",""
"36","","bandit","326","1465887","0.0-288.0-0.0","90502714","wem/bandit_single","AUAN582MLI96N","pain","4","","74","J","1","","0","0","1","","0.1099334476","false","251","","0.2519669898","main_expt","","0.1099334476","","0.3949293487","","0.1039398773","","","","","",""
"73","","bandit","327","1467747","0.0-289.0-0.0","90502714","wem/bandit_single","AUAN582MLI96N","pain","4","","75","K","2","","0","1","0","","0.3913077142","false","252","","0.2932098873","main_expt","","0.1087011898","","0.3913077142","","0.107940897","","","","","",""
"69","","bandit","328","1469631","0.0-290.0-0.0","90502714","wem/bandit_single","AUAN582MLI96N","pain","4","","75","K","2","","0","0","1","","0.3648650894","false","253","","0.3179249839","main_expt","","0.09397011719","","0.3648650894","","0.1136461566","","","","","",""
"193","","bandit","329","1471631","0.0-291.0-0.0","90502714","wem/bandit_single","AUAN582MLI96N","pain","4","","75","K","2","","0","0","1","","0.3452883024","false","254","","0.2908620441","main_expt","","0.08474648857","","0.3452883024","","0.1374631792","","","","","",""
"204","","bandit","330","1473636","0.0-292.0-0.0","90502714","wem/bandit_single","AUAN582MLI96N","pain","4","","75","K","2","","0","1","0","","0.2943306686","false","255","","0.3067265453","main_expt","","0.1025854271","","0.2943306686","","0.1453945637","","","","","",""
"10","","bandit","331","1475442","0.0-293.0-0.0","90502714","wem/bandit_single","AUAN582MLI96N","pain","4","","75","K","2","","0","0","1","","0.3225000795","false","256","","0.3133222149","main_expt","","0.08686152536","","0.3225000795","","0.1543600678","","","","","",""
"24","","bandit","332","1477250","0.0-294.0-0.0","90502714","wem/bandit_single","AUAN582MLI96N","pain","4","","75","K","2","","0","0","1","","0.3199750271","false","257","","0.3194106209","main_expt","","0.08667022303","","0.3199750271","","0.107160473","","","","","",""
"400","","bandit","333","1479455","0.0-295.0-0.0","90502714","wem/bandit_single","AUAN582MLI96N","pain","4","","75","K","2","","0","0","1","","0.355105101","false","258","","0.35032938","main_expt","","0.1158580788","","0.355105101","","0.0567043194","","","","","",""
"333","","bandit","334","1481571","0.0-296.0-0.0","90502714","wem/bandit_single","AUAN582MLI96N","pain","4","","75","K","2","","0","1","0","","0.3566572827","false","259","","0.3856615787","main_expt","","0.08241329339","","0.3566572827","","0.05418204449","","","","","",""
"44","","bandit","335","1483408","0.0-297.0-0.0","90502714","wem/bandit_single","AUAN582MLI96N","pain","4","","75","K","2","","0","0","1","","0.3492833521","false","260","","0.3977147975","main_expt","","0.09346186364","","0.3492833521","","0.0423658587","","","","","",""
"139","","bandit","336","1485345","0.0-298.0-0.0","90502714","wem/bandit_single","AUAN582MLI96N","pain","4","","75","K","2","","0","0","1","","0.3406934897","false","261","","0.4011116255","main_expt","","0.07434745577","","0.3406934897","","0.08097208102","","","","","",""
"224","","bandit","337","1487370","0.0-299.0-0.0","90502714","wem/bandit_single","AUAN582MLI96N","pain","4","","75","K","2","","0","1","0","","0.3604065233","false","262","","0.4149706566","main_expt","","0.1177047137","","0.3604065233","","0.05731993864","","","","","",""
"539","","bandit","338","1489703","0.0-300.0-0.0","90502714","wem/bandit_single","AUAN582MLI96N","pain","4","","75","K","2","","0","1","0","","0.3584147688","false","263","","0.4476629791","main_expt","","0.09530987449","","0.3584147688","","0.07314079116","","","","","",""
"172","","bandit","339","1491639","0.0-301.0-0.0","90502714","wem/bandit_single","AUAN582MLI96N","pain","4","","75","K","2","","0","0","1","","0.3723043834","false","264","","0.4640453953","main_expt","","0.07595610255","","0.3723043834","","0.08382102311","","","","","",""
"329","","bandit","340","1493785","0.0-302.0-0.0","90502714","wem/bandit_single","AUAN582MLI96N","pain","4","","75","K","2","","0","0","1","","0.316280577","false","265","","0.4465377191","main_expt","","0.08850347459","","0.316280577","","0.1065624759","","","","","",""
"307","","bandit","341","1495886","0.0-303.0-0.0","90502714","wem/bandit_single","AUAN582MLI96N","pain","4","","75","K","2","","0","0","1","","0.269287162","false","266","","0.4183068553","main_expt","","0.1215706641","","0.269287162","","0.1253885588","","","","","",""
"372","","bandit","342","1498061","0.0-304.0-0.0","90502714","wem/bandit_single","AUAN582MLI96N","pain","4","","76","L","3","","0","0","1","","0.09016252172","false","267","","0.4268145795","main_expt","","0.1841144129","","0.2280314931","","0.09016252172","","","","","",""
"316","","bandit","343","1500174","0.0-305.0-0.0","90502714","wem/bandit_single","AUAN582MLI96N","pain","4","","76","L","3","","0","0","1","","0.08700052181","false","268","","0.4319202891","main_expt","","0.1409141681","","0.2243604643","","0.08700052181","","","","","",""
"286","","bandit","344","1502251","0.0-306.0-0.0","90502714","wem/bandit_single","AUAN582MLI96N","pain","4","","76","L","3","","0","0","1","","0.09500676271","false","269","","0.4493038861","main_expt","","0.1011197226","","0.2334807581","","0.09500676271","","","","","",""
"246","","bandit","345","1504301","0.0-307.0-0.0","90502714","wem/bandit_single","AUAN582MLI96N","pain","4","","76","L","3","","0","0","1","","0.07607499825","false","270","","0.443059266","main_expt","","0.118556502","","0.2376518603","","0.07607499825","","","","","",""
"319","","bandit","346","1506418","0.0-308.0-0.0","90502714","wem/bandit_single","AUAN582MLI96N","pain","4","","76","L","3","","0","0","1","","0.08946946819","false","271","","0.4362671961","main_expt","","0.131750931","","0.2139372972","","0.08946946819","","","","","",""
"658","","bandit","347","1508869","0.0-309.0-0.0","90502714","wem/bandit_single","AUAN582MLI96N","pain","4","","76","L","3","","0","0","1","","0.108288805","false","272","","0.4452199348","main_expt","","0.174678733","","0.157688628","","0.108288805","","","","","",""
"145","","bandit","348","1510830","0.0-310.0-0.0","90502714","wem/bandit_single","AUAN582MLI96N","pain","4","","76","L","3","","0","0","1","","0.105491008","false","273","","0.454652927","main_expt","","0.1730415972","","0.271098703","","0.105491008","","","","","",""
"375","","bandit","349","1512979","0.0-311.0-0.0","90502714","wem/bandit_single","AUAN582MLI96N","pain","4","","76","L","3","","0","0","1","","0.1059149547","false","274","","0.4646374989","main_expt","","0.1520576313","","0.2778056479","","0.1059149547","","","","","",""
"413","","bandit","350","1515190","0.0-312.0-0.0","90502714","wem/bandit_single","AUAN582MLI96N","pain","4","","74","J","1","","0","0","1","","0.1007060326","false","275","","0.4535579815","main_expt","","0.1007060326","","0.2698457611","","0.09894283875","","","","","",""
"293","","bandit","351","1517261","0.0-313.0-0.0","90502714","wem/bandit_single","AUAN582MLI96N","pain","4","","74","J","1","","0","0","1","","0.08844777519","false","276","","0.4319407295","main_expt","","0.08844777519","","0.2774836338","","0.07695295732","","","","","",""
"36","","bandit","352","1519087","0.0-314.0-0.0","90502714","wem/bandit_single","AUAN582MLI96N","pain","4","","72","H","0","img/none_selected.jpg","0","0","1","","0.4475260374","false","277","","0.4475260374","main_expt","","0.1315613084","","0.3222794015","","0.0896712608","","","","","",""
"414","","bandit","353","1521295","0.0-315.0-0.0","90502714","wem/bandit_single","AUAN582MLI96N","pain","4","","72","H","0","img/none_selected.jpg","0","0","1","","0.4553849104","false","278","","0.4553849104","main_expt","","0.1508492864","","0.3122447371","","0.1343695578","","","","","",""
"469","","bandit","354","1523564","0.0-316.0-0.0","90502714","wem/bandit_single","AUAN582MLI96N","pain","4","","72","H","0","img/none_selected.jpg","0","1","0","","0.4621871954","false","279","","0.4621871954","main_expt","","0.1181182825","","0.2934764685","","0.1106050404","","","","","",""
"163","","bandit","355","1525527","0.0-317.0-0.0","90502714","wem/bandit_single","AUAN582MLI96N","pain","4","","74","J","1","","0","1","0","","0.1244803533","false","280","","0.4482597109","main_expt","","0.1244803533","","0.290984208","","0.114105974","","","","","",""
"149","","bandit","356","1527478","0.0-318.0-0.0","90502714","wem/bandit_single","AUAN582MLI96N","pain","4","","74","J","1","","0","0","1","","0.105821284","false","281","","0.4347423019","main_expt","","0.105821284","","0.2974260948","","0.1246337516","","","","","",""
"274","","bandit","357","1529561","0.0-319.0-0.0","90502714","wem/bandit_single","AUAN582MLI96N","pain","4","","74","J","1","","0","0","1","","0.1562468179","false","282","","0.4583393623","main_expt","","0.1562468179","","0.2972171025","","0.079988156","","","","","",""
"65","","bandit","358","1531433","0.0-320.0-0.0","90502714","wem/bandit_single","AUAN582MLI96N","pain","4","","74","J","1","","0","0","1","","0.1478322318","false","283","","0.4497532375","main_expt","","0.1478322318","","0.2821487798","","0.06901380195","","","","","",""
"10","","bandit","359","1533236","0.0-321.0-0.0","90502714","wem/bandit_single","AUAN582MLI96N","pain","4","","74","J","1","","0","1","0","","0.1371678423","false","284","","0.4312811421","main_expt","","0.1371678423","","0.2739939459","","0.05901051183","","","","","",""
"34","","bandit","360","1535050","0.0-322.0-0.0","90502714","wem/bandit_single","AUAN582MLI96N","pain","4","","74","J","1","","0","0","1","","0.12762277","false","285","","0.4599346403","main_expt","","0.12762277","","0.2251097973","","0.1126944794","","","","","",""
"598","","bandit","361","1537449","0.0-323.0-0.0","90502714","wem/bandit_single","AUAN582MLI96N","pain","4","","74","J","1","","0","0","1","","0.1587978561","false","286","","0.4588450488","main_expt","","0.1587978561","","0.2124690726","","0.09646131279","","","","","",""
"140","","bandit","362","1539393","0.0-324.0-0.0","90502714","wem/bandit_single","AUAN582MLI96N","pain","4","","74","J","1","","0","0","1","","0.1262084743","false","287","","0.4684539465","main_expt","","0.1262084743","","0.2311163105","","0.0795853072","","","","","",""
"111","","bandit","363","1541301","0.0-325.0-0.0","90502714","wem/bandit_single","AUAN582MLI96N","pain","4","","74","J","1","","0","0","1","","0.08849331384","false","288","","0.4555823871","main_expt","","0.08849331384","","0.2178761709","","0.07210460151","","","","","",""
"234","","bandit","364","1543331","0.0-326.0-0.0","90502714","wem/bandit_single","AUAN582MLI96N","pain","4","","74","J","1","","0","1","0","","0.1082793638","false","289","","0.4779982095","main_expt","","0.1082793638","","0.2656120211","","0.08807043944","","","","","",""
"360","","bandit","365","1545494","0.0-327.0-0.0","90502714","wem/bandit_single","AUAN582MLI96N","pain","4","","74","J","1","","0","0","1","","0.1591187351","false","290","","0.4806691972","main_expt","","0.1591187351","","0.2756957417","","0.09097769709","","","","","",""
"602","","bandit","366","1547879","0.0-328.0-0.0","90502714","wem/bandit_single","AUAN582MLI96N","pain","4","","74","J","1","","0","0","1","","0.1766493085","false","291","","0.4856322508","main_expt","","0.1766493085","","0.3111580235","","0.1486720085","","","","","",""
"355","","bandit","367","1550028","0.0-329.0-0.0","90502714","wem/bandit_single","AUAN582MLI96N","pain","4","","74","J","1","","0","0","1","","0.1303677554","false","292","","0.4905538215","main_expt","","0.1303677554","","0.3019137931","","0.166368556","","","","","",""
"230","","bandit","368","1552051","0.0-330.0-0.0","90502714","wem/bandit_single","AUAN582MLI96N","pain","4","","74","J","1","","0","0","1","","0.1553518032","false","293","","0.4915741327","main_expt","","0.1553518032","","0.2930542664","","0.1516979355","","","","","",""
"212","","bandit","369","1554068","0.0-331.0-0.0","90502714","wem/bandit_single","AUAN582MLI96N","pain","4","","74","J","1","","0","0","1","","0.1586445557","false","294","","0.4854109815","main_expt","","0.1586445557","","0.294566814","","0.142642289","","","","","",""
"168","","bandit","370","1556017","0.0-332.0-0.0","90502714","wem/bandit_single","AUAN582MLI96N","pain","4","","75","K","2","","0","1","0","","0.2590601899","false","295","","0.4737464351","main_expt","","0.1474370852","","0.2590601899","","0.1038045902","","","","","",""
"497","","bandit","371","1558317","0.0-333.0-0.0","90502714","wem/bandit_single","AUAN582MLI96N","pain","4","","75","K","2","","0","0","1","","0.260130188","false","296","","0.4752126994","main_expt","","0.1281429101","","0.260130188","","0.1055366566","","","","","",""
"681","","bandit","372","1560813","0.0-334.0-0.0","90502714","wem/bandit_single","AUAN582MLI96N","pain","4","","75","K","2","","0","0","1","","0.243487995","false","297","","0.47087989","main_expt","","0.1486346553","","0.243487995","","0.07292146603","","","","","",""
