"rt","responses","trial_type","trial_index","time_elapsed","internal_node_id","subjID","study","MID","cond","drift","key_press","respCharCode","respKey","respChoiceNum","respChoice","gems","bombs","no_reward","GemPrChosen","BombPrChosen","practice","trial_counter","WinPr_0","LosePr_0","trial_label","WinPr_1","LosePr_1","WinPr_2","LosePr_2","WinPr_3","LosePr_3","Q0","Q1","Q2","gender","age","ethnicity"
"11234","{""Q0"":""A2OVWCQ4B9AHFY""}","survey-text","0","11248","0.0-0.0","90686500","wem/bandit_single","A2OVWCQ4B9AHFY","gain","1","","","","","","","","","","","","","","","","","","","","","","","","","","",""
"11915","","text","1","24170","0.0-1.0","90686500","wem/bandit_single","A2OVWCQ4B9AHFY","gain","1","32","","","","","","","","","","","","","","","","","","","","","","","","","",""
"1293","","text","2","25467","0.0-2.0","90686500","wem/bandit_single","A2OVWCQ4B9AHFY","gain","1","32","","","","","","","","","","","","","","","","","","","","","","","","","",""
"499","","text","3","25969","0.0-3.0","90686500","wem/bandit_single","A2OVWCQ4B9AHFY","gain","1","32","","","","","","","","","","","","","","","","","","","","","","","","","",""
"18357","","text","4","44331","0.0-4.0","90686500","wem/bandit_single","A2OVWCQ4B9AHFY","gain","1","32","","","","","","","","","","","","","","","","","","","","","","","","","",""
"9674","","text","5","54011","0.0-5.0","90686500","wem/bandit_single","A2OVWCQ4B9AHFY","gain","1","32","","","","","","","","","","","","","","","","","","","","","","","","","",""
"3964","","text","6","57977","0.0-6.0","90686500","wem/bandit_single","A2OVWCQ4B9AHFY","gain","1","32","","","","","","","","","","","","","","","","","","","","","","","","","",""
"4995","","text","7","62974","0.0-7.0","90686500","wem/bandit_single","A2OVWCQ4B9AHFY","gain","1","32","","","","","","","","","","","","","","","","","","","","","","","","","",""
"3754","","text","8","66733","0.0-8.0","90686500","wem/bandit_single","A2OVWCQ4B9AHFY","gain","1","32","","","","","","","","","","","","","","","","","","","","","","","","","",""
"1236","","text","9","67970","0.0-9.0","90686500","wem/bandit_single","A2OVWCQ4B9AHFY","gain","1","32","","","","","","","","","","","","","","","","","","","","","","","","","",""
"25380","","text","10","93354","0.0-10.0","90686500","wem/bandit_single","A2OVWCQ4B9AHFY","gain","1","32","","","","","","","","","","","","","","","","","","","","","","","","","",""
"5461","","text","11","98819","0.0-11.0","90686500","wem/bandit_single","A2OVWCQ4B9AHFY","gain","1","32","","","","","","","","","","","","","","","","","","","","","","","","","",""
"1367","","bandit","12","101703","0.0-12.0-0.0","90686500","wem/bandit_single","A2OVWCQ4B9AHFY","gain","1","","74","J","0","img/none_selected_demo.jpg","0","0","1","0","0","true","0","0","0","","","","","","","","","","","","",""
"663","","bandit","13","104122","0.0-13.0-0.0","90686500","wem/bandit_single","A2OVWCQ4B9AHFY","gain","1","","75","K","0","img/none_selected_demo.jpg","0","0","1","0","0","true","0","0","0","","","","","","","","","","","","",""
"2336","","text","14","106712","0.0-14.0","90686500","wem/bandit_single","A2OVWCQ4B9AHFY","gain","1","32","","","","","","","","","","","","","","","","","","","","","","","","","",""
"2706","","text","15","109422","0.0-15.0","90686500","wem/bandit_single","A2OVWCQ4B9AHFY","gain","1","32","","","","","","","","","","","","","","","","","","","","","","","","","",""
"12715","","text","16","122140","0.0-16.0","90686500","wem/bandit_single","A2OVWCQ4B9AHFY","gain","1","32","","","","","","","","","","","","","","","","","","","","","","","","","",""
"2170","","text","17","124313","0.0-17.0","90686500","wem/bandit_single","A2OVWCQ4B9AHFY","gain","1","32","","","","","","","","","","","","","","","","","","","","","","","","","",""
"1601","","bandit","18","127420","0.0-18.0-0.0","90686500","wem/bandit_single","A2OVWCQ4B9AHFY","gain","1","","74","J","0","img/none_selected_demo.jpg","1","0","0","0.8","0","true","0","0.8","0","80_20_practice","0.2","0","","","","","","","","","",""
"670","","bandit","19","129848","0.0-18.0-1.0","90686500","wem/bandit_single","A2OVWCQ4B9AHFY","gain","1","","75","K","1","","0","0","1","0.2","0","true","0","0.8","0","80_20_practice","0.2","0","","","","","","","","","",""
"37","","bandit","20","131643","0.0-18.0-2.0","90686500","wem/bandit_single","A2OVWCQ4B9AHFY","gain","1","","74","J","0","img/none_selected_demo.jpg","1","0","0","0.8","0","true","0","0.8","0","80_20_practice","0.2","0","","","","","","","","","",""
"706","","bandit","21","134107","0.0-18.0-3.0","90686500","wem/bandit_single","A2OVWCQ4B9AHFY","gain","1","","74","J","0","img/none_selected_demo.jpg","1","0","0","0.8","0","true","0","0.8","0","80_20_practice","0.2","0","","","","","","","","","",""
"29","","bandit","22","135895","0.0-18.0-4.0","90686500","wem/bandit_single","A2OVWCQ4B9AHFY","gain","1","","75","K","1","","1","0","0","0.2","0","true","0","0.8","0","80_20_practice","0.2","0","","","","","","","","","",""
"136","","bandit","23","137786","0.0-18.0-5.0","90686500","wem/bandit_single","A2OVWCQ4B9AHFY","gain","1","","75","K","1","","0","0","1","0.2","0","true","0","0.8","0","80_20_practice","0.2","0","","","","","","","","","",""
"31","","bandit","24","139572","0.0-18.0-6.0","90686500","wem/bandit_single","A2OVWCQ4B9AHFY","gain","1","","74","J","0","img/none_selected_demo.jpg","1","0","0","0.8","0","true","0","0.8","0","80_20_practice","0.2","0","","","","","","","","","",""
"68","","bandit","25","141398","0.0-18.0-7.0","90686500","wem/bandit_single","A2OVWCQ4B9AHFY","gain","1","","74","J","0","img/none_selected_demo.jpg","1","0","0","0.8","0","true","0","0.8","0","80_20_practice","0.2","0","","","","","","","","","",""
"1020","","bandit","26","144177","0.0-18.0-8.0","90686500","wem/bandit_single","A2OVWCQ4B9AHFY","gain","1","","74","J","0","img/none_selected_demo.jpg","1","0","0","0.8","0","true","0","0.8","0","80_20_practice","0.2","0","","","","","","","","","",""
"238","","bandit","27","146172","0.0-18.0-9.0","90686500","wem/bandit_single","A2OVWCQ4B9AHFY","gain","1","","75","K","1","","0","0","1","0.2","0","true","0","0.8","0","80_20_practice","0.2","0","","","","","","","","","",""
"372","","bandit","28","148298","0.0-18.0-10.0","90686500","wem/bandit_single","A2OVWCQ4B9AHFY","gain","1","","74","J","0","img/none_selected_demo.jpg","1","0","0","0.8","0","true","0","0.8","0","80_20_practice","0.2","0","","","","","","","","","",""
"36","","bandit","29","150092","0.0-18.0-11.0","90686500","wem/bandit_single","A2OVWCQ4B9AHFY","gain","1","","74","J","0","img/none_selected_demo.jpg","1","0","0","0.8","0","true","0","0.8","0","80_20_practice","0.2","0","","","","","","","","","",""
"486","","bandit","30","153187","0.0-18.0-12.0","90686500","wem/bandit_single","A2OVWCQ4B9AHFY","gain","1","","74","J","0","img/none_selected_demo.jpg","1","0","0","0.8","0","true","0","0.8","0","80_20_practice","0.2","0","","","","","","","","","",""
"6590","","bandit","31","162285","0.0-18.0-13.0","90686500","wem/bandit_single","A2OVWCQ4B9AHFY","gain","1","","74","J","0","img/none_selected_demo.jpg","1","0","0","0.8","0","true","0","0.8","0","80_20_practice","0.2","0","","","","","","","","","",""
"122","","bandit","32","164187","0.0-18.0-14.0","90686500","wem/bandit_single","A2OVWCQ4B9AHFY","gain","1","","75","K","1","","0","0","1","0.2","0","true","0","0.8","0","80_20_practice","0.2","0","","","","","","","","","",""
"1398","","bandit","33","168092","0.0-18.0-15.0","90686500","wem/bandit_single","A2OVWCQ4B9AHFY","gain","1","","74","J","0","img/none_selected_demo.jpg","1","0","0","0.8","0","true","0","0.8","0","80_20_practice","0.2","0","","","","","","","","","",""
"3951","","bandit","34","173801","0.0-18.0-16.0","90686500","wem/bandit_single","A2OVWCQ4B9AHFY","gain","1","","74","J","0","img/none_selected_demo.jpg","1","0","0","0.8","0","true","0","0.8","0","80_20_practice","0.2","0","","","","","","","","","",""
"2076","","bandit","35","177636","0.0-18.0-17.0","90686500","wem/bandit_single","A2OVWCQ4B9AHFY","gain","1","","74","J","0","img/none_selected_demo.jpg","1","0","0","0.8","0","true","0","0.8","0","80_20_practice","0.2","0","","","","","","","","","",""
"592","","bandit","36","179985","0.0-18.0-18.0","90686500","wem/bandit_single","A2OVWCQ4B9AHFY","gain","1","","74","J","0","img/none_selected_demo.jpg","0","0","1","0.8","0","true","0","0.8","0","80_20_practice","0.2","0","","","","","","","","","",""
"80","","bandit","37","181821","0.0-18.0-19.0","90686500","wem/bandit_single","A2OVWCQ4B9AHFY","gain","1","","74","J","0","img/none_selected_demo.jpg","1","0","0","0.8","0","true","0","0.8","0","80_20_practice","0.2","0","","","","","","","","","",""
"2722","","text","38","184798","0.0-19.0","90686500","wem/bandit_single","A2OVWCQ4B9AHFY","gain","1","32","","","","","","","","","","","","","","","","","","","","","","","","","",""
"1323","","bandit","39","187629","0.0-20.0-0.0","90686500","wem/bandit_single","A2OVWCQ4B9AHFY","gain","1","","74","J","0","img/none_selected_demo.jpg","0","0","1","0","0","true","0","0","0","","0","0","","","","","","","","","",""
"15305","","text","40","203190","0.0-21.0","90686500","wem/bandit_single","A2OVWCQ4B9AHFY","gain","1","32","","","","","","","","","","","","","","","","","","","","","","","","","",""
"1759","","text","41","204956","0.0-22.0","90686500","wem/bandit_single","A2OVWCQ4B9AHFY","gain","1","32","","","","","","","","","","","","","","","","","","","","","","","","","",""
"2169","","text","42","207132","0.0-23.0","90686500","wem/bandit_single","A2OVWCQ4B9AHFY","gain","1","32","","","","","","","","","","","","","","","","","","","","","","","","","",""
"1218","","text","43","208356","0.0-24.0","90686500","wem/bandit_single","A2OVWCQ4B9AHFY","gain","1","32","","","","","","","","","","","","","","","","","","","","","","","","","",""
"15552","","text","44","223914","0.0-25.0","90686500","wem/bandit_single","A2OVWCQ4B9AHFY","gain","1","32","","","","","","","","","","","","","","","","","","","","","","","","","",""
"2455","","text","45","226376","0.0-26.0","90686500","wem/bandit_single","A2OVWCQ4B9AHFY","gain","1","32","","","","","","","","","","","","","","","","","","","","","","","","","",""
"3616","","text","46","229998","0.0-27.0","90686500","wem/bandit_single","A2OVWCQ4B9AHFY","gain","1","32","","","","","","","","","","","","","","","","","","","","","","","","","",""
"1978","","text","47","231987","0.0-28.0","90686500","wem/bandit_single","A2OVWCQ4B9AHFY","gain","1","32","","","","","","","","","","","","","","","","","","","","","","","","","",""
"7006","","text","48","238997","0.0-29.0","90686500","wem/bandit_single","A2OVWCQ4B9AHFY","gain","1","32","","","","","","","","","","","","","","","","","","","","","","","","","",""
"1927","","text","49","240932","0.0-30.0","90686500","wem/bandit_single","A2OVWCQ4B9AHFY","gain","1","32","","","","","","","","","","","","","","","","","","","","","","","","","",""
"2800","","text","50","243737","0.0-31.0","90686500","wem/bandit_single","A2OVWCQ4B9AHFY","gain","1","32","","","","","","","","","","","","","","","","","","","","","","","","","",""
"593","","bandit","51","245838","0.0-32.0-0.0","90686500","wem/bandit_single","A2OVWCQ4B9AHFY","gain","1","","74","J","1","","0","0","1","0.2","0","true","0","0.8","0","full_practice","0.2","0","0.6","0","0.2","0","","","","","",""
"674","","bandit","52","248273","0.0-32.0-1.0","90686500","wem/bandit_single","A2OVWCQ4B9AHFY","gain","1","","75","K","2","","1","0","0","0.6","0","true","0","0.8","0","full_practice","0.2","0","0.6","0","0.2","0","","","","","",""
"67","","bandit","53","250096","0.0-32.0-2.0","90686500","wem/bandit_single","A2OVWCQ4B9AHFY","gain","1","","75","K","2","","1","0","0","0.6","0","true","0","0.8","0","full_practice","0.2","0","0.6","0","0.2","0","","","","","",""
"57","","bandit","54","251912","0.0-32.0-3.0","90686500","wem/bandit_single","A2OVWCQ4B9AHFY","gain","1","","75","K","2","","1","0","0","0.6","0","true","0","0.8","0","full_practice","0.2","0","0.6","0","0.2","0","","","","","",""
"92","","bandit","55","253770","0.0-32.0-4.0","90686500","wem/bandit_single","A2OVWCQ4B9AHFY","gain","1","","75","K","2","","1","0","0","0.6","0","true","0","0.8","0","full_practice","0.2","0","0.6","0","0.2","0","","","","","",""
"311","","bandit","56","255842","0.0-32.0-5.0","90686500","wem/bandit_single","A2OVWCQ4B9AHFY","gain","1","","76","L","3","","0","0","1","0.2","0","true","0","0.8","0","full_practice","0.2","0","0.6","0","0.2","0","","","","","",""
"77","","bandit","57","257678","0.0-32.0-6.0","90686500","wem/bandit_single","A2OVWCQ4B9AHFY","gain","1","","72","H","0","img/none_selected.jpg","1","0","0","0.8","0","true","0","0.8","0","full_practice","0.2","0","0.6","0","0.2","0","","","","","",""
"72","","bandit","58","259509","0.0-32.0-7.0","90686500","wem/bandit_single","A2OVWCQ4B9AHFY","gain","1","","75","K","2","","1","0","0","0.6","0","true","0","0.8","0","full_practice","0.2","0","0.6","0","0.2","0","","","","","",""
"52","","bandit","59","261322","0.0-32.0-8.0","90686500","wem/bandit_single","A2OVWCQ4B9AHFY","gain","1","","72","H","0","img/none_selected.jpg","1","0","0","0.8","0","true","0","0.8","0","full_practice","0.2","0","0.6","0","0.2","0","","","","","",""
"30","","bandit","60","263119","0.0-32.0-9.0","90686500","wem/bandit_single","A2OVWCQ4B9AHFY","gain","1","","72","H","0","img/none_selected.jpg","1","0","0","0.8","0","true","0","0.8","0","full_practice","0.2","0","0.6","0","0.2","0","","","","","",""
"402","","bandit","61","265287","0.0-32.0-10.0","90686500","wem/bandit_single","A2OVWCQ4B9AHFY","gain","1","","72","H","0","img/none_selected.jpg","1","0","0","0.8","0","true","0","0.8","0","full_practice","0.2","0","0.6","0","0.2","0","","","","","",""
"662","","bandit","62","267707","0.0-32.0-11.0","90686500","wem/bandit_single","A2OVWCQ4B9AHFY","gain","1","","72","H","0","img/none_selected.jpg","1","0","0","0.8","0","true","0","0.8","0","full_practice","0.2","0","0.6","0","0.2","0","","","","","",""
"102","","bandit","63","269567","0.0-32.0-12.0","90686500","wem/bandit_single","A2OVWCQ4B9AHFY","gain","1","","76","L","3","","0","0","1","0.2","0","true","0","0.8","0","full_practice","0.2","0","0.6","0","0.2","0","","","","","",""
"151","","bandit","64","271481","0.0-32.0-13.0","90686500","wem/bandit_single","A2OVWCQ4B9AHFY","gain","1","","75","K","2","","1","0","0","0.6","0","true","0","0.8","0","full_practice","0.2","0","0.6","0","0.2","0","","","","","",""
"58","","bandit","65","273301","0.0-32.0-14.0","90686500","wem/bandit_single","A2OVWCQ4B9AHFY","gain","1","","72","H","0","img/none_selected.jpg","0","0","1","0.8","0","true","0","0.8","0","full_practice","0.2","0","0.6","0","0.2","0","","","","","",""
"42","","bandit","66","275108","0.0-32.0-15.0","90686500","wem/bandit_single","A2OVWCQ4B9AHFY","gain","1","","75","K","2","","0","0","1","0.6","0","true","0","0.8","0","full_practice","0.2","0","0.6","0","0.2","0","","","","","",""
"156","","bandit","67","277027","0.0-32.0-16.0","90686500","wem/bandit_single","A2OVWCQ4B9AHFY","gain","1","","74","J","1","","1","0","0","0.2","0","true","0","0.8","0","full_practice","0.2","0","0.6","0","0.2","0","","","","","",""
"165","","bandit","68","278952","0.0-32.0-17.0","90686500","wem/bandit_single","A2OVWCQ4B9AHFY","gain","1","","74","J","1","","0","0","1","0.2","0","true","0","0.8","0","full_practice","0.2","0","0.6","0","0.2","0","","","","","",""
"169","","bandit","69","280882","0.0-32.0-18.0","90686500","wem/bandit_single","A2OVWCQ4B9AHFY","gain","1","","76","L","3","","0","0","1","0.2","0","true","0","0.8","0","full_practice","0.2","0","0.6","0","0.2","0","","","","","",""
"10349","","bandit","70","292995","0.0-32.0-19.0","90686500","wem/bandit_single","A2OVWCQ4B9AHFY","gain","1","","74","J","1","","0","0","1","0.2","0","true","0","0.8","0","full_practice","0.2","0","0.6","0","0.2","0","","","","","",""
"2034","","text","71","295302","0.0-33.0","90686500","wem/bandit_single","A2OVWCQ4B9AHFY","gain","1","32","","","","","","","","","","","","","","","","","","","","","","","","","",""
"8929","","text","72","305240","0.0-34.0","90686500","wem/bandit_single","A2OVWCQ4B9AHFY","gain","1","32","","","","","","","","","","","","","","","","","","","","","","","","","",""
"5271","","text","73","310523","0.0-35.0","90686500","wem/bandit_single","A2OVWCQ4B9AHFY","gain","1","32","","","","","","","","","","","","","","","","","","","","","","","","","",""
"4603","","text","74","315135","0.0-36.0","90686500","wem/bandit_single","A2OVWCQ4B9AHFY","gain","1","32","","","","","","","","","","","","","","","","","","","","","","","","","",""
"4720","","text","75","319863","0.0-37.0","90686500","wem/bandit_single","A2OVWCQ4B9AHFY","gain","1","32","","","","","","","","","","","","","","","","","","","","","","","","","",""
"1658","","bandit","76","323037","0.0-38.0-0.0","90686500","wem/bandit_single","A2OVWCQ4B9AHFY","gain","1","","75","K","2","","0","0","1","0.04371116513","","false","1","0.1079408374","","main_expt","0.433486002","","0.04371116513","","0.1765468105","","","","","","",""
"28","","bandit","77","324828","0.0-39.0-0.0","90686500","wem/bandit_single","A2OVWCQ4B9AHFY","gain","1","","74","J","1","","1","0","0","0.4446307222","","false","2","0.1605706499","","main_expt","0.4446307222","","0.0204546363","","0.1569258514","","","","","","",""
"35","","bandit","78","326621","0.0-40.0-0.0","90686500","wem/bandit_single","A2OVWCQ4B9AHFY","gain","1","","74","J","1","","0","0","1","0.4522438858","","false","3","0.1829447669","","main_expt","0.4522438858","","0.02109221713","","0.1639246388","","","","","","",""
"185","","bandit","79","328571","0.0-41.0-0.0","90686500","wem/bandit_single","A2OVWCQ4B9AHFY","gain","1","","72","H","0","img/none_selected.jpg","0","0","1","0.1756642407","","false","4","0.1756642407","","main_expt","0.4330109471","","0.04448829896","","0.2130332657","","","","","","",""
"64","","bandit","80","330400","0.0-42.0-0.0","90686500","wem/bandit_single","A2OVWCQ4B9AHFY","gain","1","","76","L","3","","0","0","1","0.1939577492","","false","5","0.1349544936","","main_expt","0.4678508314","","0.03824555068","","0.1939577492","","","","","","",""
"66","","bandit","81","332227","0.0-43.0-0.0","90686500","wem/bandit_single","A2OVWCQ4B9AHFY","gain","1","","74","J","1","","1","0","0","0.4644602632","","false","6","0.1356037804","","main_expt","0.4644602632","","0.03028715703","","0.2419857306","","","","","","",""
"90","","bandit","82","334084","0.0-44.0-0.0","90686500","wem/bandit_single","A2OVWCQ4B9AHFY","gain","1","","74","J","1","","0","0","1","0.4575746565","","false","7","0.1731738011","","main_expt","0.4575746565","","0.0280090558","","0.2437977828","","","","","","",""
"52","","bandit","83","335896","0.0-45.0-0.0","90686500","wem/bandit_single","A2OVWCQ4B9AHFY","gain","1","","74","J","1","","0","0","1","0.4508833002","","false","8","0.1697830552","","main_expt","0.4508833002","","0.01994926529","","0.2910779813","","","","","","",""
"40","","bandit","84","337696","0.0-46.0-0.0","90686500","wem/bandit_single","A2OVWCQ4B9AHFY","gain","1","","75","K","2","","0","0","1","0.02255652904","","false","9","0.1792782501","","main_expt","0.446295775","","0.02255652904","","0.3043628405","","","","","","",""
"13593","","bandit","85","353057","0.0-47.0-0.0","90686500","wem/bandit_single","A2OVWCQ4B9AHFY","gain","1","","76","L","3","","1","0","0","0.3568141906","","false","10","0.1705688187","","main_expt","0.4564580261","","0.02794315976","","0.3568141906","","","","","","",""
"30","","bandit","86","354848","0.0-48.0-0.0","90686500","wem/bandit_single","A2OVWCQ4B9AHFY","gain","1","","76","L","3","","1","0","0","0.3439843329","","false","11","0.1974022207","","main_expt","0.4233437492","","0.02289966844","","0.3439843329","","","","","","",""
"114","","bandit","87","356724","0.0-49.0-0.0","90686500","wem/bandit_single","A2OVWCQ4B9AHFY","gain","1","","76","L","3","","0","0","1","0.2959247237","","false","12","0.1753487428","","main_expt","0.4129107721","","0.01510656417","","0.2959247237","","","","","","",""
"89","","bandit","88","358575","0.0-50.0-0.0","90686500","wem/bandit_single","A2OVWCQ4B9AHFY","gain","1","","76","L","3","","0","0","1","0.2711511111","","false","13","0.1858973774","","main_expt","0.4188058581","","0.01475809492","","0.2711511111","","","","","","",""
"145","","bandit","89","360484","0.0-51.0-0.0","90686500","wem/bandit_single","A2OVWCQ4B9AHFY","gain","1","","75","K","2","","0","0","1","0.00909265887","","false","14","0.1873997244","","main_expt","0.4542155744","","0.00909265887","","0.2351285692","","","","","","",""
"632","","bandit","90","362876","0.0-52.0-0.0","90686500","wem/bandit_single","A2OVWCQ4B9AHFY","gain","1","","72","H","0","img/none_selected.jpg","1","0","0","0.2079034381","","false","15","0.2079034381","","main_expt","0.4436127815","","0.004683339805","","0.3299180318","","","","","","",""
"72","","bandit","91","364711","0.0-53.0-0.0","90686500","wem/bandit_single","A2OVWCQ4B9AHFY","gain","1","","72","H","0","img/none_selected.jpg","1","0","0","0.2116662278","","false","16","0.2116662278","","main_expt","0.4255220112","","0.007493295572","","0.3382291528","","","","","","",""
"74","","bandit","92","366550","0.0-54.0-0.0","90686500","wem/bandit_single","A2OVWCQ4B9AHFY","gain","1","","72","H","0","img/none_selected.jpg","1","0","0","0.2460799228","","false","17","0.2460799228","","main_expt","0.4221090449","","0.009835384986","","0.3890963744","","","","","","",""
"29","","bandit","93","368339","0.0-55.0-0.0","90686500","wem/bandit_single","A2OVWCQ4B9AHFY","gain","1","","72","H","0","img/none_selected.jpg","0","0","1","0.2725156425","","false","18","0.2725156425","","main_expt","0.4157246332","","0.01282838009","","0.3102907615","","","","","","",""
"287","","bandit","94","370389","0.0-56.0-0.0","90686500","wem/bandit_single","A2OVWCQ4B9AHFY","gain","1","","74","J","1","","1","0","0","0.4000612909","","false","19","0.319312936","","main_expt","0.4000612909","","0.03935122736","","0.2734902963","","","","","","",""
"68","","bandit","95","372222","0.0-57.0-0.0","90686500","wem/bandit_single","A2OVWCQ4B9AHFY","gain","1","","74","J","1","","1","0","0","0.4116546581","","false","20","0.3449168397","","main_expt","0.4116546581","","0.03712672215","","0.2157414593","","","","","","",""
"167","","bandit","96","374167","0.0-58.0-0.0","90686500","wem/bandit_single","A2OVWCQ4B9AHFY","gain","1","","74","J","1","","1","0","0","0.4276829816","","false","21","0.2668327531","","main_expt","0.4276829816","","0.02631596187","","0.2148325275","","","","","","",""
"78","","bandit","97","376008","0.0-59.0-0.0","90686500","wem/bandit_single","A2OVWCQ4B9AHFY","gain","1","","74","J","1","","0","0","1","0.3861543943","","false","22","0.2786929748","","main_expt","0.3861543943","","0.0338100911","","0.1819582271","","","","","","",""
"91","","bandit","98","377861","0.0-60.0-0.0","90686500","wem/bandit_single","A2OVWCQ4B9AHFY","gain","1","","75","K","2","","0","0","1","0.06132921526","","false","23","0.2012253143","","main_expt","0.3815006395","","0.06132921526","","0.1776669961","","","","","","",""
"103","","bandit","99","379729","0.0-61.0-0.0","90686500","wem/bandit_single","A2OVWCQ4B9AHFY","gain","1","","76","L","3","","0","0","1","0.2595803745","","false","24","0.1363446769","","main_expt","0.4063144844","","0.06546003458","","0.2595803745","","","","","","",""
"91","","bandit","100","381585","0.0-62.0-0.0","90686500","wem/bandit_single","A2OVWCQ4B9AHFY","gain","1","","72","H","0","img/none_selected.jpg","0","0","1","0.1395957504","","false","25","0.1395957504","","main_expt","0.3218764758","","0.08327489459","","0.2184946748","","","","","","",""
"90","","bandit","101","383434","0.0-63.0-0.0","90686500","wem/bandit_single","A2OVWCQ4B9AHFY","gain","1","","75","K","2","","0","0","1","0.06117167893","","false","26","0.1095431569","","main_expt","0.3190898414","","0.06117167893","","0.2382025465","","","","","","",""
"647","","bandit","102","385841","0.0-64.0-0.0","90686500","wem/bandit_single","A2OVWCQ4B9AHFY","gain","1","","72","H","0","img/none_selected.jpg","0","0","1","0.1290148999","","false","27","0.1290148999","","main_expt","0.361309168","","0.03494965278","","0.2249508913","","","","","","",""
"28","","bandit","103","387634","0.0-65.0-0.0","90686500","wem/bandit_single","A2OVWCQ4B9AHFY","gain","1","","72","H","0","img/none_selected.jpg","0","0","1","0.09304199486","","false","28","0.09304199486","","main_expt","0.3247985582","","0.02964638986","","0.2388683754","","","","","","",""
"42","","bandit","104","389436","0.0-66.0-0.0","90686500","wem/bandit_single","A2OVWCQ4B9AHFY","gain","1","","76","L","3","","0","0","1","0.238121012","","false","29","0.1042487788","","main_expt","0.3358989687","","0.03498116837","","0.238121012","","","","","","",""
"791","","bandit","105","391990","0.0-67.0-0.0","90686500","wem/bandit_single","A2OVWCQ4B9AHFY","gain","1","","76","L","3","","0","0","1","0.2995264376","","false","30","0.1177759499","","main_expt","0.3833706669","","0.04244048525","","0.2995264376","","","","","","",""
"8","","bandit","106","393761","0.0-68.0-0.0","90686500","wem/bandit_single","A2OVWCQ4B9AHFY","gain","1","","75","K","2","","0","0","1","0.06152315655","","false","31","0.1177925617","","main_expt","0.365606812","","0.06152315655","","0.2738636663","","","","","","",""
"2","","bandit","107","395523","0.0-69.0-0.0","90686500","wem/bandit_single","A2OVWCQ4B9AHFY","gain","1","","74","J","1","","0","0","1","0.3376656117","","false","32","0.08495919706","","main_expt","0.3376656117","","0.04890303061","","0.3185168498","","","","","","",""
"445","","bandit","108","397729","0.0-70.0-0.0","90686500","wem/bandit_single","A2OVWCQ4B9AHFY","gain","1","","74","J","1","","0","0","1","0.3632929272","","false","33","0.09918690981","","main_expt","0.3632929272","","0.06913310411","","0.3160257618","","","","","","",""
"146","","bandit","109","399639","0.0-71.0-0.0","90686500","wem/bandit_single","A2OVWCQ4B9AHFY","gain","1","","75","K","2","","0","0","1","0.07311713639","","false","34","0.1267106232","","main_expt","0.4008603673","","0.07311713639","","0.3411570355","","","","","","",""
"1687","","bandit","110","403093","0.0-72.0-0.0","90686500","wem/bandit_single","A2OVWCQ4B9AHFY","gain","1","","72","H","0","img/none_selected.jpg","0","0","1","0.1076928618","","false","35","0.1076928618","","main_expt","0.4024879816","","0.08374615962","","0.3190481916","","","","","","",""
"89","","bandit","111","404946","0.0-73.0-0.0","90686500","wem/bandit_single","A2OVWCQ4B9AHFY","gain","1","","76","L","3","","0","0","1","0.3264142162","","false","36","0.1298816773","","main_expt","0.3740303516","","0.08182693844","","0.3264142162","","","","","","",""
"449","","bandit","112","407164","0.0-74.0-0.0","90686500","wem/bandit_single","A2OVWCQ4B9AHFY","gain","1","","74","J","1","","0","0","1","0.3728306432","","false","37","0.1459487567","","main_expt","0.3728306432","","0.1343371601","","0.3198880486","","","","","","",""
"70","","bandit","113","408994","0.0-75.0-0.0","90686500","wem/bandit_single","A2OVWCQ4B9AHFY","gain","1","","75","K","2","","1","0","0","0.155986589","","false","38","0.1339045699","","main_expt","0.3805434418","","0.155986589","","0.3683112265","","","","","","",""
"11","","bandit","114","410766","0.0-76.0-0.0","90686500","wem/bandit_single","A2OVWCQ4B9AHFY","gain","1","","75","K","2","","0","0","1","0.1477757124","","false","39","0.1345127174","","main_expt","0.3969568822","","0.1477757124","","0.3427238384","","","","","","",""
"33","","bandit","115","412563","0.0-77.0-0.0","90686500","wem/bandit_single","A2OVWCQ4B9AHFY","gain","1","","75","K","2","","0","0","1","0.1673850924","","false","40","0.1283460502","","main_expt","0.3988554294","","0.1673850924","","0.3218453083","","","","","","",""
"31","","bandit","116","414365","0.0-78.0-0.0","90686500","wem/bandit_single","A2OVWCQ4B9AHFY","gain","1","","74","J","1","","0","0","1","0.4510691137","","false","41","0.120913883","","main_expt","0.4510691137","","0.1798739011","","0.3085515908","","","","","","",""
"19","","bandit","117","416159","0.0-79.0-0.0","90686500","wem/bandit_single","A2OVWCQ4B9AHFY","gain","1","","76","L","3","","0","0","1","0.3072415044","","false","42","0.1045942129","","main_expt","0.4575220824","","0.1559165864","","0.3072415044","","","","","","",""
"95","","bandit","118","418016","0.0-80.0-0.0","90686500","wem/bandit_single","A2OVWCQ4B9AHFY","gain","1","","72","H","0","img/none_selected.jpg","0","0","1","0.09432917568","","false","43","0.09432917568","","main_expt","0.4425049573","","0.1058033922","","0.272500382","","","","","","",""
"59","","bandit","119","419835","0.0-81.0-0.0","90686500","wem/bandit_single","A2OVWCQ4B9AHFY","gain","1","","75","K","2","","0","0","1","0.08489334424","","false","44","0.07221407183","","main_expt","0.4232077065","","0.08489334424","","0.2865836788","","","","","","",""
"172","","bandit","120","421774","0.0-82.0-0.0","90686500","wem/bandit_single","A2OVWCQ4B9AHFY","gain","1","","74","J","1","","1","0","0","0.4098430077","","false","45","0.05666738762","","main_expt","0.4098430077","","0.05905190464","","0.2991622886","","","","","","",""
"78","","bandit","121","423616","0.0-83.0-0.0","90686500","wem/bandit_single","A2OVWCQ4B9AHFY","gain","1","","74","J","1","","1","0","0","0.4038708701","","false","46","0.03432969329","","main_expt","0.4038708701","","0.06331323714","","0.2531917612","","","","","","",""
"54","","bandit","122","425431","0.0-84.0-0.0","90686500","wem/bandit_single","A2OVWCQ4B9AHFY","gain","1","","74","J","1","","0","0","1","0.4162646915","","false","47","0.03955917442","","main_expt","0.4162646915","","0.05657329797","","0.174020607","","","","","","",""
"29","","bandit","123","427221","0.0-85.0-0.0","90686500","wem/bandit_single","A2OVWCQ4B9AHFY","gain","1","","75","K","2","","0","0","1","0.04718629669","","false","48","0.02792503423","","main_expt","0.4188900116","","0.04718629669","","0.1890064997","","","","","","",""
"13926","","bandit","124","442911","0.0-86.0-0.0","90686500","wem/bandit_single","A2OVWCQ4B9AHFY","gain","1","","74","J","1","","1","0","0","0.4566014176","","false","49","0.03726959289","","main_expt","0.4566014176","","0.03289244517","","0.218442061","","","","","","",""
"560","","bandit","125","446178","0.0-87.0-0.0","90686500","wem/bandit_single","A2OVWCQ4B9AHFY","gain","1","","74","J","1","","0","0","1","0.4447058567","","false","50","0.03358305353","","main_expt","0.4447058567","","0.03266450512","","0.1635183119","","","","","","",""
"22539","","bandit","126","471213","0.0-88.0-0.0","90686500","wem/bandit_single","A2OVWCQ4B9AHFY","gain","1","","76","L","3","","1","0","0","0.1366577914","","false","51","0.03344521258","","main_expt","0.4304926469","","0.03026904774","","0.1366577914","","","","","","",""
"15","","bandit","127","472996","0.0-89.0-0.0","90686500","wem/bandit_single","A2OVWCQ4B9AHFY","gain","1","","76","L","3","","0","0","1","0.1797398031","","false","52","0.04269272659","","main_expt","0.4221781581","","0.03251993274","","0.1797398031","","","","","","",""
"415","","bandit","128","475183","0.0-90.0-0.0","90686500","wem/bandit_single","A2OVWCQ4B9AHFY","gain","1","","72","H","0","img/none_selected.jpg","0","0","1","0.023815337","","false","53","0.023815337","","main_expt","0.3687481665","","0.03960602941","","0.2893410322","","","","","","",""
"1016","","bandit","129","477965","0.0-91.0-0.0","90686500","wem/bandit_single","A2OVWCQ4B9AHFY","gain","1","","74","J","1","","1","0","0","0.3458934235","","false","54","0.02455785224","","main_expt","0.3458934235","","0.05707063203","","0.2985665456","","","","","","",""
"68","","bandit","130","479795","0.0-92.0-0.0","90686500","wem/bandit_single","A2OVWCQ4B9AHFY","gain","1","","74","J","1","","0","0","1","0.4042580408","","false","55","0.03998391886","","main_expt","0.4042580408","","0.04044117434","","0.3336948264","","","","","","",""
"149","","bandit","131","481720","0.0-93.0-0.0","90686500","wem/bandit_single","A2OVWCQ4B9AHFY","gain","1","","75","K","2","","0","0","1","0.05627119328","","false","56","0.06538112884","","main_expt","0.4471112694","","0.05627119328","","0.282194417","","","","","","",""
"22715","","bandit","132","506202","0.0-94.0-0.0","90686500","wem/bandit_single","A2OVWCQ4B9AHFY","gain","1","","75","K","2","","0","0","1","0.06172895681","","false","57","0.08662171517","","main_expt","0.4640351361","","0.06172895681","","0.3239389597","","","","","","",""
"309","","bandit","133","508272","0.0-95.0-0.0","90686500","wem/bandit_single","A2OVWCQ4B9AHFY","gain","1","","74","J","1","","0","0","1","0.4654795878","","false","58","0.08191290536","","main_expt","0.4654795878","","0.0708730922","","0.3114288274","","","","","","",""
"1121","","bandit","134","511157","0.0-96.0-0.0","90686500","wem/bandit_single","A2OVWCQ4B9AHFY","gain","1","","72","H","0","img/none_selected.jpg","0","0","1","0.06359390603","","false","59","0.06359390603","","main_expt","0.477644797","","0.06307994893","","0.3090129124","","","","","","",""
"845","","bandit","135","513767","0.0-97.0-0.0","90686500","wem/bandit_single","A2OVWCQ4B9AHFY","gain","1","","76","L","3","","0","0","1","0.3273240357","","false","60","0.1113565871","","main_expt","0.4637057102","","0.06865221942","","0.3273240357","","","","","","",""
"65","","bandit","136","515593","0.0-98.0-0.0","90686500","wem/bandit_single","A2OVWCQ4B9AHFY","gain","1","","75","K","2","","1","0","0","0.04710261487","","false","61","0.1224908949","","main_expt","0.4575353452","","0.04710261487","","0.333760802","","","","","","",""
"22","","bandit","137","517389","0.0-99.0-0.0","90686500","wem/bandit_single","A2OVWCQ4B9AHFY","gain","1","","75","K","2","","0","0","1","0.04180279512","","false","62","0.1011510181","","main_expt","0.4511824808","","0.04180279512","","0.3721083552","","","","","","",""
"78","","bandit","138","519234","0.0-100.0-0.0","90686500","wem/bandit_single","A2OVWCQ4B9AHFY","gain","1","","74","J","1","","0","0","1","0.4522744543","","false","63","0.1241823521","","main_expt","0.4522744543","","0.04669584184","","0.3366911892","","","","","","",""
"98","","bandit","139","521106","0.0-101.0-0.0","90686500","wem/bandit_single","A2OVWCQ4B9AHFY","gain","1","","72","H","0","img/none_selected.jpg","1","0","0","0.1277445844","","false","64","0.1277445844","","main_expt","0.4534383651","","0.04699929359","","0.352845708","","","","","","",""
"85","","bandit","140","522960","0.0-102.0-0.0","90686500","wem/bandit_single","A2OVWCQ4B9AHFY","gain","1","","72","H","0","img/none_selected.jpg","0","0","1","0.1594820305","","false","65","0.1594820305","","main_expt","0.4578128414","","0.06422912444","","0.3797865956","","","","","","",""
"17","","bandit","141","524741","0.0-103.0-0.0","90686500","wem/bandit_single","A2OVWCQ4B9AHFY","gain","1","","74","J","1","","1","0","0","0.4675149648","","false","66","0.1902728197","","main_expt","0.4675149648","","0.09107067683","","0.3776123686","","","","","","",""
"4","","bandit","142","526516","0.0-104.0-0.0","90686500","wem/bandit_single","A2OVWCQ4B9AHFY","gain","1","","74","J","1","","0","0","1","0.4801185054","","false","67","0.1915604568","","main_expt","0.4801185054","","0.1295134299","","0.3520302909","","","","","","",""
"32","","bandit","143","528310","0.0-105.0-0.0","90686500","wem/bandit_single","A2OVWCQ4B9AHFY","gain","1","","74","J","1","","0","0","1","0.4853911876","","false","68","0.2292904293","","main_expt","0.4853911876","","0.1501953896","","0.3563070861","","","","","","",""
"17","","bandit","144","530091","0.0-106.0-0.0","90686500","wem/bandit_single","A2OVWCQ4B9AHFY","gain","1","","76","L","3","","0","0","1","0.3773129781","","false","69","0.2982444272","","main_expt","0.45952887","","0.2120393587","","0.3773129781","","","","","","",""
"467","","bandit","145","532324","0.0-107.0-0.0","90686500","wem/bandit_single","A2OVWCQ4B9AHFY","gain","1","","75","K","2","","0","0","1","0.2046372205","","false","70","0.2038928517","","main_expt","0.4519788387","","0.2046372205","","0.3620092878","","","","","","",""
"327","","bandit","146","534418","0.0-108.0-0.0","90686500","wem/bandit_single","A2OVWCQ4B9AHFY","gain","1","","74","J","1","","0","0","1","0.4644284496","","false","71","0.2470144531","","main_expt","0.4644284496","","0.1711657315","","0.3689610789","","","","","","",""
"15","","bandit","147","536197","0.0-109.0-0.0","90686500","wem/bandit_single","A2OVWCQ4B9AHFY","gain","1","","75","K","2","","0","0","1","0.1804367846","","false","72","0.2339224101","","main_expt","0.4275080271","","0.1804367846","","0.335535794","","","","","","",""
"327","","bandit","148","538289","0.0-110.0-0.0","90686500","wem/bandit_single","A2OVWCQ4B9AHFY","gain","1","","72","H","0","img/none_selected.jpg","1","0","0","0.198403553","","false","73","0.198403553","","main_expt","0.4333248441","","0.1582310148","","0.3669127126","","","","","","",""
"71","","bandit","149","540121","0.0-111.0-0.0","90686500","wem/bandit_single","A2OVWCQ4B9AHFY","gain","1","","72","H","0","img/none_selected.jpg","0","0","1","0.2162510441","","false","74","0.2162510441","","main_expt","0.4272577829","","0.1300952354","","0.3360165716","","","","","","",""
"73","","bandit","150","541963","0.0-112.0-0.0","90686500","wem/bandit_single","A2OVWCQ4B9AHFY","gain","1","","76","L","3","","1","0","0","0.3379177146","","false","75","0.2467290531","","main_expt","0.353629049","","0.1414689969","","0.3379177146","","","","","","",""
"43","","bandit","151","543768","0.0-113.0-0.0","90686500","wem/bandit_single","A2OVWCQ4B9AHFY","gain","1","","76","L","3","","1","0","0","0.3489784935","","false","76","0.2199510863","","main_expt","0.3526453175","","0.1315789974","","0.3489784935","","","","","","",""
"5","","bandit","152","545537","0.0-114.0-0.0","90686500","wem/bandit_single","A2OVWCQ4B9AHFY","gain","1","","76","L","3","","0","0","1","0.2843927136","","false","77","0.1600424727","","main_expt","0.397337216","","0.1054244057","","0.2843927136","","","","","","",""
"38","","bandit","153","547353","0.0-115.0-0.0","90686500","wem/bandit_single","A2OVWCQ4B9AHFY","gain","1","","74","J","1","","1","0","0","0.3747850168","","false","78","0.1366877547","","main_expt","0.3747850168","","0.1028875903","","0.2585585406","","","","","","",""
"149","","bandit","154","549275","0.0-116.0-0.0","90686500","wem/bandit_single","A2OVWCQ4B9AHFY","gain","1","","74","J","1","","1","0","0","0.3500135026","","false","79","0.1608027171","","main_expt","0.3500135026","","0.1010795136","","0.2211992803","","","","","","",""
"70","","bandit","155","551119","0.0-117.0-0.0","90686500","wem/bandit_single","A2OVWCQ4B9AHFY","gain","1","","74","J","1","","0","0","1","0.3362224365","","false","80","0.2004121585","","main_expt","0.3362224365","","0.09661145037","","0.1670678668","","","","","","",""
"61","","bandit","156","552953","0.0-118.0-0.0","90686500","wem/bandit_single","A2OVWCQ4B9AHFY","gain","1","","75","K","2","","0","0","1","0.06079528701","","false","81","0.2100463009","","main_expt","0.3626400229","","0.06079528701","","0.1536487801","","","","","","",""
"46","","bandit","157","554766","0.0-119.0-0.0","90686500","wem/bandit_single","A2OVWCQ4B9AHFY","gain","1","","72","H","0","img/none_selected.jpg","0","0","1","0.2313995655","","false","82","0.2313995655","","main_expt","0.3433004166","","0.0561923849","","0.164055667","","","","","","",""
"20","","bandit","158","556557","0.0-120.0-0.0","90686500","wem/bandit_single","A2OVWCQ4B9AHFY","gain","1","","76","L","3","","0","0","1","0.1795096781","","false","83","0.1805974068","","main_expt","0.3564809269","","0.05471979201","","0.1795096781","","","","","","",""
"403","","bandit","159","558727","0.0-121.0-0.0","90686500","wem/bandit_single","A2OVWCQ4B9AHFY","gain","1","","75","K","2","","0","0","1","0.04961315052","","false","84","0.1351257884","","main_expt","0.3403656385","","0.04961315052","","0.1568762326","","","","","","",""
"353","","bandit","160","560846","0.0-122.0-0.0","90686500","wem/bandit_single","A2OVWCQ4B9AHFY","gain","1","","75","K","2","","0","0","1","0.05195310968","","false","85","0.1372280885","","main_expt","0.3009252634","","0.05195310968","","0.1857208284","","","","","","",""
"74","","bandit","161","562692","0.0-123.0-0.0","90686500","wem/bandit_single","A2OVWCQ4B9AHFY","gain","1","","74","J","1","","0","0","1","0.3067316121","","false","86","0.1685840628","","main_expt","0.3067316121","","0.05385113756","","0.2180329602","","","","","","",""
"456","","bandit","162","564910","0.0-124.0-0.0","90686500","wem/bandit_single","A2OVWCQ4B9AHFY","gain","1","","76","L","3","","0","0","1","0.1893737279","","false","87","0.1654340797","","main_expt","0.3073916088","","0.08202519069","","0.1893737279","","","","","","",""
"59","","bandit","163","566733","0.0-125.0-0.0","90686500","wem/bandit_single","A2OVWCQ4B9AHFY","gain","1","","72","H","0","img/none_selected.jpg","0","0","1","0.1870328522","","false","88","0.1870328522","","main_expt","0.301504441","","0.04873944257","","0.2309201776","","","","","","",""
"374","","bandit","164","568874","0.0-126.0-0.0","90686500","wem/bandit_single","A2OVWCQ4B9AHFY","gain","1","","74","J","1","","1","0","0","0.3324072184","","false","89","0.1786415591","","main_expt","0.3324072184","","0.05553778571","","0.2368651839","","","","","","",""
"176","","bandit","165","570822","0.0-127.0-0.0","90686500","wem/bandit_single","A2OVWCQ4B9AHFY","gain","1","","74","J","1","","0","0","1","0.3245139686","","false","90","0.2293974223","","main_expt","0.3245139686","","0.04980790846","","0.2459093935","","","","","","",""
"199","","bandit","166","572784","0.0-128.0-0.0","90686500","wem/bandit_single","A2OVWCQ4B9AHFY","gain","1","","75","K","2","","0","0","1","0.05804880768","","false","91","0.2407797963","","main_expt","0.3310751299","","0.05804880768","","0.2371609774","","","","","","",""
"90","","bandit","167","574642","0.0-129.0-0.0","90686500","wem/bandit_single","A2OVWCQ4B9AHFY","gain","1","","72","H","0","img/none_selected.jpg","1","0","0","0.2337544695","","false","92","0.2337544695","","main_expt","0.3717444616","","0.0614883172","","0.260478489","","","","","","",""
"110","","bandit","168","576517","0.0-130.0-0.0","90686500","wem/bandit_single","A2OVWCQ4B9AHFY","gain","1","","72","H","0","img/none_selected.jpg","0","0","1","0.2589688886","","false","93","0.2589688886","","main_expt","0.3846532122","","0.0764333552","","0.2595992258","","","","","","",""
"17","","bandit","169","578305","0.0-131.0-0.0","90686500","wem/bandit_single","A2OVWCQ4B9AHFY","gain","1","","76","L","3","","0","0","1","0.206568391","","false","94","0.2699529923","","main_expt","0.4017211595","","0.1280824273","","0.206568391","","","","","","",""
"142","","bandit","170","580212","0.0-132.0-0.0","90686500","wem/bandit_single","A2OVWCQ4B9AHFY","gain","1","","75","K","2","","0","0","1","0.1191245721","","false","95","0.2626559999","","main_expt","0.3736639641","","0.1191245721","","0.1846794781","","","","","","",""
"75","","bandit","171","582055","0.0-133.0-0.0","90686500","wem/bandit_single","A2OVWCQ4B9AHFY","gain","1","","74","J","1","","0","0","1","0.3220453652","","false","96","0.2196428224","","main_expt","0.3220453652","","0.08526153109","","0.2484851932","","","","","","",""
"2801","","bandit","172","586624","0.0-134.0-0.0","90686500","wem/bandit_single","A2OVWCQ4B9AHFY","gain","1","","74","J","1","","0","0","1","0.2964534367","","false","97","0.1922289922","","main_expt","0.2964534367","","0.0775518538","","0.198145661","","","","","","",""
"21","","bandit","173","588412","0.0-135.0-0.0","90686500","wem/bandit_single","A2OVWCQ4B9AHFY","gain","1","","75","K","2","","0","0","1","0.08824897118","","false","98","0.2328023708","","main_expt","0.3388366936","","0.08824897118","","0.1738253929","","","","","","",""
"402","","bandit","174","590590","0.0-136.0-0.0","90686500","wem/bandit_single","A2OVWCQ4B9AHFY","gain","1","","76","L","3","","0","0","1","0.1261523865","","false","99","0.2606341713","","main_expt","0.4233536788","","0.08912321317","","0.1261523865","","","","","","",""
"1841","","bandit","175","594199","0.0-137.0-0.0","90686500","wem/bandit_single","A2OVWCQ4B9AHFY","gain","1","","72","H","0","img/none_selected.jpg","0","0","1","0.310387162","","false","100","0.310387162","","main_expt","0.3799029244","","0.1217067293","","0.1368684177","","","","","","",""
"178","","bandit","176","596141","0.0-138.0-0.0","90686500","wem/bandit_single","A2OVWCQ4B9AHFY","gain","1","","74","J","1","","0","0","1","0.3644029447","","false","101","0.3802628165","","main_expt","0.3644029447","","0.08537200695","","0.1262970555","","","","","","",""
"157","","bandit","177","598063","0.0-139.0-0.0","90686500","wem/bandit_single","A2OVWCQ4B9AHFY","gain","1","","75","K","2","","0","0","1","0.09606980913","","false","102","0.4133848668","","main_expt","0.3414838768","","0.09606980913","","0.1022564356","","","","","","",""
"6136","","bandit","178","605964","0.0-140.0-0.0","90686500","wem/bandit_single","A2OVWCQ4B9AHFY","gain","1","","76","L","3","","0","0","1","0.07046703442","","false","103","0.4352089555","","main_expt","0.3691073091","","0.09968925047","","0.07046703442","","","","","","",""
"63","","bandit","179","607802","0.0-141.0-0.0","90686500","wem/bandit_single","A2OVWCQ4B9AHFY","gain","1","","76","L","3","","0","0","1","0.08582175226","","false","104","0.4248252031","","main_expt","0.3386210986","","0.1070137741","","0.08582175226","","","","","","",""
"284","","bandit","180","609867","0.0-142.0-0.0","90686500","wem/bandit_single","A2OVWCQ4B9AHFY","gain","1","","75","K","2","","0","0","1","0.1086060941","","false","105","0.4382512542","","main_expt","0.3517858304","","0.1086060941","","0.08910626196","","","","","","",""
"63","","bandit","181","611695","0.0-143.0-0.0","90686500","wem/bandit_single","A2OVWCQ4B9AHFY","gain","1","","74","J","1","","0","0","1","0.4016578568","","false","106","0.4551412652","","main_expt","0.4016578568","","0.1006724549","","0.09380004764","","","","","","",""
"22","","bandit","182","613503","0.0-144.0-0.0","90686500","wem/bandit_single","A2OVWCQ4B9AHFY","gain","1","","74","J","1","","0","0","1","0.3951748439","","false","107","0.4481373055","","main_expt","0.3951748439","","0.07769839914","","0.08916311959","","","","","","",""
"66","","bandit","183","615349","0.0-145.0-0.0","90686500","wem/bandit_single","A2OVWCQ4B9AHFY","gain","1","","72","H","0","img/none_selected.jpg","1","0","0","0.4611843773","","false","108","0.4611843773","","main_expt","0.3933810371","","0.09470950607","","0.1635033392","","","","","","",""
"21","","bandit","184","617141","0.0-146.0-0.0","90686500","wem/bandit_single","A2OVWCQ4B9AHFY","gain","1","","72","H","0","img/none_selected.jpg","1","0","0","0.416280782","","false","109","0.416280782","","main_expt","0.3961603237","","0.1117426234","","0.1923408453","","","","","","",""
"66","","bandit","185","618988","0.0-147.0-0.0","90686500","wem/bandit_single","A2OVWCQ4B9AHFY","gain","1","","72","H","0","img/none_selected.jpg","0","0","1","0.3959176693","","false","110","0.3959176693","","main_expt","0.3933476799","","0.1190643529","","0.1668397223","","","","","","",""
"2","","bandit","186","620760","0.0-148.0-0.0","90686500","wem/bandit_single","A2OVWCQ4B9AHFY","gain","1","","75","K","2","","0","0","1","0.1605091549","","false","111","0.3881072513","","main_expt","0.3953313537","","0.1605091549","","0.1254506171","","","","","","",""
"119","","bandit","187","622652","0.0-149.0-0.0","90686500","wem/bandit_single","A2OVWCQ4B9AHFY","gain","1","","74","J","1","","0","0","1","0.3398422341","","false","112","0.3430735849","","main_expt","0.3398422341","","0.1531505469","","0.1596839241","","","","","","",""
"301","","bandit","188","624724","0.0-150.0-0.0","90686500","wem/bandit_single","A2OVWCQ4B9AHFY","gain","1","","75","K","2","","1","0","0","0.1796188848","","false","113","0.3036143476","","main_expt","0.375538402","","0.1796188848","","0.1986187203","","","","","","",""
"46","","bandit","189","626538","0.0-151.0-0.0","90686500","wem/bandit_single","A2OVWCQ4B9AHFY","gain","1","","74","J","1","","1","0","0","0.3629483147","","false","114","0.3581708668","","main_expt","0.3629483147","","0.1820080726","","0.2334514198","","","","","","",""
"55","","bandit","190","628357","0.0-152.0-0.0","90686500","wem/bandit_single","A2OVWCQ4B9AHFY","gain","1","","74","J","1","","0","0","1","0.2969550108","","false","115","0.2948471219","","main_expt","0.2969550108","","0.2050936175","","0.1892672839","","","","","","",""
"11","","bandit","191","630160","0.0-153.0-0.0","90686500","wem/bandit_single","A2OVWCQ4B9AHFY","gain","1","","75","K","2","","0","0","1","0.2071503316","","false","116","0.2711132382","","main_expt","0.260261953","","0.2071503316","","0.1507180646","","","","","","",""
"15149","","bandit","192","647813","0.0-154.0-0.0","90686500","wem/bandit_single","A2OVWCQ4B9AHFY","gain","1","","74","J","1","","0","0","1","0.2626326191","","false","117","0.3124997295","","main_expt","0.2626326191","","0.2359882763","","0.1830546279","","","","","","",""
"71","","bandit","193","649649","0.0-155.0-0.0","90686500","wem/bandit_single","A2OVWCQ4B9AHFY","gain","1","","75","K","2","","1","0","0","0.2388261631","","false","118","0.3888019654","","main_expt","0.2933310536","","0.2388261631","","0.1415506149","","","","","","",""
"7798","","bandit","194","659220","0.0-156.0-0.0","90686500","wem/bandit_single","A2OVWCQ4B9AHFY","gain","1","","74","J","1","","0","0","1","0.2469992957","","false","119","0.3695751837","","main_expt","0.2469992957","","0.2470137322","","0.1814909568","","","","","","",""
"163","","bandit","195","661159","0.0-157.0-0.0","90686500","wem/bandit_single","A2OVWCQ4B9AHFY","gain","1","","75","K","2","","0","0","1","0.209676098","","false","120","0.3471196364","","main_expt","0.2186909282","","0.209676098","","0.1900691043","","","","","","",""
"78","","bandit","196","663012","0.0-158.0-0.0","90686500","wem/bandit_single","A2OVWCQ4B9AHFY","gain","1","","75","K","2","","0","0","1","0.2058519679","","false","121","0.3164400491","","main_expt","0.1915374776","","0.2058519679","","0.2002257321","","","","","","",""
"82","","bandit","197","664876","0.0-159.0-0.0","90686500","wem/bandit_single","A2OVWCQ4B9AHFY","gain","1","","72","H","0","img/none_selected.jpg","0","0","1","0.3565888941","","false","122","0.3565888941","","main_expt","0.1666700693","","0.1409467191","","0.2000360786","","","","","","",""
"167","","bandit","198","666813","0.0-160.0-0.0","90686500","wem/bandit_single","A2OVWCQ4B9AHFY","gain","1","","72","H","0","img/none_selected.jpg","0","0","1","0.3293983066","","false","123","0.3293983066","","main_expt","0.1779758636","","0.08785727187","","0.1656706666","","","","","","",""
"152","","bandit","199","668730","0.0-161.0-0.0","90686500","wem/bandit_single","A2OVWCQ4B9AHFY","gain","1","","76","L","3","","1","0","0","0.2433115295","","false","124","0.3202360925","","main_expt","0.2483730269","","0.1153756664","","0.2433115295","","","","","","",""
"377","","bandit","200","670875","0.0-162.0-0.0","90686500","wem/bandit_single","A2OVWCQ4B9AHFY","gain","1","","76","L","3","","0","0","1","0.1810024247","","false","125","0.3478690395","","main_expt","0.2274485556","","0.1211147435","","0.1810024247","","","","","","",""
"55","","bandit","201","672698","0.0-163.0-0.0","90686500","wem/bandit_single","A2OVWCQ4B9AHFY","gain","1","","75","K","2","","0","0","1","0.1434737457","","false","126","0.3312811416","","main_expt","0.2506805994","","0.1434737457","","0.2138299762","","","","","","",""
"197","","bandit","202","674662","0.0-164.0-0.0","90686500","wem/bandit_single","A2OVWCQ4B9AHFY","gain","1","","74","J","1","","1","0","0","0.2520497492","","false","127","0.2641060438","","main_expt","0.2520497492","","0.1970801631","","0.1993304114","","","","","","",""
"24","","bandit","203","676453","0.0-165.0-0.0","90686500","wem/bandit_single","A2OVWCQ4B9AHFY","gain","1","","74","J","1","","0","0","1","0.1948091286","","false","128","0.2239657692","","main_expt","0.1948091286","","0.2891253811","","0.2602773644","","","","","","",""
"46","","bandit","204","678267","0.0-166.0-0.0","90686500","wem/bandit_single","A2OVWCQ4B9AHFY","gain","1","","74","J","1","","0","0","1","0.1749799719","","false","129","0.2243581634","","main_expt","0.1749799719","","0.2389970352","","0.2960784606","","","","","","",""
"158","","bandit","205","680203","0.0-167.0-0.0","90686500","wem/bandit_single","A2OVWCQ4B9AHFY","gain","1","","72","H","0","img/none_selected.jpg","0","0","1","0.2215765871","","false","130","0.2215765871","","main_expt","0.1950546205","","0.2613596901","","0.2720271615","","","","","","",""
"153","","bandit","206","682130","0.0-168.0-0.0","90686500","wem/bandit_single","A2OVWCQ4B9AHFY","gain","1","","76","L","3","","0","0","1","0.2403459828","","false","131","0.1796651873","","main_expt","0.2501377387","","0.2254289723","","0.2403459828","","","","","","",""
"174","","bandit","207","684075","0.0-169.0-0.0","90686500","wem/bandit_single","A2OVWCQ4B9AHFY","gain","1","","74","J","1","","0","0","1","0.2275015869","","false","132","0.1946412172","","main_expt","0.2275015869","","0.2759434303","","0.2261584059","","","","","","",""
"2","","bandit","208","685858","0.0-170.0-0.0","90686500","wem/bandit_single","A2OVWCQ4B9AHFY","gain","1","","75","K","2","","0","0","1","0.3153186182","","false","133","0.2390261597","","main_expt","0.1961271051","","0.3153186182","","0.225512635","","","","","","",""
"102","","bandit","209","687730","0.0-171.0-0.0","90686500","wem/bandit_single","A2OVWCQ4B9AHFY","gain","1","","72","H","0","img/none_selected.jpg","0","0","1","0.227958871","","false","134","0.227958871","","main_expt","0.2508816485","","0.2950667763","","0.2119287539","","","","","","",""
"31","","bandit","210","689527","0.0-172.0-0.0","90686500","wem/bandit_single","A2OVWCQ4B9AHFY","gain","1","","72","H","0","img/none_selected.jpg","0","0","1","0.2312014448","","false","135","0.2312014448","","main_expt","0.3394706536","","0.3307223606","","0.1980603764","","","","","","",""
"88","","bandit","211","691398","0.0-173.0-0.0","90686500","wem/bandit_single","A2OVWCQ4B9AHFY","gain","1","","76","L","3","","0","0","1","0.2325476757","","false","136","0.27599984","","main_expt","0.2837829406","","0.3298223854","","0.2325476757","","","","","","",""
"69","","bandit","212","693233","0.0-174.0-0.0","90686500","wem/bandit_single","A2OVWCQ4B9AHFY","gain","1","","74","J","1","","0","0","1","0.3024244849","","false","137","0.2313694212","","main_expt","0.3024244849","","0.3330531331","","0.2334264213","","","","","","",""
"368","","bandit","213","695373","0.0-175.0-0.0","90686500","wem/bandit_single","A2OVWCQ4B9AHFY","gain","1","","75","K","2","","0","0","1","0.292929501","","false","138","0.1816115857","","main_expt","0.3473265679","","0.292929501","","0.3107735177","","","","","","",""
"31","","bandit","214","697194","0.0-176.0-0.0","90686500","wem/bandit_single","A2OVWCQ4B9AHFY","gain","1","","75","K","2","","0","0","1","0.2849421758","","false","139","0.1658496667","","main_expt","0.2828336224","","0.2849421758","","0.3374098654","","","","","","",""
"112","","bandit","215","699081","0.0-177.0-0.0","90686500","wem/bandit_single","A2OVWCQ4B9AHFY","gain","1","","75","K","2","","0","0","1","0.3149573531","","false","140","0.1644365985","","main_expt","0.3238397914","","0.3149573531","","0.3401298673","","","","","","",""
"375","","bandit","216","701227","0.0-178.0-0.0","90686500","wem/bandit_single","A2OVWCQ4B9AHFY","gain","1","","74","J","1","","0","0","1","0.3490905252","","false","141","0.16055167","","main_expt","0.3490905252","","0.2937847178","","0.363539884","","","","","","",""
"29","","bandit","217","703026","0.0-179.0-0.0","90686500","wem/bandit_single","A2OVWCQ4B9AHFY","gain","1","","72","H","0","img/none_selected.jpg","0","0","1","0.1426499966","","false","142","0.1426499966","","main_expt","0.337853111","","0.2695919138","","0.3207651517","","","","","","",""
"179","","bandit","218","704976","0.0-180.0-0.0","90686500","wem/bandit_single","A2OVWCQ4B9AHFY","gain","1","","76","L","3","","1","0","0","0.2976941359","","false","143","0.1133276474","","main_expt","0.3475703167","","0.206179854","","0.2976941359","","","","","","",""
"32","","bandit","219","706780","0.0-181.0-0.0","90686500","wem/bandit_single","A2OVWCQ4B9AHFY","gain","1","","76","L","3","","0","0","1","0.2405576463","","false","144","0.1351054788","","main_expt","0.3809945211","","0.2123329462","","0.2405576463","","","","","","",""
"71","","bandit","220","708623","0.0-182.0-0.0","90686500","wem/bandit_single","A2OVWCQ4B9AHFY","gain","1","","74","J","1","","0","0","1","0.3842622547","","false","145","0.1703546958","","main_expt","0.3842622547","","0.2144195617","","0.2513929943","","","","","","",""
"47","","bandit","221","710438","0.0-183.0-0.0","90686500","wem/bandit_single","A2OVWCQ4B9AHFY","gain","1","","75","K","2","","0","0","1","0.2264269311","","false","146","0.1382352341","","main_expt","0.4068715463","","0.2264269311","","0.2665850657","","","","","","",""
"68","","bandit","222","712272","0.0-184.0-0.0","90686500","wem/bandit_single","A2OVWCQ4B9AHFY","gain","1","","72","H","0","img/none_selected.jpg","0","0","1","0.1111211324","","false","147","0.1111211324","","main_expt","0.3690267696","","0.2458089499","","0.2742171136","","","","","","",""
"238","","bandit","223","714277","0.0-185.0-0.0","90686500","wem/bandit_single","A2OVWCQ4B9AHFY","gain","1","","76","L","3","","0","0","1","0.2504516377","","false","148","0.1046256567","","main_expt","0.3999465919","","0.2581131455","","0.2504516377","","","","","","",""
"14","","bandit","224","716057","0.0-186.0-0.0","90686500","wem/bandit_single","A2OVWCQ4B9AHFY","gain","1","","76","L","3","","0","0","1","0.2749888299","","false","149","0.09450025474","","main_expt","0.3823047489","","0.2055420423","","0.2749888299","","","","","","",""
"1237","","bandit","225","719078","0.0-187.0-0.0","90686500","wem/bandit_single","A2OVWCQ4B9AHFY","gain","1","","72","H","0","img/none_selected.jpg","0","0","1","0.08682851814","","false","150","0.08682851814","","main_expt","0.3970301866","","0.2196547661","","0.2199302859","","","","","","",""
"70","","bandit","226","720920","0.0-188.0-0.0","90686500","wem/bandit_single","A2OVWCQ4B9AHFY","gain","1","","74","J","1","","0","0","1","0.4141828336","","false","151","0.0775356828","","main_expt","0.4141828336","","0.2311854424","","0.228921305","","","","","","",""
"120","","bandit","227","722809","0.0-189.0-0.0","90686500","wem/bandit_single","A2OVWCQ4B9AHFY","gain","1","","75","K","2","","1","0","0","0.2692750042","","false","152","0.08719832593","","main_expt","0.4233092002","","0.2692750042","","0.1858313389","","","","","","",""
"105","","bandit","228","724681","0.0-190.0-0.0","90686500","wem/bandit_single","A2OVWCQ4B9AHFY","gain","1","","75","K","2","","0","0","1","0.3209664266","","false","153","0.06950392785","","main_expt","0.3961827626","","0.3209664266","","0.2253380596","","","","","","",""
"317","","bandit","229","726767","0.0-191.0-0.0","90686500","wem/bandit_single","A2OVWCQ4B9AHFY","gain","1","","72","H","0","img/none_selected.jpg","1","0","0","0.09734883616","","false","154","0.09734883616","","main_expt","0.4023640633","","0.2633096479","","0.1787374968","","","","","","",""
"41","","bandit","230","728576","0.0-192.0-0.0","90686500","wem/bandit_single","A2OVWCQ4B9AHFY","gain","1","","72","H","0","img/none_selected.jpg","0","0","1","0.1078867986","","false","155","0.1078867986","","main_expt","0.3927422998","","0.2611493198","","0.1026625787","","","","","","",""
"224","","bandit","231","730586","0.0-193.0-0.0","90686500","wem/bandit_single","A2OVWCQ4B9AHFY","gain","1","","76","L","3","","0","0","1","0.1201393653","","false","156","0.09294383108","","main_expt","0.3696188161","","0.2556392324","","0.1201393653","","","","","","",""
"60","","bandit","232","732419","0.0-194.0-0.0","90686500","wem/bandit_single","A2OVWCQ4B9AHFY","gain","1","","75","K","2","","0","0","1","0.2237912435","","false","157","0.1344904143","","main_expt","0.3562863837","","0.2237912435","","0.1601810659","","","","","","",""
"107","","bandit","233","734305","0.0-195.0-0.0","90686500","wem/bandit_single","A2OVWCQ4B9AHFY","gain","1","","74","J","1","","1","0","0","0.3891013447","","false","158","0.1682501471","","main_expt","0.3891013447","","0.2269937079","","0.2178666355","","","","","","",""
"56","","bandit","234","736157","0.0-196.0-0.0","90686500","wem/bandit_single","A2OVWCQ4B9AHFY","gain","1","","74","J","1","","0","0","1","0.3771509201","","false","159","0.1859978291","","main_expt","0.3771509201","","0.2244600926","","0.2088119712","","","","","","",""
"5139","","bandit","235","743072","0.0-197.0-0.0","90686500","wem/bandit_single","A2OVWCQ4B9AHFY","gain","1","","75","K","2","","0","0","1","0.231654425","","false","160","0.1169857497","","main_expt","0.3677966378","","0.231654425","","0.2853399033","","","","","","",""
"255","","bandit","236","745099","0.0-198.0-0.0","90686500","wem/bandit_single","A2OVWCQ4B9AHFY","gain","1","","76","L","3","","0","0","1","0.2755093387","","false","161","0.1131976547","","main_expt","0.3691576932","","0.2415747561","","0.2755093387","","","","","","",""
"199","","bandit","237","747071","0.0-199.0-0.0","90686500","wem/bandit_single","A2OVWCQ4B9AHFY","gain","1","","72","H","0","img/none_selected.jpg","0","0","1","0.1560378341","","false","162","0.1560378341","","main_expt","0.3102253273","","0.1807921844","","0.2706635439","","","","","","",""
"195","","bandit","238","749044","0.0-200.0-0.0","90686500","wem/bandit_single","A2OVWCQ4B9AHFY","gain","1","","74","J","1","","0","0","1","0.3361037566","","false","163","0.1200759877","","main_expt","0.3361037566","","0.1986212186","","0.2856851073","","","","","","",""
"54","","bandit","239","750866","0.0-201.0-0.0","90686500","wem/bandit_single","A2OVWCQ4B9AHFY","gain","1","","75","K","2","","1","0","0","0.1799022971","","false","164","0.1198838954","","main_expt","0.3097300036","","0.1799022971","","0.3188827228","","","","","","",""
"11","","bandit","240","752646","0.0-202.0-0.0","90686500","wem/bandit_single","A2OVWCQ4B9AHFY","gain","1","","75","K","2","","1","0","0","0.2610149466","","false","165","0.1397308529","","main_expt","0.3234169084","","0.2610149466","","0.3258940933","","","","","","",""
"157","","bandit","241","754595","0.0-203.0-0.0","90686500","wem/bandit_single","A2OVWCQ4B9AHFY","gain","1","","74","J","1","","1","0","0","0.3201458278","","false","166","0.1506282743","","main_expt","0.3201458278","","0.2673729835","","0.3525092479","","","","","","",""
"59","","bandit","242","756441","0.0-204.0-0.0","90686500","wem/bandit_single","A2OVWCQ4B9AHFY","gain","1","","74","J","1","","0","0","1","0.366643239","","false","167","0.1407574557","","main_expt","0.366643239","","0.169486101","","0.3919017073","","","","","","",""
"153","","bandit","243","758367","0.0-205.0-0.0","90686500","wem/bandit_single","A2OVWCQ4B9AHFY","gain","1","","72","H","0","img/none_selected.jpg","1","0","0","0.1217255528","","false","168","0.1217255528","","main_expt","0.3877512758","","0.1997030364","","0.3855955566","","","","","","",""
"43","","bandit","244","760196","0.0-206.0-0.0","90686500","wem/bandit_single","A2OVWCQ4B9AHFY","gain","1","","72","H","0","img/none_selected.jpg","0","0","1","0.118108524","","false","169","0.118108524","","main_expt","0.3733196812","","0.2391799942","","0.3882436634","","","","","","",""
"132","","bandit","245","762103","0.0-207.0-0.0","90686500","wem/bandit_single","A2OVWCQ4B9AHFY","gain","1","","76","L","3","","1","0","0","0.4096789578","","false","170","0.0750780909","","main_expt","0.3616719183","","0.2239577552","","0.4096789578","","","","","","",""
"128","","bandit","246","764009","0.0-208.0-0.0","90686500","wem/bandit_single","A2OVWCQ4B9AHFY","gain","1","","76","L","3","","1","0","0","0.4326257363","","false","171","0.07048665386","","main_expt","0.3222484871","","0.2175962327","","0.4326257363","","","","","","",""
"680","","bandit","247","766479","0.0-209.0-0.0","90686500","wem/bandit_single","A2OVWCQ4B9AHFY","gain","1","","75","K","2","","1","0","0","0.2061205584","","false","172","0.09439478605","","main_expt","0.2849842628","","0.2061205584","","0.4381189537","","","","","","",""
"1200","","bandit","248","769450","0.0-210.0-0.0","90686500","wem/bandit_single","A2OVWCQ4B9AHFY","gain","1","","75","K","2","","0","0","1","0.1787022686","","false","173","0.05932603211","","main_expt","0.2896949147","","0.1787022686","","0.3823577146","","","","","","",""
"173","","bandit","249","771397","0.0-211.0-0.0","90686500","wem/bandit_single","A2OVWCQ4B9AHFY","gain","1","","74","J","1","","0","0","1","0.260829927","","false","174","0.1019229976","","main_expt","0.260829927","","0.1782801474","","0.4155511425","","","","","","",""
"178","","bandit","250","773344","0.0-212.0-0.0","90686500","wem/bandit_single","A2OVWCQ4B9AHFY","gain","1","","72","H","0","img/none_selected.jpg","0","0","1","0.1270031357","","false","175","0.1270031357","","main_expt","0.1608433896","","0.1723114597","","0.4391025654","","","","","","",""
"144","","bandit","251","775263","0.0-213.0-0.0","90686500","wem/bandit_single","A2OVWCQ4B9AHFY","gain","1","","72","H","0","img/none_selected.jpg","0","0","1","0.1519507126","","false","176","0.1519507126","","main_expt","0.1924323662","","0.1714247165","","0.4654332747","","","","","","",""
"254","","bandit","252","777286","0.0-214.0-0.0","90686500","wem/bandit_single","A2OVWCQ4B9AHFY","gain","1","","72","H","0","img/none_selected.jpg","0","0","1","0.2645819263","","false","177","0.2645819263","","main_expt","0.1942299772","","0.2003569552","","0.4862166952","","","","","","",""
"108","","bandit","253","779163","0.0-215.0-0.0","90686500","wem/bandit_single","A2OVWCQ4B9AHFY","gain","1","","76","L","3","","0","0","1","0.4878504479","","false","178","0.2497033982","","main_expt","0.2266891382","","0.1848954505","","0.4878504479","","","","","","",""
"145","","bandit","254","781077","0.0-216.0-0.0","90686500","wem/bandit_single","A2OVWCQ4B9AHFY","gain","1","","75","K","2","","0","0","1","0.120488448","","false","179","0.2464833147","","main_expt","0.193755509","","0.120488448","","0.4925433574","","","","","","",""
"67","","bandit","255","782910","0.0-217.0-0.0","90686500","wem/bandit_single","A2OVWCQ4B9AHFY","gain","1","","74","J","1","","0","0","1","0.2143300014","","false","180","0.191435525","","main_expt","0.2143300014","","0.09518531587","","0.4863546804","","","","","","",""
"19","","bandit","256","784733","0.0-218.0-0.0","90686500","wem/bandit_single","A2OVWCQ4B9AHFY","gain","1","","74","J","1","","0","0","1","0.1996101457","","false","181","0.2095150634","","main_expt","0.1996101457","","0.1110105533","","0.4898831258","","","","","","",""
"151","","bandit","257","786666","0.0-219.0-0.0","90686500","wem/bandit_single","A2OVWCQ4B9AHFY","gain","1","","72","H","0","img/none_selected.jpg","0","0","1","0.2238619417","","false","182","0.2238619417","","main_expt","0.220362663","","0.1321710188","","0.4702328405","","","","","","",""
"59","","bandit","258","788495","0.0-220.0-0.0","90686500","wem/bandit_single","A2OVWCQ4B9AHFY","gain","1","","76","L","3","","1","0","0","0.4443650637","","false","183","0.172430875","","main_expt","0.2087999581","","0.07205074818","","0.4443650637","","","","","","",""
"4","","bandit","259","790291","0.0-221.0-0.0","90686500","wem/bandit_single","A2OVWCQ4B9AHFY","gain","1","","76","L","3","","0","0","1","0.4395551327","","false","184","0.1537152065","","main_expt","0.2693368533","","0.08140980564","","0.4395551327","","","","","","",""
"46","","bandit","260","792134","0.0-222.0-0.0","90686500","wem/bandit_single","A2OVWCQ4B9AHFY","gain","1","","74","J","1","","0","0","1","0.3177788722","","false","185","0.1089078126","","main_expt","0.3177788722","","0.07005875891","","0.427498872","","","","","","",""
"129","","bandit","261","794033","0.0-223.0-0.0","90686500","wem/bandit_single","A2OVWCQ4B9AHFY","gain","1","","75","K","2","","0","0","1","0.04712836877","","false","186","0.1150542287","","main_expt","0.3093747324","","0.04712836877","","0.4126395781","","","","","","",""
"30","","bandit","262","795842","0.0-224.0-0.0","90686500","wem/bandit_single","A2OVWCQ4B9AHFY","gain","1","","72","H","0","img/none_selected.jpg","0","0","1","0.07877539194","","false","187","0.07877539194","","main_expt","0.3361469263","","0.07097221374","","0.4059631444","","","","","","",""
"12","","bandit","263","797637","0.0-225.0-0.0","90686500","wem/bandit_single","A2OVWCQ4B9AHFY","gain","1","","76","L","3","","1","0","0","0.4007853126","","false","188","0.06234325246","","main_expt","0.3096611705","","0.04255461481","","0.4007853126","","","","","","",""
"60","","bandit","264","799478","0.0-226.0-0.0","90686500","wem/bandit_single","A2OVWCQ4B9AHFY","gain","1","","76","L","3","","0","0","1","0.4208201059","","false","189","0.07748383332","","main_expt","0.298651231","","0.03834091028","","0.4208201059","","","","","","",""
"32","","bandit","265","801292","0.0-227.0-0.0","90686500","wem/bandit_single","A2OVWCQ4B9AHFY","gain","1","","75","K","2","","0","0","1","0.03101500858","","false","190","0.08864116925","","main_expt","0.3361123746","","0.03101500858","","0.4249824956","","","","","","",""
"61","","bandit","266","803124","0.0-228.0-0.0","90686500","wem/bandit_single","A2OVWCQ4B9AHFY","gain","1","","72","H","0","img/none_selected.jpg","0","0","1","0.1114019665","","false","191","0.1114019665","","main_expt","0.3529126189","","0.05137759752","","0.4519194686","","","","","","",""
"12","","bandit","267","804916","0.0-229.0-0.0","90686500","wem/bandit_single","A2OVWCQ4B9AHFY","gain","1","","74","J","1","","1","0","0","0.3806900048","","false","192","0.0944181321","","main_expt","0.3806900048","","0.05101019331","","0.449072141","","","","","","",""
"38","","bandit","268","806728","0.0-230.0-0.0","90686500","wem/bandit_single","A2OVWCQ4B9AHFY","gain","1","","74","J","1","","0","0","1","0.3191299148","","false","193","0.09015445577","","main_expt","0.3191299148","","0.0408087357","","0.4069092802","","","","","","",""
"67","","bandit","269","808570","0.0-231.0-0.0","90686500","wem/bandit_single","A2OVWCQ4B9AHFY","gain","1","","72","H","0","img/none_selected.jpg","0","0","1","0.09569888082","","false","194","0.09569888082","","main_expt","0.3350705725","","0.04787233925","","0.399300076","","","","","","",""
"51","","bandit","270","810405","0.0-232.0-0.0","90686500","wem/bandit_single","A2OVWCQ4B9AHFY","gain","1","","75","K","2","","1","0","0","0.07297342555","","false","195","0.1521563302","","main_expt","0.3579412151","","0.07297342555","","0.4028519225","","","","","","",""
"497","","bandit","271","812702","0.0-233.0-0.0","90686500","wem/bandit_single","A2OVWCQ4B9AHFY","gain","1","","75","K","2","","0","0","1","0.1090796252","","false","196","0.1612876033","","main_expt","0.4135102269","","0.1090796252","","0.3708283831","","","","","","",""
"32","","bandit","272","814527","0.0-234.0-0.0","90686500","wem/bandit_single","A2OVWCQ4B9AHFY","gain","1","","74","J","1","","1","0","0","0.4368922102","","false","197","0.1818980103","","main_expt","0.4368922102","","0.1141593934","","0.3992028251","","","","","","",""
"27","","bandit","273","816336","0.0-235.0-0.0","90686500","wem/bandit_single","A2OVWCQ4B9AHFY","gain","1","","76","L","3","","1","0","0","0.3662313723","","false","198","0.1426991491","","main_expt","0.4329908538","","0.1247063377","","0.3662313723","","","","","","",""
"609","","bandit","274","818716","0.0-236.0-0.0","90686500","wem/bandit_single","A2OVWCQ4B9AHFY","gain","1","","72","H","0","img/none_selected.jpg","0","0","1","0.1339470975","","false","199","0.1339470975","","main_expt","0.4458308372","","0.1324590526","","0.3667285709","","","","","","",""
"333","","bandit","275","820842","0.0-237.0-0.0","90686500","wem/bandit_single","A2OVWCQ4B9AHFY","gain","1","","75","K","2","","0","0","1","0.1062358191","","false","200","0.1615481579","","main_expt","0.4535445428","","0.1062358191","","0.365396467","","","","","","",""
"62","","bandit","276","822677","0.0-238.0-0.0","90686500","wem/bandit_single","A2OVWCQ4B9AHFY","gain","1","","74","J","1","","1","0","0","0.4258040833","","false","201","0.1889616495","","main_expt","0.4258040833","","0.1027729413","","0.3413602931","","","","","","",""
"22","","bandit","277","824471","0.0-239.0-0.0","90686500","wem/bandit_single","A2OVWCQ4B9AHFY","gain","1","","74","J","1","","0","0","1","0.413157784","","false","202","0.2043886565","","main_expt","0.413157784","","0.09207086273","","0.3655369163","","","","","","",""
"51","","bandit","278","826305","0.0-240.0-0.0","90686500","wem/bandit_single","A2OVWCQ4B9AHFY","gain","1","","76","L","3","","1","0","0","0.3301706169","","false","203","0.2274570119","","main_expt","0.358983575","","0.1409949376","","0.3301706169","","","","","","",""
"28","","bandit","279","828104","0.0-241.0-0.0","90686500","wem/bandit_single","A2OVWCQ4B9AHFY","gain","1","","75","K","2","","0","0","1","0.2067441942","","false","204","0.1795680912","","main_expt","0.3354839288","","0.2067441942","","0.3305557625","","","","","","",""
"52","","bandit","280","829949","0.0-242.0-0.0","90686500","wem/bandit_single","A2OVWCQ4B9AHFY","gain","1","","72","H","0","img/none_selected.jpg","0","0","1","0.1823506393","","false","205","0.1823506393","","main_expt","0.3814446138","","0.2171549514","","0.3332543728","","","","","","",""
"106","","bandit","281","831831","0.0-243.0-0.0","90686500","wem/bandit_single","A2OVWCQ4B9AHFY","gain","1","","74","J","1","","1","0","0","0.4069937863","","false","206","0.1401809595","","main_expt","0.4069937863","","0.1399251859","","0.270761893","","","","","","",""
"67","","bandit","282","833668","0.0-244.0-0.0","90686500","wem/bandit_single","A2OVWCQ4B9AHFY","gain","1","","74","J","1","","1","0","0","0.4261201247","","false","207","0.1651993972","","main_expt","0.4261201247","","0.1700254018","","0.2595670132","","","","","","",""
"25","","bandit","283","835470","0.0-245.0-0.0","90686500","wem/bandit_single","A2OVWCQ4B9AHFY","gain","1","","75","K","2","","0","0","1","0.1831619311","","false","208","0.1803987852","","main_expt","0.4105702951","","0.1831619311","","0.2772442529","","","","","","",""
"166","","bandit","284","837407","0.0-246.0-0.0","90686500","wem/bandit_single","A2OVWCQ4B9AHFY","gain","1","","72","H","0","img/none_selected.jpg","1","0","0","0.1470434113","","false","209","0.1470434113","","main_expt","0.402481318","","0.151215806","","0.2654441326","","","","","","",""
"77","","bandit","285","839259","0.0-247.0-0.0","90686500","wem/bandit_single","A2OVWCQ4B9AHFY","gain","1","","76","L","3","","0","0","1","0.2475709295","","false","210","0.1375860563","","main_expt","0.4378094136","","0.1841878728","","0.2475709295","","","","","","",""
"48","","bandit","286","841104","0.0-248.0-0.0","90686500","wem/bandit_single","A2OVWCQ4B9AHFY","gain","1","","75","K","2","","0","0","1","0.190591144","","false","211","0.1181257803","","main_expt","0.4174257438","","0.190591144","","0.1836637302","","","","","","",""
"1681","","bandit","287","845330","0.0-249.0-0.0","90686500","wem/bandit_single","A2OVWCQ4B9AHFY","gain","1","","72","H","0","img/none_selected.jpg","0","0","1","0.1284194295","","false","212","0.1284194295","","main_expt","0.4235695044","","0.2024219406","","0.2018671691","","","","","","",""
"44","","bandit","288","847149","0.0-250.0-0.0","90686500","wem/bandit_single","A2OVWCQ4B9AHFY","gain","1","","74","J","1","","1","0","0","0.4112054282","","false","213","0.1088774305","","main_expt","0.4112054282","","0.1985525674","","0.1807811906","","","","","","",""
"198","","bandit","289","849132","0.0-251.0-0.0","90686500","wem/bandit_single","A2OVWCQ4B9AHFY","gain","1","","75","K","2","","0","0","1","0.1940352924","","false","214","0.07230623063","","main_expt","0.3986702209","","0.1940352924","","0.2432807767","","","","","","",""
"177","","bandit","290","851122","0.0-252.0-0.0","90686500","wem/bandit_single","A2OVWCQ4B9AHFY","gain","1","","72","H","0","img/none_selected.jpg","1","0","0","0.07963887701","","false","215","0.07963887701","","main_expt","0.4379561577","","0.1155678072","","0.2167976264","","","","","","",""
"96","","bandit","291","853007","0.0-253.0-0.0","90686500","wem/bandit_single","A2OVWCQ4B9AHFY","gain","1","","76","L","3","","0","0","1","0.2963745884","","false","216","0.0792987172","","main_expt","0.425003275","","0.08288275022","","0.2963745884","","","","","","",""
"429","","bandit","292","855215","0.0-254.0-0.0","90686500","wem/bandit_single","A2OVWCQ4B9AHFY","gain","1","","75","K","2","","0","0","1","0.1108164962","","false","217","0.07576557353","","main_expt","0.4398514333","","0.1108164962","","0.2704200786","","","","","","",""
"1","","bandit","293","856998","0.0-255.0-0.0","90686500","wem/bandit_single","A2OVWCQ4B9AHFY","gain","1","","74","J","1","","0","0","1","0.4307107256","","false","218","0.05946619603","","main_expt","0.4307107256","","0.1166222362","","0.2057322541","","","","","","",""
"164","","bandit","294","858945","0.0-256.0-0.0","90686500","wem/bandit_single","A2OVWCQ4B9AHFY","gain","1","","76","L","3","","0","0","1","0.2143414454","","false","219","0.07419684477","","main_expt","0.4236121262","","0.1441412427","","0.2143414454","","","","","","",""
"108","","bandit","295","860832","0.0-257.0-0.0","90686500","wem/bandit_single","A2OVWCQ4B9AHFY","gain","1","","72","H","0","img/none_selected.jpg","1","0","0","0.09297922461","","false","220","0.09297922461","","main_expt","0.4020148519","","0.1460318591","","0.1630835619","","","","","","",""
"48","","bandit","296","862662","0.0-258.0-0.0","90686500","wem/bandit_single","A2OVWCQ4B9AHFY","gain","1","","72","H","0","img/none_selected.jpg","0","0","1","0.1429286242","","false","221","0.1429286242","","main_expt","0.4073181559","","0.1068666799","","0.1536312793","","","","","","",""
"53","","bandit","297","864500","0.0-259.0-0.0","90686500","wem/bandit_single","A2OVWCQ4B9AHFY","gain","1","","75","K","2","","0","0","1","0.1101844092","","false","222","0.1708286753","","main_expt","0.3651123295","","0.1101844092","","0.2214617817","","","","","","",""
"13","","bandit","298","866288","0.0-260.0-0.0","90686500","wem/bandit_single","A2OVWCQ4B9AHFY","gain","1","","76","L","3","","0","0","1","0.2273662723","","false","223","0.1461267001","","main_expt","0.3836441325","","0.0707480467","","0.2273662723","","","","","","",""
"93","","bandit","299","868152","0.0-261.0-0.0","90686500","wem/bandit_single","A2OVWCQ4B9AHFY","gain","1","","74","J","1","","1","0","0","0.3982756155","","false","224","0.144808321","","main_expt","0.3982756155","","0.06117493494","","0.1894352557","","","","","","",""
"31","","bandit","300","869961","0.0-262.0-0.0","90686500","wem/bandit_single","A2OVWCQ4B9AHFY","gain","1","","75","K","2","","0","0","1","0.0615688762","","false","225","0.1890777341","","main_expt","0.3942448394","","0.0615688762","","0.1292085382","","","","","","",""
"136","","bandit","301","871876","0.0-263.0-0.0","90686500","wem/bandit_single","A2OVWCQ4B9AHFY","gain","1","","72","H","0","img/none_selected.jpg","0","0","1","0.1442837472","","false","226","0.1442837472","","main_expt","0.4169515918","","0.05052633559","","0.1530858041","","","","","","",""
"88","","bandit","302","873742","0.0-264.0-0.0","90686500","wem/bandit_single","A2OVWCQ4B9AHFY","gain","1","","72","H","0","img/none_selected.jpg","0","0","1","0.1425852804","","false","227","0.1425852804","","main_expt","0.4204191544","","0.05726050712","","0.1593334253","","","","","","",""
"174","","bandit","303","875687","0.0-265.0-0.0","90686500","wem/bandit_single","A2OVWCQ4B9AHFY","gain","1","","76","L","3","","0","0","1","0.1247523642","","false","228","0.1116716659","","main_expt","0.4091886","","0.0758768547","","0.1247523642","","","","","","",""
"40","","bandit","304","877500","0.0-266.0-0.0","90686500","wem/bandit_single","A2OVWCQ4B9AHFY","gain","1","","75","K","2","","0","0","1","0.07022353505","","false","229","0.1206121499","","main_expt","0.407276644","","0.07022353505","","0.1463700977","","","","","","",""
"134","","bandit","305","879406","0.0-267.0-0.0","90686500","wem/bandit_single","A2OVWCQ4B9AHFY","gain","1","","74","J","1","","1","0","0","0.4254558538","","false","230","0.1168532629","","main_expt","0.4254558538","","0.06577032649","","0.1402324221","","","","","","",""
"7","","bandit","306","881215","0.0-268.0-0.0","90686500","wem/bandit_single","A2OVWCQ4B9AHFY","gain","1","","76","L","3","","0","0","1","0.1914784592","","false","231","0.0916199044","","main_expt","0.4259586803","","0.06313303242","","0.1914784592","","","","","","",""
"104","","bandit","307","883102","0.0-269.0-0.0","90686500","wem/bandit_single","A2OVWCQ4B9AHFY","gain","1","","75","K","2","","0","0","1","0.05490827263","","false","232","0.09573807812","","main_expt","0.4429649496","","0.05490827263","","0.1507361932","","","","","","",""
"118","","bandit","308","885000","0.0-270.0-0.0","90686500","wem/bandit_single","A2OVWCQ4B9AHFY","gain","1","","72","H","0","img/none_selected.jpg","0","0","1","0.1246926578","","false","233","0.1246926578","","main_expt","0.4456598826","","0.04200611561","","0.1902650793","","","","","","",""
"101","","bandit","309","886900","0.0-271.0-0.0","90686500","wem/bandit_single","A2OVWCQ4B9AHFY","gain","1","","74","J","1","","0","0","1","0.4504169918","","false","234","0.122457211","","main_expt","0.4504169918","","0.0550058871","","0.2663902881","","","","","","",""
"48","","bandit","310","888739","0.0-272.0-0.0","90686500","wem/bandit_single","A2OVWCQ4B9AHFY","gain","1","","75","K","2","","0","0","1","0.06273227262","","false","235","0.1561374187","","main_expt","0.4255816076","","0.06273227262","","0.257874652","","","","","","",""
"16","","bandit","311","890533","0.0-273.0-0.0","90686500","wem/bandit_single","A2OVWCQ4B9AHFY","gain","1","","76","L","3","","0","0","1","0.2134416149","","false","236","0.1726763947","","main_expt","0.4262424011","","0.09869136657","","0.2134416149","","","","","","",""
"379","","bandit","312","892699","0.0-274.0-0.0","90686500","wem/bandit_single","A2OVWCQ4B9AHFY","gain","1","","75","K","2","","0","0","1","0.06464195797","","false","237","0.163453789","","main_expt","0.4314914545","","0.06464195797","","0.1655180868","","","","","","",""
"85","","bandit","313","894569","0.0-275.0-0.0","90686500","wem/bandit_single","A2OVWCQ4B9AHFY","gain","1","","74","J","1","","0","0","1","0.4580147213","","false","238","0.1511244057","","main_expt","0.4580147213","","0.1092425733","","0.1528926348","","","","","","",""
"23","","bandit","314","896368","0.0-276.0-0.0","90686500","wem/bandit_single","A2OVWCQ4B9AHFY","gain","1","","72","H","0","img/none_selected.jpg","0","0","1","0.1170855371","","false","239","0.1170855371","","main_expt","0.4437162142","","0.08920017271","","0.1594670864","","","","","","",""
"260","","bandit","315","898400","0.0-277.0-0.0","90686500","wem/bandit_single","A2OVWCQ4B9AHFY","gain","1","","75","K","2","","0","0","1","0.138477068","","false","240","0.1281478965","","main_expt","0.4423909474","","0.138477068","","0.104293197","","","","","","",""
"9724","","bandit","316","909912","0.0-278.0-0.0","90686500","wem/bandit_single","A2OVWCQ4B9AHFY","gain","1","","76","L","3","","0","0","1","0.07968297136","","false","241","0.1579661802","","main_expt","0.4542424264","","0.1249513709","","0.07968297136","","","","","","",""
"372","","bandit","317","912065","0.0-279.0-0.0","90686500","wem/bandit_single","A2OVWCQ4B9AHFY","gain","1","","75","K","2","","0","0","1","0.09754639251","","false","242","0.1345462726","","main_expt","0.4659063812","","0.09754639251","","0.07079416442","","","","","","",""
"421","","bandit","318","914265","0.0-280.0-0.0","90686500","wem/bandit_single","A2OVWCQ4B9AHFY","gain","1","","74","J","1","","0","0","1","0.4702771719","","false","243","0.1793426478","","main_expt","0.4702771719","","0.1223474156","","0.08709770617","","","","","","",""
"9","","bandit","319","916061","0.0-281.0-0.0","90686500","wem/bandit_single","A2OVWCQ4B9AHFY","gain","1","","72","H","0","img/none_selected.jpg","0","0","1","0.1623289848","","false","244","0.1623289848","","main_expt","0.4678480784","","0.1004902073","","0.08252109256","","","","","","",""
"407","","bandit","320","918248","0.0-282.0-0.0","90686500","wem/bandit_single","A2OVWCQ4B9AHFY","gain","1","","75","K","2","","1","0","0","0.09372717231","","false","245","0.1638267454","","main_expt","0.4608336118","","0.09372717231","","0.07130924754","","","","","","",""
"385","","bandit","321","920420","0.0-283.0-0.0","90686500","wem/bandit_single","A2OVWCQ4B9AHFY","gain","1","","75","K","2","","0","0","1","0.1004977064","","false","246","0.1794660524","","main_expt","0.4455928316","","0.1004977064","","0.06886742221","","","","","","",""
"181","","bandit","322","922388","0.0-284.0-0.0","90686500","wem/bandit_single","A2OVWCQ4B9AHFY","gain","1","","75","K","2","","0","0","1","0.09336015453","","false","247","0.1751092572","","main_expt","0.4322927154","","0.09336015453","","0.064138504","","","","","","",""
"48","","bandit","323","924217","0.0-285.0-0.0","90686500","wem/bandit_single","A2OVWCQ4B9AHFY","gain","1","","75","K","2","","0","0","1","0.09552903486","","false","248","0.188480637","","main_expt","0.4293825987","","0.09552903486","","0.05051083443","","","","","","",""
"188","","bandit","324","926191","0.0-286.0-0.0","90686500","wem/bandit_single","A2OVWCQ4B9AHFY","gain","1","","72","H","0","img/none_selected.jpg","1","0","0","0.1718025207","","false","249","0.1718025207","","main_expt","0.4338924945","","0.1087111068","","0.05514480776","","","","","","",""
"305","","bandit","325","928277","0.0-287.0-0.0","90686500","wem/bandit_single","A2OVWCQ4B9AHFY","gain","1","","72","H","0","img/none_selected.jpg","0","0","1","0.1377417152","","false","250","0.1377417152","","main_expt","0.4356531551","","0.08296073337","","0.02780796002","","","","","","",""
"78","","bandit","326","930143","0.0-288.0-0.0","90686500","wem/bandit_single","A2OVWCQ4B9AHFY","gain","1","","74","J","1","","1","0","0","0.4561881598","","false","251","0.1623098307","","main_expt","0.4561881598","","0.08988728922","","0.02786711831","","","","","","",""
"58","","bandit","327","931975","0.0-289.0-0.0","90686500","wem/bandit_single","A2OVWCQ4B9AHFY","gain","1","","76","L","3","","0","0","1","0.03881205422","","false","252","0.1702242208","","main_expt","0.4517263236","","0.07043490844","","0.03881205422","","","","","","",""
"234","","bandit","328","933983","0.0-290.0-0.0","90686500","wem/bandit_single","A2OVWCQ4B9AHFY","gain","1","","72","H","0","img/none_selected.jpg","0","0","1","0.1571297736","","false","253","0.1571297736","","main_expt","0.4280730872","","0.06648959932","","0.03211176865","","","","","","",""
"48","","bandit","329","935811","0.0-291.0-0.0","90686500","wem/bandit_single","A2OVWCQ4B9AHFY","gain","1","","75","K","2","","1","0","0","0.04750248463","","false","254","0.1311762281","","main_expt","0.3976691957","","0.04750248463","","0.02501863174","","","","","","",""
"22","","bandit","330","937610","0.0-292.0-0.0","90686500","wem/bandit_single","A2OVWCQ4B9AHFY","gain","1","","74","J","1","","0","0","1","0.3920211634","","false","255","0.1262313745","","main_expt","0.3920211634","","0.0685067328","","0.03845468041","","","","","","",""
"57","","bandit","331","939445","0.0-293.0-0.0","90686500","wem/bandit_single","A2OVWCQ4B9AHFY","gain","1","","76","L","3","","0","0","1","0.03093107714","","false","256","0.08888936201","","main_expt","0.3802568344","","0.06106940649","","0.03093107714","","","","","","",""
"66","","bandit","332","941311","0.0-294.0-0.0","90686500","wem/bandit_single","A2OVWCQ4B9AHFY","gain","1","","72","H","0","img/none_selected.jpg","0","0","1","0.1016624202","","false","257","0.1016624202","","main_expt","0.4153547565","","0.03925251802","","0.02284381284","","","","","","",""
"90","","bandit","333","943177","0.0-295.0-0.0","90686500","wem/bandit_single","A2OVWCQ4B9AHFY","gain","1","","74","J","1","","0","0","1","0.412770775","","false","258","0.1201960749","","main_expt","0.412770775","","0.07528758783","","0.01195927332","","","","","","",""
"292","","bandit","334","945251","0.0-296.0-0.0","90686500","wem/bandit_single","A2OVWCQ4B9AHFY","gain","1","","72","H","0","img/none_selected.jpg","0","0","1","0.09869940493","","false","259","0.09869940493","","main_expt","0.4364469878","","0.06168900656","","0.009837890866","","","","","","",""
"366","","bandit","335","947420","0.0-297.0-0.0","90686500","wem/bandit_single","A2OVWCQ4B9AHFY","gain","1","","76","L","3","","0","0","1","0.01652501309","","false","260","0.140367269","","main_expt","0.4143686848","","0.05358732337","","0.01652501309","","","","","","",""
"38","","bandit","336","949234","0.0-298.0-0.0","90686500","wem/bandit_single","A2OVWCQ4B9AHFY","gain","1","","75","K","2","","0","0","1","0.05974294151","","false","261","0.107121031","","main_expt","0.3932103286","","0.05974294151","","0.0246934762","","","","","","",""
"72","","bandit","337","951095","0.0-299.0-0.0","90686500","wem/bandit_single","A2OVWCQ4B9AHFY","gain","1","","74","J","1","","0","0","1","0.4299042069","","false","262","0.142880744","","main_expt","0.4299042069","","0.0656558392","","0.02217338967","","","","","","",""
"81","","bandit","338","952992","0.0-300.0-0.0","90686500","wem/bandit_single","A2OVWCQ4B9AHFY","gain","1","","76","L","3","","0","0","1","0.02538488248","","false","263","0.1398656543","","main_expt","0.3864913748","","0.08006927963","","0.02538488248","","","","","","",""
"67","","bandit","339","954859","0.0-301.0-0.0","90686500","wem/bandit_single","A2OVWCQ4B9AHFY","gain","1","","75","K","2","","0","0","1","0.07803510261","","false","264","0.185630342","","main_expt","0.3721946297","","0.07803510261","","0.03542132602","","","","","","",""
"86","","bandit","340","956719","0.0-302.0-0.0","90686500","wem/bandit_single","A2OVWCQ4B9AHFY","gain","1","","72","H","0","img/none_selected.jpg","1","0","0","0.1483619715","","false","265","0.1483619715","","main_expt","0.3326379545","","0.08917846028","","0.03052618628","","","","","","",""
"73","","bandit","341","958573","0.0-303.0-0.0","90686500","wem/bandit_single","A2OVWCQ4B9AHFY","gain","1","","76","L","3","","0","0","1","0.02388326919","","false","266","0.1677753502","","main_expt","0.3337002386","","0.1562168236","","0.02388326919","","","","","","",""
"189","","bandit","342","960553","0.0-304.0-0.0","90686500","wem/bandit_single","A2OVWCQ4B9AHFY","gain","1","","74","J","1","","0","0","1","0.3044940876","","false","267","0.1748953786","","main_expt","0.3044940876","","0.1873085091","","0.01496915784","","","","","","",""
"223","","bandit","343","962553","0.0-305.0-0.0","90686500","wem/bandit_single","A2OVWCQ4B9AHFY","gain","1","","72","H","0","img/none_selected.jpg","0","0","1","0.152215306","","false","268","0.152215306","","main_expt","0.2966269971","","0.1850807086","","0.01735494223","","","","","","",""
"109","","bandit","344","964459","0.0-306.0-0.0","90686500","wem/bandit_single","A2OVWCQ4B9AHFY","gain","1","","75","K","2","","0","0","1","0.1461958128","","false","269","0.1420691147","","main_expt","0.2617435325","","0.1461958128","","0.01365938384","","","","","","",""
"43128","","bandit","345","1009377","0.0-307.0-0.0","90686500","wem/bandit_single","A2OVWCQ4B9AHFY","gain","1","","75","K","2","","1","0","0","0.1348565207","","false","270","0.1338049101","","main_expt","0.2599280147","","0.1348565207","","0.01871615964","","","","","","",""
"38","","bandit","346","1011207","0.0-308.0-0.0","90686500","wem/bandit_single","A2OVWCQ4B9AHFY","gain","1","","75","K","2","","0","0","1","0.1588166083","","false","271","0.1178923734","","main_expt","0.2499936179","","0.1588166083","","0.01663887187","","","","","","",""
"22533","","bandit","347","1035548","0.0-309.0-0.0","90686500","wem/bandit_single","A2OVWCQ4B9AHFY","gain","1","","75","K","2","","0","0","1","0.1288650497","","false","272","0.1436833609","","main_expt","0.2703142459","","0.1288650497","","0.01973971225","","","","","","",""
"45","","bandit","348","1037375","0.0-310.0-0.0","90686500","wem/bandit_single","A2OVWCQ4B9AHFY","gain","1","","74","J","1","","1","0","0","0.2835249431","","false","273","0.1917782062","","main_expt","0.2835249431","","0.1414039315","","0.01954424634","","","","","","",""
"94","","bandit","349","1039274","0.0-311.0-0.0","90686500","wem/bandit_single","A2OVWCQ4B9AHFY","gain","1","","74","J","1","","0","0","1","0.2906451875","","false","274","0.1657285368","","main_expt","0.2906451875","","0.1132613661","","0.008862655739","","","","","","",""
"24","","bandit","350","1041090","0.0-312.0-0.0","90686500","wem/bandit_single","A2OVWCQ4B9AHFY","gain","1","","72","H","0","img/none_selected.jpg","0","0","1","0.1420329436","","false","275","0.1420329436","","main_expt","0.2670480505","","0.1396690899","","0.0094605031","","","","","","",""
"2750","","bandit","351","1045631","0.0-313.0-0.0","90686500","wem/bandit_single","A2OVWCQ4B9AHFY","gain","1","","75","K","2","","0","0","1","0.1109816737","","false","276","0.1369756733","","main_expt","0.2358592403","","0.1109816737","","0.01191149084","","","","","","",""
"122","","bandit","352","1047542","0.0-314.0-0.0","90686500","wem/bandit_single","A2OVWCQ4B9AHFY","gain","1","","76","L","3","","0","0","1","0.00904810236","","false","277","0.1781068979","","main_expt","0.1877967456","","0.08046464388","","0.00904810236","","","","","","",""
"22","","bandit","353","1049342","0.0-315.0-0.0","90686500","wem/bandit_single","A2OVWCQ4B9AHFY","gain","1","","72","H","0","img/none_selected.jpg","0","0","1","0.248352092","","false","278","0.248352092","","main_expt","0.1537245983","","0.07407019324","","0.007795284796","","","","","","",""
"141","","bandit","354","1051290","0.0-316.0-0.0","90686500","wem/bandit_single","A2OVWCQ4B9AHFY","gain","1","","74","J","1","","0","0","1","0.1662011111","","false","279","0.263219496","","main_expt","0.1662011111","","0.06478755197","","0.01747653863","","","","","","",""
"41","","bandit","355","1053117","0.0-317.0-0.0","90686500","wem/bandit_single","A2OVWCQ4B9AHFY","gain","1","","75","K","2","","0","0","1","0.04895059186","","false","280","0.210776847","","main_expt","0.1622625537","","0.04895059186","","0.02326096521","","","","","","",""
"68","","bandit","356","1054972","0.0-318.0-0.0","90686500","wem/bandit_single","A2OVWCQ4B9AHFY","gain","1","","72","H","0","img/none_selected.jpg","1","0","0","0.1901401854","","false","281","0.1901401854","","main_expt","0.2160365104","","0.04598133094","","0.03290281633","","","","","","",""
"100","","bandit","357","1056856","0.0-319.0-0.0","90686500","wem/bandit_single","A2OVWCQ4B9AHFY","gain","1","","76","L","3","","0","0","1","0.03647511751","","false","282","0.1692674388","","main_expt","0.2031844556","","0.0454431083","","0.03647511751","","","","","","",""
"44","","bandit","358","1058684","0.0-320.0-0.0","90686500","wem/bandit_single","A2OVWCQ4B9AHFY","gain","1","","75","K","2","","0","0","1","0.0377119091","","false","283","0.1697823826","","main_expt","0.236778666","","0.0377119091","","0.0381479171","","","","","","",""
"266","","bandit","359","1060728","0.0-321.0-0.0","90686500","wem/bandit_single","A2OVWCQ4B9AHFY","gain","1","","75","K","2","","0","0","1","0.0346676025","","false","284","0.1647860582","","main_expt","0.2082896542","","0.0346676025","","0.04237273713","","","","","","",""
"126","","bandit","360","1062631","0.0-322.0-0.0","90686500","wem/bandit_single","A2OVWCQ4B9AHFY","gain","1","","74","J","1","","1","0","0","0.1682052712","","false","285","0.2346467376","","main_expt","0.1682052712","","0.03394591187","","0.08736605616","","","","","","",""
"105","","bandit","361","1064513","0.0-323.0-0.0","90686500","wem/bandit_single","A2OVWCQ4B9AHFY","gain","1","","72","H","0","img/none_selected.jpg","1","0","0","0.1651037306","","false","286","0.1651037306","","main_expt","0.1287852917","","0.03437308726","","0.149418319","","","","","","",""
"60","","bandit","362","1066350","0.0-324.0-0.0","90686500","wem/bandit_single","A2OVWCQ4B9AHFY","gain","1","","76","L","3","","0","0","1","0.2149685411","","false","287","0.113933185","","main_expt","0.0739145169","","0.043905831","","0.2149685411","","","","","","",""
"65","","bandit","363","1068198","0.0-325.0-0.0","90686500","wem/bandit_single","A2OVWCQ4B9AHFY","gain","1","","72","H","0","img/none_selected.jpg","0","0","1","0.08260993421","","false","288","0.08260993421","","main_expt","0.08295252225","","0.02064047927","","0.181398065","","","","","","",""
"3","","bandit","364","1069981","0.0-326.0-0.0","90686500","wem/bandit_single","A2OVWCQ4B9AHFY","gain","1","","75","K","2","","0","0","1","0.0250169619","","false","289","0.07260323305","","main_expt","0.0479508895","","0.0250169619","","0.1523032639","","","","","","",""
"88","","bandit","365","1071867","0.0-327.0-0.0","90686500","wem/bandit_single","A2OVWCQ4B9AHFY","gain","1","","74","J","1","","0","0","1","0.05498143303","","false","290","0.06306400378","","main_expt","0.05498143303","","0.04785043425","","0.1404761367","","","","","","",""
"270","","bandit","366","1073923","0.0-328.0-0.0","90686500","wem/bandit_single","A2OVWCQ4B9AHFY","gain","1","","76","L","3","","0","0","1","0.1639955189","","false","291","0.06173149747","","main_expt","0.06238518006","","0.05997729544","","0.1639955189","","","","","","",""
"11","","bandit","367","1075740","0.0-329.0-0.0","90686500","wem/bandit_single","A2OVWCQ4B9AHFY","gain","1","","72","H","0","img/none_selected.jpg","0","0","1","0.049421281","","false","292","0.049421281","","main_expt","0.06246846358","","0.08013724224","","0.1365824739","","","","","","",""
"174","","bandit","368","1077721","0.0-330.0-0.0","90686500","wem/bandit_single","A2OVWCQ4B9AHFY","gain","1","","75","K","2","","0","0","1","0.08257915178","","false","293","0.04661139695","","main_expt","0.0635142122","","0.08257915178","","0.2190436779","","","","","","",""
"66","","bandit","369","1079565","0.0-331.0-0.0","90686500","wem/bandit_single","A2OVWCQ4B9AHFY","gain","1","","74","J","1","","0","0","1","0.1078883856","","false","294","0.05266196286","","main_expt","0.1078883856","","0.07979116831","","0.2961987497","","","","","","",""
"29","","bandit","370","1081379","0.0-332.0-0.0","90686500","wem/bandit_single","A2OVWCQ4B9AHFY","gain","1","","76","L","3","","0","0","1","0.3422413176","","false","295","0.0541153793","","main_expt","0.1065048767","","0.1168190604","","0.3422413176","","","","","","",""
"211","","bandit","371","1083369","0.0-333.0-0.0","90686500","wem/bandit_single","A2OVWCQ4B9AHFY","gain","1","","72","H","0","img/none_selected.jpg","0","0","1","0.03514166697","","false","296","0.03514166697","","main_expt","0.1528862056","","0.1280513587","","0.3023757447","","","","","","",""
"48","","bandit","372","1085210","0.0-334.0-0.0","90686500","wem/bandit_single","A2OVWCQ4B9AHFY","gain","1","","75","K","2","","0","0","1","0.1545711336","","false","297","0.0293008482","","main_expt","0.1655716118","","0.1545711336","","0.3744966898","","","","","","",""
"21","","bandit","373","1087018","0.0-335.0-0.0","90686500","wem/bandit_single","A2OVWCQ4B9AHFY","gain","1","","76","L","3","","1","0","0","0.3702548021","","false","298","0.03311380314","","main_expt","0.1725180782","","0.1485956324","","0.3702548021","","","","","","",""
