"rt","responses","trial_type","trial_index","time_elapsed","internal_node_id","subjID","study","MID","cond","drift","key_press","respCharCode","respKey","respChoiceNum","respChoice","gems","bombs","no_reward","GemPrChosen","BombPrChosen","practice","trial_counter","WinPr_0","LosePr_0","trial_label","WinPr_1","LosePr_1","WinPr_2","LosePr_2","WinPr_3","LosePr_3","Q0","Q1","Q2","gender","age","ethnicity"
"4755","{""Q0"":""A1ZZ7YO3YASNIP""}","survey-text","0","4758","0.0-0.0","90829758","wem/bandit_single","A1ZZ7YO3YASNIP","pain","4","","","","","","","","","","","","","","","","","","","","","","","","","","",""
"952","","text","1","6725","0.0-1.0","90829758","wem/bandit_single","A1ZZ7YO3YASNIP","pain","4","32","","","","","","","","","","","","","","","","","","","","","","","","","",""
"1638","","text","2","8373","0.0-2.0","90829758","wem/bandit_single","A1ZZ7YO3YASNIP","pain","4","32","","","","","","","","","","","","","","","","","","","","","","","","","",""
"27610","","text","3","35983","0.0-3.0","90829758","wem/bandit_single","A1ZZ7YO3YASNIP","pain","4","32","","","","","","","","","","","","","","","","","","","","","","","","","",""
"4564","","text","4","40547","0.0-4.0","90829758","wem/bandit_single","A1ZZ7YO3YASNIP","pain","4","32","","","","","","","","","","","","","","","","","","","","","","","","","",""
"2036","","text","5","42583","0.0-5.0","90829758","wem/bandit_single","A1ZZ7YO3YASNIP","pain","4","32","","","","","","","","","","","","","","","","","","","","","","","","","",""
"2163","","text","6","44746","0.0-6.0","90829758","wem/bandit_single","A1ZZ7YO3YASNIP","pain","4","32","","","","","","","","","","","","","","","","","","","","","","","","","",""
"1206","","text","7","45952","0.0-7.0","90829758","wem/bandit_single","A1ZZ7YO3YASNIP","pain","4","32","","","","","","","","","","","","","","","","","","","","","","","","","",""
"1240","","text","8","47202","0.0-8.0","90829758","wem/bandit_single","A1ZZ7YO3YASNIP","pain","4","32","","","","","","","","","","","","","","","","","","","","","","","","","",""
"623","","text","9","47825","0.0-9.0","90829758","wem/bandit_single","A1ZZ7YO3YASNIP","pain","4","32","","","","","","","","","","","","","","","","","","","","","","","","","",""
"2365","","text","10","50192","0.0-10.0","90829758","wem/bandit_single","A1ZZ7YO3YASNIP","pain","4","32","","","","","","","","","","","","","","","","","","","","","","","","","",""
"2745","","text","11","52937","0.0-11.0","90829758","wem/bandit_single","A1ZZ7YO3YASNIP","pain","4","32","","","","","","","","","","","","","","","","","","","","","","","","","",""
"1219","","bandit","12","55686","0.0-12.0-0.0","90829758","wem/bandit_single","A1ZZ7YO3YASNIP","pain","4","","74","J","0","img/none_selected_demo.jpg","0","0","1","0","0","true","0","0","0","","","","","","","","","","","","",""
"391","","bandit","13","57844","0.0-13.0-0.0","90829758","wem/bandit_single","A1ZZ7YO3YASNIP","pain","4","","75","K","0","img/none_selected_demo.jpg","0","0","1","0","0","true","0","0","0","","","","","","","","","","","","",""
"1859","","text","14","59954","0.0-14.0","90829758","wem/bandit_single","A1ZZ7YO3YASNIP","pain","4","32","","","","","","","","","","","","","","","","","","","","","","","","","",""
"813","","text","15","60767","0.0-15.0","90829758","wem/bandit_single","A1ZZ7YO3YASNIP","pain","4","32","","","","","","","","","","","","","","","","","","","","","","","","","",""
"931","","text","16","61698","0.0-16.0","90829758","wem/bandit_single","A1ZZ7YO3YASNIP","pain","4","32","","","","","","","","","","","","","","","","","","","","","","","","","",""
"759","","text","17","62457","0.0-17.0","90829758","wem/bandit_single","A1ZZ7YO3YASNIP","pain","4","32","","","","","","","","","","","","","","","","","","","","","","","","","",""
"744","","bandit","18","64726","0.0-18.0-0.0","90829758","wem/bandit_single","A1ZZ7YO3YASNIP","pain","4","","74","J","0","img/none_selected_demo.jpg","0","1","0","0","0.8","true","0","0","0.8","80_20_practice","0","0.2","","","","","","","","","",""
"113","","bandit","19","66605","0.0-18.0-1.0","90829758","wem/bandit_single","A1ZZ7YO3YASNIP","pain","4","","74","J","0","img/none_selected_demo.jpg","0","0","1","0","0.8","true","0","0","0.8","80_20_practice","0","0.2","","","","","","","","","",""
"277","","bandit","20","68649","0.0-18.0-2.0","90829758","wem/bandit_single","A1ZZ7YO3YASNIP","pain","4","","75","K","1","","0","0","1","0","0.2","true","0","0","0.8","80_20_practice","0","0.2","","","","","","","","","",""
"46","","bandit","21","70465","0.0-18.0-3.0","90829758","wem/bandit_single","A1ZZ7YO3YASNIP","pain","4","","75","K","1","","0","1","0","0","0.2","true","0","0","0.8","80_20_practice","0","0.2","","","","","","","","","",""
"30","","bandit","22","72262","0.0-18.0-4.0","90829758","wem/bandit_single","A1ZZ7YO3YASNIP","pain","4","","75","K","1","","0","0","1","0","0.2","true","0","0","0.8","80_20_practice","0","0.2","","","","","","","","","",""
"211","","bandit","23","74233","0.0-18.0-5.0","90829758","wem/bandit_single","A1ZZ7YO3YASNIP","pain","4","","74","J","0","img/none_selected_demo.jpg","0","0","1","0","0.8","true","0","0","0.8","80_20_practice","0","0.2","","","","","","","","","",""
"607","","bandit","24","76612","0.0-18.0-6.0","90829758","wem/bandit_single","A1ZZ7YO3YASNIP","pain","4","","74","J","0","img/none_selected_demo.jpg","0","1","0","0","0.8","true","0","0","0.8","80_20_practice","0","0.2","","","","","","","","","",""
"12491","","bandit","25","90865","0.0-18.0-7.0","90829758","wem/bandit_single","A1ZZ7YO3YASNIP","pain","4","","74","J","0","img/none_selected_demo.jpg","0","0","1","0","0.8","true","0","0","0.8","80_20_practice","0","0.2","","","","","","","","","",""
"509","","bandit","26","93143","0.0-18.0-8.0","90829758","wem/bandit_single","A1ZZ7YO3YASNIP","pain","4","","75","K","1","","0","0","1","0","0.2","true","0","0","0.8","80_20_practice","0","0.2","","","","","","","","","",""
"501","","bandit","27","95395","0.0-18.0-9.0","90829758","wem/bandit_single","A1ZZ7YO3YASNIP","pain","4","","75","K","1","","0","0","1","0","0.2","true","0","0","0.8","80_20_practice","0","0.2","","","","","","","","","",""
"74","","bandit","28","97242","0.0-18.0-10.0","90829758","wem/bandit_single","A1ZZ7YO3YASNIP","pain","4","","75","K","1","","0","0","1","0","0.2","true","0","0","0.8","80_20_practice","0","0.2","","","","","","","","","",""
"22","","bandit","29","99023","0.0-18.0-11.0","90829758","wem/bandit_single","A1ZZ7YO3YASNIP","pain","4","","74","J","0","img/none_selected_demo.jpg","0","1","0","0","0.8","true","0","0","0.8","80_20_practice","0","0.2","","","","","","","","","",""
"325","","bandit","30","101112","0.0-18.0-12.0","90829758","wem/bandit_single","A1ZZ7YO3YASNIP","pain","4","","74","J","0","img/none_selected_demo.jpg","0","1","0","0","0.8","true","0","0","0.8","80_20_practice","0","0.2","","","","","","","","","",""
"429","","bandit","31","103304","0.0-18.0-13.0","90829758","wem/bandit_single","A1ZZ7YO3YASNIP","pain","4","","74","J","0","img/none_selected_demo.jpg","0","0","1","0","0.8","true","0","0","0.8","80_20_practice","0","0.2","","","","","","","","","",""
"228","","bandit","32","105313","0.0-18.0-14.0","90829758","wem/bandit_single","A1ZZ7YO3YASNIP","pain","4","","74","J","0","img/none_selected_demo.jpg","0","1","0","0","0.8","true","0","0","0.8","80_20_practice","0","0.2","","","","","","","","","",""
"64","","bandit","33","107159","0.0-18.0-15.0","90829758","wem/bandit_single","A1ZZ7YO3YASNIP","pain","4","","74","J","0","img/none_selected_demo.jpg","0","1","0","0","0.8","true","0","0","0.8","80_20_practice","0","0.2","","","","","","","","","",""
"235","","bandit","34","109153","0.0-18.0-16.0","90829758","wem/bandit_single","A1ZZ7YO3YASNIP","pain","4","","74","J","0","img/none_selected_demo.jpg","0","1","0","0","0.8","true","0","0","0.8","80_20_practice","0","0.2","","","","","","","","","",""
"2136","","bandit","35","113062","0.0-18.0-17.0","90829758","wem/bandit_single","A1ZZ7YO3YASNIP","pain","4","","74","J","0","img/none_selected_demo.jpg","0","1","0","0","0.8","true","0","0","0.8","80_20_practice","0","0.2","","","","","","","","","",""
"2326","","bandit","36","117149","0.0-18.0-18.0","90829758","wem/bandit_single","A1ZZ7YO3YASNIP","pain","4","","74","J","0","img/none_selected_demo.jpg","0","1","0","0","0.8","true","0","0","0.8","80_20_practice","0","0.2","","","","","","","","","",""
"503","","bandit","37","119423","0.0-18.0-19.0","90829758","wem/bandit_single","A1ZZ7YO3YASNIP","pain","4","","74","J","0","img/none_selected_demo.jpg","0","1","0","0","0.8","true","0","0","0.8","80_20_practice","0","0.2","","","","","","","","","",""
"3572","","text","38","123248","0.0-19.0","90829758","wem/bandit_single","A1ZZ7YO3YASNIP","pain","4","32","","","","","","","","","","","","","","","","","","","","","","","","","",""
"1383","","bandit","39","126143","0.0-20.0-0.0","90829758","wem/bandit_single","A1ZZ7YO3YASNIP","pain","4","","74","J","0","img/none_selected_demo.jpg","0","0","1","0","0","true","0","0","0","","0","0","","","","","","","","","",""
"2304","","text","40","128700","0.0-21.0","90829758","wem/bandit_single","A1ZZ7YO3YASNIP","pain","4","32","","","","","","","","","","","","","","","","","","","","","","","","","",""
"27048","","text","41","155748","0.0-22.0","90829758","wem/bandit_single","A1ZZ7YO3YASNIP","pain","4","32","","","","","","","","","","","","","","","","","","","","","","","","","",""
"1060","","text","42","156808","0.0-23.0","90829758","wem/bandit_single","A1ZZ7YO3YASNIP","pain","4","32","","","","","","","","","","","","","","","","","","","","","","","","","",""
"913","","text","43","157731","0.0-24.0","90829758","wem/bandit_single","A1ZZ7YO3YASNIP","pain","4","32","","","","","","","","","","","","","","","","","","","","","","","","","",""
"122603","","text","44","280335","0.0-25.0","90829758","wem/bandit_single","A1ZZ7YO3YASNIP","pain","4","32","","","","","","","","","","","","","","","","","","","","","","","","","",""
"1164","","text","45","281502","0.0-26.0","90829758","wem/bandit_single","A1ZZ7YO3YASNIP","pain","4","32","","","","","","","","","","","","","","","","","","","","","","","","","",""
"1095","","text","46","282598","0.0-27.0","90829758","wem/bandit_single","A1ZZ7YO3YASNIP","pain","4","32","","","","","","","","","","","","","","","","","","","","","","","","","",""
"1431","","text","47","284029","0.0-28.0","90829758","wem/bandit_single","A1ZZ7YO3YASNIP","pain","4","32","","","","","","","","","","","","","","","","","","","","","","","","","",""
"5897","","text","48","289927","0.0-29.0","90829758","wem/bandit_single","A1ZZ7YO3YASNIP","pain","4","32","","","","","","","","","","","","","","","","","","","","","","","","","",""
"1038","","text","49","290966","0.0-30.0","90829758","wem/bandit_single","A1ZZ7YO3YASNIP","pain","4","32","","","","","","","","","","","","","","","","","","","","","","","","","",""
"2031","","text","50","292998","0.0-31.0","90829758","wem/bandit_single","A1ZZ7YO3YASNIP","pain","4","32","","","","","","","","","","","","","","","","","","","","","","","","","",""
"548","","bandit","51","295052","0.0-32.0-0.0","90829758","wem/bandit_single","A1ZZ7YO3YASNIP","pain","4","","72","H","0","img/none_selected.jpg","0","1","0","0","0.8","true","0","0","0.8","full_practice","0","0.2","0","0.6","0","0.2","","","","","",""
"68","","bandit","52","296875","0.0-32.0-1.0","90829758","wem/bandit_single","A1ZZ7YO3YASNIP","pain","4","","72","H","0","img/none_selected.jpg","0","0","1","0","0.8","true","0","0","0.8","full_practice","0","0.2","0","0.6","0","0.2","","","","","",""
"101","","bandit","53","298731","0.0-32.0-2.0","90829758","wem/bandit_single","A1ZZ7YO3YASNIP","pain","4","","75","K","2","","0","1","0","0","0.6","true","0","0","0.8","full_practice","0","0.2","0","0.6","0","0.2","","","","","",""
"85","","bandit","54","300571","0.0-32.0-3.0","90829758","wem/bandit_single","A1ZZ7YO3YASNIP","pain","4","","75","K","2","","0","0","1","0","0.6","true","0","0","0.8","full_practice","0","0.2","0","0.6","0","0.2","","","","","",""
"429","","bandit","55","302756","0.0-32.0-4.0","90829758","wem/bandit_single","A1ZZ7YO3YASNIP","pain","4","","76","L","3","","0","1","0","0","0.2","true","0","0","0.8","full_practice","0","0.2","0","0.6","0","0.2","","","","","",""
"490","","bandit","56","305005","0.0-32.0-5.0","90829758","wem/bandit_single","A1ZZ7YO3YASNIP","pain","4","","74","J","1","","0","0","1","0","0.2","true","0","0","0.8","full_practice","0","0.2","0","0.6","0","0.2","","","","","",""
"83","","bandit","57","306844","0.0-32.0-6.0","90829758","wem/bandit_single","A1ZZ7YO3YASNIP","pain","4","","76","L","3","","0","1","0","0","0.2","true","0","0","0.8","full_practice","0","0.2","0","0.6","0","0.2","","","","","",""
"3","","bandit","58","308605","0.0-32.0-7.0","90829758","wem/bandit_single","A1ZZ7YO3YASNIP","pain","4","","76","L","3","","0","0","1","0","0.2","true","0","0","0.8","full_practice","0","0.2","0","0.6","0","0.2","","","","","",""
"267","","bandit","59","310628","0.0-32.0-8.0","90829758","wem/bandit_single","A1ZZ7YO3YASNIP","pain","4","","72","H","0","img/none_selected.jpg","0","1","0","0","0.8","true","0","0","0.8","full_practice","0","0.2","0","0.6","0","0.2","","","","","",""
"116","","bandit","60","312501","0.0-32.0-9.0","90829758","wem/bandit_single","A1ZZ7YO3YASNIP","pain","4","","72","H","0","img/none_selected.jpg","0","1","0","0","0.8","true","0","0","0.8","full_practice","0","0.2","0","0.6","0","0.2","","","","","",""
"562","","bandit","61","314820","0.0-32.0-10.0","90829758","wem/bandit_single","A1ZZ7YO3YASNIP","pain","4","","76","L","3","","0","0","1","0","0.2","true","0","0","0.8","full_practice","0","0.2","0","0.6","0","0.2","","","","","",""
"701","","bandit","62","317276","0.0-32.0-11.0","90829758","wem/bandit_single","A1ZZ7YO3YASNIP","pain","4","","75","K","2","","0","0","1","0","0.6","true","0","0","0.8","full_practice","0","0.2","0","0.6","0","0.2","","","","","",""
"411","","bandit","63","319443","0.0-32.0-12.0","90829758","wem/bandit_single","A1ZZ7YO3YASNIP","pain","4","","74","J","1","","0","0","1","0","0.2","true","0","0","0.8","full_practice","0","0.2","0","0.6","0","0.2","","","","","",""
"195","","bandit","64","321396","0.0-32.0-13.0","90829758","wem/bandit_single","A1ZZ7YO3YASNIP","pain","4","","76","L","3","","0","0","1","0","0.2","true","0","0","0.8","full_practice","0","0.2","0","0.6","0","0.2","","","","","",""
"173","","bandit","65","323324","0.0-32.0-14.0","90829758","wem/bandit_single","A1ZZ7YO3YASNIP","pain","4","","72","H","0","img/none_selected.jpg","0","1","0","0","0.8","true","0","0","0.8","full_practice","0","0.2","0","0.6","0","0.2","","","","","",""
"35","","bandit","66","325116","0.0-32.0-15.0","90829758","wem/bandit_single","A1ZZ7YO3YASNIP","pain","4","","72","H","0","img/none_selected.jpg","0","1","0","0","0.8","true","0","0","0.8","full_practice","0","0.2","0","0.6","0","0.2","","","","","",""
"44","","bandit","67","326916","0.0-32.0-16.0","90829758","wem/bandit_single","A1ZZ7YO3YASNIP","pain","4","","72","H","0","img/none_selected.jpg","0","0","1","0","0.8","true","0","0","0.8","full_practice","0","0.2","0","0.6","0","0.2","","","","","",""
"340","","bandit","68","329012","0.0-32.0-17.0","90829758","wem/bandit_single","A1ZZ7YO3YASNIP","pain","4","","74","J","1","","0","0","1","0","0.2","true","0","0","0.8","full_practice","0","0.2","0","0.6","0","0.2","","","","","",""
"91","","bandit","69","330860","0.0-32.0-18.0","90829758","wem/bandit_single","A1ZZ7YO3YASNIP","pain","4","","75","K","2","","0","1","0","0","0.6","true","0","0","0.8","full_practice","0","0.2","0","0.6","0","0.2","","","","","",""
"139","","bandit","70","332755","0.0-32.0-19.0","90829758","wem/bandit_single","A1ZZ7YO3YASNIP","pain","4","","75","K","2","","0","1","0","0","0.6","true","0","0","0.8","full_practice","0","0.2","0","0.6","0","0.2","","","","","",""
"12320","","text","71","345330","0.0-33.0","90829758","wem/bandit_single","A1ZZ7YO3YASNIP","pain","4","32","","","","","","","","","","","","","","","","","","","","","","","","","",""
"5839","","text","72","352183","0.0-34.0","90829758","wem/bandit_single","A1ZZ7YO3YASNIP","pain","4","32","","","","","","","","","","","","","","","","","","","","","","","","","",""
"1943","","text","73","354127","0.0-35.0","90829758","wem/bandit_single","A1ZZ7YO3YASNIP","pain","4","32","","","","","","","","","","","","","","","","","","","","","","","","","",""
"19440","","text","74","373577","0.0-36.0","90829758","wem/bandit_single","A1ZZ7YO3YASNIP","pain","4","32","","","","","","","","","","","","","","","","","","","","","","","","","",""
"1063","","text","75","374640","0.0-37.0","90829758","wem/bandit_single","A1ZZ7YO3YASNIP","pain","4","32","","","","","","","","","","","","","","","","","","","","","","","","","",""
"1295","","bandit","76","377437","0.0-38.0-0.0","90829758","wem/bandit_single","A1ZZ7YO3YASNIP","pain","4","","72","H","0","img/none_selected.jpg","0","0","1","","0.1534711312","false","1","","0.1534711312","main_expt","","0.2633340886","","0.1530555908","","0.04789219489","","","","","",""
"212","","bandit","77","379412","0.0-39.0-0.0","90829758","wem/bandit_single","A1ZZ7YO3YASNIP","pain","4","","75","K","2","","0","0","1","","0.103598712","false","2","","0.1140054314","main_expt","","0.288049036","","0.103598712","","0.06526788736","","","","","",""
"1061","","bandit","78","382237","0.0-40.0-0.0","90829758","wem/bandit_single","A1ZZ7YO3YASNIP","pain","4","","74","J","1","","0","1","0","","0.2979487298","false","3","","0.1012650834","main_expt","","0.2979487298","","0.08136741005","","0.04764418461","","","","","",""
"0","","bandit","79","384007","0.0-41.0-0.0","90829758","wem/bandit_single","A1ZZ7YO3YASNIP","pain","4","","74","J","1","","0","0","1","","0.3306303211","false","4","","0.09541256236","main_expt","","0.3306303211","","0.08723083084","","0.05056035824","","","","","",""
"35","","bandit","80","385802","0.0-42.0-0.0","90829758","wem/bandit_single","A1ZZ7YO3YASNIP","pain","4","","76","L","3","","0","0","1","","0.05944929255","false","5","","0.07842998328","main_expt","","0.2438199519","","0.1255982651","","0.05944929255","","","","","",""
"778","","bandit","81","388350","0.0-43.0-0.0","90829758","wem/bandit_single","A1ZZ7YO3YASNIP","pain","4","","75","K","2","","0","1","0","","0.09044777998","false","6","","0.09158282766","main_expt","","0.2362074668","","0.09044777998","","0.09562353852","","","","","",""
"337","","bandit","82","390447","0.0-44.0-0.0","90829758","wem/bandit_single","A1ZZ7YO3YASNIP","pain","4","","75","K","2","","0","0","1","","0.1067491613","false","7","","0.09712353232","main_expt","","0.2591683673","","0.1067491613","","0.08069121891","","","","","",""
"27","","bandit","83","392233","0.0-45.0-0.0","90829758","wem/bandit_single","A1ZZ7YO3YASNIP","pain","4","","74","J","1","","0","0","1","","0.2299415188","false","8","","0.08440361392","main_expt","","0.2299415188","","0.15597148","","0.07203927837","","","","","",""
"300","","bandit","84","394318","0.0-46.0-0.0","90829758","wem/bandit_single","A1ZZ7YO3YASNIP","pain","4","","72","H","0","img/none_selected.jpg","0","0","1","","0.102519384","false","9","","0.102519384","main_expt","","0.2057198223","","0.2250404859","","0.08219025907","","","","","",""
"85","","bandit","85","396173","0.0-47.0-0.0","90829758","wem/bandit_single","A1ZZ7YO3YASNIP","pain","4","","75","K","2","","0","0","1","","0.2205918947","false","10","","0.06157476224","main_expt","","0.2002554128","","0.2205918947","","0.06517742799","","","","","",""
"44","","bandit","86","397985","0.0-48.0-0.0","90829758","wem/bandit_single","A1ZZ7YO3YASNIP","pain","4","","76","L","3","","0","0","1","","0.0549201251","false","11","","0.05516119966","main_expt","","0.2390702858","","0.1999173076","","0.0549201251","","","","","",""
"231","","bandit","87","399977","0.0-49.0-0.0","90829758","wem/bandit_single","A1ZZ7YO3YASNIP","pain","4","","74","J","1","","0","1","0","","0.2309669968","false","12","","0.04311537102","main_expt","","0.2309669968","","0.2006159367","","0.0630283727","","","","","",""
"100","","bandit","88","401843","0.0-50.0-0.0","90829758","wem/bandit_single","A1ZZ7YO3YASNIP","pain","4","","74","J","1","","0","1","0","","0.2667386483","false","13","","0.03895599675","main_expt","","0.2667386483","","0.202674457","","0.07136250487","","","","","",""
"288","","bandit","89","403903","0.0-51.0-0.0","90829758","wem/bandit_single","A1ZZ7YO3YASNIP","pain","4","","74","J","1","","0","0","1","","0.2057326914","false","14","","0.03256744162","main_expt","","0.2057326914","","0.152812741","","0.07333211558","","","","","",""
"518","","bandit","90","406211","0.0-52.0-0.0","90829758","wem/bandit_single","A1ZZ7YO3YASNIP","pain","4","","74","J","1","","0","0","1","","0.2081585857","false","15","","0.01982065674","main_expt","","0.2081585857","","0.1648564856","","0.1154740655","","","","","",""
"2297","","bandit","91","410265","0.0-53.0-0.0","90829758","wem/bandit_single","A1ZZ7YO3YASNIP","pain","4","","74","J","1","","0","0","1","","0.1909184248","false","16","","0.04082574049","main_expt","","0.1909184248","","0.1619055423","","0.1011313391","","","","","",""
"120","","bandit","92","412159","0.0-54.0-0.0","90829758","wem/bandit_single","A1ZZ7YO3YASNIP","pain","4","","75","K","2","","0","0","1","","0.1651197045","false","17","","0.0363298649","main_expt","","0.2198432556","","0.1651197045","","0.1447019112","","","","","",""
"106","","bandit","93","414036","0.0-55.0-0.0","90829758","wem/bandit_single","A1ZZ7YO3YASNIP","pain","4","","76","L","3","","0","0","1","","0.1039364862","false","18","","0.07917382237","main_expt","","0.2347766335","","0.1079041081","","0.1039364862","","","","","",""
"191","","bandit","94","415990","0.0-56.0-0.0","90829758","wem/bandit_single","A1ZZ7YO3YASNIP","pain","4","","72","H","0","img/none_selected.jpg","0","1","0","","0.08476555987","false","19","","0.08476555987","main_expt","","0.24668571","","0.1059999363","","0.08759831402","","","","","",""
"1054","","bandit","95","418802","0.0-57.0-0.0","90829758","wem/bandit_single","A1ZZ7YO3YASNIP","pain","4","","72","H","0","img/none_selected.jpg","0","0","1","","0.04047152317","false","20","","0.04047152317","main_expt","","0.2355281317","","0.1197169881","","0.08010338479","","","","","",""
"442","","bandit","96","421010","0.0-58.0-0.0","90829758","wem/bandit_single","A1ZZ7YO3YASNIP","pain","4","","72","H","0","img/none_selected.jpg","0","0","1","","0.07021106672","false","21","","0.07021106672","main_expt","","0.2290721377","","0.1338215077","","0.07820488182","","","","","",""
"696","","bandit","97","423469","0.0-59.0-0.0","90829758","wem/bandit_single","A1ZZ7YO3YASNIP","pain","4","","72","H","0","img/none_selected.jpg","0","0","1","","0.08794503477","false","22","","0.08794503477","main_expt","","0.1982968879","","0.1691749215","","0.06301774499","","","","","",""
"881","","bandit","98","426117","0.0-60.0-0.0","90829758","wem/bandit_single","A1ZZ7YO3YASNIP","pain","4","","74","J","1","","0","1","0","","0.1991555028","false","23","","0.07274518233","main_expt","","0.1991555028","","0.2100599157","","0.04380944514","","","","","",""
"628","","bandit","99","428511","0.0-61.0-0.0","90829758","wem/bandit_single","A1ZZ7YO3YASNIP","pain","4","","74","J","1","","0","1","0","","0.1700743611","false","24","","0.09602528561","main_expt","","0.1700743611","","0.1763606332","","0.04485861341","","","","","",""
"2217","","bandit","100","432500","0.0-62.0-0.0","90829758","wem/bandit_single","A1ZZ7YO3YASNIP","pain","4","","74","J","1","","0","0","1","","0.2303117276","false","25","","0.07148754983","main_expt","","0.2303117276","","0.1155065599","","0.08350983839","","","","","",""
"748","","bandit","101","435010","0.0-63.0-0.0","90829758","wem/bandit_single","A1ZZ7YO3YASNIP","pain","4","","74","J","1","","0","1","0","","0.2615068669","false","26","","0.05591681381","main_expt","","0.2615068669","","0.08411514459","","0.04946014148","","","","","",""
"7066","","bandit","102","443840","0.0-64.0-0.0","90829758","wem/bandit_single","A1ZZ7YO3YASNIP","pain","4","","74","J","1","","0","1","0","","0.2108316327","false","27","","0.06488914964","main_expt","","0.2108316327","","0.1192049255","","0.07008172503","","","","","",""
"312","","bandit","103","445924","0.0-65.0-0.0","90829758","wem/bandit_single","A1ZZ7YO3YASNIP","pain","4","","74","J","1","","0","0","1","","0.2616222854","false","28","","0.07067710387","main_expt","","0.2616222854","","0.1530516972","","0.09766989806","","","","","",""
"414","","bandit","104","448113","0.0-66.0-0.0","90829758","wem/bandit_single","A1ZZ7YO3YASNIP","pain","4","","75","K","2","","0","0","1","","0.1243035263","false","29","","0.06184318105","main_expt","","0.2754145478","","0.1243035263","","0.1020433103","","","","","",""
"763","","bandit","105","450640","0.0-67.0-0.0","90829758","wem/bandit_single","A1ZZ7YO3YASNIP","pain","4","","75","K","2","","0","0","1","","0.2106934108","false","30","","0.06562203124","main_expt","","0.3091083038","","0.2106934108","","0.1128186897","","","","","",""
"6084","","bandit","106","458489","0.0-68.0-0.0","90829758","wem/bandit_single","A1ZZ7YO3YASNIP","pain","4","","75","K","2","","0","0","1","","0.269819176","false","31","","0.06340423818","main_expt","","0.3032558385","","0.269819176","","0.1021038766","","","","","",""
"702","","bandit","107","460959","0.0-69.0-0.0","90829758","wem/bandit_single","A1ZZ7YO3YASNIP","pain","4","","76","L","3","","0","0","1","","0.1010238501","false","32","","0.08582013972","main_expt","","0.3160124579","","0.2415851803","","0.1010238501","","","","","",""
"1212","","bandit","108","463928","0.0-70.0-0.0","90829758","wem/bandit_single","A1ZZ7YO3YASNIP","pain","4","","75","K","2","","0","0","1","","0.2754451294","false","33","","0.1020351259","main_expt","","0.355825184","","0.2754451294","","0.0674926465","","","","","",""
"821","","bandit","109","466490","0.0-71.0-0.0","90829758","wem/bandit_single","A1ZZ7YO3YASNIP","pain","4","","75","K","2","","0","1","0","","0.3566428969","false","34","","0.07925884201","main_expt","","0.3380280112","","0.3566428969","","0.1007783216","","","","","",""
"476","","bandit","110","468722","0.0-72.0-0.0","90829758","wem/bandit_single","A1ZZ7YO3YASNIP","pain","4","","75","K","2","","0","0","1","","0.2652811253","false","35","","0.06071167626","main_expt","","0.3772093912","","0.2652811253","","0.09542819821","","","","","",""
"1851","","bandit","111","472339","0.0-73.0-0.0","90829758","wem/bandit_single","A1ZZ7YO3YASNIP","pain","4","","74","J","1","","0","0","1","","0.3916459715","false","36","","0.05331310492","main_expt","","0.3916459715","","0.2472166127","","0.07425724813","","","","","",""
"803","","bandit","112","474906","0.0-74.0-0.0","90829758","wem/bandit_single","A1ZZ7YO3YASNIP","pain","4","","72","H","0","img/none_selected.jpg","0","0","1","","0.08395737389","false","37","","0.08395737389","main_expt","","0.3724196513","","0.2941536534","","0.07325651263","","","","","",""
"935","","bandit","113","477605","0.0-75.0-0.0","90829758","wem/bandit_single","A1ZZ7YO3YASNIP","pain","4","","72","H","0","img/none_selected.jpg","0","0","1","","0.07562804978","false","38","","0.07562804978","main_expt","","0.3885064771","","0.2850199379","","0.06058557764","","","","","",""
"539","","bandit","114","479912","0.0-76.0-0.0","90829758","wem/bandit_single","A1ZZ7YO3YASNIP","pain","4","","72","H","0","img/none_selected.jpg","0","0","1","","0.06339693541","false","39","","0.06339693541","main_expt","","0.4332305888","","0.2308750992","","0.05480529152","","","","","",""
"3333","","bandit","115","485016","0.0-77.0-0.0","90829758","wem/bandit_single","A1ZZ7YO3YASNIP","pain","4","","76","L","3","","0","0","1","","0.08480448704","false","40","","0.07741261751","main_expt","","0.4320021358","","0.2166928419","","0.08480448704","","","","","",""
"380","","bandit","116","487152","0.0-78.0-0.0","90829758","wem/bandit_single","A1ZZ7YO3YASNIP","pain","4","","76","L","3","","0","0","1","","0.07863220129","false","41","","0.08199889575","main_expt","","0.4378374231","","0.222341992","","0.07863220129","","","","","",""
"2329","","bandit","117","491244","0.0-79.0-0.0","90829758","wem/bandit_single","A1ZZ7YO3YASNIP","pain","4","","76","L","3","","0","1","0","","0.07947159818","false","42","","0.1252939417","main_expt","","0.4138470733","","0.2420609394","","0.07947159818","","","","","",""
"588","","bandit","118","493592","0.0-80.0-0.0","90829758","wem/bandit_single","A1ZZ7YO3YASNIP","pain","4","","76","L","3","","0","0","1","","0.0747194724","false","43","","0.1464491551","main_expt","","0.3618848001","","0.2683234569","","0.0747194724","","","","","",""
"683","","bandit","119","496034","0.0-81.0-0.0","90829758","wem/bandit_single","A1ZZ7YO3YASNIP","pain","4","","72","H","0","img/none_selected.jpg","0","0","1","","0.1846315016","false","44","","0.1846315016","main_expt","","0.3902132048","","0.2592073096","","0.06873866496","","","","","",""
"242","","bandit","120","498032","0.0-82.0-0.0","90829758","wem/bandit_single","A1ZZ7YO3YASNIP","pain","4","","72","H","0","img/none_selected.jpg","0","0","1","","0.1454302639","false","45","","0.1454302639","main_expt","","0.370584769","","0.258850709","","0.05624711086","","","","","",""
"3323","","bandit","121","503112","0.0-83.0-0.0","90829758","wem/bandit_single","A1ZZ7YO3YASNIP","pain","4","","72","H","0","img/none_selected.jpg","0","0","1","","0.1420401956","false","46","","0.1420401956","main_expt","","0.3416192418","","0.2162528617","","0.06710767933","","","","","",""
"379","","bandit","122","505248","0.0-84.0-0.0","90829758","wem/bandit_single","A1ZZ7YO3YASNIP","pain","4","","72","H","0","img/none_selected.jpg","0","1","0","","0.2049545467","false","47","","0.2049545467","main_expt","","0.3254497978","","0.1380472806","","0.05828218186","","","","","",""
"2436","","bandit","123","509442","0.0-85.0-0.0","90829758","wem/bandit_single","A1ZZ7YO3YASNIP","pain","4","","74","J","1","","0","1","0","","0.3438960799","false","48","","0.1608881285","main_expt","","0.3438960799","","0.1673270425","","0.1161016377","","","","","",""
"606","","bandit","124","511808","0.0-86.0-0.0","90829758","wem/bandit_single","A1ZZ7YO3YASNIP","pain","4","","74","J","1","","0","1","0","","0.3405395495","false","49","","0.2001806823","main_expt","","0.3405395495","","0.1637821127","","0.1135844416","","","","","",""
"1826","","bandit","125","515392","0.0-87.0-0.0","90829758","wem/bandit_single","A1ZZ7YO3YASNIP","pain","4","","74","J","1","","0","0","1","","0.3305224856","false","50","","0.2061381611","main_expt","","0.3305224856","","0.1826101584","","0.1646239324","","","","","",""
"4387","","bandit","126","521536","0.0-88.0-0.0","90829758","wem/bandit_single","A1ZZ7YO3YASNIP","pain","4","","74","J","1","","0","1","0","","0.2304924019","false","51","","0.2369791141","main_expt","","0.2304924019","","0.2270371056","","0.1699716213","","","","","",""
"762","","bandit","127","524056","0.0-89.0-0.0","90829758","wem/bandit_single","A1ZZ7YO3YASNIP","pain","4","","74","J","1","","0","0","1","","0.2832256505","false","52","","0.2378663067","main_expt","","0.2832256505","","0.2203225001","","0.1762937123","","","","","",""
"563","","bandit","128","526376","0.0-90.0-0.0","90829758","wem/bandit_single","A1ZZ7YO3YASNIP","pain","4","","75","K","2","","0","0","1","","0.2776849753","false","53","","0.2063519028","main_expt","","0.2391441838","","0.2776849753","","0.2287193473","","","","","",""
"4900","","bandit","129","533040","0.0-91.0-0.0","90829758","wem/bandit_single","A1ZZ7YO3YASNIP","pain","4","","75","K","2","","0","0","1","","0.2454572706","false","54","","0.2439582882","main_expt","","0.2697071588","","0.2454572706","","0.2356834932","","","","","",""
"614","","bandit","130","535472","0.0-92.0-0.0","90829758","wem/bandit_single","A1ZZ7YO3YASNIP","pain","4","","76","L","3","","0","0","1","","0.306547883","false","55","","0.2381950618","main_expt","","0.2875326611","","0.2382153161","","0.306547883","","","","","",""
"2312","","bandit","131","539556","0.0-93.0-0.0","90829758","wem/bandit_single","A1ZZ7YO3YASNIP","pain","4","","76","L","3","","0","0","1","","0.2853582168","false","56","","0.1800346575","main_expt","","0.2854258916","","0.1960908288","","0.2853582168","","","","","",""
"434","","bandit","132","541759","0.0-94.0-0.0","90829758","wem/bandit_single","A1ZZ7YO3YASNIP","pain","4","","72","H","0","img/none_selected.jpg","0","1","0","","0.2336203315","false","57","","0.2336203315","main_expt","","0.3445045135","","0.2042340564","","0.2834250679","","","","","",""
"11819","","bandit","133","555338","0.0-95.0-0.0","90829758","wem/bandit_single","A1ZZ7YO3YASNIP","pain","4","","72","H","0","img/none_selected.jpg","0","0","1","","0.189887459","false","58","","0.189887459","main_expt","","0.3390226593","","0.1490893454","","0.2690284398","","","","","",""
"411","","bandit","134","557526","0.0-96.0-0.0","90829758","wem/bandit_single","A1ZZ7YO3YASNIP","pain","4","","72","H","0","img/none_selected.jpg","0","0","1","","0.1548607402","false","59","","0.1548607402","main_expt","","0.2666291788","","0.1581154669","","0.2616697142","","","","","",""
"143","","bandit","135","559425","0.0-97.0-0.0","90829758","wem/bandit_single","A1ZZ7YO3YASNIP","pain","4","","74","J","1","","0","0","1","","0.246985882","false","60","","0.1233285174","main_expt","","0.246985882","","0.1715954381","","0.2704186185","","","","","",""
"9644","","bandit","136","570845","0.0-98.0-0.0","90829758","wem/bandit_single","A1ZZ7YO3YASNIP","pain","4","","76","L","3","","0","0","1","","0.3376037184","false","61","","0.186549837","main_expt","","0.2171589204","","0.1999420892","","0.3376037184","","","","","",""
"572","","bandit","137","573190","0.0-99.0-0.0","90829758","wem/bandit_single","A1ZZ7YO3YASNIP","pain","4","","75","K","2","","0","1","0","","0.1539309088","false","62","","0.1420872584","main_expt","","0.2677831299","","0.1539309088","","0.3098521258","","","","","",""
"18616","","bandit","138","593579","0.0-100.0-0.0","90829758","wem/bandit_single","A1ZZ7YO3YASNIP","pain","4","","74","J","1","","0","0","1","","0.2303454974","false","63","","0.151707711","main_expt","","0.2303454974","","0.1085632924","","0.3137631198","","","","","",""
"739","","bandit","139","596084","0.0-101.0-0.0","90829758","wem/bandit_single","A1ZZ7YO3YASNIP","pain","4","","74","J","1","","0","0","1","","0.196947777","false","64","","0.1474827626","main_expt","","0.196947777","","0.1370187426","","0.3179430645","","","","","",""
"1197","","bandit","140","599045","0.0-102.0-0.0","90829758","wem/bandit_single","A1ZZ7YO3YASNIP","pain","4","","74","J","1","","0","1","0","","0.1645630622","false","65","","0.1746529425","main_expt","","0.1645630622","","0.1322062037","","0.2980330155","","","","","",""
"48","","bandit","141","600858","0.0-103.0-0.0","90829758","wem/bandit_single","A1ZZ7YO3YASNIP","pain","4","","74","J","1","","0","0","1","","0.1533283495","false","66","","0.1310865155","main_expt","","0.1533283495","","0.1496501041","","0.2537140377","","","","","",""
"68","","bandit","142","602694","0.0-104.0-0.0","90829758","wem/bandit_single","A1ZZ7YO3YASNIP","pain","4","","75","K","2","","0","0","1","","0.1626820295","false","67","","0.1370872981","main_expt","","0.1708403009","","0.1626820295","","0.2153704701","","","","","",""
"584","","bandit","143","605049","0.0-105.0-0.0","90829758","wem/bandit_single","A1ZZ7YO3YASNIP","pain","4","","76","L","3","","0","1","0","","0.2417705853","false","68","","0.09914494933","main_expt","","0.1887917493","","0.1989514297","","0.2417705853","","","","","",""
"346","","bandit","144","607155","0.0-106.0-0.0","90829758","wem/bandit_single","A1ZZ7YO3YASNIP","pain","4","","76","L","3","","0","1","0","","0.3235463827","false","69","","0.1092411584","main_expt","","0.2160515082","","0.1888867792","","0.3235463827","","","","","",""
"1199","","bandit","145","610127","0.0-107.0-0.0","90829758","wem/bandit_single","A1ZZ7YO3YASNIP","pain","4","","76","L","3","","0","1","0","","0.3647615206","false","70","","0.1213917008","main_expt","","0.2778565133","","0.1767550628","","0.3647615206","","","","","",""
"962","","bandit","146","612854","0.0-108.0-0.0","90829758","wem/bandit_single","A1ZZ7YO3YASNIP","pain","4","","76","L","3","","0","0","1","","0.3472934012","false","71","","0.1479005197","main_expt","","0.2623699359","","0.1253641033","","0.3472934012","","","","","",""
"187","","bandit","147","614804","0.0-109.0-0.0","90829758","wem/bandit_single","A1ZZ7YO3YASNIP","pain","4","","75","K","2","","0","0","1","","0.1319365506","false","72","","0.1931369739","main_expt","","0.2574081817","","0.1319365506","","0.2965124106","","","","","",""
"2235","","bandit","148","618802","0.0-110.0-0.0","90829758","wem/bandit_single","A1ZZ7YO3YASNIP","pain","4","","74","J","1","","0","0","1","","0.2503470883","false","73","","0.1900103681","main_expt","","0.2503470883","","0.1061905376","","0.2823595977","","","","","",""
"358","","bandit","149","620924","0.0-111.0-0.0","90829758","wem/bandit_single","A1ZZ7YO3YASNIP","pain","4","","72","H","0","img/none_selected.jpg","0","0","1","","0.1344428369","false","74","","0.1344428369","main_expt","","0.2710758316","","0.1303083533","","0.2835749375","","","","","",""
"144","","bandit","150","622893","0.0-112.0-0.0","90829758","wem/bandit_single","A1ZZ7YO3YASNIP","pain","4","","75","K","2","","0","1","0","","0.1359111238","false","75","","0.1528357022","main_expt","","0.260759121","","0.1359111238","","0.3526847528","","","","","",""
"78","","bandit","151","624748","0.0-113.0-0.0","90829758","wem/bandit_single","A1ZZ7YO3YASNIP","pain","4","","76","L","3","","0","0","1","","0.3434196486","false","76","","0.1898592508","main_expt","","0.2610050464","","0.1128391495","","0.3434196486","","","","","",""
"282","","bandit","152","626801","0.0-114.0-0.0","90829758","wem/bandit_single","A1ZZ7YO3YASNIP","pain","4","","75","K","2","","0","0","1","","0.1118044987","false","77","","0.191464519","main_expt","","0.1920601856","","0.1118044987","","0.3073782559","","","","","",""
"108","","bandit","153","628678","0.0-115.0-0.0","90829758","wem/bandit_single","A1ZZ7YO3YASNIP","pain","4","","74","J","1","","0","1","0","","0.1726035312","false","78","","0.2665821314","main_expt","","0.1726035312","","0.1315400358","","0.3200097729","","","","","",""
"322","","bandit","154","630763","0.0-116.0-0.0","90829758","wem/bandit_single","A1ZZ7YO3YASNIP","pain","4","","74","J","1","","0","0","1","","0.1974193715","false","79","","0.2510402579","main_expt","","0.1974193715","","0.1421279646","","0.3406321397","","","","","",""
"428","","bandit","155","632965","0.0-117.0-0.0","90829758","wem/bandit_single","A1ZZ7YO3YASNIP","pain","4","","74","J","1","","0","1","0","","0.1771423485","false","80","","0.2803090616","main_expt","","0.1771423485","","0.1666910293","","0.2934749235","","","","","",""
"44669","","bandit","156","679393","0.0-118.0-0.0","90829758","wem/bandit_single","A1ZZ7YO3YASNIP","pain","4","","74","J","1","","0","0","1","","0.1689426189","false","81","","0.3053401272","main_expt","","0.1689426189","","0.1514130178","","0.3080678564","","","","","",""
"2137","","bandit","157","683294","0.0-119.0-0.0","90829758","wem/bandit_single","A1ZZ7YO3YASNIP","pain","4","","74","J","1","","0","0","1","","0.2008945118","false","82","","0.3079009489","main_expt","","0.2008945118","","0.1667518413","","0.3118316764","","","","","",""
"1411","","bandit","158","686472","0.0-120.0-0.0","90829758","wem/bandit_single","A1ZZ7YO3YASNIP","pain","4","","74","J","1","","0","0","1","","0.2679993971","false","83","","0.3294465445","main_expt","","0.2679993971","","0.1620161121","","0.2539803618","","","","","",""
"1253","","bandit","159","689490","0.0-121.0-0.0","90829758","wem/bandit_single","A1ZZ7YO3YASNIP","pain","4","","74","J","1","","0","0","1","","0.2187304288","false","84","","0.3567704092","main_expt","","0.2187304288","","0.1920696542","","0.2665148507","","","","","",""
"1293","","bandit","160","692558","0.0-122.0-0.0","90829758","wem/bandit_single","A1ZZ7YO3YASNIP","pain","4","","75","K","2","","0","0","1","","0.1790321084","false","85","","0.3637986046","main_expt","","0.2668074714","","0.1790321084","","0.2638978108","","","","","",""
"32581","","bandit","161","726910","0.0-123.0-0.0","90829758","wem/bandit_single","A1ZZ7YO3YASNIP","pain","4","","72","H","0","img/none_selected.jpg","0","1","0","","0.3661817966","false","86","","0.3661817966","main_expt","","0.3011617684","","0.1644507099","","0.2430370424","","","","","",""
"276","","bandit","162","728959","0.0-124.0-0.0","90829758","wem/bandit_single","A1ZZ7YO3YASNIP","pain","4","","72","H","0","img/none_selected.jpg","0","0","1","","0.349996741","false","87","","0.349996741","main_expt","","0.2866912597","","0.1731377232","","0.2369050713","","","","","",""
"914","","bandit","163","731630","0.0-125.0-0.0","90829758","wem/bandit_single","A1ZZ7YO3YASNIP","pain","4","","72","H","0","img/none_selected.jpg","0","0","1","","0.3021468993","false","88","","0.3021468993","main_expt","","0.2921806028","","0.1562940882","","0.2322244834","","","","","",""
"8436","","bandit","164","741823","0.0-126.0-0.0","90829758","wem/bandit_single","A1ZZ7YO3YASNIP","pain","4","","72","H","0","img/none_selected.jpg","0","0","1","","0.2752269066","false","89","","0.2752269066","main_expt","","0.2877077994","","0.1344734597","","0.214722025","","","","","",""
"2858","","bandit","165","746438","0.0-127.0-0.0","90829758","wem/bandit_single","A1ZZ7YO3YASNIP","pain","4","","74","J","1","","0","0","1","","0.2390413286","false","90","","0.3172240337","main_expt","","0.2390413286","","0.1192135027","","0.1767670318","","","","","",""
"1042","","bandit","166","749238","0.0-128.0-0.0","90829758","wem/bandit_single","A1ZZ7YO3YASNIP","pain","4","","74","J","1","","0","0","1","","0.2582098676","false","91","","0.3049723864","main_expt","","0.2582098676","","0.1639104845","","0.1391375388","","","","","",""
"358","","bandit","167","751358","0.0-129.0-0.0","90829758","wem/bandit_single","A1ZZ7YO3YASNIP","pain","4","","75","K","2","","0","0","1","","0.1960431165","false","92","","0.3261529518","main_expt","","0.3066747335","","0.1960431165","","0.1283323985","","","","","",""
"16628","","bandit","168","769745","0.0-130.0-0.0","90829758","wem/bandit_single","A1ZZ7YO3YASNIP","pain","4","","72","H","0","img/none_selected.jpg","0","1","0","","0.3550538726","false","93","","0.3550538726","main_expt","","0.3051362106","","0.2137056669","","0.07538544447","","","","","",""
"262","","bandit","169","771775","0.0-131.0-0.0","90829758","wem/bandit_single","A1ZZ7YO3YASNIP","pain","4","","74","J","1","","0","1","0","","0.3433649514","false","94","","0.3335231974","main_expt","","0.3433649514","","0.2188004936","","0.07407963518","","","","","",""
"19035","","bandit","170","792569","0.0-132.0-0.0","90829758","wem/bandit_single","A1ZZ7YO3YASNIP","pain","4","","74","J","1","","0","0","1","","0.3638642947","false","95","","0.3060397856","main_expt","","0.3638642947","","0.2442185641","","0.06265185683","","","","","",""
"388","","bandit","171","794721","0.0-133.0-0.0","90829758","wem/bandit_single","A1ZZ7YO3YASNIP","pain","4","","75","K","2","","0","0","1","","0.2062156096","false","96","","0.3420618169","main_expt","","0.3433071503","","0.2062156096","","0.0626930361","","","","","",""
"765","","bandit","172","797246","0.0-134.0-0.0","90829758","wem/bandit_single","A1ZZ7YO3YASNIP","pain","4","","76","L","3","","0","0","1","","0.03702031205","false","97","","0.3451805041","main_expt","","0.3287523936","","0.1824441478","","0.03702031205","","","","","",""
"307","","bandit","173","799310","0.0-135.0-0.0","90829758","wem/bandit_single","A1ZZ7YO3YASNIP","pain","4","","74","J","1","","0","0","1","","0.3384657171","false","98","","0.3067376926","main_expt","","0.3384657171","","0.1741419228","","0.02896114516","","","","","",""
"218","","bandit","174","801289","0.0-136.0-0.0","90829758","wem/bandit_single","A1ZZ7YO3YASNIP","pain","4","","72","H","0","img/none_selected.jpg","0","0","1","","0.2980645096","false","99","","0.2980645096","main_expt","","0.3929596429","","0.1402348549","","0.04301278827","","","","","",""
"22431","","bandit","175","825491","0.0-137.0-0.0","90829758","wem/bandit_single","A1ZZ7YO3YASNIP","pain","4","","72","H","0","img/none_selected.jpg","0","0","1","","0.2862788702","false","100","","0.2862788702","main_expt","","0.3972918561","","0.1856728267","","0.03198738169","","","","","",""
"11562","","bandit","176","838830","0.0-138.0-0.0","90829758","wem/bandit_single","A1ZZ7YO3YASNIP","pain","4","","72","H","0","img/none_selected.jpg","0","0","1","","0.2622165861","false","101","","0.2622165861","main_expt","","0.4064604032","","0.1731032509","","0.03387094668","","","","","",""
"457","","bandit","177","841064","0.0-139.0-0.0","90829758","wem/bandit_single","A1ZZ7YO3YASNIP","pain","4","","76","L","3","","0","0","1","","0.0235124197","false","102","","0.3261799811","main_expt","","0.4273413635","","0.1387116465","","0.0235124197","","","","","",""
"272","","bandit","178","843116","0.0-140.0-0.0","90829758","wem/bandit_single","A1ZZ7YO3YASNIP","pain","4","","76","L","3","","0","0","1","","0.02482610326","false","103","","0.334814711","main_expt","","0.4566487837","","0.1880660303","","0.02482610326","","","","","",""
"184","","bandit","179","845075","0.0-141.0-0.0","90829758","wem/bandit_single","A1ZZ7YO3YASNIP","pain","4","","72","H","0","img/none_selected.jpg","0","1","0","","0.3486298313","false","104","","0.3486298313","main_expt","","0.459539636","","0.142060421","","0.03330094042","","","","","",""
"352","","bandit","180","847205","0.0-142.0-0.0","90829758","wem/bandit_single","A1ZZ7YO3YASNIP","pain","4","","72","H","0","img/none_selected.jpg","0","1","0","","0.3538911629","false","105","","0.3538911629","main_expt","","0.4462881264","","0.1839839798","","0.06543537915","","","","","",""
"383","","bandit","181","849354","0.0-143.0-0.0","90829758","wem/bandit_single","A1ZZ7YO3YASNIP","pain","4","","72","H","0","img/none_selected.jpg","0","1","0","","0.3886974852","false","106","","0.3886974852","main_expt","","0.4417011126","","0.1691947451","","0.07051160025","","","","","",""
"293","","bandit","182","851412","0.0-144.0-0.0","90829758","wem/bandit_single","A1ZZ7YO3YASNIP","pain","4","","76","L","3","","0","0","1","","0.08830456602","false","107","","0.3489433712","main_expt","","0.4419194373","","0.180010917","","0.08830456602","","","","","",""
"118","","bandit","183","853312","0.0-145.0-0.0","90829758","wem/bandit_single","A1ZZ7YO3YASNIP","pain","4","","72","H","0","img/none_selected.jpg","0","1","0","","0.3901728218","false","108","","0.3901728218","main_expt","","0.4061848383","","0.1338722415","","0.05921849724","","","","","",""
"2513","","bandit","184","857604","0.0-146.0-0.0","90829758","wem/bandit_single","A1ZZ7YO3YASNIP","pain","4","","72","H","0","img/none_selected.jpg","0","0","1","","0.4006799949","false","109","","0.4006799949","main_expt","","0.3906669636","","0.1350853679","","0.04581125366","","","","","",""
"245","","bandit","185","859633","0.0-147.0-0.0","90829758","wem/bandit_single","A1ZZ7YO3YASNIP","pain","4","","72","H","0","img/none_selected.jpg","0","0","1","","0.3867714499","false","110","","0.3867714499","main_expt","","0.3969614195","","0.184551263","","0.08345510588","","","","","",""
"26606","","bandit","186","888011","0.0-148.0-0.0","90829758","wem/bandit_single","A1ZZ7YO3YASNIP","pain","4","","72","H","0","img/none_selected.jpg","0","1","0","","0.4252141842","false","111","","0.4252141842","main_expt","","0.370186674","","0.2635344293","","0.07355878572","","","","","",""
"586","","bandit","187","890355","0.0-149.0-0.0","90829758","wem/bandit_single","A1ZZ7YO3YASNIP","pain","4","","72","H","0","img/none_selected.jpg","0","0","1","","0.4197282726","false","112","","0.4197282726","main_expt","","0.3488043283","","0.2972025743","","0.09226575929","","","","","",""
"3962","","bandit","188","896094","0.0-150.0-0.0","90829758","wem/bandit_single","A1ZZ7YO3YASNIP","pain","4","","72","H","0","img/none_selected.jpg","0","0","1","","0.4371411526","false","113","","0.4371411526","main_expt","","0.2886117592","","0.2853398636","","0.07711661396","","","","","",""
"2939","","bandit","189","900813","0.0-151.0-0.0","90829758","wem/bandit_single","A1ZZ7YO3YASNIP","pain","4","","72","H","0","img/none_selected.jpg","0","1","0","","0.4523407119","false","114","","0.4523407119","main_expt","","0.3507025671","","0.2354235092","","0.09366406151","","","","","",""
"765","","bandit","190","903343","0.0-152.0-0.0","90829758","wem/bandit_single","A1ZZ7YO3YASNIP","pain","4","","72","H","0","img/none_selected.jpg","0","0","1","","0.4544977282","false","115","","0.4544977282","main_expt","","0.3308051733","","0.2228923984","","0.09297781317","","","","","",""
"7415","","bandit","191","912541","0.0-153.0-0.0","90829758","wem/bandit_single","A1ZZ7YO3YASNIP","pain","4","","72","H","0","img/none_selected.jpg","0","1","0","","0.4458191396","false","116","","0.4458191396","main_expt","","0.2696902145","","0.182615248","","0.09292735615","","","","","",""
"3799","","bandit","192","918115","0.0-154.0-0.0","90829758","wem/bandit_single","A1ZZ7YO3YASNIP","pain","4","","72","H","0","img/none_selected.jpg","0","1","0","","0.4384124693","false","117","","0.4384124693","main_expt","","0.3048340551","","0.1702457594","","0.1277349031","","","","","",""
"1330","","bandit","193","921195","0.0-155.0-0.0","90829758","wem/bandit_single","A1ZZ7YO3YASNIP","pain","4","","72","H","0","img/none_selected.jpg","0","1","0","","0.4590850855","false","118","","0.4590850855","main_expt","","0.2682044258","","0.2075823826","","0.1057820856","","","","","",""
"5137","","bandit","194","928099","0.0-156.0-0.0","90829758","wem/bandit_single","A1ZZ7YO3YASNIP","pain","4","","72","H","0","img/none_selected.jpg","0","0","1","","0.4718937063","false","119","","0.4718937063","main_expt","","0.2314514612","","0.2281388084","","0.08453932314","","","","","",""
"173","","bandit","195","930045","0.0-157.0-0.0","90829758","wem/bandit_single","A1ZZ7YO3YASNIP","pain","4","","75","K","2","","0","1","0","","0.2620651535","false","120","","0.4645470247","main_expt","","0.197474053","","0.2620651535","","0.1106897037","","","","","",""
"359","","bandit","196","932178","0.0-158.0-0.0","90829758","wem/bandit_single","A1ZZ7YO3YASNIP","pain","4","","75","K","2","","0","0","1","","0.2953433235","false","121","","0.4422277234","main_expt","","0.1819521248","","0.2953433235","","0.1200625234","","","","","",""
"1676","","bandit","197","935620","0.0-159.0-0.0","90829758","wem/bandit_single","A1ZZ7YO3YASNIP","pain","4","","75","K","2","","0","1","0","","0.2702367277","false","122","","0.4150525319","main_expt","","0.171732915","","0.2702367277","","0.1570760405","","","","","",""
"6538","","bandit","198","943921","0.0-160.0-0.0","90829758","wem/bandit_single","A1ZZ7YO3YASNIP","pain","4","","75","K","2","","0","1","0","","0.3190818872","false","123","","0.4356762379","main_expt","","0.1577660673","","0.3190818872","","0.1616024906","","","","","",""
"4553","","bandit","199","950240","0.0-161.0-0.0","90829758","wem/bandit_single","A1ZZ7YO3YASNIP","pain","4","","75","K","2","","0","0","1","","0.3415455108","false","124","","0.4475351861","main_expt","","0.1384195938","","0.3415455108","","0.1371750093","","","","","",""
"3951","","bandit","200","955964","0.0-162.0-0.0","90829758","wem/bandit_single","A1ZZ7YO3YASNIP","pain","4","","75","K","2","","0","0","1","","0.3955313072","false","125","","0.4310995666","main_expt","","0.1367208018","","0.3955313072","","0.1293707667","","","","","",""
"14307","","bandit","201","972029","0.0-163.0-0.0","90829758","wem/bandit_single","A1ZZ7YO3YASNIP","pain","4","","75","K","2","","0","0","1","","0.4150522509","false","126","","0.4246911586","main_expt","","0.14570125","","0.4150522509","","0.1231453761","","","","","",""
"0","","bandit","202","973796","0.0-164.0-0.0","90829758","wem/bandit_single","A1ZZ7YO3YASNIP","pain","4","","74","J","1","","0","0","1","","0.116128816","false","127","","0.3855858577","main_expt","","0.116128816","","0.3803228979","","0.1044431599","","","","","",""
"20698","","bandit","203","996261","0.0-165.0-0.0","90829758","wem/bandit_single","A1ZZ7YO3YASNIP","pain","4","","74","J","1","","0","0","1","","0.1118736017","false","128","","0.3886900275","main_expt","","0.1118736017","","0.4028097642","","0.07509994275","","","","","",""
"652","","bandit","204","998693","0.0-166.0-0.0","90829758","wem/bandit_single","A1ZZ7YO3YASNIP","pain","4","","75","K","2","","0","1","0","","0.3759087187","false","129","","0.3712880315","main_expt","","0.1153634536","","0.3759087187","","0.07499531951","","","","","",""
"9520","","bandit","205","1009987","0.0-167.0-0.0","90829758","wem/bandit_single","A1ZZ7YO3YASNIP","pain","4","","75","K","2","","0","0","1","","0.3578404683","false","130","","0.3163545042","main_expt","","0.09323577747","","0.3578404683","","0.06898381409","","","","","",""
"6346","","bandit","206","1018101","0.0-168.0-0.0","90829758","wem/bandit_single","A1ZZ7YO3YASNIP","pain","4","","75","K","2","","0","0","1","","0.3874222675","false","131","","0.3203759455","main_expt","","0.1064947735","","0.3874222675","","0.08255272978","","","","","",""
"6469","","bandit","207","1026339","0.0-169.0-0.0","90829758","wem/bandit_single","A1ZZ7YO3YASNIP","pain","4","","75","K","2","","0","0","1","","0.3773694481","false","132","","0.3128419263","main_expt","","0.1574274544","","0.3773694481","","0.06266196304","","","","","",""
"2002","","bandit","208","1030113","0.0-170.0-0.0","90829758","wem/bandit_single","A1ZZ7YO3YASNIP","pain","4","","75","K","2","","0","0","1","","0.3961249281","false","133","","0.3057041938","main_expt","","0.1613106331","","0.3961249281","","0.06584579886","","","","","",""
"578","","bandit","209","1032455","0.0-171.0-0.0","90829758","wem/bandit_single","A1ZZ7YO3YASNIP","pain","4","","74","J","1","","0","0","1","","0.1660744508","false","134","","0.2816585421","main_expt","","0.1660744508","","0.4152923946","","0.05935363428","","","","","",""
"10476","","bandit","210","1044708","0.0-172.0-0.0","90829758","wem/bandit_single","A1ZZ7YO3YASNIP","pain","4","","74","J","1","","0","0","1","","0.1973964499","false","135","","0.2955422992","main_expt","","0.1973964499","","0.4424865849","","0.05732645975","","","","","",""
"194","","bandit","211","1046718","0.0-173.0-0.0","90829758","wem/bandit_single","A1ZZ7YO3YASNIP","pain","4","","72","H","0","img/none_selected.jpg","0","0","1","","0.3509846551","false","136","","0.3509846551","main_expt","","0.1813196928","","0.4465543098","","0.07342087183","","","","","",""
"17699","","bandit","212","1066175","0.0-174.0-0.0","90829758","wem/bandit_single","A1ZZ7YO3YASNIP","pain","4","","72","H","0","img/none_selected.jpg","0","1","0","","0.3344410146","false","137","","0.3344410146","main_expt","","0.1859539446","","0.4520996047","","0.07676045657","","","","","",""
"237","","bandit","213","1068177","0.0-175.0-0.0","90829758","wem/bandit_single","A1ZZ7YO3YASNIP","pain","4","","72","H","0","img/none_selected.jpg","0","1","0","","0.2657268636","false","138","","0.2657268636","main_expt","","0.1014888705","","0.428300575","","0.09127868582","","","","","",""
"2704","","bandit","214","1072642","0.0-176.0-0.0","90829758","wem/bandit_single","A1ZZ7YO3YASNIP","pain","4","","72","H","0","img/none_selected.jpg","0","1","0","","0.2267955479","false","139","","0.2267955479","main_expt","","0.09034098631","","0.419833238","","0.1057771966","","","","","",""
"3686","","bandit","215","1078098","0.0-177.0-0.0","90829758","wem/bandit_single","A1ZZ7YO3YASNIP","pain","4","","72","H","0","img/none_selected.jpg","0","1","0","","0.2278141127","false","140","","0.2278141127","main_expt","","0.09102227313","","0.423721229","","0.1134354218","","","","","",""
"40329","","bandit","216","1120192","0.0-178.0-0.0","90829758","wem/bandit_single","A1ZZ7YO3YASNIP","pain","4","","72","H","0","img/none_selected.jpg","0","1","0","","0.23653477","false","141","","0.23653477","main_expt","","0.1095349378","","0.4382479885","","0.1205694848","","","","","",""
"3330","","bandit","217","1125294","0.0-179.0-0.0","90829758","wem/bandit_single","A1ZZ7YO3YASNIP","pain","4","","72","H","0","img/none_selected.jpg","0","0","1","","0.2155890047","false","142","","0.2155890047","main_expt","","0.1184068784","","0.4247465964","","0.1423721259","","","","","",""
"1803","","bandit","218","1128857","0.0-180.0-0.0","90829758","wem/bandit_single","A1ZZ7YO3YASNIP","pain","4","","72","H","0","img/none_selected.jpg","0","1","0","","0.2203428631","false","143","","0.2203428631","main_expt","","0.1056920569","","0.3978340057","","0.1199770031","","","","","",""
"8761","","bandit","219","1139388","0.0-181.0-0.0","90829758","wem/bandit_single","A1ZZ7YO3YASNIP","pain","4","","72","H","0","img/none_selected.jpg","0","0","1","","0.1834171178","false","144","","0.1834171178","main_expt","","0.1563123998","","0.4094639435","","0.1431068991","","","","","",""
"9681","","bandit","220","1150827","0.0-182.0-0.0","90829758","wem/bandit_single","A1ZZ7YO3YASNIP","pain","4","","72","H","0","img/none_selected.jpg","0","0","1","","0.2064693802","false","145","","0.2064693802","main_expt","","0.09088636348","","0.4198905501","","0.1630017245","","","","","",""
"1635","","bandit","221","1154237","0.0-183.0-0.0","90829758","wem/bandit_single","A1ZZ7YO3YASNIP","pain","4","","74","J","1","","0","0","1","","0.0827806059","false","146","","0.1342941172","main_expt","","0.0827806059","","0.4050886303","","0.145034553","","","","","",""
"392","","bandit","222","1156394","0.0-184.0-0.0","90829758","wem/bandit_single","A1ZZ7YO3YASNIP","pain","4","","75","K","2","","0","0","1","","0.3785891444","false","147","","0.1515740161","main_expt","","0.1149215639","","0.3785891444","","0.1488017726","","","","","",""
"6481","","bandit","223","1164653","0.0-185.0-0.0","90829758","wem/bandit_single","A1ZZ7YO3YASNIP","pain","4","","72","H","0","img/none_selected.jpg","0","1","0","","0.1212747878","false","148","","0.1212747878","main_expt","","0.1099148444","","0.3854511928","","0.1582677895","","","","","",""
"1303","","bandit","224","1167713","0.0-186.0-0.0","90829758","wem/bandit_single","A1ZZ7YO3YASNIP","pain","4","","72","H","0","img/none_selected.jpg","0","0","1","","0.08453377975","false","149","","0.08453377975","main_expt","","0.1127327795","","0.3928641012","","0.1647072654","","","","","",""
"3758","","bandit","225","1173249","0.0-187.0-0.0","90829758","wem/bandit_single","A1ZZ7YO3YASNIP","pain","4","","72","H","0","img/none_selected.jpg","0","0","1","","0.1060211344","false","150","","0.1060211344","main_expt","","0.1477728786","","0.3981420368","","0.1333243968","","","","","",""
"334","","bandit","226","1175356","0.0-188.0-0.0","90829758","wem/bandit_single","A1ZZ7YO3YASNIP","pain","4","","76","L","3","","0","0","1","","0.1232516149","false","151","","0.06473992137","main_expt","","0.1634569086","","0.3954234158","","0.1232516149","","","","","",""
"145","","bandit","227","1177266","0.0-189.0-0.0","90829758","wem/bandit_single","A1ZZ7YO3YASNIP","pain","4","","75","K","2","","0","1","0","","0.3684376671","false","152","","0.07847139908","main_expt","","0.2119786212","","0.3684376671","","0.1218764731","","","","","",""
"405","","bandit","228","1179424","0.0-190.0-0.0","90829758","wem/bandit_single","A1ZZ7YO3YASNIP","pain","4","","75","K","2","","0","0","1","","0.3586265296","false","153","","0.06170083269","main_expt","","0.190815194","","0.3586265296","","0.1181944444","","","","","",""
"562","","bandit","229","1181747","0.0-191.0-0.0","90829758","wem/bandit_single","A1ZZ7YO3YASNIP","pain","4","","75","K","2","","0","0","1","","0.3711835277","false","154","","0.07752027139","main_expt","","0.2539230859","","0.3711835277","","0.1524072167","","","","","",""
"1399","","bandit","230","1184905","0.0-192.0-0.0","90829758","wem/bandit_single","A1ZZ7YO3YASNIP","pain","4","","75","K","2","","0","0","1","","0.3296220366","false","155","","0.07430376846","main_expt","","0.2214647723","","0.3296220366","","0.2181316645","","","","","",""
"826","","bandit","231","1187502","0.0-193.0-0.0","90829758","wem/bandit_single","A1ZZ7YO3YASNIP","pain","4","","75","K","2","","0","0","1","","0.287903252","false","156","","0.05925504694","main_expt","","0.1812397975","","0.287903252","","0.213475765","","","","","",""
"3303","","bandit","232","1192586","0.0-194.0-0.0","90829758","wem/bandit_single","A1ZZ7YO3YASNIP","pain","4","","75","K","2","","0","1","0","","0.296290929","false","157","","0.0737155059","main_expt","","0.1447548225","","0.296290929","","0.2264995707","","","","","",""
"457","","bandit","233","1194803","0.0-195.0-0.0","90829758","wem/bandit_single","A1ZZ7YO3YASNIP","pain","4","","75","K","2","","0","0","1","","0.2721348168","false","158","","0.05755321342","main_expt","","0.1458137519","","0.2721348168","","0.2991482761","","","","","",""
"498","","bandit","234","1197072","0.0-196.0-0.0","90829758","wem/bandit_single","A1ZZ7YO3YASNIP","pain","4","","75","K","2","","0","0","1","","0.2765185667","false","159","","0.1007830752","main_expt","","0.1035755389","","0.2765185667","","0.3365391658","","","","","",""
"214","","bandit","235","1199035","0.0-197.0-0.0","90829758","wem/bandit_single","A1ZZ7YO3YASNIP","pain","4","","72","H","0","img/none_selected.jpg","0","0","1","","0.06149362121","false","160","","0.06149362121","main_expt","","0.1142027444","","0.3162688162","","0.313402929","","","","","",""
"2012","","bandit","236","1202826","0.0-198.0-0.0","90829758","wem/bandit_single","A1ZZ7YO3YASNIP","pain","4","","72","H","0","img/none_selected.jpg","0","0","1","","0.09516109007","false","161","","0.09516109007","main_expt","","0.1510988582","","0.3302336848","","0.3529908654","","","","","",""
"2121","","bandit","237","1206705","0.0-199.0-0.0","90829758","wem/bandit_single","A1ZZ7YO3YASNIP","pain","4","","72","H","0","img/none_selected.jpg","0","0","1","","0.08429007215","false","162","","0.08429007215","main_expt","","0.1720124831","","0.3622896815","","0.3608295961","","","","","",""
"4777","","bandit","238","1213246","0.0-200.0-0.0","90829758","wem/bandit_single","A1ZZ7YO3YASNIP","pain","4","","75","K","2","","0","0","1","","0.3696580379","false","163","","0.1199893575","main_expt","","0.2119433459","","0.3696580379","","0.4197284319","","","","","",""
"1104","","bandit","239","1216126","0.0-201.0-0.0","90829758","wem/bandit_single","A1ZZ7YO3YASNIP","pain","4","","72","H","0","img/none_selected.jpg","0","0","1","","0.1353867718","false","164","","0.1353867718","main_expt","","0.2413639604","","0.3217553384","","0.4162507976","","","","","",""
"10717","","bandit","240","1228609","0.0-202.0-0.0","90829758","wem/bandit_single","A1ZZ7YO3YASNIP","pain","4","","72","H","0","img/none_selected.jpg","0","1","0","","0.08700720397","false","165","","0.08700720397","main_expt","","0.3231443763","","0.2370356752","","0.424344073","","","","","",""
"1219","","bandit","241","1231593","0.0-203.0-0.0","90829758","wem/bandit_single","A1ZZ7YO3YASNIP","pain","4","","72","H","0","img/none_selected.jpg","0","0","1","","0.09613155095","false","166","","0.09613155095","main_expt","","0.2907209657","","0.1952619304","","0.4385436022","","","","","",""
"7117","","bandit","242","1240472","0.0-204.0-0.0","90829758","wem/bandit_single","A1ZZ7YO3YASNIP","pain","4","","72","H","0","img/none_selected.jpg","0","0","1","","0.08740230362","false","167","","0.08740230362","main_expt","","0.2386263765","","0.2008635704","","0.4428370211","","","","","",""
"562","","bandit","243","1242793","0.0-205.0-0.0","90829758","wem/bandit_single","A1ZZ7YO3YASNIP","pain","4","","75","K","2","","0","0","1","","0.2872582577","false","168","","0.1033010443","main_expt","","0.2802872421","","0.2872582577","","0.4475632301","","","","","",""
"16432","","bandit","244","1260984","0.0-206.0-0.0","90829758","wem/bandit_single","A1ZZ7YO3YASNIP","pain","4","","74","J","1","","0","0","1","","0.2858578204","false","169","","0.1288835215","main_expt","","0.2858578204","","0.2478638945","","0.4358894507","","","","","",""
"18357","","bandit","245","1281099","0.0-207.0-0.0","90829758","wem/bandit_single","A1ZZ7YO3YASNIP","pain","4","","72","H","0","img/none_selected.jpg","0","0","1","","0.0821831217","false","170","","0.0821831217","main_expt","","0.3542119366","","0.2335785199","","0.4401344765","","","","","",""
"35","","bandit","246","1282889","0.0-208.0-0.0","90829758","wem/bandit_single","A1ZZ7YO3YASNIP","pain","4","","72","H","0","img/none_selected.jpg","0","0","1","","0.08448133796","false","171","","0.08448133796","main_expt","","0.363516632","","0.263029084","","0.4182824287","","","","","",""
"1145","","bandit","247","1285798","0.0-209.0-0.0","90829758","wem/bandit_single","A1ZZ7YO3YASNIP","pain","4","","72","H","0","img/none_selected.jpg","0","0","1","","0.1142172702","false","172","","0.1142172702","main_expt","","0.3285232471","","0.282237019","","0.4206293302","","","","","",""
"3231","","bandit","248","1290788","0.0-210.0-0.0","90829758","wem/bandit_single","A1ZZ7YO3YASNIP","pain","4","","72","H","0","img/none_selected.jpg","0","0","1","","0.1585219493","false","173","","0.1585219493","main_expt","","0.3379934215","","0.2798091978","","0.4424673434","","","","","",""
"1038","","bandit","249","1293596","0.0-211.0-0.0","90829758","wem/bandit_single","A1ZZ7YO3YASNIP","pain","4","","74","J","1","","0","1","0","","0.2937018888","false","174","","0.2167008269","main_expt","","0.2937018888","","0.2782342077","","0.4470793942","","","","","",""
"6472","","bandit","250","1301836","0.0-212.0-0.0","90829758","wem/bandit_single","A1ZZ7YO3YASNIP","pain","4","","72","H","0","img/none_selected.jpg","0","0","1","","0.2564405216","false","175","","0.2564405216","main_expt","","0.2691073907","","0.3095951925","","0.4466152725","","","","","",""
"18425","","bandit","251","1322032","0.0-213.0-0.0","90829758","wem/bandit_single","A1ZZ7YO3YASNIP","pain","4","","75","K","2","","0","0","1","","0.3149167583","false","176","","0.2740916264","main_expt","","0.2797966768","","0.3149167583","","0.4622816701","","","","","",""
"1389","","bandit","252","1325198","0.0-214.0-0.0","90829758","wem/bandit_single","A1ZZ7YO3YASNIP","pain","4","","75","K","2","","0","1","0","","0.3057016371","false","177","","0.2701885048","main_expt","","0.2956207272","","0.3057016371","","0.4791174255","","","","","",""
"1526","","bandit","253","1328500","0.0-215.0-0.0","90829758","wem/bandit_single","A1ZZ7YO3YASNIP","pain","4","","75","K","2","","0","1","0","","0.2973749651","false","178","","0.2525299603","main_expt","","0.2903749226","","0.2973749651","","0.4878404122","","","","","",""
"1480","","bandit","254","1331745","0.0-216.0-0.0","90829758","wem/bandit_single","A1ZZ7YO3YASNIP","pain","4","","75","K","2","","0","0","1","","0.3205080684","false","179","","0.2923151224","main_expt","","0.2324022499","","0.3205080684","","0.4871204803","","","","","",""
"5049","","bandit","255","1338556","0.0-217.0-0.0","90829758","wem/bandit_single","A1ZZ7YO3YASNIP","pain","4","","75","K","2","","0","0","1","","0.3668921479","false","180","","0.2712435876","main_expt","","0.157369965","","0.3668921479","","0.4783768728","","","","","",""
"881","","bandit","256","1341198","0.0-218.0-0.0","90829758","wem/bandit_single","A1ZZ7YO3YASNIP","pain","4","","72","H","0","img/none_selected.jpg","0","1","0","","0.2911825171","false","181","","0.2911825171","main_expt","","0.1928111427","","0.36743573","","0.4791844977","","","","","",""
"1134","","bandit","257","1344118","0.0-219.0-0.0","90829758","wem/bandit_single","A1ZZ7YO3YASNIP","pain","4","","72","H","0","img/none_selected.jpg","0","0","1","","0.2812290194","false","182","","0.2812290194","main_expt","","0.1831473083","","0.3444330154","","0.4796326775","","","","","",""
"4189","","bandit","258","1350076","0.0-220.0-0.0","90829758","wem/bandit_single","A1ZZ7YO3YASNIP","pain","4","","75","K","2","","0","0","1","","0.376594699","false","183","","0.2998653002","main_expt","","0.1367876881","","0.376594699","","0.4610412729","","","","","",""
"17764","","bandit","259","1369612","0.0-221.0-0.0","90829758","wem/bandit_single","A1ZZ7YO3YASNIP","pain","4","","72","H","0","img/none_selected.jpg","0","1","0","","0.3019566185","false","184","","0.3019566185","main_expt","","0.1225312115","","0.3576767422","","0.4654872089","","","","","",""
"415","","bandit","260","1371792","0.0-222.0-0.0","90829758","wem/bandit_single","A1ZZ7YO3YASNIP","pain","4","","72","H","0","img/none_selected.jpg","0","0","1","","0.3297019868","false","185","","0.3297019868","main_expt","","0.1342014861","","0.3420219295","","0.4579605539","","","","","",""
"2681","","bandit","261","1376263","0.0-223.0-0.0","90829758","wem/bandit_single","A1ZZ7YO3YASNIP","pain","4","","72","H","0","img/none_selected.jpg","0","0","1","","0.3522504082","false","186","","0.3522504082","main_expt","","0.1302900424","","0.3398722127","","0.4285966985","","","","","",""
"3832","","bandit","262","1381873","0.0-224.0-0.0","90829758","wem/bandit_single","A1ZZ7YO3YASNIP","pain","4","","72","H","0","img/none_selected.jpg","0","0","1","","0.3716798598","false","187","","0.3716798598","main_expt","","0.1721475048","","0.3329123812","","0.4348535533","","","","","",""
"1702","","bandit","263","1385342","0.0-225.0-0.0","90829758","wem/bandit_single","A1ZZ7YO3YASNIP","pain","4","","72","H","0","img/none_selected.jpg","0","0","1","","0.3516931858","false","188","","0.3516931858","main_expt","","0.194848396","","0.3185375489","","0.4485299143","","","","","",""
"1243","","bandit","264","1388341","0.0-226.0-0.0","90829758","wem/bandit_single","A1ZZ7YO3YASNIP","pain","4","","74","J","1","","0","0","1","","0.2010474049","false","189","","0.311825216","main_expt","","0.2010474049","","0.2819885058","","0.4108460603","","","","","",""
"530","","bandit","265","1390642","0.0-227.0-0.0","90829758","wem/bandit_single","A1ZZ7YO3YASNIP","pain","4","","75","K","2","","0","0","1","","0.2938453289","false","190","","0.3228194114","main_expt","","0.2388592571","","0.2938453289","","0.4276881046","","","","","",""
"25885","","bandit","266","1418292","0.0-228.0-0.0","90829758","wem/bandit_single","A1ZZ7YO3YASNIP","pain","4","","75","K","2","","0","0","1","","0.3252392313","false","191","","0.3070679034","main_expt","","0.2125939305","","0.3252392313","","0.4252680513","","","","","",""
"491","","bandit","267","1420565","0.0-229.0-0.0","90829758","wem/bandit_single","A1ZZ7YO3YASNIP","pain","4","","74","J","1","","0","0","1","","0.2494953747","false","192","","0.3224985291","main_expt","","0.2494953747","","0.2886148476","","0.4128843357","","","","","",""
"338","","bandit","268","1422669","0.0-230.0-0.0","90829758","wem/bandit_single","A1ZZ7YO3YASNIP","pain","4","","75","K","2","","0","0","1","","0.2985788169","false","193","","0.3869795439","main_expt","","0.2831479201","","0.2985788169","","0.3935422506","","","","","",""
"884","","bandit","269","1425334","0.0-231.0-0.0","90829758","wem/bandit_single","A1ZZ7YO3YASNIP","pain","4","","75","K","2","","0","0","1","","0.2480640489","false","194","","0.4012627402","main_expt","","0.3119862296","","0.2480640489","","0.3844836544","","","","","",""
"4699","","bandit","270","1431807","0.0-232.0-0.0","90829758","wem/bandit_single","A1ZZ7YO3YASNIP","pain","4","","75","K","2","","0","0","1","","0.2512767584","false","195","","0.3984750166","main_expt","","0.3216729489","","0.2512767584","","0.3676726872","","","","","",""
"311","","bandit","271","1433888","0.0-233.0-0.0","90829758","wem/bandit_single","A1ZZ7YO3YASNIP","pain","4","","75","K","2","","0","0","1","","0.2465093633","false","196","","0.354698241","main_expt","","0.3321806914","","0.2465093633","","0.3789354293","","","","","",""
"12929","","bandit","272","1449319","0.0-234.0-0.0","90829758","wem/bandit_single","A1ZZ7YO3YASNIP","pain","4","","75","K","2","","0","0","1","","0.2064088789","false","197","","0.388220233","main_expt","","0.3046277309","","0.2064088789","","0.3163718389","","","","","",""
"88","","bandit","273","1451174","0.0-235.0-0.0","90829758","wem/bandit_single","A1ZZ7YO3YASNIP","pain","4","","75","K","2","","0","0","1","","0.1991167995","false","198","","0.3702696144","main_expt","","0.2780350238","","0.1991167995","","0.3791854339","","","","","",""
"142","","bandit","274","1453077","0.0-236.0-0.0","90829758","wem/bandit_single","A1ZZ7YO3YASNIP","pain","4","","76","L","3","","0","1","0","","0.3677616307","false","199","","0.3901406761","main_expt","","0.2933352516","","0.217931059","","0.3677616307","","","","","",""
"16","","bandit","275","1454870","0.0-237.0-0.0","90829758","wem/bandit_single","A1ZZ7YO3YASNIP","pain","4","","76","L","3","","0","0","1","","0.3696360463","false","200","","0.3606677237","main_expt","","0.2826656477","","0.1684289921","","0.3696360463","","","","","",""
"69","","bandit","276","1456708","0.0-238.0-0.0","90829758","wem/bandit_single","A1ZZ7YO3YASNIP","pain","4","","74","J","1","","0","1","0","","0.2337361703","false","201","","0.3608273241","main_expt","","0.2337361703","","0.1526494416","","0.3685313937","","","","","",""
"10","","bandit","277","1458478","0.0-239.0-0.0","90829758","wem/bandit_single","A1ZZ7YO3YASNIP","pain","4","","74","J","1","","0","0","1","","0.1697000529","false","202","","0.3495453025","main_expt","","0.1697000529","","0.1474087426","","0.354480527","","","","","",""
"1059","","bandit","278","1461314","0.0-240.0-0.0","90829758","wem/bandit_single","A1ZZ7YO3YASNIP","pain","4","","72","H","0","img/none_selected.jpg","0","0","1","","0.3660628182","false","203","","0.3660628182","main_expt","","0.1941246875","","0.1499100939","","0.3420940801","","","","","",""
"10","","bandit","279","1463092","0.0-241.0-0.0","90829758","wem/bandit_single","A1ZZ7YO3YASNIP","pain","4","","72","H","0","img/none_selected.jpg","0","0","1","","0.337040125","false","204","","0.337040125","main_expt","","0.2006574904","","0.173155318","","0.3365711719","","","","","",""
"48","","bandit","280","1464910","0.0-242.0-0.0","90829758","wem/bandit_single","A1ZZ7YO3YASNIP","pain","4","","72","H","0","img/none_selected.jpg","0","0","1","","0.303371863","false","205","","0.303371863","main_expt","","0.1905393187","","0.1813441082","","0.3517226909","","","","","",""
"10","","bandit","281","1466678","0.0-243.0-0.0","90829758","wem/bandit_single","A1ZZ7YO3YASNIP","pain","4","","75","K","2","","0","0","1","","0.1491413167","false","206","","0.256221391","main_expt","","0.1715448013","","0.1491413167","","0.3476038752","","","","","",""
"110","","bandit","282","1468565","0.0-244.0-0.0","90829758","wem/bandit_single","A1ZZ7YO3YASNIP","pain","4","","75","K","2","","0","0","1","","0.08847738283","false","207","","0.2368802791","main_expt","","0.1857981004","","0.08847738283","","0.3349551135","","","","","",""
"275","","bandit","283","1470607","0.0-245.0-0.0","90829758","wem/bandit_single","A1ZZ7YO3YASNIP","pain","4","","75","K","2","","0","0","1","","0.1283817583","false","208","","0.1949321076","main_expt","","0.2102455122","","0.1283817583","","0.342580335","","","","","",""
"369","","bandit","284","1472743","0.0-246.0-0.0","90829758","wem/bandit_single","A1ZZ7YO3YASNIP","pain","4","","72","H","0","img/none_selected.jpg","0","0","1","","0.1838736563","false","209","","0.1838736563","main_expt","","0.2400108979","","0.116273769","","0.3043768385","","","","","",""
"190","","bandit","285","1474699","0.0-247.0-0.0","90829758","wem/bandit_single","A1ZZ7YO3YASNIP","pain","4","","76","L","3","","0","0","1","","0.2578785415","false","210","","0.2021797606","main_expt","","0.2756077388","","0.1255054793","","0.2578785415","","","","","",""
"324","","bandit","286","1476784","0.0-248.0-0.0","90829758","wem/bandit_single","A1ZZ7YO3YASNIP","pain","4","","76","L","3","","0","0","1","","0.2684152162","false","211","","0.1724183734","main_expt","","0.2509099491","","0.1183517879","","0.2684152162","","","","","",""
"355","","bandit","287","1478901","0.0-249.0-0.0","90829758","wem/bandit_single","A1ZZ7YO3YASNIP","pain","4","","76","L","3","","0","0","1","","0.2734791169","false","212","","0.1730984207","main_expt","","0.1980821896","","0.05794836862","","0.2734791169","","","","","",""
"2252","","bandit","288","1482920","0.0-250.0-0.0","90829758","wem/bandit_single","A1ZZ7YO3YASNIP","pain","4","","76","L","3","","0","0","1","","0.2278558496","false","213","","0.1324166562","main_expt","","0.1925164192","","0.05975327623","","0.2278558496","","","","","",""
"59","","bandit","289","1484746","0.0-251.0-0.0","90829758","wem/bandit_single","A1ZZ7YO3YASNIP","pain","4","","72","H","0","img/none_selected.jpg","0","0","1","","0.1503769339","false","214","","0.1503769339","main_expt","","0.2265747235","","0.08438277685","","0.3028606466","","","","","",""
"127","","bandit","290","1486649","0.0-252.0-0.0","90829758","wem/bandit_single","A1ZZ7YO3YASNIP","pain","4","","72","H","0","img/none_selected.jpg","0","0","1","","0.1957560139","false","215","","0.1957560139","main_expt","","0.2019374621","","0.06249742642","","0.2931323275","","","","","",""
"356","","bandit","291","1488765","0.0-253.0-0.0","90829758","wem/bandit_single","A1ZZ7YO3YASNIP","pain","4","","72","H","0","img/none_selected.jpg","0","0","1","","0.2405167914","false","216","","0.2405167914","main_expt","","0.1789305456","","0.03962767808","","0.3496422565","","","","","",""
"875","","bandit","292","1491662","0.0-254.0-0.0","90829758","wem/bandit_single","A1ZZ7YO3YASNIP","pain","4","","76","L","3","","0","0","1","","0.3773047798","false","217","","0.1730494568","main_expt","","0.1749198907","","0.04234009702","","0.3773047798","","","","","",""
"8","","bandit","293","1493435","0.0-255.0-0.0","90829758","wem/bandit_single","A1ZZ7YO3YASNIP","pain","4","","72","H","0","img/none_selected.jpg","0","0","1","","0.194438436","false","218","","0.194438436","main_expt","","0.1735363699","","0.03503126556","","0.3416605923","","","","","",""
"115","","bandit","294","1495318","0.0-256.0-0.0","90829758","wem/bandit_single","A1ZZ7YO3YASNIP","pain","4","","72","H","0","img/none_selected.jpg","0","1","0","","0.1883779435","false","219","","0.1883779435","main_expt","","0.2007391453","","0.04555228435","","0.3559276739","","","","","",""
"0","","bandit","295","1497091","0.0-257.0-0.0","90829758","wem/bandit_single","A1ZZ7YO3YASNIP","pain","4","","72","H","0","img/none_selected.jpg","0","0","1","","0.146052069","false","220","","0.146052069","main_expt","","0.2082644318","","0.03183460319","","0.3535435837","","","","","",""
"10","","bandit","296","1498868","0.0-258.0-0.0","90829758","wem/bandit_single","A1ZZ7YO3YASNIP","pain","4","","72","H","0","img/none_selected.jpg","0","0","1","","0.1494285134","false","221","","0.1494285134","main_expt","","0.1821586712","","0.05071015327","","0.3418709783","","","","","",""
"323","","bandit","297","1500958","0.0-259.0-0.0","90829758","wem/bandit_single","A1ZZ7YO3YASNIP","pain","4","","75","K","2","","0","0","1","","0.04027023507","false","222","","0.182387278","main_expt","","0.2158533928","","0.04027023507","","0.3004905908","","","","","",""
"324","","bandit","298","1503059","0.0-260.0-0.0","90829758","wem/bandit_single","A1ZZ7YO3YASNIP","pain","4","","75","K","2","","0","0","1","","0.05247893246","false","223","","0.198140534","main_expt","","0.1832968935","","0.05247893246","","0.3691689592","","","","","",""
"40","","bandit","299","1504872","0.0-261.0-0.0","90829758","wem/bandit_single","A1ZZ7YO3YASNIP","pain","4","","76","L","3","","0","0","1","","0.2915556832","false","224","","0.1957066115","main_expt","","0.1701073256","","0.06352932029","","0.2915556832","","","","","",""
"81","","bandit","300","1506737","0.0-262.0-0.0","90829758","wem/bandit_single","A1ZZ7YO3YASNIP","pain","4","","74","J","1","","0","0","1","","0.1599508429","false","225","","0.2132826896","main_expt","","0.1599508429","","0.04388745626","","0.3175642321","","","","","",""
"0","","bandit","301","1508518","0.0-263.0-0.0","90829758","wem/bandit_single","A1ZZ7YO3YASNIP","pain","4","","75","K","2","","0","0","1","","0.0536624769","false","226","","0.2679811769","main_expt","","0.1801289829","","0.0536624769","","0.2803716623","","","","","",""
"402","","bandit","302","1510688","0.0-264.0-0.0","90829758","wem/bandit_single","A1ZZ7YO3YASNIP","pain","4","","76","L","3","","0","0","1","","0.2506224893","false","227","","0.2101601544","main_expt","","0.1920788888","","0.07211167966","","0.2506224893","","","","","",""
"9","","bandit","303","1512471","0.0-265.0-0.0","90829758","wem/bandit_single","A1ZZ7YO3YASNIP","pain","4","","72","H","0","img/none_selected.jpg","0","1","0","","0.1808571688","false","228","","0.1808571688","main_expt","","0.1540575712","","0.04486621846","","0.2890404278","","","","","",""
"14","","bandit","304","1514251","0.0-266.0-0.0","90829758","wem/bandit_single","A1ZZ7YO3YASNIP","pain","4","","72","H","0","img/none_selected.jpg","0","0","1","","0.1132309001","false","229","","0.1132309001","main_expt","","0.161449161","","0.05387953984","","0.2746035793","","","","","",""
"28","","bandit","305","1516046","0.0-267.0-0.0","90829758","wem/bandit_single","A1ZZ7YO3YASNIP","pain","4","","72","H","0","img/none_selected.jpg","0","0","1","","0.1450818377","false","230","","0.1450818377","main_expt","","0.1413021421","","0.03848872117","","0.282726532","","","","","",""
"1105","","bandit","306","1518919","0.0-268.0-0.0","90829758","wem/bandit_single","A1ZZ7YO3YASNIP","pain","4","","72","H","0","img/none_selected.jpg","0","0","1","","0.1077137685","false","231","","0.1077137685","main_expt","","0.1745796094","","0.04669383004","","0.3472256411","","","","","",""
"51","","bandit","307","1520736","0.0-269.0-0.0","90829758","wem/bandit_single","A1ZZ7YO3YASNIP","pain","4","","76","L","3","","0","1","0","","0.3994934702","false","232","","0.06427161289","main_expt","","0.1680880834","","0.03395804074","","0.3994934702","","","","","",""
"342","","bandit","308","1522858","0.0-270.0-0.0","90829758","wem/bandit_single","A1ZZ7YO3YASNIP","pain","4","","76","L","3","","0","1","0","","0.4029083043","false","233","","0.1060089469","main_expt","","0.213250795","","0.05150109453","","0.4029083043","","","","","",""
"34","","bandit","309","1524665","0.0-271.0-0.0","90829758","wem/bandit_single","A1ZZ7YO3YASNIP","pain","4","","76","L","3","","0","1","0","","0.4486287737","false","234","","0.1117154146","main_expt","","0.221091899","","0.06099663442","","0.4486287737","","","","","",""
"0","","bandit","310","1526437","0.0-272.0-0.0","90829758","wem/bandit_single","A1ZZ7YO3YASNIP","pain","4","","76","L","3","","0","1","0","","0.4561120354","false","235","","0.1276115887","main_expt","","0.2688923835","","0.05202127711","","0.4561120354","","","","","",""
"455","","bandit","311","1528663","0.0-273.0-0.0","90829758","wem/bandit_single","A1ZZ7YO3YASNIP","pain","4","","76","L","3","","0","1","0","","0.4375102443","false","236","","0.1786916187","main_expt","","0.2323123402","","0.07001303924","","0.4375102443","","","","","",""
"51","","bandit","312","1530484","0.0-274.0-0.0","90829758","wem/bandit_single","A1ZZ7YO3YASNIP","pain","4","","76","L","3","","0","1","0","","0.4582573195","false","237","","0.1896980961","main_expt","","0.174764536","","0.07602679398","","0.4582573195","","","","","",""
"21","","bandit","313","1532277","0.0-275.0-0.0","90829758","wem/bandit_single","A1ZZ7YO3YASNIP","pain","4","","76","L","3","","0","0","1","","0.4463811869","false","238","","0.2205101014","main_expt","","0.1654919337","","0.08775462142","","0.4463811869","","","","","",""
"10","","bandit","314","1534063","0.0-276.0-0.0","90829758","wem/bandit_single","A1ZZ7YO3YASNIP","pain","4","","75","K","2","","0","0","1","","0.06721086637","false","239","","0.2661717939","main_expt","","0.2402574844","","0.06721086637","","0.4507479662","","","","","",""
"718","","bandit","315","1536557","0.0-277.0-0.0","90829758","wem/bandit_single","A1ZZ7YO3YASNIP","pain","4","","74","J","1","","0","0","1","","0.2445968751","false","240","","0.1972661282","main_expt","","0.2445968751","","0.07433064979","","0.4504038859","","","","","",""
"39","","bandit","316","1538376","0.0-278.0-0.0","90829758","wem/bandit_single","A1ZZ7YO3YASNIP","pain","4","","74","J","1","","0","0","1","","0.2708632627","false","241","","0.1868253343","main_expt","","0.2708632627","","0.08919714094","","0.4346931185","","","","","",""
"105","","bandit","317","1540261","0.0-279.0-0.0","90829758","wem/bandit_single","A1ZZ7YO3YASNIP","pain","4","","75","K","2","","0","0","1","","0.06159770715","false","242","","0.1649449253","main_expt","","0.2047807489","","0.06159770715","","0.3898892773","","","","","",""
"1024","","bandit","318","1543059","0.0-280.0-0.0","90829758","wem/bandit_single","A1ZZ7YO3YASNIP","pain","4","","74","J","1","","0","0","1","","0.222122474","false","243","","0.184368772","main_expt","","0.222122474","","0.05299296545","","0.4033463229","","","","","",""
"295","","bandit","319","1545882","0.0-281.0-0.0","90829758","wem/bandit_single","A1ZZ7YO3YASNIP","pain","4","","72","H","0","img/none_selected.jpg","0","1","0","","0.2121467569","false","244","","0.2121467569","main_expt","","0.2425992204","","0.06275569833","","0.4096532456","","","","","",""
"4095","","bandit","320","1552480","0.0-282.0-0.0","90829758","wem/bandit_single","A1ZZ7YO3YASNIP","pain","4","","72","H","0","img/none_selected.jpg","0","0","1","","0.1894702338","false","245","","0.1894702338","main_expt","","0.2173978931","","0.06673215917","","0.3779527256","","","","","",""
"11393","","bandit","321","1565632","0.0-283.0-0.0","90829758","wem/bandit_single","A1ZZ7YO3YASNIP","pain","4","","75","K","2","","0","0","1","","0.06500670021","false","246","","0.2018459735","main_expt","","0.2218069129","","0.06500670021","","0.3953318503","","","","","",""
"287","","bandit","322","1567673","0.0-284.0-0.0","90829758","wem/bandit_single","A1ZZ7YO3YASNIP","pain","4","","74","J","1","","0","0","1","","0.1888628326","false","247","","0.1986179994","main_expt","","0.1888628326","","0.07271559664","","0.4287890539","","","","","",""
"2625","","bandit","323","1572057","0.0-285.0-0.0","90829758","wem/bandit_single","A1ZZ7YO3YASNIP","pain","4","","74","J","1","","0","0","1","","0.1722509531","false","248","","0.1299779064","main_expt","","0.1722509531","","0.09654775784","","0.4104310255","","","","","",""
"2257","","bandit","324","1576074","0.0-286.0-0.0","90829758","wem/bandit_single","A1ZZ7YO3YASNIP","pain","4","","74","J","1","","0","0","1","","0.2541205998","false","249","","0.1590650881","main_expt","","0.2541205998","","0.1179039307","","0.4116337798","","","","","",""
"23","","bandit","325","1577857","0.0-287.0-0.0","90829758","wem/bandit_single","A1ZZ7YO3YASNIP","pain","4","","72","H","0","img/none_selected.jpg","0","0","1","","0.1213614167","false","250","","0.1213614167","main_expt","","0.2664885101","","0.1265890049","","0.426505214","","","","","",""
"2160","","bandit","326","1581777","0.0-288.0-0.0","90829758","wem/bandit_single","A1ZZ7YO3YASNIP","pain","4","","72","H","0","img/none_selected.jpg","0","0","1","","0.1099334476","false","251","","0.1099334476","main_expt","","0.2519669898","","0.1039398773","","0.3949293487","","","","","",""
"816","","bandit","327","1584353","0.0-289.0-0.0","90829758","wem/bandit_single","A1ZZ7YO3YASNIP","pain","4","","72","H","0","img/none_selected.jpg","0","0","1","","0.1087011898","false","252","","0.1087011898","main_expt","","0.2932098873","","0.107940897","","0.3913077142","","","","","",""
"7856","","bandit","328","1593970","0.0-290.0-0.0","90829758","wem/bandit_single","A1ZZ7YO3YASNIP","pain","4","","75","K","2","","0","0","1","","0.1136461566","false","253","","0.09397011719","main_expt","","0.3179249839","","0.1136461566","","0.3648650894","","","","","",""
"488","","bandit","329","1596217","0.0-291.0-0.0","90829758","wem/bandit_single","A1ZZ7YO3YASNIP","pain","4","","75","K","2","","0","1","0","","0.1374631792","false","254","","0.08474648857","main_expt","","0.2908620441","","0.1374631792","","0.3452883024","","","","","",""
"2424","","bandit","330","1600401","0.0-292.0-0.0","90829758","wem/bandit_single","A1ZZ7YO3YASNIP","pain","4","","75","K","2","","0","0","1","","0.1453945637","false","255","","0.1025854271","main_expt","","0.3067265453","","0.1453945637","","0.2943306686","","","","","",""
"9489","","bandit","331","1611649","0.0-293.0-0.0","90829758","wem/bandit_single","A1ZZ7YO3YASNIP","pain","4","","75","K","2","","0","0","1","","0.1543600678","false","256","","0.08686152536","main_expt","","0.3133222149","","0.1543600678","","0.3225000795","","","","","",""
"456","","bandit","332","1613867","0.0-294.0-0.0","90829758","wem/bandit_single","A1ZZ7YO3YASNIP","pain","4","","75","K","2","","0","0","1","","0.107160473","false","257","","0.08667022303","main_expt","","0.3194106209","","0.107160473","","0.3199750271","","","","","",""
"1329","","bandit","333","1616961","0.0-295.0-0.0","90829758","wem/bandit_single","A1ZZ7YO3YASNIP","pain","4","","75","K","2","","0","0","1","","0.0567043194","false","258","","0.1158580788","main_expt","","0.35032938","","0.0567043194","","0.355105101","","","","","",""
"409","","bandit","334","1619128","0.0-296.0-0.0","90829758","wem/bandit_single","A1ZZ7YO3YASNIP","pain","4","","75","K","2","","0","0","1","","0.05418204449","false","259","","0.08241329339","main_expt","","0.3856615787","","0.05418204449","","0.3566572827","","","","","",""
"1208","","bandit","335","1622098","0.0-297.0-0.0","90829758","wem/bandit_single","A1ZZ7YO3YASNIP","pain","4","","75","K","2","","0","1","0","","0.0423658587","false","260","","0.09346186364","main_expt","","0.3977147975","","0.0423658587","","0.3492833521","","","","","",""
"683","","bandit","336","1624545","0.0-298.0-0.0","90829758","wem/bandit_single","A1ZZ7YO3YASNIP","pain","4","","75","K","2","","0","0","1","","0.08097208102","false","261","","0.07434745577","main_expt","","0.4011116255","","0.08097208102","","0.3406934897","","","","","",""
"3828","","bandit","337","1630139","0.0-299.0-0.0","90829758","wem/bandit_single","A1ZZ7YO3YASNIP","pain","4","","75","K","2","","0","0","1","","0.05731993864","false","262","","0.1177047137","main_expt","","0.4149706566","","0.05731993864","","0.3604065233","","","","","",""
"220","","bandit","338","1632123","0.0-300.0-0.0","90829758","wem/bandit_single","A1ZZ7YO3YASNIP","pain","4","","76","L","3","","0","0","1","","0.3584147688","false","263","","0.09530987449","main_expt","","0.4476629791","","0.07314079116","","0.3584147688","","","","","",""
"8","","bandit","339","1633890","0.0-301.0-0.0","90829758","wem/bandit_single","A1ZZ7YO3YASNIP","pain","4","","75","K","2","","0","0","1","","0.08382102311","false","264","","0.07595610255","main_expt","","0.4640453953","","0.08382102311","","0.3723043834","","","","","",""
"242","","bandit","340","1635890","0.0-302.0-0.0","90829758","wem/bandit_single","A1ZZ7YO3YASNIP","pain","4","","72","H","0","img/none_selected.jpg","0","1","0","","0.08850347459","false","265","","0.08850347459","main_expt","","0.4465377191","","0.1065624759","","0.316280577","","","","","",""
"353","","bandit","341","1638002","0.0-303.0-0.0","90829758","wem/bandit_single","A1ZZ7YO3YASNIP","pain","4","","72","H","0","img/none_selected.jpg","0","0","1","","0.1215706641","false","266","","0.1215706641","main_expt","","0.4183068553","","0.1253885588","","0.269287162","","","","","",""
"185","","bandit","342","1639946","0.0-304.0-0.0","90829758","wem/bandit_single","A1ZZ7YO3YASNIP","pain","4","","72","H","0","img/none_selected.jpg","0","0","1","","0.1841144129","false","267","","0.1841144129","main_expt","","0.4268145795","","0.09016252172","","0.2280314931","","","","","",""
"1","","bandit","343","1641706","0.0-305.0-0.0","90829758","wem/bandit_single","A1ZZ7YO3YASNIP","pain","4","","76","L","3","","0","1","0","","0.2243604643","false","268","","0.1409141681","main_expt","","0.4319202891","","0.08700052181","","0.2243604643","","","","","",""
"274","","bandit","344","1643739","0.0-306.0-0.0","90829758","wem/bandit_single","A1ZZ7YO3YASNIP","pain","4","","76","L","3","","0","1","0","","0.2334807581","false","269","","0.1011197226","main_expt","","0.4493038861","","0.09500676271","","0.2334807581","","","","","",""
"12264","","bandit","345","1657771","0.0-307.0-0.0","90829758","wem/bandit_single","A1ZZ7YO3YASNIP","pain","4","","72","H","0","img/none_selected.jpg","0","0","1","","0.118556502","false","270","","0.118556502","main_expt","","0.443059266","","0.07607499825","","0.2376518603","","","","","",""
"1760","","bandit","346","1661290","0.0-308.0-0.0","90829758","wem/bandit_single","A1ZZ7YO3YASNIP","pain","4","","72","H","0","img/none_selected.jpg","0","0","1","","0.131750931","false","271","","0.131750931","main_expt","","0.4362671961","","0.08946946819","","0.2139372972","","","","","",""
"18138","","bandit","347","1681187","0.0-309.0-0.0","90829758","wem/bandit_single","A1ZZ7YO3YASNIP","pain","4","","72","H","0","img/none_selected.jpg","0","1","0","","0.174678733","false","272","","0.174678733","main_expt","","0.4452199348","","0.108288805","","0.157688628","","","","","",""
"382","","bandit","348","1683330","0.0-310.0-0.0","90829758","wem/bandit_single","A1ZZ7YO3YASNIP","pain","4","","72","H","0","img/none_selected.jpg","0","0","1","","0.1730415972","false","273","","0.1730415972","main_expt","","0.454652927","","0.105491008","","0.271098703","","","","","",""
"361","","bandit","349","1685451","0.0-311.0-0.0","90829758","wem/bandit_single","A1ZZ7YO3YASNIP","pain","4","","72","H","0","img/none_selected.jpg","0","0","1","","0.1520576313","false","274","","0.1520576313","main_expt","","0.4646374989","","0.1059149547","","0.2778056479","","","","","",""
"1637","","bandit","350","1688853","0.0-312.0-0.0","90829758","wem/bandit_single","A1ZZ7YO3YASNIP","pain","4","","72","H","0","img/none_selected.jpg","0","0","1","","0.1007060326","false","275","","0.1007060326","main_expt","","0.4535579815","","0.09894283875","","0.2698457611","","","","","",""
"2264","","bandit","351","1692877","0.0-313.0-0.0","90829758","wem/bandit_single","A1ZZ7YO3YASNIP","pain","4","","72","H","0","img/none_selected.jpg","0","0","1","","0.08844777519","false","276","","0.08844777519","main_expt","","0.4319407295","","0.07695295732","","0.2774836338","","","","","",""
"6921","","bandit","352","1701557","0.0-314.0-0.0","90829758","wem/bandit_single","A1ZZ7YO3YASNIP","pain","4","","72","H","0","img/none_selected.jpg","0","0","1","","0.1315613084","false","277","","0.1315613084","main_expt","","0.4475260374","","0.0896712608","","0.3222794015","","","","","",""
"465","","bandit","353","1703782","0.0-315.0-0.0","90829758","wem/bandit_single","A1ZZ7YO3YASNIP","pain","4","","72","H","0","img/none_selected.jpg","0","1","0","","0.1508492864","false","278","","0.1508492864","main_expt","","0.4553849104","","0.1343695578","","0.3122447371","","","","","",""
"3160","","bandit","354","1708701","0.0-316.0-0.0","90829758","wem/bandit_single","A1ZZ7YO3YASNIP","pain","4","","72","H","0","img/none_selected.jpg","0","0","1","","0.1181182825","false","279","","0.1181182825","main_expt","","0.4621871954","","0.1106050404","","0.2934764685","","","","","",""
"4017","","bandit","355","1714480","0.0-317.0-0.0","90829758","wem/bandit_single","A1ZZ7YO3YASNIP","pain","4","","72","H","0","img/none_selected.jpg","0","0","1","","0.1244803533","false","280","","0.1244803533","main_expt","","0.4482597109","","0.114105974","","0.290984208","","","","","",""
"10158","","bandit","356","1726405","0.0-318.0-0.0","90829758","wem/bandit_single","A1ZZ7YO3YASNIP","pain","4","","72","H","0","img/none_selected.jpg","0","0","1","","0.105821284","false","281","","0.105821284","main_expt","","0.4347423019","","0.1246337516","","0.2974260948","","","","","",""
"13334","","bandit","357","1741502","0.0-319.0-0.0","90829758","wem/bandit_single","A1ZZ7YO3YASNIP","pain","4","","72","H","0","img/none_selected.jpg","0","0","1","","0.1562468179","false","282","","0.1562468179","main_expt","","0.4583393623","","0.079988156","","0.2972171025","","","","","",""
"351","","bandit","358","1743648","0.0-320.0-0.0","90829758","wem/bandit_single","A1ZZ7YO3YASNIP","pain","4","","74","J","1","","0","0","1","","0.4497532375","false","283","","0.1478322318","main_expt","","0.4497532375","","0.06901380195","","0.2821487798","","","","","",""
"16670","","bandit","359","1762079","0.0-321.0-0.0","90829758","wem/bandit_single","A1ZZ7YO3YASNIP","pain","4","","72","H","0","img/none_selected.jpg","0","0","1","","0.1371678423","false","284","","0.1371678423","main_expt","","0.4312811421","","0.05901051183","","0.2739939459","","","","","",""
"480","","bandit","360","1764320","0.0-322.0-0.0","90829758","wem/bandit_single","A1ZZ7YO3YASNIP","pain","4","","72","H","0","img/none_selected.jpg","0","0","1","","0.12762277","false","285","","0.12762277","main_expt","","0.4599346403","","0.1126944794","","0.2251097973","","","","","",""
"2708","","bandit","361","1768792","0.0-323.0-0.0","90829758","wem/bandit_single","A1ZZ7YO3YASNIP","pain","4","","72","H","0","img/none_selected.jpg","0","0","1","","0.1587978561","false","286","","0.1587978561","main_expt","","0.4588450488","","0.09646131279","","0.2124690726","","","","","",""
"6568","","bandit","362","1777119","0.0-324.0-0.0","90829758","wem/bandit_single","A1ZZ7YO3YASNIP","pain","4","","72","H","0","img/none_selected.jpg","0","0","1","","0.1262084743","false","287","","0.1262084743","main_expt","","0.4684539465","","0.0795853072","","0.2311163105","","","","","",""
"5804","","bandit","363","1784683","0.0-325.0-0.0","90829758","wem/bandit_single","A1ZZ7YO3YASNIP","pain","4","","72","H","0","img/none_selected.jpg","0","1","0","","0.08849331384","false","288","","0.08849331384","main_expt","","0.4555823871","","0.07210460151","","0.2178761709","","","","","",""
"266","","bandit","364","1786732","0.0-326.0-0.0","90829758","wem/bandit_single","A1ZZ7YO3YASNIP","pain","4","","72","H","0","img/none_selected.jpg","0","0","1","","0.1082793638","false","289","","0.1082793638","main_expt","","0.4779982095","","0.08807043944","","0.2656120211","","","","","",""
"9066","","bandit","365","1797560","0.0-327.0-0.0","90829758","wem/bandit_single","A1ZZ7YO3YASNIP","pain","4","","72","H","0","img/none_selected.jpg","0","0","1","","0.1591187351","false","290","","0.1591187351","main_expt","","0.4806691972","","0.09097769709","","0.2756957417","","","","","",""
"10928","","bandit","366","1810247","0.0-328.0-0.0","90829758","wem/bandit_single","A1ZZ7YO3YASNIP","pain","4","","72","H","0","img/none_selected.jpg","0","1","0","","0.1766493085","false","291","","0.1766493085","main_expt","","0.4856322508","","0.1486720085","","0.3111580235","","","","","",""
"1399","","bandit","367","1813407","0.0-329.0-0.0","90829758","wem/bandit_single","A1ZZ7YO3YASNIP","pain","4","","72","H","0","img/none_selected.jpg","0","0","1","","0.1303677554","false","292","","0.1303677554","main_expt","","0.4905538215","","0.166368556","","0.3019137931","","","","","",""
"27972","","bandit","368","1843149","0.0-330.0-0.0","90829758","wem/bandit_single","A1ZZ7YO3YASNIP","pain","4","","72","H","0","img/none_selected.jpg","0","1","0","","0.1553518032","false","293","","0.1553518032","main_expt","","0.4915741327","","0.1516979355","","0.2930542664","","","","","",""
