"rt","responses","trial_type","trial_index","time_elapsed","internal_node_id","subjID","study","MID","cond","drift","key_press","respCharCode","respKey","respChoiceNum","respChoice","gems","bombs","no_reward","GemPrChosen","BombPrChosen","practice","trial_counter","WinPr_0","LosePr_0","trial_label","WinPr_1","LosePr_1","WinPr_2","LosePr_2","WinPr_3","LosePr_3","Q0","Q1","Q2","gender","age","ethnicity"
"30550","{""Q0"":""A36470UBRH28GO""}","survey-text","0","30557","0.0-0.0","92272970","wem/bandit_single","A36470UBRH28GO","pain","7","","","","","","","","","","","","","","","","","","","","","","","","","","",""
"3332","","text","1","34896","0.0-1.0","92272970","wem/bandit_single","A36470UBRH28GO","pain","7","32","","","","","","","","","","","","","","","","","","","","","","","","","",""
"9195","","text","2","44094","0.0-2.0","92272970","wem/bandit_single","A36470UBRH28GO","pain","7","32","","","","","","","","","","","","","","","","","","","","","","","","","",""
"87771","","text","3","131869","0.0-3.0","92272970","wem/bandit_single","A36470UBRH28GO","pain","7","32","","","","","","","","","","","","","","","","","","","","","","","","","",""
"21011","","text","4","152884","0.0-4.0","92272970","wem/bandit_single","A36470UBRH28GO","pain","7","32","","","","","","","","","","","","","","","","","","","","","","","","","",""
"14885","","text","5","167771","0.0-5.0","92272970","wem/bandit_single","A36470UBRH28GO","pain","7","32","","","","","","","","","","","","","","","","","","","","","","","","","",""
"9535","","text","6","177308","0.0-6.0","92272970","wem/bandit_single","A36470UBRH28GO","pain","7","32","","","","","","","","","","","","","","","","","","","","","","","","","",""
"6335","","text","7","183646","0.0-7.0","92272970","wem/bandit_single","A36470UBRH28GO","pain","7","32","","","","","","","","","","","","","","","","","","","","","","","","","",""
"5737","","text","8","189385","0.0-8.0","92272970","wem/bandit_single","A36470UBRH28GO","pain","7","32","","","","","","","","","","","","","","","","","","","","","","","","","",""
"4432","","text","9","193819","0.0-9.0","92272970","wem/bandit_single","A36470UBRH28GO","pain","7","32","","","","","","","","","","","","","","","","","","","","","","","","","",""
"10242","","text","10","204064","0.0-10.0","92272970","wem/bandit_single","A36470UBRH28GO","pain","7","32","","","","","","","","","","","","","","","","","","","","","","","","","",""
"8948","","text","11","213015","0.0-11.0","92272970","wem/bandit_single","A36470UBRH28GO","pain","7","32","","","","","","","","","","","","","","","","","","","","","","","","","",""
"1972","","bandit","12","216497","0.0-12.0-0.0","92272970","wem/bandit_single","A36470UBRH28GO","pain","7","","74","J","0","img/none_selected_demo.jpg","0","0","1","0","0","true","0","0","0","","","","","","","","","","","","",""
"1228","","bandit","13","219484","0.0-13.0-0.0","92272970","wem/bandit_single","A36470UBRH28GO","pain","7","","75","K","0","img/none_selected_demo.jpg","0","0","1","0","0","true","0","0","0","","","","","","","","","","","","",""
"2144","","text","14","221882","0.0-14.0","92272970","wem/bandit_single","A36470UBRH28GO","pain","7","32","","","","","","","","","","","","","","","","","","","","","","","","","",""
"3894","","text","15","225778","0.0-15.0","92272970","wem/bandit_single","A36470UBRH28GO","pain","7","32","","","","","","","","","","","","","","","","","","","","","","","","","",""
"3704","","text","16","229484","0.0-16.0","92272970","wem/bandit_single","A36470UBRH28GO","pain","7","32","","","","","","","","","","","","","","","","","","","","","","","","","",""
"5450","","text","17","234938","0.0-17.0","92272970","wem/bandit_single","A36470UBRH28GO","pain","7","32","","","","","","","","","","","","","","","","","","","","","","","","","",""
"1111","","bandit","18","237556","0.0-18.0-0.0","92272970","wem/bandit_single","A36470UBRH28GO","pain","7","","74","J","0","img/none_selected_demo.jpg","0","1","0","0","0.8","true","0","0","0.8","80_20_practice","0","0.2","","","","","","","","","",""
"1340","","bandit","19","240654","0.0-18.0-1.0","92272970","wem/bandit_single","A36470UBRH28GO","pain","7","","74","J","0","img/none_selected_demo.jpg","0","1","0","0","0.8","true","0","0","0.8","80_20_practice","0","0.2","","","","","","","","","",""
"1041","","bandit","20","243456","0.0-18.0-2.0","92272970","wem/bandit_single","A36470UBRH28GO","pain","7","","74","J","0","img/none_selected_demo.jpg","0","1","0","0","0.8","true","0","0","0.8","80_20_practice","0","0.2","","","","","","","","","",""
"690","","bandit","21","245904","0.0-18.0-3.0","92272970","wem/bandit_single","A36470UBRH28GO","pain","7","","74","J","0","img/none_selected_demo.jpg","0","1","0","0","0.8","true","0","0","0.8","80_20_practice","0","0.2","","","","","","","","","",""
"370","","bandit","22","248034","0.0-18.0-4.0","92272970","wem/bandit_single","A36470UBRH28GO","pain","7","","74","J","0","img/none_selected_demo.jpg","0","1","0","0","0.8","true","0","0","0.8","80_20_practice","0","0.2","","","","","","","","","",""
"1812","","bandit","23","251606","0.0-18.0-5.0","92272970","wem/bandit_single","A36470UBRH28GO","pain","7","","74","J","0","img/none_selected_demo.jpg","0","1","0","0","0.8","true","0","0","0.8","80_20_practice","0","0.2","","","","","","","","","",""
"673","","bandit","24","254037","0.0-18.0-6.0","92272970","wem/bandit_single","A36470UBRH28GO","pain","7","","74","J","0","img/none_selected_demo.jpg","0","1","0","0","0.8","true","0","0","0.8","80_20_practice","0","0.2","","","","","","","","","",""
"70","","bandit","25","255866","0.0-18.0-7.0","92272970","wem/bandit_single","A36470UBRH28GO","pain","7","","74","J","0","img/none_selected_demo.jpg","0","1","0","0","0.8","true","0","0","0.8","80_20_practice","0","0.2","","","","","","","","","",""
"914","","bandit","26","258536","0.0-18.0-8.0","92272970","wem/bandit_single","A36470UBRH28GO","pain","7","","75","K","1","","0","0","1","0","0.2","true","0","0","0.8","80_20_practice","0","0.2","","","","","","","","","",""
"316","","bandit","27","260608","0.0-18.0-9.0","92272970","wem/bandit_single","A36470UBRH28GO","pain","7","","74","J","0","img/none_selected_demo.jpg","0","1","0","0","0.8","true","0","0","0.8","80_20_practice","0","0.2","","","","","","","","","",""
"223","","bandit","28","262593","0.0-18.0-10.0","92272970","wem/bandit_single","A36470UBRH28GO","pain","7","","74","J","0","img/none_selected_demo.jpg","0","1","0","0","0.8","true","0","0","0.8","80_20_practice","0","0.2","","","","","","","","","",""
"341","","bandit","29","264693","0.0-18.0-11.0","92272970","wem/bandit_single","A36470UBRH28GO","pain","7","","74","J","0","img/none_selected_demo.jpg","0","1","0","0","0.8","true","0","0","0.8","80_20_practice","0","0.2","","","","","","","","","",""
"38","","bandit","30","266489","0.0-18.0-12.0","92272970","wem/bandit_single","A36470UBRH28GO","pain","7","","74","J","0","img/none_selected_demo.jpg","0","0","1","0","0.8","true","0","0","0.8","80_20_practice","0","0.2","","","","","","","","","",""
"118","","bandit","31","268368","0.0-18.0-13.0","92272970","wem/bandit_single","A36470UBRH28GO","pain","7","","75","K","1","","0","0","1","0","0.2","true","0","0","0.8","80_20_practice","0","0.2","","","","","","","","","",""
"53","","bandit","32","270182","0.0-18.0-14.0","92272970","wem/bandit_single","A36470UBRH28GO","pain","7","","74","J","0","img/none_selected_demo.jpg","0","1","0","0","0.8","true","0","0","0.8","80_20_practice","0","0.2","","","","","","","","","",""
"61","","bandit","33","272003","0.0-18.0-15.0","92272970","wem/bandit_single","A36470UBRH28GO","pain","7","","74","J","0","img/none_selected_demo.jpg","0","1","0","0","0.8","true","0","0","0.8","80_20_practice","0","0.2","","","","","","","","","",""
"4371","","bandit","34","278131","0.0-18.0-16.0","92272970","wem/bandit_single","A36470UBRH28GO","pain","7","","74","J","0","img/none_selected_demo.jpg","0","1","0","0","0.8","true","0","0","0.8","80_20_practice","0","0.2","","","","","","","","","",""
"1392","","bandit","35","281283","0.0-18.0-17.0","92272970","wem/bandit_single","A36470UBRH28GO","pain","7","","74","J","0","img/none_selected_demo.jpg","0","0","1","0","0.8","true","0","0","0.8","80_20_practice","0","0.2","","","","","","","","","",""
"468","","bandit","36","283510","0.0-18.0-18.0","92272970","wem/bandit_single","A36470UBRH28GO","pain","7","","75","K","1","","0","0","1","0","0.2","true","0","0","0.8","80_20_practice","0","0.2","","","","","","","","","",""
"95","","bandit","37","285364","0.0-18.0-19.0","92272970","wem/bandit_single","A36470UBRH28GO","pain","7","","74","J","0","img/none_selected_demo.jpg","0","1","0","0","0.8","true","0","0","0.8","80_20_practice","0","0.2","","","","","","","","","",""
"4438","","text","38","290057","0.0-19.0","92272970","wem/bandit_single","A36470UBRH28GO","pain","7","32","","","","","","","","","","","","","","","","","","","","","","","","","",""
"1738","","bandit","39","293302","0.0-20.0-0.0","92272970","wem/bandit_single","A36470UBRH28GO","pain","7","","74","J","0","img/none_selected_demo.jpg","0","0","1","0","0","true","0","0","0","","0","0","","","","","","","","","",""
"7913","","text","40","301470","0.0-21.0","92272970","wem/bandit_single","A36470UBRH28GO","pain","7","32","","","","","","","","","","","","","","","","","","","","","","","","","",""
"1913","","text","41","303386","0.0-22.0","92272970","wem/bandit_single","A36470UBRH28GO","pain","7","32","","","","","","","","","","","","","","","","","","","","","","","","","",""
"2474","","text","42","305863","0.0-23.0","92272970","wem/bandit_single","A36470UBRH28GO","pain","7","32","","","","","","","","","","","","","","","","","","","","","","","","","",""
"16774","","text","43","322640","0.0-24.0","92272970","wem/bandit_single","A36470UBRH28GO","pain","7","32","","","","","","","","","","","","","","","","","","","","","","","","","",""
"6691","","text","44","329335","0.0-25.0","92272970","wem/bandit_single","A36470UBRH28GO","pain","7","32","","","","","","","","","","","","","","","","","","","","","","","","","",""
"3223","","text","45","332562","0.0-26.0","92272970","wem/bandit_single","A36470UBRH28GO","pain","7","32","","","","","","","","","","","","","","","","","","","","","","","","","",""
"3682","","text","46","336247","0.0-27.0","92272970","wem/bandit_single","A36470UBRH28GO","pain","7","32","","","","","","","","","","","","","","","","","","","","","","","","","",""
"4106","","text","47","340356","0.0-28.0","92272970","wem/bandit_single","A36470UBRH28GO","pain","7","32","","","","","","","","","","","","","","","","","","","","","","","","","",""
"4928","","text","48","345288","0.0-29.0","92272970","wem/bandit_single","A36470UBRH28GO","pain","7","32","","","","","","","","","","","","","","","","","","","","","","","","","",""
"2378","","text","49","347669","0.0-30.0","92272970","wem/bandit_single","A36470UBRH28GO","pain","7","32","","","","","","","","","","","","","","","","","","","","","","","","","",""
"2954","","text","50","350626","0.0-31.0","92272970","wem/bandit_single","A36470UBRH28GO","pain","7","32","","","","","","","","","","","","","","","","","","","","","","","","","",""
"1325","","bandit","51","353459","0.0-32.0-0.0","92272970","wem/bandit_single","A36470UBRH28GO","pain","7","","72","H","0","img/none_selected.jpg","0","1","0","0","0.8","true","0","0","0.8","full_practice","0","0.2","0","0.6","0","0.2","","","","","",""
"84","","bandit","52","355303","0.0-32.0-1.0","92272970","wem/bandit_single","A36470UBRH28GO","pain","7","","72","H","0","img/none_selected.jpg","0","1","0","0","0.8","true","0","0","0.8","full_practice","0","0.2","0","0.6","0","0.2","","","","","",""
"140","","bandit","53","357202","0.0-32.0-2.0","92272970","wem/bandit_single","A36470UBRH28GO","pain","7","","72","H","0","img/none_selected.jpg","0","1","0","0","0.8","true","0","0","0.8","full_practice","0","0.2","0","0.6","0","0.2","","","","","",""
"63","","bandit","54","359025","0.0-32.0-3.0","92272970","wem/bandit_single","A36470UBRH28GO","pain","7","","72","H","0","img/none_selected.jpg","0","0","1","0","0.8","true","0","0","0.8","full_practice","0","0.2","0","0.6","0","0.2","","","","","",""
"90","","bandit","55","360873","0.0-32.0-4.0","92272970","wem/bandit_single","A36470UBRH28GO","pain","7","","72","H","0","img/none_selected.jpg","0","1","0","0","0.8","true","0","0","0.8","full_practice","0","0.2","0","0.6","0","0.2","","","","","",""
"187","","bandit","56","362821","0.0-32.0-5.0","92272970","wem/bandit_single","A36470UBRH28GO","pain","7","","72","H","0","img/none_selected.jpg","0","0","1","0","0.8","true","0","0","0.8","full_practice","0","0.2","0","0.6","0","0.2","","","","","",""
"368","","bandit","57","364951","0.0-32.0-6.0","92272970","wem/bandit_single","A36470UBRH28GO","pain","7","","72","H","0","img/none_selected.jpg","0","1","0","0","0.8","true","0","0","0.8","full_practice","0","0.2","0","0.6","0","0.2","","","","","",""
"140","","bandit","58","366848","0.0-32.0-7.0","92272970","wem/bandit_single","A36470UBRH28GO","pain","7","","72","H","0","img/none_selected.jpg","0","1","0","0","0.8","true","0","0","0.8","full_practice","0","0.2","0","0.6","0","0.2","","","","","",""
"87","","bandit","59","368694","0.0-32.0-8.0","92272970","wem/bandit_single","A36470UBRH28GO","pain","7","","72","H","0","img/none_selected.jpg","0","1","0","0","0.8","true","0","0","0.8","full_practice","0","0.2","0","0.6","0","0.2","","","","","",""
"145","","bandit","60","370599","0.0-32.0-9.0","92272970","wem/bandit_single","A36470UBRH28GO","pain","7","","72","H","0","img/none_selected.jpg","0","0","1","0","0.8","true","0","0","0.8","full_practice","0","0.2","0","0.6","0","0.2","","","","","",""
"94","","bandit","61","372457","0.0-32.0-10.0","92272970","wem/bandit_single","A36470UBRH28GO","pain","7","","72","H","0","img/none_selected.jpg","0","1","0","0","0.8","true","0","0","0.8","full_practice","0","0.2","0","0.6","0","0.2","","","","","",""
"86","","bandit","62","374302","0.0-32.0-11.0","92272970","wem/bandit_single","A36470UBRH28GO","pain","7","","72","H","0","img/none_selected.jpg","0","0","1","0","0.8","true","0","0","0.8","full_practice","0","0.2","0","0.6","0","0.2","","","","","",""
"89","","bandit","63","376151","0.0-32.0-12.0","92272970","wem/bandit_single","A36470UBRH28GO","pain","7","","74","J","1","","0","0","1","0","0.2","true","0","0","0.8","full_practice","0","0.2","0","0.6","0","0.2","","","","","",""
"113","","bandit","64","378023","0.0-32.0-13.0","92272970","wem/bandit_single","A36470UBRH28GO","pain","7","","75","K","2","","0","0","1","0","0.6","true","0","0","0.8","full_practice","0","0.2","0","0.6","0","0.2","","","","","",""
"102","","bandit","65","379883","0.0-32.0-14.0","92272970","wem/bandit_single","A36470UBRH28GO","pain","7","","76","L","3","","0","0","1","0","0.2","true","0","0","0.8","full_practice","0","0.2","0","0.6","0","0.2","","","","","",""
"211","","bandit","66","381851","0.0-32.0-15.0","92272970","wem/bandit_single","A36470UBRH28GO","pain","7","","72","H","0","img/none_selected.jpg","0","0","1","0","0.8","true","0","0","0.8","full_practice","0","0.2","0","0.6","0","0.2","","","","","",""
"125","","bandit","67","383732","0.0-32.0-16.0","92272970","wem/bandit_single","A36470UBRH28GO","pain","7","","72","H","0","img/none_selected.jpg","0","1","0","0","0.8","true","0","0","0.8","full_practice","0","0.2","0","0.6","0","0.2","","","","","",""
"116","","bandit","68","385607","0.0-32.0-17.0","92272970","wem/bandit_single","A36470UBRH28GO","pain","7","","72","H","0","img/none_selected.jpg","0","1","0","0","0.8","true","0","0","0.8","full_practice","0","0.2","0","0.6","0","0.2","","","","","",""
"55","","bandit","69","387421","0.0-32.0-18.0","92272970","wem/bandit_single","A36470UBRH28GO","pain","7","","72","H","0","img/none_selected.jpg","0","1","0","0","0.8","true","0","0","0.8","full_practice","0","0.2","0","0.6","0","0.2","","","","","",""
"87","","bandit","70","389268","0.0-32.0-19.0","92272970","wem/bandit_single","A36470UBRH28GO","pain","7","","72","H","0","img/none_selected.jpg","0","1","0","0","0.8","true","0","0","0.8","full_practice","0","0.2","0","0.6","0","0.2","","","","","",""
"3637","","text","71","393169","0.0-33.0","92272970","wem/bandit_single","A36470UBRH28GO","pain","7","32","","","","","","","","","","","","","","","","","","","","","","","","","",""
"9874","","text","72","404048","0.0-34.0","92272970","wem/bandit_single","A36470UBRH28GO","pain","7","32","","","","","","","","","","","","","","","","","","","","","","","","","",""
"5004","","text","73","409057","0.0-35.0","92272970","wem/bandit_single","A36470UBRH28GO","pain","7","32","","","","","","","","","","","","","","","","","","","","","","","","","",""
"5531","","text","74","414594","0.0-36.0","92272970","wem/bandit_single","A36470UBRH28GO","pain","7","32","","","","","","","","","","","","","","","","","","","","","","","","","",""
"5223","","text","75","419821","0.0-37.0","92272970","wem/bandit_single","A36470UBRH28GO","pain","7","32","","","","","","","","","","","","","","","","","","","","","","","","","",""
"1685","","bandit","76","423016","0.0-38.0-0.0","92272970","wem/bandit_single","A36470UBRH28GO","pain","7","","72","H","0","img/none_selected.jpg","0","0","1","","0.2046929885","false","1","","0.2046929885","main_expt","","0.182860278","","0.05137684772","","0.4656663819","","","","","",""
"1386","","bandit","77","426162","0.0-39.0-0.0","92272970","wem/bandit_single","A36470UBRH28GO","pain","7","","72","H","0","img/none_selected.jpg","0","0","1","","0.1903203277","false","2","","0.1903203277","main_expt","","0.1824128093","","0.07150319997","","0.4696156166","","","","","",""
"176","","bandit","78","428099","0.0-40.0-0.0","92272970","wem/bandit_single","A36470UBRH28GO","pain","7","","74","J","1","","0","0","1","","0.1671989933","false","3","","0.1806567389","main_expt","","0.1671989933","","0.080703679","","0.477042595","","","","","",""
"467","","bandit","79","430326","0.0-41.0-0.0","92272970","wem/bandit_single","A36470UBRH28GO","pain","7","","75","K","2","","0","0","1","","0.09206073837","false","4","","0.1746643784","main_expt","","0.1769774761","","0.09206073837","","0.4833388502","","","","","",""
"129","","bandit","80","432218","0.0-42.0-0.0","92272970","wem/bandit_single","A36470UBRH28GO","pain","7","","76","L","3","","0","1","0","","0.4679643189","false","5","","0.1575849224","main_expt","","0.1847579949","","0.09846378213","","0.4679643189","","","","","",""
"85","","bandit","81","434064","0.0-43.0-0.0","92272970","wem/bandit_single","A36470UBRH28GO","pain","7","","76","L","3","","0","1","0","","0.4728114282","false","6","","0.1848921601","main_expt","","0.2263389119","","0.07982937149","","0.4728114282","","","","","",""
"181","","bandit","82","436008","0.0-44.0-0.0","92272970","wem/bandit_single","A36470UBRH28GO","pain","7","","76","L","3","","0","1","0","","0.4763129956","false","7","","0.2090417599","main_expt","","0.233500047","","0.08361087011","","0.4763129956","","","","","",""
"136","","bandit","83","437905","0.0-45.0-0.0","92272970","wem/bandit_single","A36470UBRH28GO","pain","7","","76","L","3","","0","0","1","","0.4605171502","false","8","","0.2340345007","main_expt","","0.2213385325","","0.1210475052","","0.4605171502","","","","","",""
"147","","bandit","84","439811","0.0-46.0-0.0","92272970","wem/bandit_single","A36470UBRH28GO","pain","7","","76","L","3","","0","1","0","","0.457599345","false","9","","0.2388832632","main_expt","","0.216727727","","0.1023248189","","0.457599345","","","","","",""
"128","","bandit","85","441701","0.0-47.0-0.0","92272970","wem/bandit_single","A36470UBRH28GO","pain","7","","76","L","3","","0","1","0","","0.4514273669","false","10","","0.2336568073","main_expt","","0.1757193701","","0.1311876697","","0.4514273669","","","","","",""
"52","","bandit","86","443513","0.0-48.0-0.0","92272970","wem/bandit_single","A36470UBRH28GO","pain","7","","76","L","3","","0","0","1","","0.461109344","false","11","","0.2682397485","main_expt","","0.221687112","","0.1171839072","","0.461109344","","","","","",""
"90","","bandit","87","445364","0.0-49.0-0.0","92272970","wem/bandit_single","A36470UBRH28GO","pain","7","","76","L","3","","0","0","1","","0.4750360261","false","12","","0.2855743842","main_expt","","0.1693148256","","0.09103905321","","0.4750360261","","","","","",""
"117","","bandit","88","447241","0.0-50.0-0.0","92272970","wem/bandit_single","A36470UBRH28GO","pain","7","","76","L","3","","0","0","1","","0.4882900813","false","13","","0.2877368863","main_expt","","0.1861997022","","0.08195125901","","0.4882900813","","","","","",""
"50","","bandit","89","449055","0.0-51.0-0.0","92272970","wem/bandit_single","A36470UBRH28GO","pain","7","","75","K","2","","0","0","1","","0.1022478824","false","14","","0.2904717711","main_expt","","0.2056371894","","0.1022478824","","0.4836145896","","","","","",""
"790","","bandit","90","451607","0.0-52.0-0.0","92272970","wem/bandit_single","A36470UBRH28GO","pain","7","","75","K","2","","0","0","1","","0.1295923723","false","15","","0.3145527135","main_expt","","0.207651467","","0.1295923723","","0.4841526839","","","","","",""
"77","","bandit","91","453447","0.0-53.0-0.0","92272970","wem/bandit_single","A36470UBRH28GO","pain","7","","74","J","1","","0","0","1","","0.264879833","false","16","","0.2919685568","main_expt","","0.264879833","","0.1259026636","","0.4733209008","","","","","",""
"68","","bandit","92","455276","0.0-54.0-0.0","92272970","wem/bandit_single","A36470UBRH28GO","pain","7","","72","H","0","img/none_selected.jpg","0","0","1","","0.2437915417","false","17","","0.2437915417","main_expt","","0.301226273","","0.08714849596","","0.4548629562","","","","","",""
"181","","bandit","93","457216","0.0-55.0-0.0","92272970","wem/bandit_single","A36470UBRH28GO","pain","7","","72","H","0","img/none_selected.jpg","0","1","0","","0.2139729843","false","18","","0.2139729843","main_expt","","0.3355017989","","0.06082296625","","0.4423108412","","","","","",""
"85","","bandit","94","459062","0.0-56.0-0.0","92272970","wem/bandit_single","A36470UBRH28GO","pain","7","","72","H","0","img/none_selected.jpg","0","0","1","","0.2117718275","false","19","","0.2117718275","main_expt","","0.4066928382","","0.04376078701","","0.4510346454","","","","","",""
"422","","bandit","95","461244","0.0-57.0-0.0","92272970","wem/bandit_single","A36470UBRH28GO","pain","7","","72","H","0","img/none_selected.jpg","0","1","0","","0.2128214431","false","20","","0.2128214431","main_expt","","0.4152799178","","0.0431273538","","0.4522943673","","","","","",""
"227","","bandit","96","463231","0.0-58.0-0.0","92272970","wem/bandit_single","A36470UBRH28GO","pain","7","","72","H","0","img/none_selected.jpg","0","1","0","","0.2557511999","false","21","","0.2557511999","main_expt","","0.4005545413","","0.05700218709","","0.4213917452","","","","","",""
"148","","bandit","97","465139","0.0-59.0-0.0","92272970","wem/bandit_single","A36470UBRH28GO","pain","7","","72","H","0","img/none_selected.jpg","0","0","1","","0.2240556206","false","22","","0.2240556206","main_expt","","0.4065945052","","0.03008320558","","0.4055738921","","","","","",""
"123","","bandit","98","467024","0.0-60.0-0.0","92272970","wem/bandit_single","A36470UBRH28GO","pain","7","","72","H","0","img/none_selected.jpg","0","0","1","","0.1913455436","false","23","","0.1913455436","main_expt","","0.4396923884","","0.04675245401","","0.4102744642","","","","","",""
"63","","bandit","99","468849","0.0-61.0-0.0","92272970","wem/bandit_single","A36470UBRH28GO","pain","7","","72","H","0","img/none_selected.jpg","0","0","1","","0.1767964116","false","24","","0.1767964116","main_expt","","0.4414607804","","0.02664245213","","0.4215519413","","","","","",""
"294","","bandit","100","470904","0.0-62.0-0.0","92272970","wem/bandit_single","A36470UBRH28GO","pain","7","","74","J","1","","0","0","1","","0.430597795","false","25","","0.1667721477","main_expt","","0.430597795","","0.02443183667","","0.4076768117","","","","","",""
"119","","bandit","101","472785","0.0-63.0-0.0","92272970","wem/bandit_single","A36470UBRH28GO","pain","7","","75","K","2","","0","0","1","","0.02765515704","false","26","","0.132468293","main_expt","","0.4049624372","","0.02765515704","","0.3563873355","","","","","",""
"132","","bandit","102","474679","0.0-64.0-0.0","92272970","wem/bandit_single","A36470UBRH28GO","pain","7","","75","K","2","","0","0","1","","0.05751586542","false","27","","0.1283549716","main_expt","","0.3959859591","","0.05751586542","","0.3305608977","","","","","",""
"470","","bandit","103","476910","0.0-65.0-0.0","92272970","wem/bandit_single","A36470UBRH28GO","pain","7","","76","L","3","","0","0","1","","0.323916825","false","28","","0.1218888314","main_expt","","0.4316273603","","0.1046410472","","0.323916825","","","","","",""
"1495","","bandit","104","480166","0.0-66.0-0.0","92272970","wem/bandit_single","A36470UBRH28GO","pain","7","","72","H","0","img/none_selected.jpg","0","0","1","","0.08739650486","false","29","","0.08739650486","main_expt","","0.4618757987","","0.1174110135","","0.3256975875","","","","","",""
"168","","bandit","105","482093","0.0-67.0-0.0","92272970","wem/bandit_single","A36470UBRH28GO","pain","7","","74","J","1","","0","0","1","","0.4764599947","false","30","","0.1113113005","main_expt","","0.4764599947","","0.09344635718","","0.3590663193","","","","","",""
"72","","bandit","106","483925","0.0-68.0-0.0","92272970","wem/bandit_single","A36470UBRH28GO","pain","7","","74","J","1","","0","1","0","","0.4870567238","false","31","","0.1234593762","main_expt","","0.4870567238","","0.07228097062","","0.2794303661","","","","","",""
"71","","bandit","107","485756","0.0-69.0-0.0","92272970","wem/bandit_single","A36470UBRH28GO","pain","7","","74","J","1","","0","1","0","","0.4744541924","false","32","","0.1204693509","main_expt","","0.4744541924","","0.06660380695","","0.2725021833","","","","","",""
"40","","bandit","108","487555","0.0-70.0-0.0","92272970","wem/bandit_single","A36470UBRH28GO","pain","7","","74","J","1","","0","1","0","","0.4595636441","false","33","","0.1525092538","main_expt","","0.4595636441","","0.06161000393","","0.2662358977","","","","","",""
"86","","bandit","109","489401","0.0-71.0-0.0","92272970","wem/bandit_single","A36470UBRH28GO","pain","7","","74","J","1","","0","1","0","","0.4700794195","false","34","","0.0933794629","main_expt","","0.4700794195","","0.08245015188","","0.3062719381","","","","","",""
"72","","bandit","110","491235","0.0-72.0-0.0","92272970","wem/bandit_single","A36470UBRH28GO","pain","7","","74","J","1","","0","1","0","","0.46481425","false","35","","0.06693018499","main_expt","","0.46481425","","0.08195488018","","0.3199342551","","","","","",""
"50","","bandit","111","493047","0.0-73.0-0.0","92272970","wem/bandit_single","A36470UBRH28GO","pain","7","","74","J","1","","0","1","0","","0.4518384169","false","36","","0.09916465935","main_expt","","0.4518384169","","0.1004102013","","0.3039619122","","","","","",""
"99","","bandit","112","494908","0.0-74.0-0.0","92272970","wem/bandit_single","A36470UBRH28GO","pain","7","","74","J","1","","0","0","1","","0.439581627","false","37","","0.08872434017","main_expt","","0.439581627","","0.1390326598","","0.2927636057","","","","","",""
"75","","bandit","113","496744","0.0-75.0-0.0","92272970","wem/bandit_single","A36470UBRH28GO","pain","7","","74","J","1","","0","0","1","","0.3994664239","false","38","","0.08103487055","main_expt","","0.3994664239","","0.143322519","","0.3513205482","","","","","",""
"65","","bandit","114","498570","0.0-76.0-0.0","92272970","wem/bandit_single","A36470UBRH28GO","pain","7","","74","J","1","","0","0","1","","0.399239641","false","39","","0.09262773223","main_expt","","0.399239641","","0.1439849427","","0.3199725693","","","","","",""
"67","","bandit","115","500400","0.0-77.0-0.0","92272970","wem/bandit_single","A36470UBRH28GO","pain","7","","74","J","1","","0","0","1","","0.3842971785","false","40","","0.08276392867","main_expt","","0.3842971785","","0.1813186375","","0.2899826696","","","","","",""
"99","","bandit","116","502259","0.0-78.0-0.0","92272970","wem/bandit_single","A36470UBRH28GO","pain","7","","75","K","2","","0","1","0","","0.182623784","false","41","","0.07889170896","main_expt","","0.3584077127","","0.182623784","","0.2470457707","","","","","",""
"97","","bandit","117","504117","0.0-79.0-0.0","92272970","wem/bandit_single","A36470UBRH28GO","pain","7","","75","K","2","","0","0","1","","0.1310997782","false","42","","0.1007082374","main_expt","","0.2940512223","","0.1310997782","","0.2860815649","","","","","",""
"84","","bandit","118","505965","0.0-80.0-0.0","92272970","wem/bandit_single","A36470UBRH28GO","pain","7","","75","K","2","","0","0","1","","0.1211351308","false","43","","0.04983151166","main_expt","","0.3274682868","","0.1211351308","","0.3649324249","","","","","",""
"62","","bandit","119","507788","0.0-81.0-0.0","92272970","wem/bandit_single","A36470UBRH28GO","pain","7","","75","K","2","","0","0","1","","0.1032393721","false","44","","0.06772206808","main_expt","","0.3105097628","","0.1032393721","","0.3722884938","","","","","",""
"661","","bandit","120","510209","0.0-82.0-0.0","92272970","wem/bandit_single","A36470UBRH28GO","pain","7","","76","L","3","","0","0","1","","0.3589666793","false","45","","0.07082322934","main_expt","","0.3253779088","","0.145243047","","0.3589666793","","","","","",""
"197","","bandit","121","512168","0.0-83.0-0.0","92272970","wem/bandit_single","A36470UBRH28GO","pain","7","","72","H","0","img/none_selected.jpg","0","0","1","","0.08302100682","false","46","","0.08302100682","main_expt","","0.2907447256","","0.1871821161","","0.309469461","","","","","",""
"85","","bandit","122","514013","0.0-84.0-0.0","92272970","wem/bandit_single","A36470UBRH28GO","pain","7","","72","H","0","img/none_selected.jpg","0","0","1","","0.04947507936","false","47","","0.04947507936","main_expt","","0.2922490699","","0.1827431821","","0.3486132663","","","","","",""
"76","","bandit","123","515853","0.0-85.0-0.0","92272970","wem/bandit_single","A36470UBRH28GO","pain","7","","72","H","0","img/none_selected.jpg","0","0","1","","0.05970491685","false","48","","0.05970491685","main_expt","","0.3012354267","","0.1863443356","","0.3613151755","","","","","",""
"87","","bandit","124","517702","0.0-86.0-0.0","92272970","wem/bandit_single","A36470UBRH28GO","pain","7","","74","J","1","","0","0","1","","0.3199255499","false","49","","0.05846806591","main_expt","","0.3199255499","","0.2089920758","","0.3810076255","","","","","",""
"68","","bandit","125","519531","0.0-87.0-0.0","92272970","wem/bandit_single","A36470UBRH28GO","pain","7","","74","J","1","","0","0","1","","0.3246792682","false","50","","0.08078022322","main_expt","","0.3246792682","","0.2204805957","","0.3528158806","","","","","",""
"112","","bandit","126","521404","0.0-88.0-0.0","92272970","wem/bandit_single","A36470UBRH28GO","pain","7","","75","K","2","","0","1","0","","0.2796788854","false","51","","0.08366705542","main_expt","","0.3158487008","","0.2796788854","","0.4127521961","","","","","",""
"70","","bandit","127","523238","0.0-89.0-0.0","92272970","wem/bandit_single","A36470UBRH28GO","pain","7","","75","K","2","","0","0","1","","0.2870992152","false","52","","0.1365111474","main_expt","","0.2764666405","","0.2870992152","","0.4034362436","","","","","",""
"55","","bandit","128","525055","0.0-90.0-0.0","92272970","wem/bandit_single","A36470UBRH28GO","pain","7","","75","K","2","","0","1","0","","0.3176469779","false","53","","0.1238361543","main_expt","","0.2740398937","","0.3176469779","","0.4268522392","","","","","",""
"122","","bandit","129","526938","0.0-91.0-0.0","92272970","wem/bandit_single","A36470UBRH28GO","pain","7","","75","K","2","","0","0","1","","0.3407727651","false","54","","0.1150058699","main_expt","","0.2499565254","","0.3407727651","","0.4471231168","","","","","",""
"62","","bandit","130","528760","0.0-92.0-0.0","92272970","wem/bandit_single","A36470UBRH28GO","pain","7","","75","K","2","","0","1","0","","0.380871147","false","55","","0.1498695165","main_expt","","0.221305586","","0.380871147","","0.4397300441","","","","","",""
"111","","bandit","131","530630","0.0-93.0-0.0","92272970","wem/bandit_single","A36470UBRH28GO","pain","7","","75","K","2","","0","0","1","","0.3614982187","false","56","","0.1559096332","main_expt","","0.2513729962","","0.3614982187","","0.4266514607","","","","","",""
"51","","bandit","132","532444","0.0-94.0-0.0","92272970","wem/bandit_single","A36470UBRH28GO","pain","7","","75","K","2","","0","0","1","","0.3219973572","false","57","","0.139260175","main_expt","","0.254621842","","0.3219973572","","0.4351066669","","","","","",""
"104","","bandit","133","534312","0.0-95.0-0.0","92272970","wem/bandit_single","A36470UBRH28GO","pain","7","","75","K","2","","0","0","1","","0.3136466855","false","58","","0.1101041774","main_expt","","0.2911199408","","0.3136466855","","0.4114765848","","","","","",""
"376","","bandit","134","536450","0.0-96.0-0.0","92272970","wem/bandit_single","A36470UBRH28GO","pain","7","","74","J","1","","0","0","1","","0.3260103257","false","59","","0.1619704935","main_expt","","0.3260103257","","0.3553654786","","0.4331866813","","","","","",""
"113","","bandit","135","538322","0.0-97.0-0.0","92272970","wem/bandit_single","A36470UBRH28GO","pain","7","","74","J","1","","0","1","0","","0.3801831719","false","60","","0.1023472493","main_expt","","0.3801831719","","0.302494743","","0.4452666195","","","","","",""
"143","","bandit","136","540228","0.0-98.0-0.0","92272970","wem/bandit_single","A36470UBRH28GO","pain","7","","74","J","1","","0","1","0","","0.4097171909","false","61","","0.1659923055","main_expt","","0.4097171909","","0.3194951829","","0.4533212266","","","","","",""
"183","","bandit","137","542173","0.0-99.0-0.0","92272970","wem/bandit_single","A36470UBRH28GO","pain","7","","74","J","1","","0","0","1","","0.4297251169","false","62","","0.1773336283","main_expt","","0.4297251169","","0.3491175101","","0.4546633602","","","","","",""
"72","","bandit","138","544007","0.0-100.0-0.0","92272970","wem/bandit_single","A36470UBRH28GO","pain","7","","74","J","1","","0","1","0","","0.4523537282","false","63","","0.1838898345","main_expt","","0.4523537282","","0.3618657485","","0.431915851","","","","","",""
"122","","bandit","139","545886","0.0-101.0-0.0","92272970","wem/bandit_single","A36470UBRH28GO","pain","7","","74","J","1","","0","1","0","","0.4577822331","false","64","","0.1535376321","main_expt","","0.4577822331","","0.3331995431","","0.4397857724","","","","","",""
"160","","bandit","140","547804","0.0-102.0-0.0","92272970","wem/bandit_single","A36470UBRH28GO","pain","7","","74","J","1","","0","0","1","","0.4366397349","false","65","","0.1696059705","main_expt","","0.4366397349","","0.3222916502","","0.3803141428","","","","","",""
"68","","bandit","141","549636","0.0-103.0-0.0","92272970","wem/bandit_single","A36470UBRH28GO","pain","7","","74","J","1","","0","0","1","","0.4223045317","false","66","","0.1747776373","main_expt","","0.4223045317","","0.2935747005","","0.4318665216","","","","","",""
"100","","bandit","142","551498","0.0-104.0-0.0","92272970","wem/bandit_single","A36470UBRH28GO","pain","7","","74","J","1","","0","0","1","","0.453094409","false","67","","0.1880318686","main_expt","","0.453094409","","0.272098099","","0.3783394243","","","","","",""
"78","","bandit","143","553338","0.0-105.0-0.0","92272970","wem/bandit_single","A36470UBRH28GO","pain","7","","74","J","1","","0","0","1","","0.4441165928","false","68","","0.1703396733","main_expt","","0.4441165928","","0.2839543474","","0.3424409758","","","","","",""
"76","","bandit","144","555177","0.0-106.0-0.0","92272970","wem/bandit_single","A36470UBRH28GO","pain","7","","72","H","0","img/none_selected.jpg","0","0","1","","0.2041307244","false","69","","0.2041307244","main_expt","","0.437102529","","0.3106529802","","0.3825588005","","","","","",""
"102","","bandit","145","557040","0.0-107.0-0.0","92272970","wem/bandit_single","A36470UBRH28GO","pain","7","","72","H","0","img/none_selected.jpg","0","1","0","","0.2380468473","false","70","","0.2380468473","main_expt","","0.463010405","","0.2152651325","","0.4019939479","","","","","",""
"118","","bandit","146","558923","0.0-108.0-0.0","92272970","wem/bandit_single","A36470UBRH28GO","pain","7","","72","H","0","img/none_selected.jpg","0","1","0","","0.2540220497","false","71","","0.2540220497","main_expt","","0.4511055106","","0.2150247356","","0.3995375499","","","","","",""
"144","","bandit","147","560825","0.0-109.0-0.0","92272970","wem/bandit_single","A36470UBRH28GO","pain","7","","72","H","0","img/none_selected.jpg","0","0","1","","0.2877519017","false","72","","0.2877519017","main_expt","","0.456238914","","0.2196699897","","0.3655493795","","","","","",""
"143","","bandit","148","562730","0.0-110.0-0.0","92272970","wem/bandit_single","A36470UBRH28GO","pain","7","","72","H","0","img/none_selected.jpg","0","1","0","","0.3090267326","false","73","","0.3090267326","main_expt","","0.4499554287","","0.2086164273","","0.3443296275","","","","","",""
"115","","bandit","149","564609","0.0-111.0-0.0","92272970","wem/bandit_single","A36470UBRH28GO","pain","7","","72","H","0","img/none_selected.jpg","0","0","1","","0.3400901674","false","74","","0.3400901674","main_expt","","0.4439780401","","0.2226006448","","0.3647916216","","","","","",""
"133","","bandit","150","566506","0.0-112.0-0.0","92272970","wem/bandit_single","A36470UBRH28GO","pain","7","","72","H","0","img/none_selected.jpg","0","1","0","","0.3519214117","false","75","","0.3519214117","main_expt","","0.4332341766","","0.2015377479","","0.3531956798","","","","","",""
"112","","bandit","151","568382","0.0-113.0-0.0","92272970","wem/bandit_single","A36470UBRH28GO","pain","7","","72","H","0","img/none_selected.jpg","0","0","1","","0.3621584499","false","76","","0.3621584499","main_expt","","0.4241516559","","0.2614433548","","0.3375826797","","","","","",""
"57","","bandit","152","570201","0.0-114.0-0.0","92272970","wem/bandit_single","A36470UBRH28GO","pain","7","","72","H","0","img/none_selected.jpg","0","0","1","","0.3919288513","false","77","","0.3919288513","main_expt","","0.404580079","","0.3216300101","","0.3389323042","","","","","",""
"61","","bandit","153","572026","0.0-115.0-0.0","92272970","wem/bandit_single","A36470UBRH28GO","pain","7","","72","H","0","img/none_selected.jpg","0","0","1","","0.3733142104","false","78","","0.3733142104","main_expt","","0.4291019186","","0.3253900192","","0.3633343286","","","","","",""
"973","","bandit","154","574761","0.0-116.0-0.0","92272970","wem/bandit_single","A36470UBRH28GO","pain","7","","72","H","0","img/none_selected.jpg","0","1","0","","0.3594898906","false","79","","0.3594898906","main_expt","","0.4431072694","","0.3253799771","","0.35510173","","","","","",""
"105","","bandit","155","576629","0.0-117.0-0.0","92272970","wem/bandit_single","A36470UBRH28GO","pain","7","","72","H","0","img/none_selected.jpg","0","0","1","","0.3740263767","false","80","","0.3740263767","main_expt","","0.4443251544","","0.321449248","","0.3313699227","","","","","",""
"53","","bandit","156","578445","0.0-118.0-0.0","92272970","wem/bandit_single","A36470UBRH28GO","pain","7","","72","H","0","img/none_selected.jpg","0","0","1","","0.4031190442","false","81","","0.4031190442","main_expt","","0.4222806544","","0.3644617874","","0.3545786091","","","","","",""
"45","","bandit","157","580252","0.0-119.0-0.0","92272970","wem/bandit_single","A36470UBRH28GO","pain","7","","72","H","0","img/none_selected.jpg","0","0","1","","0.397551472","false","82","","0.397551472","main_expt","","0.4348184101","","0.3646727683","","0.36958943","","","","","",""
"577","","bandit","158","582589","0.0-120.0-0.0","92272970","wem/bandit_single","A36470UBRH28GO","pain","7","","72","H","0","img/none_selected.jpg","0","1","0","","0.4251589807","false","83","","0.4251589807","main_expt","","0.4237956171","","0.3823543101","","0.3818301908","","","","","",""
"193","","bandit","159","584543","0.0-121.0-0.0","92272970","wem/bandit_single","A36470UBRH28GO","pain","7","","72","H","0","img/none_selected.jpg","0","0","1","","0.406460911","false","84","","0.406460911","main_expt","","0.4255820551","","0.3927357351","","0.3841316884","","","","","",""
"69","","bandit","160","586375","0.0-122.0-0.0","92272970","wem/bandit_single","A36470UBRH28GO","pain","7","","72","H","0","img/none_selected.jpg","0","0","1","","0.4190094225","false","85","","0.4190094225","main_expt","","0.4407045426","","0.3242792488","","0.3769873451","","","","","",""
"163","","bandit","161","588301","0.0-123.0-0.0","92272970","wem/bandit_single","A36470UBRH28GO","pain","7","","76","L","3","","0","1","0","","0.3624331431","false","86","","0.4006115864","main_expt","","0.4276882268","","0.3257651096","","0.3624331431","","","","","",""
"108","","bandit","162","590171","0.0-124.0-0.0","92272970","wem/bandit_single","A36470UBRH28GO","pain","7","","76","L","3","","0","0","1","","0.356636023","false","87","","0.3761684651","main_expt","","0.4430021271","","0.3768973447","","0.356636023","","","","","",""
"102","","bandit","163","592035","0.0-125.0-0.0","92272970","wem/bandit_single","A36470UBRH28GO","pain","7","","76","L","3","","0","0","1","","0.392705536","false","88","","0.3935355307","main_expt","","0.4259892117","","0.3333804566","","0.392705536","","","","","",""
"127","","bandit","164","593922","0.0-126.0-0.0","92272970","wem/bandit_single","A36470UBRH28GO","pain","7","","76","L","3","","0","0","1","","0.39579544","false","89","","0.3870426381","main_expt","","0.4451393147","","0.3326985542","","0.39579544","","","","","",""
"254","","bandit","165","595939","0.0-127.0-0.0","92272970","wem/bandit_single","A36470UBRH28GO","pain","7","","76","L","3","","0","0","1","","0.3832348421","false","90","","0.3838573884","main_expt","","0.4450202473","","0.3392082427","","0.3832348421","","","","","",""
"148","","bandit","166","597849","0.0-128.0-0.0","92272970","wem/bandit_single","A36470UBRH28GO","pain","7","","75","K","2","","0","1","0","","0.2686139101","false","91","","0.376063899","main_expt","","0.428726471","","0.2686139101","","0.4009824957","","","","","",""
"128","","bandit","167","599741","0.0-129.0-0.0","92272970","wem/bandit_single","A36470UBRH28GO","pain","7","","75","K","2","","0","0","1","","0.247120026","false","92","","0.3877690924","main_expt","","0.4207086611","","0.247120026","","0.360902971","","","","","",""
"144","","bandit","168","601651","0.0-130.0-0.0","92272970","wem/bandit_single","A36470UBRH28GO","pain","7","","75","K","2","","0","0","1","","0.1945967668","false","93","","0.3832772702","main_expt","","0.4271109851","","0.1945967668","","0.4098322422","","","","","",""
"67","","bandit","169","603483","0.0-131.0-0.0","92272970","wem/bandit_single","A36470UBRH28GO","pain","7","","75","K","2","","0","0","1","","0.2059940606","false","94","","0.3569295009","main_expt","","0.3988025755","","0.2059940606","","0.365685068","","","","","",""
"47","","bandit","170","605290","0.0-132.0-0.0","92272970","wem/bandit_single","A36470UBRH28GO","pain","7","","75","K","2","","0","1","0","","0.2276463074","false","95","","0.3462427099","main_expt","","0.3413505888","","0.2276463074","","0.3246475432","","","","","",""
"128","","bandit","171","607181","0.0-133.0-0.0","92272970","wem/bandit_single","A36470UBRH28GO","pain","7","","75","K","2","","0","0","1","","0.3088064785","false","96","","0.2902370181","main_expt","","0.2791034264","","0.3088064785","","0.3155220288","","","","","",""
"53","","bandit","172","609000","0.0-134.0-0.0","92272970","wem/bandit_single","A36470UBRH28GO","pain","7","","75","K","2","","0","0","1","","0.3167474357","false","97","","0.2679909325","main_expt","","0.2300358144","","0.3167474357","","0.2920368253","","","","","",""
"348","","bandit","173","611108","0.0-135.0-0.0","92272970","wem/bandit_single","A36470UBRH28GO","pain","7","","75","K","2","","0","1","0","","0.3311058144","false","98","","0.1827708427","main_expt","","0.245913642","","0.3311058144","","0.3060047135","","","","","",""
"151","","bandit","174","613024","0.0-136.0-0.0","92272970","wem/bandit_single","A36470UBRH28GO","pain","7","","75","K","2","","0","0","1","","0.2831383079","false","99","","0.1847148603","main_expt","","0.1977736678","","0.2831383079","","0.2834300817","","","","","",""
"65","","bandit","175","614852","0.0-137.0-0.0","92272970","wem/bandit_single","A36470UBRH28GO","pain","7","","75","K","2","","0","1","0","","0.2697282324","false","100","","0.230590463","main_expt","","0.2300987319","","0.2697282324","","0.3094748938","","","","","",""
"219","","bandit","176","616834","0.0-138.0-0.0","92272970","wem/bandit_single","A36470UBRH28GO","pain","7","","75","K","2","","0","0","1","","0.2908511313","false","101","","0.2036778932","main_expt","","0.2375929523","","0.2908511313","","0.2776834174","","","","","",""
"81","","bandit","177","618680","0.0-139.0-0.0","92272970","wem/bandit_single","A36470UBRH28GO","pain","7","","75","K","2","","0","0","1","","0.3371086545","false","102","","0.2146692458","main_expt","","0.2034833152","","0.3371086545","","0.2649828438","","","","","",""
"108","","bandit","178","620548","0.0-140.0-0.0","92272970","wem/bandit_single","A36470UBRH28GO","pain","7","","75","K","2","","0","0","1","","0.2925399581","false","103","","0.2194044235","main_expt","","0.2510503681","","0.2925399581","","0.1977849252","","","","","",""
"147","","bandit","179","622460","0.0-141.0-0.0","92272970","wem/bandit_single","A36470UBRH28GO","pain","7","","74","J","1","","0","0","1","","0.2563420723","false","104","","0.2869514305","main_expt","","0.2563420723","","0.229866195","","0.164180841","","","","","",""
"156","","bandit","180","624377","0.0-142.0-0.0","92272970","wem/bandit_single","A36470UBRH28GO","pain","7","","74","J","1","","0","0","1","","0.2025228913","false","105","","0.2577924419","main_expt","","0.2025228913","","0.2786648232","","0.1410880488","","","","","",""
"89","","bandit","181","626224","0.0-143.0-0.0","92272970","wem/bandit_single","A36470UBRH28GO","pain","7","","74","J","1","","0","0","1","","0.2288818116","false","106","","0.2984789445","main_expt","","0.2288818116","","0.2907959635","","0.2151151798","","","","","",""
"12","","bandit","182","628001","0.0-144.0-0.0","92272970","wem/bandit_single","A36470UBRH28GO","pain","7","","74","J","1","","0","0","1","","0.2725684277","false","107","","0.2483059356","main_expt","","0.2725684277","","0.2934471614","","0.2068678097","","","","","",""
"66","","bandit","183","629830","0.0-145.0-0.0","92272970","wem/bandit_single","A36470UBRH28GO","pain","7","","74","J","1","","0","1","0","","0.2725367566","false","108","","0.2177203031","main_expt","","0.2725367566","","0.2761460559","","0.1775779384","","","","","",""
"137","","bandit","184","631730","0.0-146.0-0.0","92272970","wem/bandit_single","A36470UBRH28GO","pain","7","","74","J","1","","0","0","1","","0.2645412755","false","109","","0.2155336726","main_expt","","0.2645412755","","0.3154055318","","0.1633907035","","","","","",""
"79","","bandit","185","633573","0.0-147.0-0.0","92272970","wem/bandit_single","A36470UBRH28GO","pain","7","","74","J","1","","0","0","1","","0.2537238549","false","110","","0.2012134729","main_expt","","0.2537238549","","0.3375256398","","0.1918139944","","","","","",""
"250","","bandit","186","635585","0.0-148.0-0.0","92272970","wem/bandit_single","A36470UBRH28GO","pain","7","","72","H","0","img/none_selected.jpg","0","0","1","","0.1362677005","false","111","","0.1362677005","main_expt","","0.2404930496","","0.3575411602","","0.1512725872","","","","","",""
"64","","bandit","187","637414","0.0-149.0-0.0","92272970","wem/bandit_single","A36470UBRH28GO","pain","7","","72","H","0","img/none_selected.jpg","0","0","1","","0.1146466799","false","112","","0.1146466799","main_expt","","0.2031918028","","0.3357984678","","0.1579322392","","","","","",""
"63","","bandit","188","639240","0.0-150.0-0.0","92272970","wem/bandit_single","A36470UBRH28GO","pain","7","","72","H","0","img/none_selected.jpg","0","0","1","","0.1503083978","false","113","","0.1503083978","main_expt","","0.2649243105","","0.2950954247","","0.1638150459","","","","","",""
"132","","bandit","189","641135","0.0-151.0-0.0","92272970","wem/bandit_single","A36470UBRH28GO","pain","7","","76","L","3","","0","0","1","","0.1913716077","false","114","","0.1750780752","main_expt","","0.2669290767","","0.3242299597","","0.1913716077","","","","","",""
"344","","bandit","190","643244","0.0-152.0-0.0","92272970","wem/bandit_single","A36470UBRH28GO","pain","7","","76","L","3","","0","0","1","","0.1762938339","false","115","","0.1486636943","main_expt","","0.2538219684","","0.3224166769","","0.1762938339","","","","","",""
"140","","bandit","191","645148","0.0-153.0-0.0","92272970","wem/bandit_single","A36470UBRH28GO","pain","7","","76","L","3","","0","1","0","","0.1696576366","false","116","","0.149377163","main_expt","","0.2987800907","","0.3512221687","","0.1696576366","","","","","",""
"125","","bandit","192","647035","0.0-154.0-0.0","92272970","wem/bandit_single","A36470UBRH28GO","pain","7","","76","L","3","","0","0","1","","0.1743908607","false","117","","0.1255156769","main_expt","","0.2863147972","","0.3854596622","","0.1743908607","","","","","",""
"59","","bandit","193","648857","0.0-155.0-0.0","92272970","wem/bandit_single","A36470UBRH28GO","pain","7","","76","L","3","","0","0","1","","0.2187419408","false","118","","0.09405737873","main_expt","","0.2863485017","","0.3311459155","","0.2187419408","","","","","",""
"156","","bandit","194","650778","0.0-156.0-0.0","92272970","wem/bandit_single","A36470UBRH28GO","pain","7","","75","K","2","","0","0","1","","0.3243143835","false","119","","0.0580133569","main_expt","","0.2704451175","","0.3243143835","","0.2602037773","","","","","",""
"68","","bandit","195","652605","0.0-157.0-0.0","92272970","wem/bandit_single","A36470UBRH28GO","pain","7","","75","K","2","","0","0","1","","0.3830596167","false","120","","0.04965982272","main_expt","","0.2545920365","","0.3830596167","","0.2665240463","","","","","",""
"132","","bandit","196","654498","0.0-158.0-0.0","92272970","wem/bandit_single","A36470UBRH28GO","pain","7","","75","K","2","","0","1","0","","0.4451194006","false","121","","0.05452098248","main_expt","","0.323502768","","0.4451194006","","0.2300357123","","","","","",""
"145","","bandit","197","656404","0.0-159.0-0.0","92272970","wem/bandit_single","A36470UBRH28GO","pain","7","","75","K","2","","0","1","0","","0.4636898934","false","122","","0.0475995955","main_expt","","0.3380353075","","0.4636898934","","0.2071140152","","","","","",""
"35","","bandit","198","658201","0.0-160.0-0.0","92272970","wem/bandit_single","A36470UBRH28GO","pain","7","","75","K","2","","0","0","1","","0.4384370655","false","123","","0.04799769062","main_expt","","0.341491638","","0.4384370655","","0.2590656513","","","","","",""
"389","","bandit","199","660354","0.0-161.0-0.0","92272970","wem/bandit_single","A36470UBRH28GO","pain","7","","75","K","2","","0","0","1","","0.456933673","false","124","","0.06454195205","main_expt","","0.3269941981","","0.456933673","","0.2492473134","","","","","",""
"157","","bandit","200","662271","0.0-162.0-0.0","92272970","wem/bandit_single","A36470UBRH28GO","pain","7","","75","K","2","","0","1","0","","0.4834692703","false","125","","0.0570469748","main_expt","","0.3263020805","","0.4834692703","","0.2569957816","","","","","",""
"177","","bandit","201","664210","0.0-163.0-0.0","92272970","wem/bandit_single","A36470UBRH28GO","pain","7","","75","K","2","","0","1","0","","0.4895912119","false","126","","0.06214194377","main_expt","","0.3377655475","","0.4895912119","","0.2715808503","","","","","",""
"119","","bandit","202","666092","0.0-164.0-0.0","92272970","wem/bandit_single","A36470UBRH28GO","pain","7","","75","K","2","","0","0","1","","0.4791977258","false","127","","0.06219251386","main_expt","","0.3489319456","","0.4791977258","","0.3260406689","","","","","",""
"54","","bandit","203","667904","0.0-165.0-0.0","92272970","wem/bandit_single","A36470UBRH28GO","pain","7","","75","K","2","","0","0","1","","0.4772399827","false","128","","0.06192095676","main_expt","","0.3450526125","","0.4772399827","","0.3487232841","","","","","",""
"52","","bandit","204","669718","0.0-166.0-0.0","92272970","wem/bandit_single","A36470UBRH28GO","pain","7","","75","K","2","","0","0","1","","0.4688955373","false","129","","0.03846933599","main_expt","","0.3297424559","","0.4688955373","","0.3601162145","","","","","",""
"61","","bandit","205","671539","0.0-167.0-0.0","92272970","wem/bandit_single","A36470UBRH28GO","pain","7","","75","K","2","","0","1","0","","0.4651179545","false","130","","0.02330960587","main_expt","","0.3731420779","","0.4651179545","","0.4185413006","","","","","",""
"103","","bandit","206","673407","0.0-168.0-0.0","92272970","wem/bandit_single","A36470UBRH28GO","pain","7","","75","K","2","","0","0","1","","0.4794739162","false","131","","0.03495479357","main_expt","","0.325638262","","0.4794739162","","0.4537663544","","","","","",""
"790","","bandit","207","675965","0.0-169.0-0.0","92272970","wem/bandit_single","A36470UBRH28GO","pain","7","","75","K","2","","0","1","0","","0.4679846252","false","132","","0.02752519027","main_expt","","0.3132782049","","0.4679846252","","0.4489861829","","","","","",""
"213","","bandit","208","677944","0.0-170.0-0.0","92272970","wem/bandit_single","A36470UBRH28GO","pain","7","","75","K","2","","0","0","1","","0.4636487781","false","133","","0.03239645132","main_expt","","0.3552481716","","0.4636487781","","0.4465240103","","","","","",""
"96","","bandit","209","679808","0.0-171.0-0.0","92272970","wem/bandit_single","A36470UBRH28GO","pain","7","","75","K","2","","0","1","0","","0.4578614037","false","134","","0.02361228775","main_expt","","0.3478795997","","0.4578614037","","0.4286255731","","","","","",""
"128","","bandit","210","681700","0.0-172.0-0.0","92272970","wem/bandit_single","A36470UBRH28GO","pain","7","","75","K","2","","0","0","1","","0.4339873336","false","135","","0.01378345967","main_expt","","0.3394088604","","0.4339873336","","0.3969320342","","","","","",""
"241","","bandit","211","683700","0.0-173.0-0.0","92272970","wem/bandit_single","A36470UBRH28GO","pain","7","","75","K","2","","0","0","1","","0.4091277288","false","136","","0.01349892684","main_expt","","0.3739095734","","0.4091277288","","0.3975573163","","","","","",""
"136","","bandit","212","685599","0.0-174.0-0.0","92272970","wem/bandit_single","A36470UBRH28GO","pain","7","","75","K","2","","0","1","0","","0.4024864596","false","137","","0.01373747566","main_expt","","0.3319731639","","0.4024864596","","0.4226438881","","","","","",""
"152","","bandit","213","687515","0.0-175.0-0.0","92272970","wem/bandit_single","A36470UBRH28GO","pain","7","","75","K","2","","0","0","1","","0.3793932322","false","138","","0.009346923256","main_expt","","0.3427854578","","0.3793932322","","0.383622376","","","","","",""
"167","","bandit","214","689443","0.0-176.0-0.0","92272970","wem/bandit_single","A36470UBRH28GO","pain","7","","75","K","2","","0","0","1","","0.3940691536","false","139","","0.005947695369","main_expt","","0.2804250852","","0.3940691536","","0.3892077266","","","","","",""
"51","","bandit","215","691259","0.0-177.0-0.0","92272970","wem/bandit_single","A36470UBRH28GO","pain","7","","75","K","2","","0","1","0","","0.3878174143","false","140","","0.003062149202","main_expt","","0.294489168","","0.3878174143","","0.3721285976","","","","","",""
"138","","bandit","216","693164","0.0-178.0-0.0","92272970","wem/bandit_single","A36470UBRH28GO","pain","7","","75","K","2","","0","0","1","","0.3671315422","false","141","","0.003723800288","main_expt","","0.2849233321","","0.3671315422","","0.403063379","","","","","",""
"97","","bandit","217","695028","0.0-179.0-0.0","92272970","wem/bandit_single","A36470UBRH28GO","pain","7","","75","K","2","","0","0","1","","0.338830911","false","142","","0.003048460602","main_expt","","0.2605380125","","0.338830911","","0.3916907223","","","","","",""
"78","","bandit","218","696875","0.0-180.0-0.0","92272970","wem/bandit_single","A36470UBRH28GO","pain","7","","75","K","2","","0","0","1","","0.2709557481","false","143","","0.002664125267","main_expt","","0.3030740536","","0.2709557481","","0.4212357341","","","","","",""
"205","","bandit","219","698844","0.0-181.0-0.0","92272970","wem/bandit_single","A36470UBRH28GO","pain","7","","75","K","2","","0","0","1","","0.249986241","false","144","","0.0015633636","main_expt","","0.29766321","","0.249986241","","0.3944164323","","","","","",""
"73","","bandit","220","700682","0.0-182.0-0.0","92272970","wem/bandit_single","A36470UBRH28GO","pain","7","","75","K","2","","0","0","1","","0.2694710106","false","145","","0.002084593646","main_expt","","0.2862291296","","0.2694710106","","0.4129391908","","","","","",""
"96","","bandit","221","702540","0.0-183.0-0.0","92272970","wem/bandit_single","A36470UBRH28GO","pain","7","","74","J","1","","0","0","1","","0.3151642481","false","146","","0.0008356934022","main_expt","","0.3151642481","","0.3099728414","","0.4027876266","","","","","",""
"211","","bandit","222","704514","0.0-184.0-0.0","92272970","wem/bandit_single","A36470UBRH28GO","pain","7","","74","J","1","","0","1","0","","0.3261334855","false","147","","0.00187417998","main_expt","","0.3261334855","","0.3010760093","","0.3906291495","","","","","",""
"206","","bandit","223","706481","0.0-185.0-0.0","92272970","wem/bandit_single","A36470UBRH28GO","pain","7","","74","J","1","","0","0","1","","0.3605999671","false","148","","0.001549413081","main_expt","","0.3605999671","","0.2861733563","","0.3718958907","","","","","",""
"153","","bandit","224","708401","0.0-186.0-0.0","92272970","wem/bandit_single","A36470UBRH28GO","pain","7","","74","J","1","","0","0","1","","0.3848975894","false","149","","0.002318569837","main_expt","","0.3848975894","","0.2613296644","","0.3513552953","","","","","",""
"45","","bandit","225","710212","0.0-187.0-0.0","92272970","wem/bandit_single","A36470UBRH28GO","pain","7","","74","J","1","","0","1","0","","0.3680345664","false","150","","0.002401941109","main_expt","","0.3680345664","","0.2955554784","","0.3796712552","","","","","",""
"271","","bandit","226","712247","0.0-188.0-0.0","92272970","wem/bandit_single","A36470UBRH28GO","pain","7","","74","J","1","","0","1","0","","0.3517559312","false","151","","0.002416650241","main_expt","","0.3517559312","","0.2928365899","","0.4275550045","","","","","",""
"79","","bandit","227","714095","0.0-189.0-0.0","92272970","wem/bandit_single","A36470UBRH28GO","pain","7","","74","J","1","","0","0","1","","0.3963282571","false","152","","0.002533271813","main_expt","","0.3963282571","","0.3000067833","","0.4266807854","","","","","",""
"147","","bandit","228","716006","0.0-190.0-0.0","92272970","wem/bandit_single","A36470UBRH28GO","pain","7","","74","J","1","","0","0","1","","0.432842039","false","153","","0.00322942279","main_expt","","0.432842039","","0.2757802357","","0.4633151701","","","","","",""
"65","","bandit","229","717831","0.0-191.0-0.0","92272970","wem/bandit_single","A36470UBRH28GO","pain","7","","74","J","1","","0","1","0","","0.4134551824","false","154","","0.003404333974","main_expt","","0.4134551824","","0.3252288772","","0.4723469507","","","","","",""
"207","","bandit","230","719798","0.0-192.0-0.0","92272970","wem/bandit_single","A36470UBRH28GO","pain","7","","74","J","1","","0","0","1","","0.426737857","false","155","","0.008925030754","main_expt","","0.426737857","","0.2746928085","","0.4829251431","","","","","",""
"96","","bandit","231","721659","0.0-193.0-0.0","92272970","wem/bandit_single","A36470UBRH28GO","pain","7","","74","J","1","","0","1","0","","0.4289541051","false","156","","0.005317619152","main_expt","","0.4289541051","","0.2881451241","","0.4753947098","","","","","",""
"158","","bandit","232","723580","0.0-194.0-0.0","92272970","wem/bandit_single","A36470UBRH28GO","pain","7","","74","J","1","","0","1","0","","0.4593738684","false","157","","0.002657446392","main_expt","","0.4593738684","","0.2861132768","","0.4686295074","","","","","",""
"99","","bandit","233","725441","0.0-195.0-0.0","92272970","wem/bandit_single","A36470UBRH28GO","pain","7","","74","J","1","","0","0","1","","0.4716769587","false","158","","0.005349678466","main_expt","","0.4716769587","","0.2382703247","","0.4746137902","","","","","",""
"97","","bandit","234","727301","0.0-196.0-0.0","92272970","wem/bandit_single","A36470UBRH28GO","pain","7","","74","J","1","","0","0","1","","0.4566829936","false","159","","0.00353293949","main_expt","","0.4566829936","","0.2650616746","","0.4626257703","","","","","",""
"44","","bandit","235","729110","0.0-197.0-0.0","92272970","wem/bandit_single","A36470UBRH28GO","pain","7","","74","J","1","","0","1","0","","0.4684401337","false","160","","0.004525880368","main_expt","","0.4684401337","","0.2841227011","","0.4690497323","","","","","",""
"156","","bandit","236","731030","0.0-198.0-0.0","92272970","wem/bandit_single","A36470UBRH28GO","pain","7","","74","J","1","","0","1","0","","0.4327192474","false","161","","0.00364468733","main_expt","","0.4327192474","","0.3103310899","","0.4605728382","","","","","",""
"86","","bandit","237","732880","0.0-199.0-0.0","92272970","wem/bandit_single","A36470UBRH28GO","pain","7","","74","J","1","","0","0","1","","0.4158578039","false","162","","0.004567203872","main_expt","","0.4158578039","","0.2990864795","","0.4663204896","","","","","",""
"80","","bandit","238","734728","0.0-200.0-0.0","92272970","wem/bandit_single","A36470UBRH28GO","pain","7","","74","J","1","","0","0","1","","0.4206849782","false","163","","0.003538815","main_expt","","0.4206849782","","0.2650304997","","0.4626626357","","","","","",""
"103","","bandit","239","736599","0.0-201.0-0.0","92272970","wem/bandit_single","A36470UBRH28GO","pain","7","","74","J","1","","0","1","0","","0.4276923589","false","164","","0.002896615325","main_expt","","0.4276923589","","0.2877519924","","0.4672680551","","","","","",""
"185","","bandit","240","738550","0.0-202.0-0.0","92272970","wem/bandit_single","A36470UBRH28GO","pain","7","","74","J","1","","0","0","1","","0.4204466813","false","165","","0.004500484281","main_expt","","0.4204466813","","0.2818109827","","0.455015491","","","","","",""
"94","","bandit","241","740405","0.0-203.0-0.0","92272970","wem/bandit_single","A36470UBRH28GO","pain","7","","74","J","1","","0","1","0","","0.4229734844","false","166","","0.01017739848","main_expt","","0.4229734844","","0.324785045","","0.4201800218","","","","","",""
"218","","bandit","242","742387","0.0-204.0-0.0","92272970","wem/bandit_single","A36470UBRH28GO","pain","7","","74","J","1","","0","1","0","","0.4474449943","false","167","","0.0129517719","main_expt","","0.4474449943","","0.3339304688","","0.4430085171","","","","","",""
"133","","bandit","243","744287","0.0-205.0-0.0","92272970","wem/bandit_single","A36470UBRH28GO","pain","7","","74","J","1","","0","1","0","","0.4458086367","false","168","","0.009045291763","main_expt","","0.4458086367","","0.3351003476","","0.4526671473","","","","","",""
"102","","bandit","244","746153","0.0-206.0-0.0","92272970","wem/bandit_single","A36470UBRH28GO","pain","7","","74","J","1","","0","1","0","","0.4619433307","false","169","","0.01553154223","main_expt","","0.4619433307","","0.3556935824","","0.4477525289","","","","","",""
"107","","bandit","245","748022","0.0-207.0-0.0","92272970","wem/bandit_single","A36470UBRH28GO","pain","7","","74","J","1","","0","0","1","","0.4703570947","false","170","","0.01787531072","main_expt","","0.4703570947","","0.3690608098","","0.41154262","","","","","",""
"49","","bandit","246","749831","0.0-208.0-0.0","92272970","wem/bandit_single","A36470UBRH28GO","pain","7","","74","J","1","","0","0","1","","0.474742395","false","171","","0.01316551092","main_expt","","0.474742395","","0.3631266209","","0.37868858","","","","","",""
"133","","bandit","247","751726","0.0-209.0-0.0","92272970","wem/bandit_single","A36470UBRH28GO","pain","7","","74","J","1","","0","1","0","","0.4773845315","false","172","","0.0172037691","main_expt","","0.4773845315","","0.3392191481","","0.3971498268","","","","","",""
"156","","bandit","248","753645","0.0-210.0-0.0","92272970","wem/bandit_single","A36470UBRH28GO","pain","7","","74","J","1","","0","0","1","","0.4680058345","false","173","","0.01427011775","main_expt","","0.4680058345","","0.2931772585","","0.4319579383","","","","","",""
"136","","bandit","249","755543","0.0-211.0-0.0","92272970","wem/bandit_single","A36470UBRH28GO","pain","7","","74","J","1","","0","0","1","","0.4561145842","false","174","","0.01057019218","main_expt","","0.4561145842","","0.2750831853","","0.4174714043","","","","","",""
"124","","bandit","250","757430","0.0-212.0-0.0","92272970","wem/bandit_single","A36470UBRH28GO","pain","7","","74","J","1","","0","1","0","","0.472279608","false","175","","0.007255369755","main_expt","","0.472279608","","0.2997345097","","0.3846013355","","","","","",""
"159","","bandit","251","759353","0.0-213.0-0.0","92272970","wem/bandit_single","A36470UBRH28GO","pain","7","","74","J","1","","0","1","0","","0.4602447812","false","176","","0.01305273867","main_expt","","0.4602447812","","0.3402413884","","0.4019342833","","","","","",""
"628","","bandit","252","761748","0.0-214.0-0.0","92272970","wem/bandit_single","A36470UBRH28GO","pain","7","","74","J","1","","0","1","0","","0.4343313091","false","177","","0.0133150908","main_expt","","0.4343313091","","0.3099882557","","0.4211485366","","","","","",""
"60","","bandit","253","763571","0.0-215.0-0.0","92272970","wem/bandit_single","A36470UBRH28GO","pain","7","","74","J","1","","0","0","1","","0.4048428007","false","178","","0.01259822705","main_expt","","0.4048428007","","0.2761175095","","0.4133977621","","","","","",""
"109","","bandit","254","765443","0.0-216.0-0.0","92272970","wem/bandit_single","A36470UBRH28GO","pain","7","","74","J","1","","0","0","1","","0.3826353834","false","179","","0.008971211221","main_expt","","0.3826353834","","0.3053987856","","0.4395013083","","","","","",""
"177","","bandit","255","767380","0.0-217.0-0.0","92272970","wem/bandit_single","A36470UBRH28GO","pain","7","","74","J","1","","0","0","1","","0.3352628501","false","180","","0.01053614943","main_expt","","0.3352628501","","0.291880519","","0.4385200931","","","","","",""
"100","","bandit","256","769249","0.0-218.0-0.0","92272970","wem/bandit_single","A36470UBRH28GO","pain","7","","74","J","1","","0","0","1","","0.2990499081","false","181","","0.01184041186","main_expt","","0.2990499081","","0.298429346","","0.4225113135","","","","","",""
"68","","bandit","257","771084","0.0-219.0-0.0","92272970","wem/bandit_single","A36470UBRH28GO","pain","7","","74","J","1","","0","1","0","","0.3698835663","false","182","","0.03042574256","main_expt","","0.3698835663","","0.3343264324","","0.3723799893","","","","","",""
"193","","bandit","258","773043","0.0-220.0-0.0","92272970","wem/bandit_single","A36470UBRH28GO","pain","7","","74","J","1","","0","1","0","","0.3849917371","false","183","","0.03286829004","main_expt","","0.3849917371","","0.2890729732","","0.3790924375","","","","","",""
"163","","bandit","259","774972","0.0-221.0-0.0","92272970","wem/bandit_single","A36470UBRH28GO","pain","7","","74","J","1","","0","0","1","","0.3560661239","false","184","","0.05565884368","main_expt","","0.3560661239","","0.1975841231","","0.4122006093","","","","","",""
"118","","bandit","260","776857","0.0-222.0-0.0","92272970","wem/bandit_single","A36470UBRH28GO","pain","7","","74","J","1","","0","0","1","","0.3637043243","false","185","","0.05703602855","main_expt","","0.3637043243","","0.213981158","","0.3681720139","","","","","",""
"205","","bandit","261","778827","0.0-223.0-0.0","92272970","wem/bandit_single","A36470UBRH28GO","pain","7","","74","J","1","","0","0","1","","0.370254809","false","186","","0.08167625523","main_expt","","0.370254809","","0.1690135127","","0.3735732413","","","","","",""
"98","","bandit","262","780693","0.0-224.0-0.0","92272970","wem/bandit_single","A36470UBRH28GO","pain","7","","74","J","1","","0","0","1","","0.3451477914","false","187","","0.08146612985","main_expt","","0.3451477914","","0.2606776113","","0.3763431734","","","","","",""
"64","","bandit","263","782525","0.0-225.0-0.0","92272970","wem/bandit_single","A36470UBRH28GO","pain","7","","74","J","1","","0","0","1","","0.3939300048","false","188","","0.09365986726","main_expt","","0.3939300048","","0.2431197375","","0.3515668436","","","","","",""
"129","","bandit","264","784420","0.0-226.0-0.0","92272970","wem/bandit_single","A36470UBRH28GO","pain","7","","74","J","1","","0","1","0","","0.4136030152","false","189","","0.09268069957","main_expt","","0.4136030152","","0.2308206277","","0.3343836861","","","","","",""
"217","","bandit","265","786402","0.0-227.0-0.0","92272970","wem/bandit_single","A36470UBRH28GO","pain","7","","74","J","1","","0","1","0","","0.4261376259","false","190","","0.08594859785","main_expt","","0.4261376259","","0.2025271702","","0.2525345787","","","","","",""
"168","","bandit","266","788341","0.0-228.0-0.0","92272970","wem/bandit_single","A36470UBRH28GO","pain","7","","74","J","1","","0","0","1","","0.3908696756","false","191","","0.08932588753","main_expt","","0.3908696756","","0.2751540988","","0.2685183708","","","","","",""
"208","","bandit","267","790317","0.0-229.0-0.0","92272970","wem/bandit_single","A36470UBRH28GO","pain","7","","74","J","1","","0","0","1","","0.4106222578","false","192","","0.1064261942","main_expt","","0.4106222578","","0.2569606715","","0.2572514827","","","","","",""
"173","","bandit","268","792253","0.0-230.0-0.0","92272970","wem/bandit_single","A36470UBRH28GO","pain","7","","74","J","1","","0","1","0","","0.4282135821","false","193","","0.1536879749","main_expt","","0.4282135821","","0.2874900681","","0.1969756064","","","","","",""
"148","","bandit","269","794167","0.0-231.0-0.0","92272970","wem/bandit_single","A36470UBRH28GO","pain","7","","74","J","1","","0","1","0","","0.4423695223","false","194","","0.1389913839","main_expt","","0.4423695223","","0.1735349233","","0.2134952627","","","","","",""
"187","","bandit","270","796123","0.0-232.0-0.0","92272970","wem/bandit_single","A36470UBRH28GO","pain","7","","74","J","1","","0","1","0","","0.4594299266","false","195","","0.1439418744","main_expt","","0.4594299266","","0.1922880567","","0.1620875807","","","","","",""
"110","","bandit","271","797995","0.0-233.0-0.0","92272970","wem/bandit_single","A36470UBRH28GO","pain","7","","74","J","1","","0","1","0","","0.4446405127","false","196","","0.131143091","main_expt","","0.4446405127","","0.180833075","","0.166822232","","","","","",""
"392","","bandit","272","800150","0.0-234.0-0.0","92272970","wem/bandit_single","A36470UBRH28GO","pain","7","","74","J","1","","0","0","1","","0.4559667881","false","197","","0.1358316141","main_expt","","0.4559667881","","0.2213655201","","0.1951417713","","","","","",""
"126","","bandit","273","802043","0.0-235.0-0.0","92272970","wem/bandit_single","A36470UBRH28GO","pain","7","","74","J","1","","0","0","1","","0.4760465659","false","198","","0.1271866158","main_expt","","0.4760465659","","0.1886922679","","0.1946571809","","","","","",""
"160","","bandit","274","803967","0.0-236.0-0.0","92272970","wem/bandit_single","A36470UBRH28GO","pain","7","","74","J","1","","0","1","0","","0.4682530898","false","199","","0.1427164763","main_expt","","0.4682530898","","0.1960792333","","0.125569753","","","","","",""
"227","","bandit","275","805960","0.0-237.0-0.0","92272970","wem/bandit_single","A36470UBRH28GO","pain","7","","74","J","1","","0","0","1","","0.4722721777","false","200","","0.1465126473","main_expt","","0.4722721777","","0.2093645874","","0.110010897","","","","","",""
"116","","bandit","276","807846","0.0-238.0-0.0","92272970","wem/bandit_single","A36470UBRH28GO","pain","7","","74","J","1","","0","0","1","","0.4739800601","false","201","","0.1271257608","main_expt","","0.4739800601","","0.1673165995","","0.1280762957","","","","","",""
"130","","bandit","277","809744","0.0-239.0-0.0","92272970","wem/bandit_single","A36470UBRH28GO","pain","7","","74","J","1","","0","0","1","","0.479726886","false","202","","0.08657179739","main_expt","","0.479726886","","0.2086438453","","0.1402913484","","","","","",""
"233","","bandit","278","811745","0.0-240.0-0.0","92272970","wem/bandit_single","A36470UBRH28GO","pain","7","","74","J","1","","0","1","0","","0.4642372742","false","203","","0.09313456927","main_expt","","0.4642372742","","0.1973992815","","0.2217412738","","","","","",""
"116","","bandit","279","813623","0.0-241.0-0.0","92272970","wem/bandit_single","A36470UBRH28GO","pain","7","","74","J","1","","0","1","0","","0.4560882558","false","204","","0.1497906572","main_expt","","0.4560882558","","0.2256674954","","0.2231628045","","","","","",""
"165","","bandit","280","815550","0.0-242.0-0.0","92272970","wem/bandit_single","A36470UBRH28GO","pain","7","","74","J","1","","0","1","0","","0.4525737262","false","205","","0.1829644856","main_expt","","0.4525737262","","0.2163874892","","0.2170181201","","","","","",""
"61","","bandit","281","817379","0.0-243.0-0.0","92272970","wem/bandit_single","A36470UBRH28GO","pain","7","","74","J","1","","0","0","1","","0.4550624295","false","206","","0.1612057882","main_expt","","0.4550624295","","0.2197086186","","0.2796725078","","","","","",""
"119","","bandit","282","819266","0.0-244.0-0.0","92272970","wem/bandit_single","A36470UBRH28GO","pain","7","","74","J","1","","0","0","1","","0.4723612306","false","207","","0.1697938272","main_expt","","0.4723612306","","0.2065154411","","0.2817680811","","","","","",""
"146","","bandit","283","821180","0.0-245.0-0.0","92272970","wem/bandit_single","A36470UBRH28GO","pain","7","","74","J","1","","0","0","1","","0.4766034411","false","208","","0.1559958766","main_expt","","0.4766034411","","0.1685179651","","0.2823403198","","","","","",""
"256","","bandit","284","823200","0.0-246.0-0.0","92272970","wem/bandit_single","A36470UBRH28GO","pain","7","","74","J","1","","0","0","1","","0.483515399","false","209","","0.1446830505","main_expt","","0.483515399","","0.138461816","","0.3618902866","","","","","",""
"70","","bandit","285","825037","0.0-247.0-0.0","92272970","wem/bandit_single","A36470UBRH28GO","pain","7","","74","J","1","","0","0","1","","0.4880418707","false","210","","0.1231196185","main_expt","","0.4880418707","","0.1494322788","","0.373554641","","","","","",""
"60","","bandit","286","826860","0.0-248.0-0.0","92272970","wem/bandit_single","A36470UBRH28GO","pain","7","","74","J","1","","0","1","0","","0.4802592994","false","211","","0.1456244431","main_expt","","0.4802592994","","0.1799359977","","0.4160488284","","","","","",""
"135","","bandit","287","828758","0.0-249.0-0.0","92272970","wem/bandit_single","A36470UBRH28GO","pain","7","","74","J","1","","0","0","1","","0.4738887763","false","212","","0.1656867557","main_expt","","0.4738887763","","0.1810857181","","0.381710399","","","","","",""
"314","","bandit","288","830843","0.0-250.0-0.0","92272970","wem/bandit_single","A36470UBRH28GO","pain","7","","74","J","1","","0","1","0","","0.4808850683","false","213","","0.224977978","main_expt","","0.4808850683","","0.1615137558","","0.3769148707","","","","","",""
"153","","bandit","289","832763","0.0-251.0-0.0","92272970","wem/bandit_single","A36470UBRH28GO","pain","7","","74","J","1","","0","0","1","","0.4825694391","false","214","","0.307554285","main_expt","","0.4825694391","","0.1650702933","","0.3476207329","","","","","",""
"52","","bandit","290","834578","0.0-252.0-0.0","92272970","wem/bandit_single","A36470UBRH28GO","pain","7","","74","J","1","","0","1","0","","0.4847107186","false","215","","0.3638187162","main_expt","","0.4847107186","","0.1804791034","","0.3089741626","","","","","",""
"113","","bandit","291","836455","0.0-253.0-0.0","92272970","wem/bandit_single","A36470UBRH28GO","pain","7","","74","J","1","","0","1","0","","0.4809007894","false","216","","0.3543809852","main_expt","","0.4809007894","","0.1573161505","","0.3674618518","","","","","",""
"108","","bandit","292","838330","0.0-254.0-0.0","92272970","wem/bandit_single","A36470UBRH28GO","pain","7","","74","J","1","","0","1","0","","0.4741770765","false","217","","0.3301156576","main_expt","","0.4741770765","","0.1434716653","","0.3283657719","","","","","",""
"74","","bandit","293","840166","0.0-255.0-0.0","92272970","wem/bandit_single","A36470UBRH28GO","pain","7","","74","J","1","","0","0","1","","0.4819245576","false","218","","0.3132999057","main_expt","","0.4819245576","","0.1911838451","","0.3302734852","","","","","",""
"211","","bandit","294","842147","0.0-256.0-0.0","92272970","wem/bandit_single","A36470UBRH28GO","pain","7","","74","J","1","","0","0","1","","0.4793241995","false","219","","0.2205266592","main_expt","","0.4793241995","","0.1441129831","","0.3554571327","","","","","",""
"89","","bandit","295","844001","0.0-257.0-0.0","92272970","wem/bandit_single","A36470UBRH28GO","pain","7","","74","J","1","","0","1","0","","0.4713672071","false","220","","0.2167078271","main_expt","","0.4713672071","","0.1920309772","","0.319330444","","","","","",""
"348","","bandit","296","846110","0.0-258.0-0.0","92272970","wem/bandit_single","A36470UBRH28GO","pain","7","","74","J","1","","0","0","1","","0.4728071858","false","221","","0.2038989409","main_expt","","0.4728071858","","0.1770810464","","0.3105046037","","","","","",""
"72","","bandit","297","847949","0.0-259.0-0.0","92272970","wem/bandit_single","A36470UBRH28GO","pain","7","","74","J","1","","0","1","0","","0.4742115633","false","222","","0.18760722","main_expt","","0.4742115633","","0.1726735039","","0.2971369975","","","","","",""
"150","","bandit","298","849861","0.0-260.0-0.0","92272970","wem/bandit_single","A36470UBRH28GO","pain","7","","74","J","1","","0","0","1","","0.4606319974","false","223","","0.1794058889","main_expt","","0.4606319974","","0.1935596247","","0.2924153056","","","","","",""
"92","","bandit","299","851719","0.0-261.0-0.0","92272970","wem/bandit_single","A36470UBRH28GO","pain","7","","74","J","1","","0","1","0","","0.4796626282","false","224","","0.1973287288","main_expt","","0.4796626282","","0.184290804","","0.3251713444","","","","","",""
"138","","bandit","300","853620","0.0-262.0-0.0","92272970","wem/bandit_single","A36470UBRH28GO","pain","7","","74","J","1","","0","1","0","","0.4770938662","false","225","","0.1657141015","main_expt","","0.4770938662","","0.1182631535","","0.3191667618","","","","","",""
"97","","bandit","301","855480","0.0-263.0-0.0","92272970","wem/bandit_single","A36470UBRH28GO","pain","7","","74","J","1","","0","1","0","","0.4753940461","false","226","","0.1333985498","main_expt","","0.4753940461","","0.1243406576","","0.3163975521","","","","","",""
"76","","bandit","302","857319","0.0-264.0-0.0","92272970","wem/bandit_single","A36470UBRH28GO","pain","7","","74","J","1","","0","0","1","","0.4692559414","false","227","","0.1426718429","main_expt","","0.4692559414","","0.1887705619","","0.3153023093","","","","","",""
"63","","bandit","303","859150","0.0-265.0-0.0","92272970","wem/bandit_single","A36470UBRH28GO","pain","7","","74","J","1","","0","1","0","","0.4549715312","false","228","","0.1510234048","main_expt","","0.4549715312","","0.1594511678","","0.252814401","","","","","",""
"315","","bandit","304","861226","0.0-266.0-0.0","92272970","wem/bandit_single","A36470UBRH28GO","pain","7","","74","J","1","","0","1","0","","0.4818432606","false","229","","0.1786638104","main_expt","","0.4818432606","","0.1582092687","","0.2830586582","","","","","",""
"123","","bandit","305","863112","0.0-267.0-0.0","92272970","wem/bandit_single","A36470UBRH28GO","pain","7","","74","J","1","","0","1","0","","0.4542350274","false","230","","0.1564383184","main_expt","","0.4542350274","","0.149178519","","0.2124451555","","","","","",""
"50","","bandit","306","864930","0.0-268.0-0.0","92272970","wem/bandit_single","A36470UBRH28GO","pain","7","","74","J","1","","0","0","1","","0.4646494747","false","231","","0.1398607303","main_expt","","0.4646494747","","0.2063022429","","0.1175217461","","","","","",""
"249","","bandit","307","866948","0.0-269.0-0.0","92272970","wem/bandit_single","A36470UBRH28GO","pain","7","","74","J","1","","0","1","0","","0.4617677548","false","232","","0.1323980205","main_expt","","0.4617677548","","0.2424934828","","0.144677577","","","","","",""
"266","","bandit","308","868979","0.0-270.0-0.0","92272970","wem/bandit_single","A36470UBRH28GO","pain","7","","74","J","1","","0","0","1","","0.4535872836","false","233","","0.1510374747","main_expt","","0.4535872836","","0.2404462099","","0.1555092754","","","","","",""
"72","","bandit","309","870816","0.0-271.0-0.0","92272970","wem/bandit_single","A36470UBRH28GO","pain","7","","74","J","1","","0","1","0","","0.4297764401","false","234","","0.133247495","main_expt","","0.4297764401","","0.1830028502","","0.1250762939","","","","","",""
"185","","bandit","310","872762","0.0-272.0-0.0","92272970","wem/bandit_single","A36470UBRH28GO","pain","7","","74","J","1","","0","1","0","","0.4335441617","false","235","","0.1666928205","main_expt","","0.4335441617","","0.2197419317","","0.1094925358","","","","","",""
"123","","bandit","311","874649","0.0-273.0-0.0","92272970","wem/bandit_single","A36470UBRH28GO","pain","7","","74","J","1","","0","0","1","","0.4390497594","false","236","","0.1772374327","main_expt","","0.4390497594","","0.2537285896","","0.09099935704","","","","","",""
"599","","bandit","312","877012","0.0-274.0-0.0","92272970","wem/bandit_single","A36470UBRH28GO","pain","7","","74","J","1","","0","0","1","","0.4557250369","false","237","","0.2093850131","main_expt","","0.4557250369","","0.2967198922","","0.07445530481","","","","","",""
"130","","bandit","313","878909","0.0-275.0-0.0","92272970","wem/bandit_single","A36470UBRH28GO","pain","7","","74","J","1","","0","0","1","","0.4712934341","false","238","","0.2323540058","main_expt","","0.4712934341","","0.2716881628","","0.1160826651","","","","","",""
"133","","bandit","314","880809","0.0-276.0-0.0","92272970","wem/bandit_single","A36470UBRH28GO","pain","7","","74","J","1","","0","1","0","","0.4744109467","false","239","","0.2527052166","main_expt","","0.4744109467","","0.2840113657","","0.1935594103","","","","","",""
"228","","bandit","315","882800","0.0-277.0-0.0","92272970","wem/bandit_single","A36470UBRH28GO","pain","7","","74","J","1","","0","1","0","","0.4856904038","false","240","","0.2429338356","main_expt","","0.4856904038","","0.3274134878","","0.2305108235","","","","","",""
"129","","bandit","316","884699","0.0-278.0-0.0","92272970","wem/bandit_single","A36470UBRH28GO","pain","7","","74","J","1","","0","0","1","","0.474377245","false","241","","0.2422046893","main_expt","","0.474377245","","0.3106351565","","0.23744922","","","","","",""
"175","","bandit","317","886640","0.0-279.0-0.0","92272970","wem/bandit_single","A36470UBRH28GO","pain","7","","74","J","1","","0","1","0","","0.4699498903","false","242","","0.1974588069","main_expt","","0.4699498903","","0.276301991","","0.2644088126","","","","","",""
"91","","bandit","318","888494","0.0-280.0-0.0","92272970","wem/bandit_single","A36470UBRH28GO","pain","7","","74","J","1","","0","0","1","","0.4696131401","false","243","","0.1697106736","main_expt","","0.4696131401","","0.2682550828","","0.3029471314","","","","","",""
"351","","bandit","319","890608","0.0-281.0-0.0","92272970","wem/bandit_single","A36470UBRH28GO","pain","7","","74","J","1","","0","1","0","","0.4519085084","false","244","","0.1495066821","main_expt","","0.4519085084","","0.2717267912","","0.2869027424","","","","","",""
"434","","bandit","320","892806","0.0-282.0-0.0","92272970","wem/bandit_single","A36470UBRH28GO","pain","7","","74","J","1","","0","0","1","","0.4620487724","false","245","","0.1664551864","main_expt","","0.4620487724","","0.2480355477","","0.2928347339","","","","","",""
"1145","","bandit","321","895726","0.0-283.0-0.0","92272970","wem/bandit_single","A36470UBRH28GO","pain","7","","74","J","1","","0","0","1","","0.4553277256","false","246","","0.1660340973","main_expt","","0.4553277256","","0.2978011657","","0.2537870262","","","","","",""
"679","","bandit","322","898170","0.0-284.0-0.0","92272970","wem/bandit_single","A36470UBRH28GO","pain","7","","74","J","1","","0","0","1","","0.4470790686","false","247","","0.2232834288","main_expt","","0.4470790686","","0.3183795364","","0.220788829","","","","","",""
"180","","bandit","323","900124","0.0-285.0-0.0","92272970","wem/bandit_single","A36470UBRH28GO","pain","7","","74","J","1","","0","1","0","","0.4370243233","false","248","","0.2337066106","main_expt","","0.4370243233","","0.3496285813","","0.2260039815","","","","","",""
"373","","bandit","324","902267","0.0-286.0-0.0","92272970","wem/bandit_single","A36470UBRH28GO","pain","7","","74","J","1","","0","0","1","","0.4344986606","false","249","","0.2555848542","main_expt","","0.4344986606","","0.3450691196","","0.2536259712","","","","","",""
"537","","bandit","325","904575","0.0-287.0-0.0","92272970","wem/bandit_single","A36470UBRH28GO","pain","7","","74","J","1","","0","1","0","","0.4418367533","false","250","","0.2423579198","main_expt","","0.4418367533","","0.3451339369","","0.2748463286","","","","","",""
"559","","bandit","326","906898","0.0-288.0-0.0","92272970","wem/bandit_single","A36470UBRH28GO","pain","7","","74","J","1","","0","1","0","","0.4227475224","false","251","","0.2275025436","main_expt","","0.4227475224","","0.3928119302","","0.2623633266","","","","","",""
"414","","bandit","327","909079","0.0-289.0-0.0","92272970","wem/bandit_single","A36470UBRH28GO","pain","7","","74","J","1","","0","1","0","","0.423648384","false","252","","0.2868871138","main_expt","","0.423648384","","0.3926241496","","0.3173920108","","","","","",""
"111","","bandit","328","910954","0.0-290.0-0.0","92272970","wem/bandit_single","A36470UBRH28GO","pain","7","","74","J","1","","0","0","1","","0.4321428437","false","253","","0.2719675916","main_expt","","0.4321428437","","0.4074069762","","0.3172059241","","","","","",""
"92","","bandit","329","912816","0.0-291.0-0.0","92272970","wem/bandit_single","A36470UBRH28GO","pain","7","","74","J","1","","0","1","0","","0.4621147124","false","254","","0.3118638267","main_expt","","0.4621147124","","0.3831412703","","0.3200237469","","","","","",""
"282","","bandit","330","914866","0.0-292.0-0.0","92272970","wem/bandit_single","A36470UBRH28GO","pain","7","","74","J","1","","0","0","1","","0.4586218194","false","255","","0.2103897122","main_expt","","0.4586218194","","0.3639457665","","0.3358809316","","","","","",""
"119","","bandit","331","916748","0.0-293.0-0.0","92272970","wem/bandit_single","A36470UBRH28GO","pain","7","","74","J","1","","0","1","0","","0.4661438042","false","256","","0.2053105091","main_expt","","0.4661438042","","0.3353936822","","0.3288682213","","","","","",""
"141","","bandit","332","918658","0.0-294.0-0.0","92272970","wem/bandit_single","A36470UBRH28GO","pain","7","","74","J","1","","0","0","1","","0.4746145216","false","257","","0.2101260802","main_expt","","0.4746145216","","0.3457786028","","0.3298558235","","","","","",""
"155","","bandit","333","920578","0.0-295.0-0.0","92272970","wem/bandit_single","A36470UBRH28GO","pain","7","","74","J","1","","0","1","0","","0.479590246","false","258","","0.251470712","main_expt","","0.479590246","","0.3336199161","","0.3544886593","","","","","",""
"116","","bandit","334","922458","0.0-296.0-0.0","92272970","wem/bandit_single","A36470UBRH28GO","pain","7","","74","J","1","","0","0","1","","0.4543592645","false","259","","0.2320991284","main_expt","","0.4543592645","","0.3182937175","","0.3380036538","","","","","",""
"111","","bandit","335","924339","0.0-297.0-0.0","92272970","wem/bandit_single","A36470UBRH28GO","pain","7","","74","J","1","","0","0","1","","0.4591910344","false","260","","0.2850429488","main_expt","","0.4591910344","","0.3004718715","","0.2797544445","","","","","",""
"213","","bandit","336","926322","0.0-298.0-0.0","92272970","wem/bandit_single","A36470UBRH28GO","pain","7","","74","J","1","","0","0","1","","0.4416244086","false","261","","0.3396488321","main_expt","","0.4416244086","","0.2969538951","","0.2594239605","","","","","",""
"149","","bandit","337","928241","0.0-299.0-0.0","92272970","wem/bandit_single","A36470UBRH28GO","pain","7","","74","J","1","","0","0","1","","0.410126596","false","262","","0.243241633","main_expt","","0.410126596","","0.336502974","","0.2804023839","","","","","",""
"69","","bandit","338","930081","0.0-300.0-0.0","92272970","wem/bandit_single","A36470UBRH28GO","pain","7","","74","J","1","","0","0","1","","0.3852167719","false","263","","0.221101122","main_expt","","0.3852167719","","0.3417757729","","0.2526654216","","","","","",""
"90","","bandit","339","931941","0.0-301.0-0.0","92272970","wem/bandit_single","A36470UBRH28GO","pain","7","","74","J","1","","0","0","1","","0.4048243192","false","264","","0.2475963948","main_expt","","0.4048243192","","0.3288238543","","0.2262009497","","","","","",""
"99","","bandit","340","933803","0.0-302.0-0.0","92272970","wem/bandit_single","A36470UBRH28GO","pain","7","","74","J","1","","0","0","1","","0.3671025299","false","265","","0.2472156829","main_expt","","0.3671025299","","0.2661945806","","0.2111455706","","","","","",""
"117","","bandit","341","935681","0.0-303.0-0.0","92272970","wem/bandit_single","A36470UBRH28GO","pain","7","","74","J","1","","0","1","0","","0.366792141","false","266","","0.2257792125","main_expt","","0.366792141","","0.2831053071","","0.1816972253","","","","","",""
"111","","bandit","342","937557","0.0-304.0-0.0","92272970","wem/bandit_single","A36470UBRH28GO","pain","7","","74","J","1","","0","0","1","","0.3187551676","false","267","","0.2434052149","main_expt","","0.3187551676","","0.2814616526","","0.08996407949","","","","","",""
"98","","bandit","343","939419","0.0-305.0-0.0","92272970","wem/bandit_single","A36470UBRH28GO","pain","7","","74","J","1","","0","0","1","","0.2992927481","false","268","","0.2472891614","main_expt","","0.2992927481","","0.2698532634","","0.08316088703","","","","","",""
"154","","bandit","344","941350","0.0-306.0-0.0","92272970","wem/bandit_single","A36470UBRH28GO","pain","7","","74","J","1","","0","0","1","","0.3158706852","false","269","","0.2592343403","main_expt","","0.3158706852","","0.332936287","","0.132755096","","","","","",""
"410","","bandit","345","943528","0.0-307.0-0.0","92272970","wem/bandit_single","A36470UBRH28GO","pain","7","","72","H","0","img/none_selected.jpg","0","0","1","","0.2626766442","false","270","","0.2626766442","main_expt","","0.3399881701","","0.3520051328","","0.1295257529","","","","","",""
"67","","bandit","346","945361","0.0-308.0-0.0","92272970","wem/bandit_single","A36470UBRH28GO","pain","7","","72","H","0","img/none_selected.jpg","0","0","1","","0.2889536683","false","271","","0.2889536683","main_expt","","0.3425846673","","0.319936882","","0.1243547369","","","","","",""
"464","","bandit","347","947598","0.0-309.0-0.0","92272970","wem/bandit_single","A36470UBRH28GO","pain","7","","72","H","0","img/none_selected.jpg","0","1","0","","0.3519527746","false","272","","0.3519527746","main_expt","","0.3661992365","","0.3526338178","","0.1129401117","","","","","",""
"142","","bandit","348","949513","0.0-310.0-0.0","92272970","wem/bandit_single","A36470UBRH28GO","pain","7","","72","H","0","img/none_selected.jpg","0","0","1","","0.3142239271","false","273","","0.3142239271","main_expt","","0.3548292996","","0.3661190652","","0.07602588951","","","","","",""
"32","","bandit","349","951308","0.0-311.0-0.0","92272970","wem/bandit_single","A36470UBRH28GO","pain","7","","72","H","0","img/none_selected.jpg","0","1","0","","0.2858465014","false","274","","0.2858465014","main_expt","","0.3015993901","","0.3531355024","","0.08326080211","","","","","",""
"195","","bandit","350","953277","0.0-312.0-0.0","92272970","wem/bandit_single","A36470UBRH28GO","pain","7","","72","H","0","img/none_selected.jpg","0","0","1","","0.2833142968","false","275","","0.2833142968","main_expt","","0.3074537736","","0.3710682781","","0.1117875064","","","","","",""
"82","","bandit","351","955124","0.0-313.0-0.0","92272970","wem/bandit_single","A36470UBRH28GO","pain","7","","72","H","0","img/none_selected.jpg","0","0","1","","0.303505508","false","276","","0.303505508","main_expt","","0.2995557441","","0.3039620657","","0.1087564456","","","","","",""
"48","","bandit","352","956941","0.0-314.0-0.0","92272970","wem/bandit_single","A36470UBRH28GO","pain","7","","72","H","0","img/none_selected.jpg","0","0","1","","0.2503405658","false","277","","0.2503405658","main_expt","","0.3372524479","","0.3661174243","","0.1402577261","","","","","",""
"78","","bandit","353","958786","0.0-315.0-0.0","92272970","wem/bandit_single","A36470UBRH28GO","pain","7","","72","H","0","img/none_selected.jpg","0","0","1","","0.2575241406","false","278","","0.2575241406","main_expt","","0.3941332117","","0.3603903852","","0.1639331241","","","","","",""
"29","","bandit","354","960577","0.0-316.0-0.0","92272970","wem/bandit_single","A36470UBRH28GO","pain","7","","72","H","0","img/none_selected.jpg","0","0","1","","0.2537993043","false","279","","0.2537993043","main_expt","","0.369807449","","0.3865241344","","0.08855821706","","","","","",""
"924","","bandit","355","963263","0.0-317.0-0.0","92272970","wem/bandit_single","A36470UBRH28GO","pain","7","","75","K","2","","0","0","1","","0.3941828848","false","280","","0.1734094061","main_expt","","0.3726167961","","0.3941828848","","0.1116659285","","","","","",""
"124","","bandit","356","965160","0.0-318.0-0.0","92272970","wem/bandit_single","A36470UBRH28GO","pain","7","","76","L","3","","0","0","1","","0.1032088387","false","281","","0.1846732939","main_expt","","0.3849966858","","0.4060440919","","0.1032088387","","","","","",""
"86","","bandit","357","967012","0.0-319.0-0.0","92272970","wem/bandit_single","A36470UBRH28GO","pain","7","","75","K","2","","0","1","0","","0.3855255831","false","282","","0.1808782366","main_expt","","0.4081920515","","0.3855255831","","0.1449157137","","","","","",""
"142","","bandit","358","968919","0.0-320.0-0.0","92272970","wem/bandit_single","A36470UBRH28GO","pain","7","","75","K","2","","0","1","0","","0.3694157076","false","283","","0.1375342675","main_expt","","0.3930572229","","0.3694157076","","0.1649674285","","","","","",""
"189","","bandit","359","970874","0.0-321.0-0.0","92272970","wem/bandit_single","A36470UBRH28GO","pain","7","","75","K","2","","0","1","0","","0.4137550783","false","284","","0.1029306966","main_expt","","0.379410926","","0.4137550783","","0.1373277791","","","","","",""
"86","","bandit","360","972731","0.0-322.0-0.0","92272970","wem/bandit_single","A36470UBRH28GO","pain","7","","75","K","2","","0","1","0","","0.4268254387","false","285","","0.08821361919","main_expt","","0.3947179778","","0.4268254387","","0.1616488504","","","","","",""
"97","","bandit","361","974591","0.0-323.0-0.0","92272970","wem/bandit_single","A36470UBRH28GO","pain","7","","75","K","2","","0","0","1","","0.4115685589","false","286","","0.08321279743","main_expt","","0.4036344472","","0.4115685589","","0.1306737704","","","","","",""
"38","","bandit","362","976395","0.0-324.0-0.0","92272970","wem/bandit_single","A36470UBRH28GO","pain","7","","75","K","2","","0","1","0","","0.3828423493","false","287","","0.0595967864","main_expt","","0.4025981517","","0.3828423493","","0.2059275786","","","","","",""
"226","","bandit","363","978385","0.0-325.0-0.0","92272970","wem/bandit_single","A36470UBRH28GO","pain","7","","75","K","2","","0","0","1","","0.4121581376","false","288","","0.06539189492","main_expt","","0.4183513528","","0.4121581376","","0.1892738114","","","","","",""
"82","","bandit","364","980236","0.0-326.0-0.0","92272970","wem/bandit_single","A36470UBRH28GO","pain","7","","75","K","2","","0","0","1","","0.4227758831","false","289","","0.06484578344","main_expt","","0.4516793017","","0.4227758831","","0.1656659279","","","","","",""
"913","","bandit","365","982915","0.0-327.0-0.0","92272970","wem/bandit_single","A36470UBRH28GO","pain","7","","75","K","2","","0","0","1","","0.4149367164","false","290","","0.06626982825","main_expt","","0.4112115972","","0.4149367164","","0.1814252587","","","","","",""
"116","","bandit","366","984802","0.0-328.0-0.0","92272970","wem/bandit_single","A36470UBRH28GO","pain","7","","75","K","2","","0","0","1","","0.399757838","false","291","","0.1096348163","main_expt","","0.4372982331","","0.399757838","","0.2385479929","","","","","",""
"69","","bandit","367","986635","0.0-329.0-0.0","92272970","wem/bandit_single","A36470UBRH28GO","pain","7","","75","K","2","","0","0","1","","0.3846886596","false","292","","0.1604398542","main_expt","","0.4238416902","","0.3846886596","","0.2322046479","","","","","",""
"661","","bandit","368","989063","0.0-330.0-0.0","92272970","wem/bandit_single","A36470UBRH28GO","pain","7","","74","J","1","","0","1","0","","0.4034354509","false","293","","0.1714651471","main_expt","","0.4034354509","","0.3364000065","","0.223393304","","","","","",""
"194","","bandit","369","991031","0.0-331.0-0.0","92272970","wem/bandit_single","A36470UBRH28GO","pain","7","","74","J","1","","0","1","0","","0.4093667064","false","294","","0.1378543876","main_expt","","0.4093667064","","0.3545739736","","0.2290093083","","","","","",""
"152","","bandit","370","992948","0.0-332.0-0.0","92272970","wem/bandit_single","A36470UBRH28GO","pain","7","","74","J","1","","0","0","1","","0.4294791191","false","295","","0.1243446737","main_expt","","0.4294791191","","0.2891777922","","0.2875464899","","","","","",""
"104","","bandit","371","994821","0.0-333.0-0.0","92272970","wem/bandit_single","A36470UBRH28GO","pain","7","","74","J","1","","0","0","1","","0.4289259587","false","296","","0.1831574145","main_expt","","0.4289259587","","0.2084544567","","0.2880416719","","","","","",""
"160","","bandit","372","996748","0.0-334.0-0.0","92272970","wem/bandit_single","A36470UBRH28GO","pain","7","","74","J","1","","0","0","1","","0.4073385017","false","297","","0.1645554297","main_expt","","0.4073385017","","0.2481546198","","0.2144640116","","","","","",""
"1147","","bandit","373","999656","0.0-335.0-0.0","92272970","wem/bandit_single","A36470UBRH28GO","pain","7","","74","J","1","","0","0","1","","0.3914212946","false","298","","0.1424629524","main_expt","","0.3914212946","","0.2961938921","","0.2150894671","","","","","",""
"198","","bandit","374","1001615","0.0-336.0-0.0","92272970","wem/bandit_single","A36470UBRH28GO","pain","7","","75","K","2","","0","0","1","","0.2840976989","false","299","","0.1581050354","main_expt","","0.3813238847","","0.2840976989","","0.2407822334","","","","","",""
