"rt","responses","trial_type","trial_index","time_elapsed","internal_node_id","subjID","study","MID","cond","drift","key_press","respCharCode","respKey","respChoiceNum","respChoice","gems","bombs","no_reward","GemPrChosen","BombPrChosen","practice","trial_counter","WinPr_0","LosePr_0","trial_label","WinPr_1","LosePr_1","WinPr_2","LosePr_2","WinPr_3","LosePr_3","Q0","Q1","Q2","gender","age","ethnicity"
"103266","{""Q0"":""A3JTMXHPNCUFNX""}","survey-text","0","103302","0.0-0.0","92465855","wem/bandit_single","A3JTMXHPNCUFNX","pain","7","","","","","","","","","","","","","","","","","","","","","","","","","","",""
"2379","","text","1","106706","0.0-1.0","92465855","wem/bandit_single","A3JTMXHPNCUFNX","pain","7","32","","","","","","","","","","","","","","","","","","","","","","","","","",""
"2689","","text","2","109401","0.0-2.0","92465855","wem/bandit_single","A3JTMXHPNCUFNX","pain","7","32","","","","","","","","","","","","","","","","","","","","","","","","","",""
"145712","","text","3","255120","0.0-3.0","92465855","wem/bandit_single","A3JTMXHPNCUFNX","pain","7","32","","","","","","","","","","","","","","","","","","","","","","","","","",""
"79866","","text","4","335000","0.0-4.0","92465855","wem/bandit_single","A3JTMXHPNCUFNX","pain","7","32","","","","","","","","","","","","","","","","","","","","","","","","","",""
"1909","","text","5","336924","0.0-5.0","92465855","wem/bandit_single","A3JTMXHPNCUFNX","pain","7","32","","","","","","","","","","","","","","","","","","","","","","","","","",""
"1638","","text","6","338566","0.0-6.0","92465855","wem/bandit_single","A3JTMXHPNCUFNX","pain","7","32","","","","","","","","","","","","","","","","","","","","","","","","","",""
"1277","","text","7","339849","0.0-7.0","92465855","wem/bandit_single","A3JTMXHPNCUFNX","pain","7","32","","","","","","","","","","","","","","","","","","","","","","","","","",""
"1417","","text","8","341271","0.0-8.0","92465855","wem/bandit_single","A3JTMXHPNCUFNX","pain","7","32","","","","","","","","","","","","","","","","","","","","","","","","","",""
"987","","text","9","342264","0.0-9.0","92465855","wem/bandit_single","A3JTMXHPNCUFNX","pain","7","32","","","","","","","","","","","","","","","","","","","","","","","","","",""
"3080","","text","10","345350","0.0-10.0","92465855","wem/bandit_single","A3JTMXHPNCUFNX","pain","7","32","","","","","","","","","","","","","","","","","","","","","","","","","",""
"1031","","text","11","346387","0.0-11.0","92465855","wem/bandit_single","A3JTMXHPNCUFNX","pain","7","32","","","","","","","","","","","","","","","","","","","","","","","","","",""
"2097","","bandit","12","350014","0.0-12.0-0.0","92465855","wem/bandit_single","A3JTMXHPNCUFNX","pain","7","","74","J","0","img/none_selected_demo.jpg","0","0","1","0","0","true","0","0","0","","","","","","","","","","","","",""
"573","","bandit","13","352360","0.0-13.0-0.0","92465855","wem/bandit_single","A3JTMXHPNCUFNX","pain","7","","75","K","0","img/none_selected_demo.jpg","0","0","1","0","0","true","0","0","0","","","","","","","","","","","","",""
"1781","","text","14","354400","0.0-14.0","92465855","wem/bandit_single","A3JTMXHPNCUFNX","pain","7","32","","","","","","","","","","","","","","","","","","","","","","","","","",""
"1101","","text","15","355508","0.0-15.0","92465855","wem/bandit_single","A3JTMXHPNCUFNX","pain","7","32","","","","","","","","","","","","","","","","","","","","","","","","","",""
"1112","","text","16","356628","0.0-16.0","92465855","wem/bandit_single","A3JTMXHPNCUFNX","pain","7","32","","","","","","","","","","","","","","","","","","","","","","","","","",""
"2708","","text","17","359341","0.0-17.0","92465855","wem/bandit_single","A3JTMXHPNCUFNX","pain","7","32","","","","","","","","","","","","","","","","","","","","","","","","","",""
"1742","","bandit","18","362603","0.0-18.0-0.0","92465855","wem/bandit_single","A3JTMXHPNCUFNX","pain","7","","74","J","0","img/none_selected_demo.jpg","0","1","0","0","0.8","true","0","0","0.8","80_20_practice","0","0.2","","","","","","","","","",""
"488","","bandit","19","365044","0.0-18.0-1.0","92465855","wem/bandit_single","A3JTMXHPNCUFNX","pain","7","","75","K","1","","0","0","1","0","0.2","true","0","0","0.8","80_20_practice","0","0.2","","","","","","","","","",""
"112","","bandit","20","366997","0.0-18.0-2.0","92465855","wem/bandit_single","A3JTMXHPNCUFNX","pain","7","","75","K","1","","0","0","1","0","0.2","true","0","0","0.8","80_20_practice","0","0.2","","","","","","","","","",""
"17","","bandit","21","368781","0.0-18.0-3.0","92465855","wem/bandit_single","A3JTMXHPNCUFNX","pain","7","","75","K","1","","0","0","1","0","0.2","true","0","0","0.8","80_20_practice","0","0.2","","","","","","","","","",""
"878","","bandit","22","371433","0.0-18.0-4.0","92465855","wem/bandit_single","A3JTMXHPNCUFNX","pain","7","","75","K","1","","0","0","1","0","0.2","true","0","0","0.8","80_20_practice","0","0.2","","","","","","","","","",""
"164","","bandit","23","373372","0.0-18.0-5.0","92465855","wem/bandit_single","A3JTMXHPNCUFNX","pain","7","","75","K","1","","0","1","0","0","0.2","true","0","0","0.8","80_20_practice","0","0.2","","","","","","","","","",""
"117","","bandit","24","375268","0.0-18.0-6.0","92465855","wem/bandit_single","A3JTMXHPNCUFNX","pain","7","","74","J","0","img/none_selected_demo.jpg","0","0","1","0","0.8","true","0","0","0.8","80_20_practice","0","0.2","","","","","","","","","",""
"27","","bandit","25","377068","0.0-18.0-7.0","92465855","wem/bandit_single","A3JTMXHPNCUFNX","pain","7","","74","J","0","img/none_selected_demo.jpg","0","1","0","0","0.8","true","0","0","0.8","80_20_practice","0","0.2","","","","","","","","","",""
"165","","bandit","26","379033","0.0-18.0-8.0","92465855","wem/bandit_single","A3JTMXHPNCUFNX","pain","7","","75","K","1","","0","0","1","0","0.2","true","0","0","0.8","80_20_practice","0","0.2","","","","","","","","","",""
"19","","bandit","27","380817","0.0-18.0-9.0","92465855","wem/bandit_single","A3JTMXHPNCUFNX","pain","7","","75","K","1","","0","0","1","0","0.2","true","0","0","0.8","80_20_practice","0","0.2","","","","","","","","","",""
"194","","bandit","28","382775","0.0-18.0-10.0","92465855","wem/bandit_single","A3JTMXHPNCUFNX","pain","7","","75","K","1","","0","0","1","0","0.2","true","0","0","0.8","80_20_practice","0","0.2","","","","","","","","","",""
"0","","bandit","29","384571","0.0-18.0-11.0","92465855","wem/bandit_single","A3JTMXHPNCUFNX","pain","7","","75","K","1","","0","0","1","0","0.2","true","0","0","0.8","80_20_practice","0","0.2","","","","","","","","","",""
"134","","bandit","30","386570","0.0-18.0-12.0","92465855","wem/bandit_single","A3JTMXHPNCUFNX","pain","7","","75","K","1","","0","1","0","0","0.2","true","0","0","0.8","80_20_practice","0","0.2","","","","","","","","","",""
"224","","bandit","31","388655","0.0-18.0-13.0","92465855","wem/bandit_single","A3JTMXHPNCUFNX","pain","7","","75","K","1","","0","1","0","0","0.2","true","0","0","0.8","80_20_practice","0","0.2","","","","","","","","","",""
"55","","bandit","32","390571","0.0-18.0-14.0","92465855","wem/bandit_single","A3JTMXHPNCUFNX","pain","7","","74","J","0","img/none_selected_demo.jpg","0","1","0","0","0.8","true","0","0","0.8","80_20_practice","0","0.2","","","","","","","","","",""
"190","","bandit","33","392641","0.0-18.0-15.0","92465855","wem/bandit_single","A3JTMXHPNCUFNX","pain","7","","74","J","0","img/none_selected_demo.jpg","0","1","0","0","0.8","true","0","0","0.8","80_20_practice","0","0.2","","","","","","","","","",""
"5898","","bandit","34","401026","0.0-18.0-16.0","92465855","wem/bandit_single","A3JTMXHPNCUFNX","pain","7","","75","K","1","","0","0","1","0","0.2","true","0","0","0.8","80_20_practice","0","0.2","","","","","","","","","",""
"214","","bandit","35","403009","0.0-18.0-17.0","92465855","wem/bandit_single","A3JTMXHPNCUFNX","pain","7","","75","K","1","","0","1","0","0","0.2","true","0","0","0.8","80_20_practice","0","0.2","","","","","","","","","",""
"1434","","bandit","36","406215","0.0-18.0-18.0","92465855","wem/bandit_single","A3JTMXHPNCUFNX","pain","7","","75","K","1","","0","0","1","0","0.2","true","0","0","0.8","80_20_practice","0","0.2","","","","","","","","","",""
"18494","","bandit","37","427062","0.0-18.0-19.0","92465855","wem/bandit_single","A3JTMXHPNCUFNX","pain","7","","75","K","1","","0","0","1","0","0.2","true","0","0","0.8","80_20_practice","0","0.2","","","","","","","","","",""
"22427","","text","38","450577","0.0-19.0","92465855","wem/bandit_single","A3JTMXHPNCUFNX","pain","7","32","","","","","","","","","","","","","","","","","","","","","","","","","",""
"2078","","bandit","39","454197","0.0-20.0-0.0","92465855","wem/bandit_single","A3JTMXHPNCUFNX","pain","7","","75","K","1","","0","0","1","0","0","true","0","0","0","","0","0","","","","","","","","","",""
"2401","","text","40","456866","0.0-21.0","92465855","wem/bandit_single","A3JTMXHPNCUFNX","pain","7","32","","","","","","","","","","","","","","","","","","","","","","","","","",""
"4018","","text","41","460896","0.0-22.0","92465855","wem/bandit_single","A3JTMXHPNCUFNX","pain","7","32","","","","","","","","","","","","","","","","","","","","","","","","","",""
"1621","","text","42","462528","0.0-23.0","92465855","wem/bandit_single","A3JTMXHPNCUFNX","pain","7","32","","","","","","","","","","","","","","","","","","","","","","","","","",""
"1061","","text","43","463599","0.0-24.0","92465855","wem/bandit_single","A3JTMXHPNCUFNX","pain","7","32","","","","","","","","","","","","","","","","","","","","","","","","","",""
"729","","text","44","464336","0.0-25.0","92465855","wem/bandit_single","A3JTMXHPNCUFNX","pain","7","32","","","","","","","","","","","","","","","","","","","","","","","","","",""
"429","","text","45","464784","0.0-26.0","92465855","wem/bandit_single","A3JTMXHPNCUFNX","pain","7","32","","","","","","","","","","","","","","","","","","","","","","","","","",""
"339","","text","46","465135","0.0-27.0","92465855","wem/bandit_single","A3JTMXHPNCUFNX","pain","7","32","","","","","","","","","","","","","","","","","","","","","","","","","",""
"332","","text","47","465477","0.0-28.0","92465855","wem/bandit_single","A3JTMXHPNCUFNX","pain","7","32","","","","","","","","","","","","","","","","","","","","","","","","","",""
"383","","text","48","465868","0.0-29.0","92465855","wem/bandit_single","A3JTMXHPNCUFNX","pain","7","32","","","","","","","","","","","","","","","","","","","","","","","","","",""
"357","","text","49","466236","0.0-30.0","92465855","wem/bandit_single","A3JTMXHPNCUFNX","pain","7","32","","","","","","","","","","","","","","","","","","","","","","","","","",""
"312","","text","50","466561","0.0-31.0","92465855","wem/bandit_single","A3JTMXHPNCUFNX","pain","7","32","","","","","","","","","","","","","","","","","","","","","","","","","",""
"646","","bandit","51","468743","0.0-32.0-0.0","92465855","wem/bandit_single","A3JTMXHPNCUFNX","pain","7","","75","K","2","","0","1","0","0","0.6","true","0","0","0.8","full_practice","0","0.2","0","0.6","0","0.2","","","","","",""
"1167","","bandit","52","471687","0.0-32.0-1.0","92465855","wem/bandit_single","A3JTMXHPNCUFNX","pain","7","","76","L","3","","0","0","1","0","0.2","true","0","0","0.8","full_practice","0","0.2","0","0.6","0","0.2","","","","","",""
"134","","bandit","53","473648","0.0-32.0-2.0","92465855","wem/bandit_single","A3JTMXHPNCUFNX","pain","7","","76","L","3","","0","0","1","0","0.2","true","0","0","0.8","full_practice","0","0.2","0","0.6","0","0.2","","","","","",""
"66","","bandit","54","475491","0.0-32.0-3.0","92465855","wem/bandit_single","A3JTMXHPNCUFNX","pain","7","","76","L","3","","0","0","1","0","0.2","true","0","0","0.8","full_practice","0","0.2","0","0.6","0","0.2","","","","","",""
"48","","bandit","55","477309","0.0-32.0-4.0","92465855","wem/bandit_single","A3JTMXHPNCUFNX","pain","7","","76","L","3","","0","0","1","0","0.2","true","0","0","0.8","full_practice","0","0.2","0","0.6","0","0.2","","","","","",""
"122","","bandit","56","479209","0.0-32.0-5.0","92465855","wem/bandit_single","A3JTMXHPNCUFNX","pain","7","","76","L","3","","0","0","1","0","0.2","true","0","0","0.8","full_practice","0","0.2","0","0.6","0","0.2","","","","","",""
"191","","bandit","57","481186","0.0-32.0-6.0","92465855","wem/bandit_single","A3JTMXHPNCUFNX","pain","7","","76","L","3","","0","0","1","0","0.2","true","0","0","0.8","full_practice","0","0.2","0","0.6","0","0.2","","","","","",""
"42","","bandit","58","483016","0.0-32.0-7.0","92465855","wem/bandit_single","A3JTMXHPNCUFNX","pain","7","","76","L","3","","0","0","1","0","0.2","true","0","0","0.8","full_practice","0","0.2","0","0.6","0","0.2","","","","","",""
"317","","bandit","59","485117","0.0-32.0-8.0","92465855","wem/bandit_single","A3JTMXHPNCUFNX","pain","7","","76","L","3","","0","0","1","0","0.2","true","0","0","0.8","full_practice","0","0.2","0","0.6","0","0.2","","","","","",""
"207","","bandit","60","487103","0.0-32.0-9.0","92465855","wem/bandit_single","A3JTMXHPNCUFNX","pain","7","","76","L","3","","0","0","1","0","0.2","true","0","0","0.8","full_practice","0","0.2","0","0.6","0","0.2","","","","","",""
"249","","bandit","61","489138","0.0-32.0-10.0","92465855","wem/bandit_single","A3JTMXHPNCUFNX","pain","7","","76","L","3","","0","1","0","0","0.2","true","0","0","0.8","full_practice","0","0.2","0","0.6","0","0.2","","","","","",""
"259","","bandit","62","491171","0.0-32.0-11.0","92465855","wem/bandit_single","A3JTMXHPNCUFNX","pain","7","","72","H","0","img/none_selected.jpg","0","1","0","0","0.8","true","0","0","0.8","full_practice","0","0.2","0","0.6","0","0.2","","","","","",""
"130","","bandit","63","493085","0.0-32.0-12.0","92465855","wem/bandit_single","A3JTMXHPNCUFNX","pain","7","","74","J","1","","0","1","0","0","0.2","true","0","0","0.8","full_practice","0","0.2","0","0.6","0","0.2","","","","","",""
"139","","bandit","64","495003","0.0-32.0-13.0","92465855","wem/bandit_single","A3JTMXHPNCUFNX","pain","7","","76","L","3","","0","0","1","0","0.2","true","0","0","0.8","full_practice","0","0.2","0","0.6","0","0.2","","","","","",""
"4303","","bandit","65","501092","0.0-32.0-14.0","92465855","wem/bandit_single","A3JTMXHPNCUFNX","pain","7","","76","L","3","","0","0","1","0","0.2","true","0","0","0.8","full_practice","0","0.2","0","0.6","0","0.2","","","","","",""
"94","","bandit","66","502968","0.0-32.0-15.0","92465855","wem/bandit_single","A3JTMXHPNCUFNX","pain","7","","76","L","3","","0","1","0","0","0.2","true","0","0","0.8","full_practice","0","0.2","0","0.6","0","0.2","","","","","",""
"163","","bandit","67","505009","0.0-32.0-16.0","92465855","wem/bandit_single","A3JTMXHPNCUFNX","pain","7","","76","L","3","","0","0","1","0","0.2","true","0","0","0.8","full_practice","0","0.2","0","0.6","0","0.2","","","","","",""
"19","","bandit","68","506798","0.0-32.0-17.0","92465855","wem/bandit_single","A3JTMXHPNCUFNX","pain","7","","76","L","3","","0","0","1","0","0.2","true","0","0","0.8","full_practice","0","0.2","0","0.6","0","0.2","","","","","",""
"126","","bandit","69","508707","0.0-32.0-18.0","92465855","wem/bandit_single","A3JTMXHPNCUFNX","pain","7","","76","L","3","","0","0","1","0","0.2","true","0","0","0.8","full_practice","0","0.2","0","0.6","0","0.2","","","","","",""
"142","","bandit","70","510648","0.0-32.0-19.0","92465855","wem/bandit_single","A3JTMXHPNCUFNX","pain","7","","76","L","3","","0","0","1","0","0.2","true","0","0","0.8","full_practice","0","0.2","0","0.6","0","0.2","","","","","",""
"1492","","text","71","512426","0.0-33.0","92465855","wem/bandit_single","A3JTMXHPNCUFNX","pain","7","32","","","","","","","","","","","","","","","","","","","","","","","","","",""
"3927","","text","72","517369","0.0-34.0","92465855","wem/bandit_single","A3JTMXHPNCUFNX","pain","7","32","","","","","","","","","","","","","","","","","","","","","","","","","",""
"567","","text","73","517953","0.0-35.0","92465855","wem/bandit_single","A3JTMXHPNCUFNX","pain","7","32","","","","","","","","","","","","","","","","","","","","","","","","","",""
"413","","text","74","518388","0.0-36.0","92465855","wem/bandit_single","A3JTMXHPNCUFNX","pain","7","32","","","","","","","","","","","","","","","","","","","","","","","","","",""
"183","","text","75","518582","0.0-37.0","92465855","wem/bandit_single","A3JTMXHPNCUFNX","pain","7","32","","","","","","","","","","","","","","","","","","","","","","","","","",""
"1349","","bandit","76","521448","0.0-38.0-0.0","92465855","wem/bandit_single","A3JTMXHPNCUFNX","pain","7","","75","K","2","","0","1","0","","0.4656663819","false","1","","0.2046929885","main_expt","","0.182860278","","0.4656663819","","0.05137684772","","","","","",""
"450","","bandit","77","523686","0.0-39.0-0.0","92465855","wem/bandit_single","A3JTMXHPNCUFNX","pain","7","","76","L","3","","0","0","1","","0.07150319997","false","2","","0.1903203277","main_expt","","0.1824128093","","0.4696156166","","0.07150319997","","","","","",""
"129","","bandit","78","525600","0.0-40.0-0.0","92465855","wem/bandit_single","A3JTMXHPNCUFNX","pain","7","","76","L","3","","0","0","1","","0.080703679","false","3","","0.1806567389","main_expt","","0.1671989933","","0.477042595","","0.080703679","","","","","",""
"89","","bandit","79","527477","0.0-41.0-0.0","92465855","wem/bandit_single","A3JTMXHPNCUFNX","pain","7","","76","L","3","","0","0","1","","0.09206073837","false","4","","0.1746643784","main_expt","","0.1769774761","","0.4833388502","","0.09206073837","","","","","",""
"8","","bandit","80","529277","0.0-42.0-0.0","92465855","wem/bandit_single","A3JTMXHPNCUFNX","pain","7","","76","L","3","","0","0","1","","0.09846378213","false","5","","0.1575849224","main_expt","","0.1847579949","","0.4679643189","","0.09846378213","","","","","",""
"145","","bandit","81","531196","0.0-43.0-0.0","92465855","wem/bandit_single","A3JTMXHPNCUFNX","pain","7","","76","L","3","","0","0","1","","0.07982937149","false","6","","0.1848921601","main_expt","","0.2263389119","","0.4728114282","","0.07982937149","","","","","",""
"18","","bandit","82","532992","0.0-44.0-0.0","92465855","wem/bandit_single","A3JTMXHPNCUFNX","pain","7","","76","L","3","","0","0","1","","0.08361087011","false","7","","0.2090417599","main_expt","","0.233500047","","0.4763129956","","0.08361087011","","","","","",""
"465","","bandit","83","535232","0.0-45.0-0.0","92465855","wem/bandit_single","A3JTMXHPNCUFNX","pain","7","","76","L","3","","0","0","1","","0.1210475052","false","8","","0.2340345007","main_expt","","0.2213385325","","0.4605171502","","0.1210475052","","","","","",""
"330","","bandit","84","537348","0.0-46.0-0.0","92465855","wem/bandit_single","A3JTMXHPNCUFNX","pain","7","","76","L","3","","0","0","1","","0.1023248189","false","9","","0.2388832632","main_expt","","0.216727727","","0.457599345","","0.1023248189","","","","","",""
"207","","bandit","85","539337","0.0-47.0-0.0","92465855","wem/bandit_single","A3JTMXHPNCUFNX","pain","7","","76","L","3","","0","0","1","","0.1311876697","false","10","","0.2336568073","main_expt","","0.1757193701","","0.4514273669","","0.1311876697","","","","","",""
"6100","","bandit","86","547214","0.0-48.0-0.0","92465855","wem/bandit_single","A3JTMXHPNCUFNX","pain","7","","76","L","3","","0","0","1","","0.1171839072","false","11","","0.2682397485","main_expt","","0.221687112","","0.461109344","","0.1171839072","","","","","",""
"217","","bandit","87","549225","0.0-49.0-0.0","92465855","wem/bandit_single","A3JTMXHPNCUFNX","pain","7","","76","L","3","","0","1","0","","0.09103905321","false","12","","0.2855743842","main_expt","","0.1693148256","","0.4750360261","","0.09103905321","","","","","",""
"0","","bandit","88","551073","0.0-50.0-0.0","92465855","wem/bandit_single","A3JTMXHPNCUFNX","pain","7","","76","L","3","","0","0","1","","0.08195125901","false","13","","0.2877368863","main_expt","","0.1861997022","","0.4882900813","","0.08195125901","","","","","",""
"411","","bandit","89","553270","0.0-51.0-0.0","92465855","wem/bandit_single","A3JTMXHPNCUFNX","pain","7","","76","L","3","","0","0","1","","0.1022478824","false","14","","0.2904717711","main_expt","","0.2056371894","","0.4836145896","","0.1022478824","","","","","",""
"121","","bandit","90","555198","0.0-52.0-0.0","92465855","wem/bandit_single","A3JTMXHPNCUFNX","pain","7","","76","L","3","","0","0","1","","0.1295923723","false","15","","0.3145527135","main_expt","","0.207651467","","0.4841526839","","0.1295923723","","","","","",""
"12","","bandit","91","556989","0.0-53.0-0.0","92465855","wem/bandit_single","A3JTMXHPNCUFNX","pain","7","","76","L","3","","0","0","1","","0.1259026636","false","16","","0.2919685568","main_expt","","0.264879833","","0.4733209008","","0.1259026636","","","","","",""
"51","","bandit","92","558828","0.0-54.0-0.0","92465855","wem/bandit_single","A3JTMXHPNCUFNX","pain","7","","76","L","3","","0","0","1","","0.08714849596","false","17","","0.2437915417","main_expt","","0.301226273","","0.4548629562","","0.08714849596","","","","","",""
"175","","bandit","93","560784","0.0-55.0-0.0","92465855","wem/bandit_single","A3JTMXHPNCUFNX","pain","7","","76","L","3","","0","0","1","","0.06082296625","false","18","","0.2139729843","main_expt","","0.3355017989","","0.4423108412","","0.06082296625","","","","","",""
"4547","","bandit","94","567115","0.0-56.0-0.0","92465855","wem/bandit_single","A3JTMXHPNCUFNX","pain","7","","76","L","3","","0","0","1","","0.04376078701","false","19","","0.2117718275","main_expt","","0.4066928382","","0.4510346454","","0.04376078701","","","","","",""
"1961","","bandit","95","570958","0.0-57.0-0.0","92465855","wem/bandit_single","A3JTMXHPNCUFNX","pain","7","","76","L","3","","0","0","1","","0.0431273538","false","20","","0.2128214431","main_expt","","0.4152799178","","0.4522943673","","0.0431273538","","","","","",""
"1219","","bandit","96","574011","0.0-58.0-0.0","92465855","wem/bandit_single","A3JTMXHPNCUFNX","pain","7","","76","L","3","","0","0","1","","0.05700218709","false","21","","0.2557511999","main_expt","","0.4005545413","","0.4213917452","","0.05700218709","","","","","",""
"1395","","bandit","97","577181","0.0-59.0-0.0","92465855","wem/bandit_single","A3JTMXHPNCUFNX","pain","7","","76","L","3","","0","0","1","","0.03008320558","false","22","","0.2240556206","main_expt","","0.4065945052","","0.4055738921","","0.03008320558","","","","","",""
"65","","bandit","98","579025","0.0-60.0-0.0","92465855","wem/bandit_single","A3JTMXHPNCUFNX","pain","7","","76","L","3","","0","0","1","","0.04675245401","false","23","","0.1913455436","main_expt","","0.4396923884","","0.4102744642","","0.04675245401","","","","","",""
"1360","","bandit","99","582160","0.0-61.0-0.0","92465855","wem/bandit_single","A3JTMXHPNCUFNX","pain","7","","76","L","3","","0","0","1","","0.02664245213","false","24","","0.1767964116","main_expt","","0.4414607804","","0.4215519413","","0.02664245213","","","","","",""
"1130","","bandit","100","585070","0.0-62.0-0.0","92465855","wem/bandit_single","A3JTMXHPNCUFNX","pain","7","","76","L","3","","0","0","1","","0.02443183667","false","25","","0.1667721477","main_expt","","0.430597795","","0.4076768117","","0.02443183667","","","","","",""
"83","","bandit","101","586939","0.0-63.0-0.0","92465855","wem/bandit_single","A3JTMXHPNCUFNX","pain","7","","76","L","3","","0","0","1","","0.02765515704","false","26","","0.132468293","main_expt","","0.4049624372","","0.3563873355","","0.02765515704","","","","","",""
"241","","bandit","102","588949","0.0-64.0-0.0","92465855","wem/bandit_single","A3JTMXHPNCUFNX","pain","7","","76","L","3","","0","0","1","","0.05751586542","false","27","","0.1283549716","main_expt","","0.3959859591","","0.3305608977","","0.05751586542","","","","","",""
"96","","bandit","103","591061","0.0-65.0-0.0","92465855","wem/bandit_single","A3JTMXHPNCUFNX","pain","7","","76","L","3","","0","0","1","","0.1046410472","false","28","","0.1218888314","main_expt","","0.4316273603","","0.323916825","","0.1046410472","","","","","",""
"5","","bandit","104","592837","0.0-66.0-0.0","92465855","wem/bandit_single","A3JTMXHPNCUFNX","pain","7","","76","L","3","","0","1","0","","0.1174110135","false","29","","0.08739650486","main_expt","","0.4618757987","","0.3256975875","","0.1174110135","","","","","",""
"458","","bandit","105","595068","0.0-67.0-0.0","92465855","wem/bandit_single","A3JTMXHPNCUFNX","pain","7","","74","J","1","","0","1","0","","0.4764599947","false","30","","0.1113113005","main_expt","","0.4764599947","","0.3590663193","","0.09344635718","","","","","",""
"91","","bandit","106","596980","0.0-68.0-0.0","92465855","wem/bandit_single","A3JTMXHPNCUFNX","pain","7","","72","H","0","img/none_selected.jpg","0","0","1","","0.1234593762","false","31","","0.1234593762","main_expt","","0.4870567238","","0.2794303661","","0.07228097062","","","","","",""
"32","","bandit","107","598782","0.0-69.0-0.0","92465855","wem/bandit_single","A3JTMXHPNCUFNX","pain","7","","72","H","0","img/none_selected.jpg","0","0","1","","0.1204693509","false","32","","0.1204693509","main_expt","","0.4744541924","","0.2725021833","","0.06660380695","","","","","",""
"177","","bandit","108","600737","0.0-70.0-0.0","92465855","wem/bandit_single","A3JTMXHPNCUFNX","pain","7","","72","H","0","img/none_selected.jpg","0","0","1","","0.1525092538","false","33","","0.1525092538","main_expt","","0.4595636441","","0.2662358977","","0.06161000393","","","","","",""
"53","","bandit","109","602599","0.0-71.0-0.0","92465855","wem/bandit_single","A3JTMXHPNCUFNX","pain","7","","72","H","0","img/none_selected.jpg","0","0","1","","0.0933794629","false","34","","0.0933794629","main_expt","","0.4700794195","","0.3062719381","","0.08245015188","","","","","",""
"23","","bandit","110","604395","0.0-72.0-0.0","92465855","wem/bandit_single","A3JTMXHPNCUFNX","pain","7","","72","H","0","img/none_selected.jpg","0","0","1","","0.06693018499","false","35","","0.06693018499","main_expt","","0.46481425","","0.3199342551","","0.08195488018","","","","","",""
"194","","bandit","111","606373","0.0-73.0-0.0","92465855","wem/bandit_single","A3JTMXHPNCUFNX","pain","7","","72","H","0","img/none_selected.jpg","0","0","1","","0.09916465935","false","36","","0.09916465935","main_expt","","0.4518384169","","0.3039619122","","0.1004102013","","","","","",""
"162","","bandit","112","608311","0.0-74.0-0.0","92465855","wem/bandit_single","A3JTMXHPNCUFNX","pain","7","","72","H","0","img/none_selected.jpg","0","0","1","","0.08872434017","false","37","","0.08872434017","main_expt","","0.439581627","","0.2927636057","","0.1390326598","","","","","",""
"31","","bandit","113","610114","0.0-75.0-0.0","92465855","wem/bandit_single","A3JTMXHPNCUFNX","pain","7","","72","H","0","img/none_selected.jpg","0","0","1","","0.08103487055","false","38","","0.08103487055","main_expt","","0.3994664239","","0.3513205482","","0.143322519","","","","","",""
"53","","bandit","114","611941","0.0-76.0-0.0","92465855","wem/bandit_single","A3JTMXHPNCUFNX","pain","7","","72","H","0","img/none_selected.jpg","0","0","1","","0.09262773223","false","39","","0.09262773223","main_expt","","0.399239641","","0.3199725693","","0.1439849427","","","","","",""
"178","","bandit","115","613904","0.0-77.0-0.0","92465855","wem/bandit_single","A3JTMXHPNCUFNX","pain","7","","72","H","0","img/none_selected.jpg","0","0","1","","0.08276392867","false","40","","0.08276392867","main_expt","","0.3842971785","","0.2899826696","","0.1813186375","","","","","",""
"56","","bandit","116","615745","0.0-78.0-0.0","92465855","wem/bandit_single","A3JTMXHPNCUFNX","pain","7","","72","H","0","img/none_selected.jpg","0","0","1","","0.07889170896","false","41","","0.07889170896","main_expt","","0.3584077127","","0.2470457707","","0.182623784","","","","","",""
"231","","bandit","117","617762","0.0-79.0-0.0","92465855","wem/bandit_single","A3JTMXHPNCUFNX","pain","7","","72","H","0","img/none_selected.jpg","0","0","1","","0.1007082374","false","42","","0.1007082374","main_expt","","0.2940512223","","0.2860815649","","0.1310997782","","","","","",""
"145","","bandit","118","619692","0.0-80.0-0.0","92465855","wem/bandit_single","A3JTMXHPNCUFNX","pain","7","","72","H","0","img/none_selected.jpg","0","0","1","","0.04983151166","false","43","","0.04983151166","main_expt","","0.3274682868","","0.3649324249","","0.1211351308","","","","","",""
"180","","bandit","119","621653","0.0-81.0-0.0","92465855","wem/bandit_single","A3JTMXHPNCUFNX","pain","7","","72","H","0","img/none_selected.jpg","0","0","1","","0.06772206808","false","44","","0.06772206808","main_expt","","0.3105097628","","0.3722884938","","0.1032393721","","","","","",""
"114","","bandit","120","623603","0.0-82.0-0.0","92465855","wem/bandit_single","A3JTMXHPNCUFNX","pain","7","","72","H","0","img/none_selected.jpg","0","0","1","","0.07082322934","false","45","","0.07082322934","main_expt","","0.3253779088","","0.3589666793","","0.145243047","","","","","",""
"235","","bandit","121","625685","0.0-83.0-0.0","92465855","wem/bandit_single","A3JTMXHPNCUFNX","pain","7","","72","H","0","img/none_selected.jpg","0","0","1","","0.08302100682","false","46","","0.08302100682","main_expt","","0.2907447256","","0.309469461","","0.1871821161","","","","","",""
"330","","bandit","122","627801","0.0-84.0-0.0","92465855","wem/bandit_single","A3JTMXHPNCUFNX","pain","7","","72","H","0","img/none_selected.jpg","0","0","1","","0.04947507936","false","47","","0.04947507936","main_expt","","0.2922490699","","0.3486132663","","0.1827431821","","","","","",""
"90","","bandit","123","629677","0.0-85.0-0.0","92465855","wem/bandit_single","A3JTMXHPNCUFNX","pain","7","","72","H","0","img/none_selected.jpg","0","0","1","","0.05970491685","false","48","","0.05970491685","main_expt","","0.3012354267","","0.3613151755","","0.1863443356","","","","","",""
"105","","bandit","124","631626","0.0-86.0-0.0","92465855","wem/bandit_single","A3JTMXHPNCUFNX","pain","7","","72","H","0","img/none_selected.jpg","0","0","1","","0.05846806591","false","49","","0.05846806591","main_expt","","0.3199255499","","0.3810076255","","0.2089920758","","","","","",""
"231","","bandit","125","633648","0.0-87.0-0.0","92465855","wem/bandit_single","A3JTMXHPNCUFNX","pain","7","","72","H","0","img/none_selected.jpg","0","0","1","","0.08078022322","false","50","","0.08078022322","main_expt","","0.3246792682","","0.3528158806","","0.2204805957","","","","","",""
"60","","bandit","126","635502","0.0-88.0-0.0","92465855","wem/bandit_single","A3JTMXHPNCUFNX","pain","7","","72","H","0","img/none_selected.jpg","0","1","0","","0.08366705542","false","51","","0.08366705542","main_expt","","0.3158487008","","0.4127521961","","0.2796788854","","","","","",""
"57","","bandit","127","637343","0.0-89.0-0.0","92465855","wem/bandit_single","A3JTMXHPNCUFNX","pain","7","","72","H","0","img/none_selected.jpg","0","0","1","","0.1365111474","false","52","","0.1365111474","main_expt","","0.2764666405","","0.4034362436","","0.2870992152","","","","","",""
"71","","bandit","128","639203","0.0-90.0-0.0","92465855","wem/bandit_single","A3JTMXHPNCUFNX","pain","7","","72","H","0","img/none_selected.jpg","0","1","0","","0.1238361543","false","53","","0.1238361543","main_expt","","0.2740398937","","0.4268522392","","0.3176469779","","","","","",""
"226","","bandit","129","641221","0.0-91.0-0.0","92465855","wem/bandit_single","A3JTMXHPNCUFNX","pain","7","","72","H","0","img/none_selected.jpg","0","0","1","","0.1150058699","false","54","","0.1150058699","main_expt","","0.2499565254","","0.4471231168","","0.3407727651","","","","","",""
"1578","","bandit","130","644590","0.0-92.0-0.0","92465855","wem/bandit_single","A3JTMXHPNCUFNX","pain","7","","72","H","0","img/none_selected.jpg","0","1","0","","0.1498695165","false","55","","0.1498695165","main_expt","","0.221305586","","0.4397300441","","0.380871147","","","","","",""
"94","","bandit","131","646516","0.0-93.0-0.0","92465855","wem/bandit_single","A3JTMXHPNCUFNX","pain","7","","75","K","2","","0","1","0","","0.4266514607","false","56","","0.1559096332","main_expt","","0.2513729962","","0.4266514607","","0.3614982187","","","","","",""
"4","","bandit","132","648298","0.0-94.0-0.0","92465855","wem/bandit_single","A3JTMXHPNCUFNX","pain","7","","74","J","1","","0","0","1","","0.254621842","false","57","","0.139260175","main_expt","","0.254621842","","0.4351066669","","0.3219973572","","","","","",""
"186","","bandit","133","650262","0.0-95.0-0.0","92465855","wem/bandit_single","A3JTMXHPNCUFNX","pain","7","","74","J","1","","0","0","1","","0.2911199408","false","58","","0.1101041774","main_expt","","0.2911199408","","0.4114765848","","0.3136466855","","","","","",""
"97","","bandit","134","652155","0.0-96.0-0.0","92465855","wem/bandit_single","A3JTMXHPNCUFNX","pain","7","","74","J","1","","0","0","1","","0.3260103257","false","59","","0.1619704935","main_expt","","0.3260103257","","0.4331866813","","0.3553654786","","","","","",""
"164","","bandit","135","654103","0.0-97.0-0.0","92465855","wem/bandit_single","A3JTMXHPNCUFNX","pain","7","","74","J","1","","0","1","0","","0.3801831719","false","60","","0.1023472493","main_expt","","0.3801831719","","0.4452666195","","0.302494743","","","","","",""
"21","","bandit","136","655918","0.0-98.0-0.0","92465855","wem/bandit_single","A3JTMXHPNCUFNX","pain","7","","74","J","1","","0","1","0","","0.4097171909","false","61","","0.1659923055","main_expt","","0.4097171909","","0.4533212266","","0.3194951829","","","","","",""
"183","","bandit","137","657970","0.0-99.0-0.0","92465855","wem/bandit_single","A3JTMXHPNCUFNX","pain","7","","74","J","1","","0","1","0","","0.4297251169","false","62","","0.1773336283","main_expt","","0.4297251169","","0.4546633602","","0.3491175101","","","","","",""
"3932","","bandit","138","663682","0.0-100.0-0.0","92465855","wem/bandit_single","A3JTMXHPNCUFNX","pain","7","","74","J","1","","0","0","1","","0.4523537282","false","63","","0.1838898345","main_expt","","0.4523537282","","0.431915851","","0.3618657485","","","","","",""
"153","","bandit","139","665620","0.0-101.0-0.0","92465855","wem/bandit_single","A3JTMXHPNCUFNX","pain","7","","74","J","1","","0","1","0","","0.4577822331","false","64","","0.1535376321","main_expt","","0.4577822331","","0.4397857724","","0.3331995431","","","","","",""
"206","","bandit","140","667614","0.0-102.0-0.0","92465855","wem/bandit_single","A3JTMXHPNCUFNX","pain","7","","76","L","3","","0","0","1","","0.3222916502","false","65","","0.1696059705","main_expt","","0.4366397349","","0.3803141428","","0.3222916502","","","","","",""
"14","","bandit","141","669440","0.0-103.0-0.0","92465855","wem/bandit_single","A3JTMXHPNCUFNX","pain","7","","76","L","3","","0","0","1","","0.2935747005","false","66","","0.1747776373","main_expt","","0.4223045317","","0.4318665216","","0.2935747005","","","","","",""
"43","","bandit","142","671274","0.0-104.0-0.0","92465855","wem/bandit_single","A3JTMXHPNCUFNX","pain","7","","76","L","3","","0","1","0","","0.272098099","false","67","","0.1880318686","main_expt","","0.453094409","","0.3783394243","","0.272098099","","","","","",""
"112","","bandit","143","673176","0.0-105.0-0.0","92465855","wem/bandit_single","A3JTMXHPNCUFNX","pain","7","","76","L","3","","0","0","1","","0.2839543474","false","68","","0.1703396733","main_expt","","0.4441165928","","0.3424409758","","0.2839543474","","","","","",""
"119","","bandit","144","675079","0.0-106.0-0.0","92465855","wem/bandit_single","A3JTMXHPNCUFNX","pain","7","","76","L","3","","0","0","1","","0.3106529802","false","69","","0.2041307244","main_expt","","0.437102529","","0.3825588005","","0.3106529802","","","","","",""
"148","","bandit","145","677020","0.0-107.0-0.0","92465855","wem/bandit_single","A3JTMXHPNCUFNX","pain","7","","76","L","3","","0","0","1","","0.2152651325","false","70","","0.2380468473","main_expt","","0.463010405","","0.4019939479","","0.2152651325","","","","","",""
"128","","bandit","146","678978","0.0-108.0-0.0","92465855","wem/bandit_single","A3JTMXHPNCUFNX","pain","7","","76","L","3","","0","0","1","","0.2150247356","false","71","","0.2540220497","main_expt","","0.4511055106","","0.3995375499","","0.2150247356","","","","","",""
"39","","bandit","147","680788","0.0-109.0-0.0","92465855","wem/bandit_single","A3JTMXHPNCUFNX","pain","7","","76","L","3","","0","0","1","","0.2196699897","false","72","","0.2877519017","main_expt","","0.456238914","","0.3655493795","","0.2196699897","","","","","",""
"245","","bandit","148","682811","0.0-110.0-0.0","92465855","wem/bandit_single","A3JTMXHPNCUFNX","pain","7","","76","L","3","","0","0","1","","0.2086164273","false","73","","0.3090267326","main_expt","","0.4499554287","","0.3443296275","","0.2086164273","","","","","",""
"121","","bandit","149","684705","0.0-111.0-0.0","92465855","wem/bandit_single","A3JTMXHPNCUFNX","pain","7","","76","L","3","","0","0","1","","0.2226006448","false","74","","0.3400901674","main_expt","","0.4439780401","","0.3647916216","","0.2226006448","","","","","",""
"123","","bandit","150","686652","0.0-112.0-0.0","92465855","wem/bandit_single","A3JTMXHPNCUFNX","pain","7","","76","L","3","","0","1","0","","0.2015377479","false","75","","0.3519214117","main_expt","","0.4332341766","","0.3531956798","","0.2015377479","","","","","",""
"268","","bandit","151","688709","0.0-113.0-0.0","92465855","wem/bandit_single","A3JTMXHPNCUFNX","pain","7","","76","L","3","","0","0","1","","0.2614433548","false","76","","0.3621584499","main_expt","","0.4241516559","","0.3375826797","","0.2614433548","","","","","",""
"258","","bandit","152","690781","0.0-114.0-0.0","92465855","wem/bandit_single","A3JTMXHPNCUFNX","pain","7","","76","L","3","","0","0","1","","0.3216300101","false","77","","0.3919288513","main_expt","","0.404580079","","0.3389323042","","0.3216300101","","","","","",""
"101","","bandit","153","692658","0.0-115.0-0.0","92465855","wem/bandit_single","A3JTMXHPNCUFNX","pain","7","","76","L","3","","0","1","0","","0.3253900192","false","78","","0.3733142104","main_expt","","0.4291019186","","0.3633343286","","0.3253900192","","","","","",""
"94","","bandit","154","694649","0.0-116.0-0.0","92465855","wem/bandit_single","A3JTMXHPNCUFNX","pain","7","","76","L","3","","0","1","0","","0.3253799771","false","79","","0.3594898906","main_expt","","0.4431072694","","0.35510173","","0.3253799771","","","","","",""
"177","","bandit","155","696641","0.0-117.0-0.0","92465855","wem/bandit_single","A3JTMXHPNCUFNX","pain","7","","76","L","3","","0","0","1","","0.321449248","false","80","","0.3740263767","main_expt","","0.4443251544","","0.3313699227","","0.321449248","","","","","",""
"34","","bandit","156","698538","0.0-118.0-0.0","92465855","wem/bandit_single","A3JTMXHPNCUFNX","pain","7","","76","L","3","","0","0","1","","0.3644617874","false","81","","0.4031190442","main_expt","","0.4222806544","","0.3545786091","","0.3644617874","","","","","",""
"4","","bandit","157","700317","0.0-119.0-0.0","92465855","wem/bandit_single","A3JTMXHPNCUFNX","pain","7","","76","L","3","","0","0","1","","0.3646727683","false","82","","0.397551472","main_expt","","0.4348184101","","0.36958943","","0.3646727683","","","","","",""
"48","","bandit","158","702155","0.0-120.0-0.0","92465855","wem/bandit_single","A3JTMXHPNCUFNX","pain","7","","76","L","3","","0","0","1","","0.3823543101","false","83","","0.4251589807","main_expt","","0.4237956171","","0.3818301908","","0.3823543101","","","","","",""
"763","","bandit","159","704904","0.0-121.0-0.0","92465855","wem/bandit_single","A3JTMXHPNCUFNX","pain","7","","76","L","3","","0","0","1","","0.3927357351","false","84","","0.406460911","main_expt","","0.4255820551","","0.3841316884","","0.3927357351","","","","","",""
"1548","","bandit","160","708223","0.0-122.0-0.0","92465855","wem/bandit_single","A3JTMXHPNCUFNX","pain","7","","76","L","3","","0","0","1","","0.3242792488","false","85","","0.4190094225","main_expt","","0.4407045426","","0.3769873451","","0.3242792488","","","","","",""
"982","","bandit","161","710987","0.0-123.0-0.0","92465855","wem/bandit_single","A3JTMXHPNCUFNX","pain","7","","76","L","3","","0","0","1","","0.3257651096","false","86","","0.4006115864","main_expt","","0.4276882268","","0.3624331431","","0.3257651096","","","","","",""
"51","","bandit","162","712812","0.0-124.0-0.0","92465855","wem/bandit_single","A3JTMXHPNCUFNX","pain","7","","76","L","3","","0","1","0","","0.3768973447","false","87","","0.3761684651","main_expt","","0.4430021271","","0.356636023","","0.3768973447","","","","","",""
"132","","bandit","163","714723","0.0-125.0-0.0","92465855","wem/bandit_single","A3JTMXHPNCUFNX","pain","7","","76","L","3","","0","1","0","","0.3333804566","false","88","","0.3935355307","main_expt","","0.4259892117","","0.392705536","","0.3333804566","","","","","",""
"155","","bandit","164","716660","0.0-126.0-0.0","92465855","wem/bandit_single","A3JTMXHPNCUFNX","pain","7","","76","L","3","","0","0","1","","0.3326985542","false","89","","0.3870426381","main_expt","","0.4451393147","","0.39579544","","0.3326985542","","","","","",""
"13","","bandit","165","718455","0.0-127.0-0.0","92465855","wem/bandit_single","A3JTMXHPNCUFNX","pain","7","","76","L","3","","0","0","1","","0.3392082427","false","90","","0.3838573884","main_expt","","0.4450202473","","0.3832348421","","0.3392082427","","","","","",""
"83","","bandit","166","720318","0.0-128.0-0.0","92465855","wem/bandit_single","A3JTMXHPNCUFNX","pain","7","","76","L","3","","0","0","1","","0.2686139101","false","91","","0.376063899","main_expt","","0.428726471","","0.4009824957","","0.2686139101","","","","","",""
"410","","bandit","167","722556","0.0-129.0-0.0","92465855","wem/bandit_single","A3JTMXHPNCUFNX","pain","7","","76","L","3","","0","0","1","","0.247120026","false","92","","0.3877690924","main_expt","","0.4207086611","","0.360902971","","0.247120026","","","","","",""
"188","","bandit","168","724598","0.0-130.0-0.0","92465855","wem/bandit_single","A3JTMXHPNCUFNX","pain","7","","76","L","3","","0","0","1","","0.1945967668","false","93","","0.3832772702","main_expt","","0.4271109851","","0.4098322422","","0.1945967668","","","","","",""
"349","","bandit","169","726819","0.0-131.0-0.0","92465855","wem/bandit_single","A3JTMXHPNCUFNX","pain","7","","76","L","3","","0","0","1","","0.2059940606","false","94","","0.3569295009","main_expt","","0.3988025755","","0.365685068","","0.2059940606","","","","","",""
"69","","bandit","170","728682","0.0-132.0-0.0","92465855","wem/bandit_single","A3JTMXHPNCUFNX","pain","7","","76","L","3","","0","0","1","","0.2276463074","false","95","","0.3462427099","main_expt","","0.3413505888","","0.3246475432","","0.2276463074","","","","","",""
"83","","bandit","171","730581","0.0-133.0-0.0","92465855","wem/bandit_single","A3JTMXHPNCUFNX","pain","7","","76","L","3","","0","0","1","","0.3088064785","false","96","","0.2902370181","main_expt","","0.2791034264","","0.3155220288","","0.3088064785","","","","","",""
"70","","bandit","172","732446","0.0-134.0-0.0","92465855","wem/bandit_single","A3JTMXHPNCUFNX","pain","7","","76","L","3","","0","0","1","","0.3167474357","false","97","","0.2679909325","main_expt","","0.2300358144","","0.2920368253","","0.3167474357","","","","","",""
"161","","bandit","173","734400","0.0-135.0-0.0","92465855","wem/bandit_single","A3JTMXHPNCUFNX","pain","7","","76","L","3","","0","0","1","","0.3311058144","false","98","","0.1827708427","main_expt","","0.245913642","","0.3060047135","","0.3311058144","","","","","",""
"56","","bandit","174","736247","0.0-136.0-0.0","92465855","wem/bandit_single","A3JTMXHPNCUFNX","pain","7","","76","L","3","","0","0","1","","0.2831383079","false","99","","0.1847148603","main_expt","","0.1977736678","","0.2834300817","","0.2831383079","","","","","",""
"262","","bandit","175","738305","0.0-137.0-0.0","92465855","wem/bandit_single","A3JTMXHPNCUFNX","pain","7","","76","L","3","","0","1","0","","0.2697282324","false","100","","0.230590463","main_expt","","0.2300987319","","0.3094748938","","0.2697282324","","","","","",""
"175","","bandit","176","740273","0.0-138.0-0.0","92465855","wem/bandit_single","A3JTMXHPNCUFNX","pain","7","","76","L","3","","0","1","0","","0.2908511313","false","101","","0.2036778932","main_expt","","0.2375929523","","0.2776834174","","0.2908511313","","","","","",""
"35","","bandit","177","742092","0.0-139.0-0.0","92465855","wem/bandit_single","A3JTMXHPNCUFNX","pain","7","","76","L","3","","0","1","0","","0.3371086545","false","102","","0.2146692458","main_expt","","0.2034833152","","0.2649828438","","0.3371086545","","","","","",""
"189","","bandit","178","744060","0.0-140.0-0.0","92465855","wem/bandit_single","A3JTMXHPNCUFNX","pain","7","","76","L","3","","0","0","1","","0.2925399581","false","103","","0.2194044235","main_expt","","0.2510503681","","0.1977849252","","0.2925399581","","","","","",""
"251","","bandit","179","746089","0.0-141.0-0.0","92465855","wem/bandit_single","A3JTMXHPNCUFNX","pain","7","","76","L","3","","0","0","1","","0.229866195","false","104","","0.2869514305","main_expt","","0.2563420723","","0.164180841","","0.229866195","","","","","",""
"4","","bandit","180","747923","0.0-142.0-0.0","92465855","wem/bandit_single","A3JTMXHPNCUFNX","pain","7","","76","L","3","","0","1","0","","0.2786648232","false","105","","0.2577924419","main_expt","","0.2025228913","","0.1410880488","","0.2786648232","","","","","",""
"411","","bandit","181","750104","0.0-143.0-0.0","92465855","wem/bandit_single","A3JTMXHPNCUFNX","pain","7","","76","L","3","","0","0","1","","0.2907959635","false","106","","0.2984789445","main_expt","","0.2288818116","","0.2151151798","","0.2907959635","","","","","",""
"228","","bandit","182","752115","0.0-144.0-0.0","92465855","wem/bandit_single","A3JTMXHPNCUFNX","pain","7","","76","L","3","","0","0","1","","0.2934471614","false","107","","0.2483059356","main_expt","","0.2725684277","","0.2068678097","","0.2934471614","","","","","",""
"136","","bandit","183","754030","0.0-145.0-0.0","92465855","wem/bandit_single","A3JTMXHPNCUFNX","pain","7","","76","L","3","","0","1","0","","0.2761460559","false","108","","0.2177203031","main_expt","","0.2725367566","","0.1775779384","","0.2761460559","","","","","",""
"127","","bandit","184","755997","0.0-146.0-0.0","92465855","wem/bandit_single","A3JTMXHPNCUFNX","pain","7","","76","L","3","","0","0","1","","0.3154055318","false","109","","0.2155336726","main_expt","","0.2645412755","","0.1633907035","","0.3154055318","","","","","",""
"85","","bandit","185","757900","0.0-147.0-0.0","92465855","wem/bandit_single","A3JTMXHPNCUFNX","pain","7","","76","L","3","","0","1","0","","0.3375256398","false","110","","0.2012134729","main_expt","","0.2537238549","","0.1918139944","","0.3375256398","","","","","",""
"730","","bandit","186","760414","0.0-148.0-0.0","92465855","wem/bandit_single","A3JTMXHPNCUFNX","pain","7","","74","J","1","","0","0","1","","0.2404930496","false","111","","0.1362677005","main_expt","","0.2404930496","","0.1512725872","","0.3575411602","","","","","",""
"1329","","bandit","187","763563","0.0-149.0-0.0","92465855","wem/bandit_single","A3JTMXHPNCUFNX","pain","7","","74","J","1","","0","1","0","","0.2031918028","false","112","","0.1146466799","main_expt","","0.2031918028","","0.1579322392","","0.3357984678","","","","","",""
"126","","bandit","188","765461","0.0-150.0-0.0","92465855","wem/bandit_single","A3JTMXHPNCUFNX","pain","7","","74","J","1","","0","0","1","","0.2649243105","false","113","","0.1503083978","main_expt","","0.2649243105","","0.1638150459","","0.2950954247","","","","","",""
"280","","bandit","189","767558","0.0-151.0-0.0","92465855","wem/bandit_single","A3JTMXHPNCUFNX","pain","7","","74","J","1","","0","0","1","","0.2669290767","false","114","","0.1750780752","main_expt","","0.2669290767","","0.1913716077","","0.3242299597","","","","","",""
"242","","bandit","190","769583","0.0-152.0-0.0","92465855","wem/bandit_single","A3JTMXHPNCUFNX","pain","7","","74","J","1","","0","0","1","","0.2538219684","false","115","","0.1486636943","main_expt","","0.2538219684","","0.1762938339","","0.3224166769","","","","","",""
"505","","bandit","191","771971","0.0-153.0-0.0","92465855","wem/bandit_single","A3JTMXHPNCUFNX","pain","7","","74","J","1","","0","1","0","","0.2987800907","false","116","","0.149377163","main_expt","","0.2987800907","","0.1696576366","","0.3512221687","","","","","",""
"9","","bandit","192","773766","0.0-154.0-0.0","92465855","wem/bandit_single","A3JTMXHPNCUFNX","pain","7","","74","J","1","","0","0","1","","0.2863147972","false","117","","0.1255156769","main_expt","","0.2863147972","","0.1743908607","","0.3854596622","","","","","",""
"22","","bandit","193","775566","0.0-155.0-0.0","92465855","wem/bandit_single","A3JTMXHPNCUFNX","pain","7","","74","J","1","","0","1","0","","0.2863485017","false","118","","0.09405737873","main_expt","","0.2863485017","","0.2187419408","","0.3311459155","","","","","",""
"182","","bandit","194","777531","0.0-156.0-0.0","92465855","wem/bandit_single","A3JTMXHPNCUFNX","pain","7","","74","J","1","","0","0","1","","0.2704451175","false","119","","0.0580133569","main_expt","","0.2704451175","","0.2602037773","","0.3243143835","","","","","",""
"78","","bandit","195","779385","0.0-157.0-0.0","92465855","wem/bandit_single","A3JTMXHPNCUFNX","pain","7","","74","J","1","","0","0","1","","0.2545920365","false","120","","0.04965982272","main_expt","","0.2545920365","","0.2665240463","","0.3830596167","","","","","",""
"48","","bandit","196","781221","0.0-158.0-0.0","92465855","wem/bandit_single","A3JTMXHPNCUFNX","pain","7","","74","J","1","","0","1","0","","0.323502768","false","121","","0.05452098248","main_expt","","0.323502768","","0.2300357123","","0.4451194006","","","","","",""
"896","","bandit","197","783958","0.0-159.0-0.0","92465855","wem/bandit_single","A3JTMXHPNCUFNX","pain","7","","75","K","2","","0","0","1","","0.2071140152","false","122","","0.0475995955","main_expt","","0.3380353075","","0.2071140152","","0.4636898934","","","","","",""
"170","","bandit","198","785975","0.0-160.0-0.0","92465855","wem/bandit_single","A3JTMXHPNCUFNX","pain","7","","75","K","2","","0","0","1","","0.2590656513","false","123","","0.04799769062","main_expt","","0.341491638","","0.2590656513","","0.4384370655","","","","","",""
"150","","bandit","199","787901","0.0-161.0-0.0","92465855","wem/bandit_single","A3JTMXHPNCUFNX","pain","7","","75","K","2","","0","0","1","","0.2492473134","false","124","","0.06454195205","main_expt","","0.3269941981","","0.2492473134","","0.456933673","","","","","",""
"36","","bandit","200","789738","0.0-162.0-0.0","92465855","wem/bandit_single","A3JTMXHPNCUFNX","pain","7","","75","K","2","","0","0","1","","0.2569957816","false","125","","0.0570469748","main_expt","","0.3263020805","","0.2569957816","","0.4834692703","","","","","",""
"21","","bandit","201","791611","0.0-163.0-0.0","92465855","wem/bandit_single","A3JTMXHPNCUFNX","pain","7","","75","K","2","","0","0","1","","0.2715808503","false","126","","0.06214194377","main_expt","","0.3377655475","","0.2715808503","","0.4895912119","","","","","",""
"142","","bandit","202","793564","0.0-164.0-0.0","92465855","wem/bandit_single","A3JTMXHPNCUFNX","pain","7","","75","K","2","","0","0","1","","0.3260406689","false","127","","0.06219251386","main_expt","","0.3489319456","","0.3260406689","","0.4791977258","","","","","",""
"121","","bandit","203","795581","0.0-165.0-0.0","92465855","wem/bandit_single","A3JTMXHPNCUFNX","pain","7","","75","K","2","","0","0","1","","0.3487232841","false","128","","0.06192095676","main_expt","","0.3450526125","","0.3487232841","","0.4772399827","","","","","",""
"81","","bandit","204","797513","0.0-166.0-0.0","92465855","wem/bandit_single","A3JTMXHPNCUFNX","pain","7","","75","K","2","","0","1","0","","0.3601162145","false","129","","0.03846933599","main_expt","","0.3297424559","","0.3601162145","","0.4688955373","","","","","",""
"110","","bandit","205","799399","0.0-167.0-0.0","92465855","wem/bandit_single","A3JTMXHPNCUFNX","pain","7","","75","K","2","","0","0","1","","0.4185413006","false","130","","0.02330960587","main_expt","","0.3731420779","","0.4185413006","","0.4651179545","","","","","",""
"294","","bandit","206","801474","0.0-168.0-0.0","92465855","wem/bandit_single","A3JTMXHPNCUFNX","pain","7","","75","K","2","","0","0","1","","0.4537663544","false","131","","0.03495479357","main_expt","","0.325638262","","0.4537663544","","0.4794739162","","","","","",""
"102","","bandit","207","803469","0.0-169.0-0.0","92465855","wem/bandit_single","A3JTMXHPNCUFNX","pain","7","","75","K","2","","0","0","1","","0.4489861829","false","132","","0.02752519027","main_expt","","0.3132782049","","0.4489861829","","0.4679846252","","","","","",""
"638","","bandit","208","805902","0.0-170.0-0.0","92465855","wem/bandit_single","A3JTMXHPNCUFNX","pain","7","","75","K","2","","0","1","0","","0.4465240103","false","133","","0.03239645132","main_expt","","0.3552481716","","0.4465240103","","0.4636487781","","","","","",""
"5058","","bandit","209","812748","0.0-171.0-0.0","92465855","wem/bandit_single","A3JTMXHPNCUFNX","pain","7","","75","K","2","","0","1","0","","0.4286255731","false","134","","0.02361228775","main_expt","","0.3478795997","","0.4286255731","","0.4578614037","","","","","",""
"92","","bandit","210","814634","0.0-172.0-0.0","92465855","wem/bandit_single","A3JTMXHPNCUFNX","pain","7","","76","L","3","","0","1","0","","0.4339873336","false","135","","0.01378345967","main_expt","","0.3394088604","","0.3969320342","","0.4339873336","","","","","",""
"45","","bandit","211","816605","0.0-173.0-0.0","92465855","wem/bandit_single","A3JTMXHPNCUFNX","pain","7","","72","H","0","img/none_selected.jpg","0","0","1","","0.01349892684","false","136","","0.01349892684","main_expt","","0.3739095734","","0.3975573163","","0.4091277288","","","","","",""
"135","","bandit","212","818555","0.0-174.0-0.0","92465855","wem/bandit_single","A3JTMXHPNCUFNX","pain","7","","72","H","0","img/none_selected.jpg","0","0","1","","0.01373747566","false","137","","0.01373747566","main_expt","","0.3319731639","","0.4226438881","","0.4024864596","","","","","",""
"139","","bandit","213","820472","0.0-175.0-0.0","92465855","wem/bandit_single","A3JTMXHPNCUFNX","pain","7","","72","H","0","img/none_selected.jpg","0","0","1","","0.009346923256","false","138","","0.009346923256","main_expt","","0.3427854578","","0.383622376","","0.3793932322","","","","","",""
"12","","bandit","214","822264","0.0-176.0-0.0","92465855","wem/bandit_single","A3JTMXHPNCUFNX","pain","7","","72","H","0","img/none_selected.jpg","0","0","1","","0.005947695369","false","139","","0.005947695369","main_expt","","0.2804250852","","0.3892077266","","0.3940691536","","","","","",""
"8","","bandit","215","824075","0.0-177.0-0.0","92465855","wem/bandit_single","A3JTMXHPNCUFNX","pain","7","","72","H","0","img/none_selected.jpg","0","0","1","","0.003062149202","false","140","","0.003062149202","main_expt","","0.294489168","","0.3721285976","","0.3878174143","","","","","",""
"89","","bandit","216","825976","0.0-178.0-0.0","92465855","wem/bandit_single","A3JTMXHPNCUFNX","pain","7","","72","H","0","img/none_selected.jpg","0","0","1","","0.003723800288","false","141","","0.003723800288","main_expt","","0.2849233321","","0.403063379","","0.3671315422","","","","","",""
"39","","bandit","217","827825","0.0-179.0-0.0","92465855","wem/bandit_single","A3JTMXHPNCUFNX","pain","7","","72","H","0","img/none_selected.jpg","0","0","1","","0.003048460602","false","142","","0.003048460602","main_expt","","0.2605380125","","0.3916907223","","0.338830911","","","","","",""
"15","","bandit","218","829637","0.0-180.0-0.0","92465855","wem/bandit_single","A3JTMXHPNCUFNX","pain","7","","72","H","0","img/none_selected.jpg","0","0","1","","0.002664125267","false","143","","0.002664125267","main_expt","","0.3030740536","","0.4212357341","","0.2709557481","","","","","",""
"7","","bandit","219","831448","0.0-181.0-0.0","92465855","wem/bandit_single","A3JTMXHPNCUFNX","pain","7","","72","H","0","img/none_selected.jpg","0","0","1","","0.0015633636","false","144","","0.0015633636","main_expt","","0.29766321","","0.3944164323","","0.249986241","","","","","",""
"18","","bandit","220","833264","0.0-182.0-0.0","92465855","wem/bandit_single","A3JTMXHPNCUFNX","pain","7","","72","H","0","img/none_selected.jpg","0","0","1","","0.002084593646","false","145","","0.002084593646","main_expt","","0.2862291296","","0.4129391908","","0.2694710106","","","","","",""
"87","","bandit","221","835148","0.0-183.0-0.0","92465855","wem/bandit_single","A3JTMXHPNCUFNX","pain","7","","72","H","0","img/none_selected.jpg","0","0","1","","0.0008356934022","false","146","","0.0008356934022","main_expt","","0.3151642481","","0.4027876266","","0.3099728414","","","","","",""
"65","","bandit","222","837005","0.0-184.0-0.0","92465855","wem/bandit_single","A3JTMXHPNCUFNX","pain","7","","72","H","0","img/none_selected.jpg","0","0","1","","0.00187417998","false","147","","0.00187417998","main_expt","","0.3261334855","","0.3906291495","","0.3010760093","","","","","",""
"138","","bandit","223","839041","0.0-185.0-0.0","92465855","wem/bandit_single","A3JTMXHPNCUFNX","pain","7","","72","H","0","img/none_selected.jpg","0","0","1","","0.001549413081","false","148","","0.001549413081","main_expt","","0.3605999671","","0.3718958907","","0.2861733563","","","","","",""
"137","","bandit","224","841009","0.0-186.0-0.0","92465855","wem/bandit_single","A3JTMXHPNCUFNX","pain","7","","72","H","0","img/none_selected.jpg","0","0","1","","0.002318569837","false","149","","0.002318569837","main_expt","","0.3848975894","","0.3513552953","","0.2613296644","","","","","",""
"116","","bandit","225","842905","0.0-187.0-0.0","92465855","wem/bandit_single","A3JTMXHPNCUFNX","pain","7","","72","H","0","img/none_selected.jpg","0","0","1","","0.002401941109","false","150","","0.002401941109","main_expt","","0.3680345664","","0.3796712552","","0.2955554784","","","","","",""
"39","","bandit","226","844749","0.0-188.0-0.0","92465855","wem/bandit_single","A3JTMXHPNCUFNX","pain","7","","72","H","0","img/none_selected.jpg","0","0","1","","0.002416650241","false","151","","0.002416650241","main_expt","","0.3517559312","","0.4275550045","","0.2928365899","","","","","",""
"88","","bandit","227","846630","0.0-189.0-0.0","92465855","wem/bandit_single","A3JTMXHPNCUFNX","pain","7","","72","H","0","img/none_selected.jpg","0","0","1","","0.002533271813","false","152","","0.002533271813","main_expt","","0.3963282571","","0.4266807854","","0.3000067833","","","","","",""
"17","","bandit","228","848446","0.0-190.0-0.0","92465855","wem/bandit_single","A3JTMXHPNCUFNX","pain","7","","72","H","0","img/none_selected.jpg","0","0","1","","0.00322942279","false","153","","0.00322942279","main_expt","","0.432842039","","0.4633151701","","0.2757802357","","","","","",""
"3","","bandit","229","850235","0.0-191.0-0.0","92465855","wem/bandit_single","A3JTMXHPNCUFNX","pain","7","","72","H","0","img/none_selected.jpg","0","0","1","","0.003404333974","false","154","","0.003404333974","main_expt","","0.4134551824","","0.4723469507","","0.3252288772","","","","","",""
"107","","bandit","230","852140","0.0-192.0-0.0","92465855","wem/bandit_single","A3JTMXHPNCUFNX","pain","7","","72","H","0","img/none_selected.jpg","0","0","1","","0.008925030754","false","155","","0.008925030754","main_expt","","0.426737857","","0.4829251431","","0.2746928085","","","","","",""
"0","","bandit","231","854050","0.0-193.0-0.0","92465855","wem/bandit_single","A3JTMXHPNCUFNX","pain","7","","72","H","0","img/none_selected.jpg","0","0","1","","0.005317619152","false","156","","0.005317619152","main_expt","","0.4289541051","","0.4753947098","","0.2881451241","","","","","",""
"162","","bandit","232","856020","0.0-194.0-0.0","92465855","wem/bandit_single","A3JTMXHPNCUFNX","pain","7","","72","H","0","img/none_selected.jpg","0","0","1","","0.002657446392","false","157","","0.002657446392","main_expt","","0.4593738684","","0.4686295074","","0.2861132768","","","","","",""
"45","","bandit","233","857930","0.0-195.0-0.0","92465855","wem/bandit_single","A3JTMXHPNCUFNX","pain","7","","72","H","0","img/none_selected.jpg","0","0","1","","0.005349678466","false","158","","0.005349678466","main_expt","","0.4716769587","","0.4746137902","","0.2382703247","","","","","",""
"111","","bandit","234","859842","0.0-196.0-0.0","92465855","wem/bandit_single","A3JTMXHPNCUFNX","pain","7","","72","H","0","img/none_selected.jpg","0","0","1","","0.00353293949","false","159","","0.00353293949","main_expt","","0.4566829936","","0.4626257703","","0.2650616746","","","","","",""
"15","","bandit","235","861653","0.0-197.0-0.0","92465855","wem/bandit_single","A3JTMXHPNCUFNX","pain","7","","72","H","0","img/none_selected.jpg","0","0","1","","0.004525880368","false","160","","0.004525880368","main_expt","","0.4684401337","","0.4690497323","","0.2841227011","","","","","",""
"230","","bandit","236","863689","0.0-198.0-0.0","92465855","wem/bandit_single","A3JTMXHPNCUFNX","pain","7","","72","H","0","img/none_selected.jpg","0","0","1","","0.00364468733","false","161","","0.00364468733","main_expt","","0.4327192474","","0.4605728382","","0.3103310899","","","","","",""
"42","","bandit","237","865545","0.0-199.0-0.0","92465855","wem/bandit_single","A3JTMXHPNCUFNX","pain","7","","72","H","0","img/none_selected.jpg","0","0","1","","0.004567203872","false","162","","0.004567203872","main_expt","","0.4158578039","","0.4663204896","","0.2990864795","","","","","",""
"101","","bandit","238","867464","0.0-200.0-0.0","92465855","wem/bandit_single","A3JTMXHPNCUFNX","pain","7","","72","H","0","img/none_selected.jpg","0","0","1","","0.003538815","false","163","","0.003538815","main_expt","","0.4206849782","","0.4626626357","","0.2650304997","","","","","",""
"117","","bandit","239","869395","0.0-201.0-0.0","92465855","wem/bandit_single","A3JTMXHPNCUFNX","pain","7","","72","H","0","img/none_selected.jpg","0","0","1","","0.002896615325","false","164","","0.002896615325","main_expt","","0.4276923589","","0.4672680551","","0.2877519924","","","","","",""
"244","","bandit","240","871441","0.0-202.0-0.0","92465855","wem/bandit_single","A3JTMXHPNCUFNX","pain","7","","72","H","0","img/none_selected.jpg","0","0","1","","0.004500484281","false","165","","0.004500484281","main_expt","","0.4204466813","","0.455015491","","0.2818109827","","","","","",""
"116","","bandit","241","873354","0.0-203.0-0.0","92465855","wem/bandit_single","A3JTMXHPNCUFNX","pain","7","","72","H","0","img/none_selected.jpg","0","0","1","","0.01017739848","false","166","","0.01017739848","main_expt","","0.4229734844","","0.4201800218","","0.324785045","","","","","",""
"52","","bandit","242","875213","0.0-204.0-0.0","92465855","wem/bandit_single","A3JTMXHPNCUFNX","pain","7","","72","H","0","img/none_selected.jpg","0","0","1","","0.0129517719","false","167","","0.0129517719","main_expt","","0.4474449943","","0.4430085171","","0.3339304688","","","","","",""
"211","","bandit","243","877226","0.0-205.0-0.0","92465855","wem/bandit_single","A3JTMXHPNCUFNX","pain","7","","72","H","0","img/none_selected.jpg","0","0","1","","0.009045291763","false","168","","0.009045291763","main_expt","","0.4458086367","","0.4526671473","","0.3351003476","","","","","",""
"217","","bandit","244","879239","0.0-206.0-0.0","92465855","wem/bandit_single","A3JTMXHPNCUFNX","pain","7","","72","H","0","img/none_selected.jpg","0","0","1","","0.01553154223","false","169","","0.01553154223","main_expt","","0.4619433307","","0.4477525289","","0.3556935824","","","","","",""
"198","","bandit","245","881236","0.0-207.0-0.0","92465855","wem/bandit_single","A3JTMXHPNCUFNX","pain","7","","72","H","0","img/none_selected.jpg","0","0","1","","0.01787531072","false","170","","0.01787531072","main_expt","","0.4703570947","","0.41154262","","0.3690608098","","","","","",""
"200","","bandit","246","883234","0.0-208.0-0.0","92465855","wem/bandit_single","A3JTMXHPNCUFNX","pain","7","","72","H","0","img/none_selected.jpg","0","0","1","","0.01316551092","false","171","","0.01316551092","main_expt","","0.474742395","","0.37868858","","0.3631266209","","","","","",""
"6","","bandit","247","885043","0.0-209.0-0.0","92465855","wem/bandit_single","A3JTMXHPNCUFNX","pain","7","","72","H","0","img/none_selected.jpg","0","0","1","","0.0172037691","false","172","","0.0172037691","main_expt","","0.4773845315","","0.3971498268","","0.3392191481","","","","","",""
"85","","bandit","248","886911","0.0-210.0-0.0","92465855","wem/bandit_single","A3JTMXHPNCUFNX","pain","7","","72","H","0","img/none_selected.jpg","0","0","1","","0.01427011775","false","173","","0.01427011775","main_expt","","0.4680058345","","0.4319579383","","0.2931772585","","","","","",""
"175","","bandit","249","888993","0.0-211.0-0.0","92465855","wem/bandit_single","A3JTMXHPNCUFNX","pain","7","","72","H","0","img/none_selected.jpg","0","0","1","","0.01057019218","false","174","","0.01057019218","main_expt","","0.4561145842","","0.4174714043","","0.2750831853","","","","","",""
"61","","bandit","250","890833","0.0-212.0-0.0","92465855","wem/bandit_single","A3JTMXHPNCUFNX","pain","7","","72","H","0","img/none_selected.jpg","0","0","1","","0.007255369755","false","175","","0.007255369755","main_expt","","0.472279608","","0.3846013355","","0.2997345097","","","","","",""
"262","","bandit","251","892883","0.0-213.0-0.0","92465855","wem/bandit_single","A3JTMXHPNCUFNX","pain","7","","72","H","0","img/none_selected.jpg","0","0","1","","0.01305273867","false","176","","0.01305273867","main_expt","","0.4602447812","","0.4019342833","","0.3402413884","","","","","",""
"29","","bandit","252","894716","0.0-214.0-0.0","92465855","wem/bandit_single","A3JTMXHPNCUFNX","pain","7","","72","H","0","img/none_selected.jpg","0","0","1","","0.0133150908","false","177","","0.0133150908","main_expt","","0.4343313091","","0.4211485366","","0.3099882557","","","","","",""
"241","","bandit","253","896806","0.0-215.0-0.0","92465855","wem/bandit_single","A3JTMXHPNCUFNX","pain","7","","72","H","0","img/none_selected.jpg","0","0","1","","0.01259822705","false","178","","0.01259822705","main_expt","","0.4048428007","","0.4133977621","","0.2761175095","","","","","",""
"288","","bandit","254","898878","0.0-216.0-0.0","92465855","wem/bandit_single","A3JTMXHPNCUFNX","pain","7","","72","H","0","img/none_selected.jpg","0","0","1","","0.008971211221","false","179","","0.008971211221","main_expt","","0.3826353834","","0.4395013083","","0.3053987856","","","","","",""
"153","","bandit","255","900833","0.0-217.0-0.0","92465855","wem/bandit_single","A3JTMXHPNCUFNX","pain","7","","72","H","0","img/none_selected.jpg","0","0","1","","0.01053614943","false","180","","0.01053614943","main_expt","","0.3352628501","","0.4385200931","","0.291880519","","","","","",""
"180","","bandit","256","902793","0.0-218.0-0.0","92465855","wem/bandit_single","A3JTMXHPNCUFNX","pain","7","","72","H","0","img/none_selected.jpg","0","0","1","","0.01184041186","false","181","","0.01184041186","main_expt","","0.2990499081","","0.4225113135","","0.298429346","","","","","",""
"92","","bandit","257","904668","0.0-219.0-0.0","92465855","wem/bandit_single","A3JTMXHPNCUFNX","pain","7","","72","H","0","img/none_selected.jpg","0","0","1","","0.03042574256","false","182","","0.03042574256","main_expt","","0.3698835663","","0.3723799893","","0.3343264324","","","","","",""
"156","","bandit","258","906662","0.0-220.0-0.0","92465855","wem/bandit_single","A3JTMXHPNCUFNX","pain","7","","72","H","0","img/none_selected.jpg","0","0","1","","0.03286829004","false","183","","0.03286829004","main_expt","","0.3849917371","","0.3790924375","","0.2890729732","","","","","",""
"3510","","bandit","259","912071","0.0-221.0-0.0","92465855","wem/bandit_single","A3JTMXHPNCUFNX","pain","7","","72","H","0","img/none_selected.jpg","0","0","1","","0.05565884368","false","184","","0.05565884368","main_expt","","0.3560661239","","0.4122006093","","0.1975841231","","","","","",""
"160","","bandit","260","914037","0.0-222.0-0.0","92465855","wem/bandit_single","A3JTMXHPNCUFNX","pain","7","","72","H","0","img/none_selected.jpg","0","0","1","","0.05703602855","false","185","","0.05703602855","main_expt","","0.3637043243","","0.3681720139","","0.213981158","","","","","",""
"199","","bandit","261","916054","0.0-223.0-0.0","92465855","wem/bandit_single","A3JTMXHPNCUFNX","pain","7","","72","H","0","img/none_selected.jpg","0","0","1","","0.08167625523","false","186","","0.08167625523","main_expt","","0.370254809","","0.3735732413","","0.1690135127","","","","","",""
"9","","bandit","262","917870","0.0-224.0-0.0","92465855","wem/bandit_single","A3JTMXHPNCUFNX","pain","7","","72","H","0","img/none_selected.jpg","0","0","1","","0.08146612985","false","187","","0.08146612985","main_expt","","0.3451477914","","0.3763431734","","0.2606776113","","","","","",""
"158","","bandit","263","919828","0.0-225.0-0.0","92465855","wem/bandit_single","A3JTMXHPNCUFNX","pain","7","","72","H","0","img/none_selected.jpg","0","0","1","","0.09365986726","false","188","","0.09365986726","main_expt","","0.3939300048","","0.3515668436","","0.2431197375","","","","","",""
"137","","bandit","264","921755","0.0-226.0-0.0","92465855","wem/bandit_single","A3JTMXHPNCUFNX","pain","7","","72","H","0","img/none_selected.jpg","0","0","1","","0.09268069957","false","189","","0.09268069957","main_expt","","0.4136030152","","0.3343836861","","0.2308206277","","","","","",""
"16","","bandit","265","923594","0.0-227.0-0.0","92465855","wem/bandit_single","A3JTMXHPNCUFNX","pain","7","","72","H","0","img/none_selected.jpg","0","0","1","","0.08594859785","false","190","","0.08594859785","main_expt","","0.4261376259","","0.2525345787","","0.2025271702","","","","","",""
"6","","bandit","266","925403","0.0-228.0-0.0","92465855","wem/bandit_single","A3JTMXHPNCUFNX","pain","7","","72","H","0","img/none_selected.jpg","0","0","1","","0.08932588753","false","191","","0.08932588753","main_expt","","0.3908696756","","0.2685183708","","0.2751540988","","","","","",""
"159","","bandit","267","927369","0.0-229.0-0.0","92465855","wem/bandit_single","A3JTMXHPNCUFNX","pain","7","","72","H","0","img/none_selected.jpg","0","0","1","","0.1064261942","false","192","","0.1064261942","main_expt","","0.4106222578","","0.2572514827","","0.2569606715","","","","","",""
"224","","bandit","268","929403","0.0-230.0-0.0","92465855","wem/bandit_single","A3JTMXHPNCUFNX","pain","7","","72","H","0","img/none_selected.jpg","0","0","1","","0.1536879749","false","193","","0.1536879749","main_expt","","0.4282135821","","0.1969756064","","0.2874900681","","","","","",""
"129","","bandit","269","931336","0.0-231.0-0.0","92465855","wem/bandit_single","A3JTMXHPNCUFNX","pain","7","","72","H","0","img/none_selected.jpg","0","0","1","","0.1389913839","false","194","","0.1389913839","main_expt","","0.4423695223","","0.2134952627","","0.1735349233","","","","","",""
"46","","bandit","270","933194","0.0-232.0-0.0","92465855","wem/bandit_single","A3JTMXHPNCUFNX","pain","7","","72","H","0","img/none_selected.jpg","0","1","0","","0.1439418744","false","195","","0.1439418744","main_expt","","0.4594299266","","0.1620875807","","0.1922880567","","","","","",""
"166","","bandit","271","935166","0.0-233.0-0.0","92465855","wem/bandit_single","A3JTMXHPNCUFNX","pain","7","","76","L","3","","0","1","0","","0.180833075","false","196","","0.131143091","main_expt","","0.4446405127","","0.166822232","","0.180833075","","","","","",""
"76","","bandit","272","937031","0.0-234.0-0.0","92465855","wem/bandit_single","A3JTMXHPNCUFNX","pain","7","","75","K","2","","0","0","1","","0.1951417713","false","197","","0.1358316141","main_expt","","0.4559667881","","0.1951417713","","0.2213655201","","","","","",""
"542","","bandit","273","939368","0.0-235.0-0.0","92465855","wem/bandit_single","A3JTMXHPNCUFNX","pain","7","","75","K","2","","0","1","0","","0.1946571809","false","198","","0.1271866158","main_expt","","0.4760465659","","0.1946571809","","0.1886922679","","","","","",""
"213","","bandit","274","941390","0.0-236.0-0.0","92465855","wem/bandit_single","A3JTMXHPNCUFNX","pain","7","","75","K","2","","0","0","1","","0.125569753","false","199","","0.1427164763","main_expt","","0.4682530898","","0.125569753","","0.1960792333","","","","","",""
"156","","bandit","275","943353","0.0-237.0-0.0","92465855","wem/bandit_single","A3JTMXHPNCUFNX","pain","7","","75","K","2","","0","0","1","","0.110010897","false","200","","0.1465126473","main_expt","","0.4722721777","","0.110010897","","0.2093645874","","","","","",""
"29","","bandit","276","945198","0.0-238.0-0.0","92465855","wem/bandit_single","A3JTMXHPNCUFNX","pain","7","","75","K","2","","0","0","1","","0.1280762957","false","201","","0.1271257608","main_expt","","0.4739800601","","0.1280762957","","0.1673165995","","","","","",""
"105","","bandit","277","947090","0.0-239.0-0.0","92465855","wem/bandit_single","A3JTMXHPNCUFNX","pain","7","","75","K","2","","0","0","1","","0.1402913484","false","202","","0.08657179739","main_expt","","0.479726886","","0.1402913484","","0.2086438453","","","","","",""
"98","","bandit","278","949004","0.0-240.0-0.0","92465855","wem/bandit_single","A3JTMXHPNCUFNX","pain","7","","75","K","2","","0","0","1","","0.2217412738","false","203","","0.09313456927","main_expt","","0.4642372742","","0.2217412738","","0.1973992815","","","","","",""
"312","","bandit","279","951096","0.0-241.0-0.0","92465855","wem/bandit_single","A3JTMXHPNCUFNX","pain","7","","75","K","2","","0","0","1","","0.2231628045","false","204","","0.1497906572","main_expt","","0.4560882558","","0.2231628045","","0.2256674954","","","","","",""
"303","","bandit","280","953193","0.0-242.0-0.0","92465855","wem/bandit_single","A3JTMXHPNCUFNX","pain","7","","76","L","3","","0","0","1","","0.2163874892","false","205","","0.1829644856","main_expt","","0.4525737262","","0.2170181201","","0.2163874892","","","","","",""
"1407","","bandit","281","956388","0.0-243.0-0.0","92465855","wem/bandit_single","A3JTMXHPNCUFNX","pain","7","","75","K","2","","0","0","1","","0.2796725078","false","206","","0.1612057882","main_expt","","0.4550624295","","0.2796725078","","0.2197086186","","","","","",""
"307","","bandit","282","958471","0.0-244.0-0.0","92465855","wem/bandit_single","A3JTMXHPNCUFNX","pain","7","","75","K","2","","0","0","1","","0.2817680811","false","207","","0.1697938272","main_expt","","0.4723612306","","0.2817680811","","0.2065154411","","","","","",""
"204","","bandit","283","960460","0.0-245.0-0.0","92465855","wem/bandit_single","A3JTMXHPNCUFNX","pain","7","","75","K","2","","0","1","0","","0.2823403198","false","208","","0.1559958766","main_expt","","0.4766034411","","0.2823403198","","0.1685179651","","","","","",""
"52","","bandit","284","962296","0.0-246.0-0.0","92465855","wem/bandit_single","A3JTMXHPNCUFNX","pain","7","","75","K","2","","0","0","1","","0.3618902866","false","209","","0.1446830505","main_expt","","0.483515399","","0.3618902866","","0.138461816","","","","","",""
"156","","bandit","285","964389","0.0-247.0-0.0","92465855","wem/bandit_single","A3JTMXHPNCUFNX","pain","7","","75","K","2","","0","0","1","","0.373554641","false","210","","0.1231196185","main_expt","","0.4880418707","","0.373554641","","0.1494322788","","","","","",""
"74","","bandit","286","966270","0.0-248.0-0.0","92465855","wem/bandit_single","A3JTMXHPNCUFNX","pain","7","","75","K","2","","0","0","1","","0.4160488284","false","211","","0.1456244431","main_expt","","0.4802592994","","0.4160488284","","0.1799359977","","","","","",""
"19","","bandit","287","968563","0.0-249.0-0.0","92465855","wem/bandit_single","A3JTMXHPNCUFNX","pain","7","","75","K","2","","0","0","1","","0.381710399","false","212","","0.1656867557","main_expt","","0.4738887763","","0.381710399","","0.1810857181","","","","","",""
"124","","bandit","288","970512","0.0-250.0-0.0","92465855","wem/bandit_single","A3JTMXHPNCUFNX","pain","7","","75","K","2","","0","1","0","","0.3769148707","false","213","","0.224977978","main_expt","","0.4808850683","","0.3769148707","","0.1615137558","","","","","",""
"92","","bandit","289","972375","0.0-251.0-0.0","92465855","wem/bandit_single","A3JTMXHPNCUFNX","pain","7","","75","K","2","","0","1","0","","0.3476207329","false","214","","0.307554285","main_expt","","0.4825694391","","0.3476207329","","0.1650702933","","","","","",""
"160","","bandit","290","974345","0.0-252.0-0.0","92465855","wem/bandit_single","A3JTMXHPNCUFNX","pain","7","","76","L","3","","0","0","1","","0.1804791034","false","215","","0.3638187162","main_expt","","0.4847107186","","0.3089741626","","0.1804791034","","","","","",""
"274","","bandit","291","976408","0.0-253.0-0.0","92465855","wem/bandit_single","A3JTMXHPNCUFNX","pain","7","","76","L","3","","0","0","1","","0.1573161505","false","216","","0.3543809852","main_expt","","0.4809007894","","0.3674618518","","0.1573161505","","","","","",""
"5102","","bandit","292","983285","0.0-254.0-0.0","92465855","wem/bandit_single","A3JTMXHPNCUFNX","pain","7","","75","K","2","","0","0","1","","0.3283657719","false","217","","0.3301156576","main_expt","","0.4741770765","","0.3283657719","","0.1434716653","","","","","",""
"220","","bandit","293","985310","0.0-255.0-0.0","92465855","wem/bandit_single","A3JTMXHPNCUFNX","pain","7","","76","L","3","","0","0","1","","0.1911838451","false","218","","0.3132999057","main_expt","","0.4819245576","","0.3302734852","","0.1911838451","","","","","",""
"1","","bandit","294","987111","0.0-256.0-0.0","92465855","wem/bandit_single","A3JTMXHPNCUFNX","pain","7","","76","L","3","","0","0","1","","0.1441129831","false","219","","0.2205266592","main_expt","","0.4793241995","","0.3554571327","","0.1441129831","","","","","",""
"202","","bandit","295","989104","0.0-257.0-0.0","92465855","wem/bandit_single","A3JTMXHPNCUFNX","pain","7","","76","L","3","","0","0","1","","0.1920309772","false","220","","0.2167078271","main_expt","","0.4713672071","","0.319330444","","0.1920309772","","","","","",""
"133","","bandit","296","991032","0.0-258.0-0.0","92465855","wem/bandit_single","A3JTMXHPNCUFNX","pain","7","","76","L","3","","0","0","1","","0.1770810464","false","221","","0.2038989409","main_expt","","0.4728071858","","0.3105046037","","0.1770810464","","","","","",""
"291","","bandit","297","993117","0.0-259.0-0.0","92465855","wem/bandit_single","A3JTMXHPNCUFNX","pain","7","","76","L","3","","0","1","0","","0.1726735039","false","222","","0.18760722","main_expt","","0.4742115633","","0.2971369975","","0.1726735039","","","","","",""
"153","","bandit","298","995073","0.0-260.0-0.0","92465855","wem/bandit_single","A3JTMXHPNCUFNX","pain","7","","76","L","3","","0","0","1","","0.1935596247","false","223","","0.1794058889","main_expt","","0.4606319974","","0.2924153056","","0.1935596247","","","","","",""
"109","","bandit","299","996984","0.0-261.0-0.0","92465855","wem/bandit_single","A3JTMXHPNCUFNX","pain","7","","76","L","3","","0","0","1","","0.184290804","false","224","","0.1973287288","main_expt","","0.4796626282","","0.3251713444","","0.184290804","","","","","",""
"148","","bandit","300","998935","0.0-262.0-0.0","92465855","wem/bandit_single","A3JTMXHPNCUFNX","pain","7","","76","L","3","","0","0","1","","0.1182631535","false","225","","0.1657141015","main_expt","","0.4770938662","","0.3191667618","","0.1182631535","","","","","",""
"69","","bandit","301","1000809","0.0-263.0-0.0","92465855","wem/bandit_single","A3JTMXHPNCUFNX","pain","7","","76","L","3","","0","0","1","","0.1243406576","false","226","","0.1333985498","main_expt","","0.4753940461","","0.3163975521","","0.1243406576","","","","","",""
"2484","","bandit","302","1005068","0.0-264.0-0.0","92465855","wem/bandit_single","A3JTMXHPNCUFNX","pain","7","","76","L","3","","0","0","1","","0.1887705619","false","227","","0.1426718429","main_expt","","0.4692559414","","0.3153023093","","0.1887705619","","","","","",""
"1","","bandit","303","1006954","0.0-265.0-0.0","92465855","wem/bandit_single","A3JTMXHPNCUFNX","pain","7","","76","L","3","","0","0","1","","0.1594511678","false","228","","0.1510234048","main_expt","","0.4549715312","","0.252814401","","0.1594511678","","","","","",""
"76","","bandit","304","1008836","0.0-266.0-0.0","92465855","wem/bandit_single","A3JTMXHPNCUFNX","pain","7","","76","L","3","","0","0","1","","0.1582092687","false","229","","0.1786638104","main_expt","","0.4818432606","","0.2830586582","","0.1582092687","","","","","",""
"235","","bandit","305","1010896","0.0-267.0-0.0","92465855","wem/bandit_single","A3JTMXHPNCUFNX","pain","7","","76","L","3","","0","1","0","","0.149178519","false","230","","0.1564383184","main_expt","","0.4542350274","","0.2124451555","","0.149178519","","","","","",""
"219","","bandit","306","1013010","0.0-268.0-0.0","92465855","wem/bandit_single","A3JTMXHPNCUFNX","pain","7","","76","L","3","","0","1","0","","0.2063022429","false","231","","0.1398607303","main_expt","","0.4646494747","","0.1175217461","","0.2063022429","","","","","",""
"309","","bandit","307","1015125","0.0-269.0-0.0","92465855","wem/bandit_single","A3JTMXHPNCUFNX","pain","7","","76","L","3","","0","0","1","","0.2424934828","false","232","","0.1323980205","main_expt","","0.4617677548","","0.144677577","","0.2424934828","","","","","",""
"156","","bandit","308","1017085","0.0-270.0-0.0","92465855","wem/bandit_single","A3JTMXHPNCUFNX","pain","7","","76","L","3","","0","0","1","","0.2404462099","false","233","","0.1510374747","main_expt","","0.4535872836","","0.1555092754","","0.2404462099","","","","","",""
"2","","bandit","309","1018976","0.0-271.0-0.0","92465855","wem/bandit_single","A3JTMXHPNCUFNX","pain","7","","76","L","3","","0","0","1","","0.1830028502","false","234","","0.133247495","main_expt","","0.4297764401","","0.1250762939","","0.1830028502","","","","","",""
"82","","bandit","310","1020970","0.0-272.0-0.0","92465855","wem/bandit_single","A3JTMXHPNCUFNX","pain","7","","76","L","3","","0","0","1","","0.2197419317","false","235","","0.1666928205","main_expt","","0.4335441617","","0.1094925358","","0.2197419317","","","","","",""
"202","","bandit","311","1022985","0.0-273.0-0.0","92465855","wem/bandit_single","A3JTMXHPNCUFNX","pain","7","","76","L","3","","0","0","1","","0.2537285896","false","236","","0.1772374327","main_expt","","0.4390497594","","0.09099935704","","0.2537285896","","","","","",""
"120","","bandit","312","1024957","0.0-274.0-0.0","92465855","wem/bandit_single","A3JTMXHPNCUFNX","pain","7","","76","L","3","","0","0","1","","0.2967198922","false","237","","0.2093850131","main_expt","","0.4557250369","","0.07445530481","","0.2967198922","","","","","",""
"473","","bandit","313","1027235","0.0-275.0-0.0","92465855","wem/bandit_single","A3JTMXHPNCUFNX","pain","7","","76","L","3","","0","0","1","","0.2716881628","false","238","","0.2323540058","main_expt","","0.4712934341","","0.1160826651","","0.2716881628","","","","","",""
"113","","bandit","314","1029163","0.0-276.0-0.0","92465855","wem/bandit_single","A3JTMXHPNCUFNX","pain","7","","76","L","3","","0","1","0","","0.2840113657","false","239","","0.2527052166","main_expt","","0.4744109467","","0.1935594103","","0.2840113657","","","","","",""
"50","","bandit","315","1031043","0.0-277.0-0.0","92465855","wem/bandit_single","A3JTMXHPNCUFNX","pain","7","","76","L","3","","0","1","0","","0.3274134878","false","240","","0.2429338356","main_expt","","0.4856904038","","0.2305108235","","0.3274134878","","","","","",""
"347","","bandit","316","1033208","0.0-278.0-0.0","92465855","wem/bandit_single","A3JTMXHPNCUFNX","pain","7","","76","L","3","","0","0","1","","0.3106351565","false","241","","0.2422046893","main_expt","","0.474377245","","0.23744922","","0.3106351565","","","","","",""
"75","","bandit","317","1035090","0.0-279.0-0.0","92465855","wem/bandit_single","A3JTMXHPNCUFNX","pain","7","","76","L","3","","0","1","0","","0.276301991","false","242","","0.1974588069","main_expt","","0.4699498903","","0.2644088126","","0.276301991","","","","","",""
"347","","bandit","318","1037246","0.0-280.0-0.0","92465855","wem/bandit_single","A3JTMXHPNCUFNX","pain","7","","75","K","2","","0","0","1","","0.3029471314","false","243","","0.1697106736","main_expt","","0.4696131401","","0.3029471314","","0.2682550828","","","","","",""
"44","","bandit","319","1039127","0.0-281.0-0.0","92465855","wem/bandit_single","A3JTMXHPNCUFNX","pain","7","","75","K","2","","0","0","1","","0.2869027424","false","244","","0.1495066821","main_expt","","0.4519085084","","0.2869027424","","0.2717267912","","","","","",""
"8","","bandit","320","1040955","0.0-282.0-0.0","92465855","wem/bandit_single","A3JTMXHPNCUFNX","pain","7","","75","K","2","","0","0","1","","0.2928347339","false","245","","0.1664551864","main_expt","","0.4620487724","","0.2928347339","","0.2480355477","","","","","",""
"87","","bandit","321","1042854","0.0-283.0-0.0","92465855","wem/bandit_single","A3JTMXHPNCUFNX","pain","7","","75","K","2","","0","1","0","","0.2537870262","false","246","","0.1660340973","main_expt","","0.4553277256","","0.2537870262","","0.2978011657","","","","","",""
"135","","bandit","322","1044944","0.0-284.0-0.0","92465855","wem/bandit_single","A3JTMXHPNCUFNX","pain","7","","75","K","2","","0","0","1","","0.220788829","false","247","","0.2232834288","main_expt","","0.4470790686","","0.220788829","","0.3183795364","","","","","",""
"122","","bandit","323","1046995","0.0-285.0-0.0","92465855","wem/bandit_single","A3JTMXHPNCUFNX","pain","7","","75","K","2","","0","0","1","","0.2260039815","false","248","","0.2337066106","main_expt","","0.4370243233","","0.2260039815","","0.3496285813","","","","","",""
"205","","bandit","324","1049016","0.0-286.0-0.0","92465855","wem/bandit_single","A3JTMXHPNCUFNX","pain","7","","75","K","2","","0","0","1","","0.2536259712","false","249","","0.2555848542","main_expt","","0.4344986606","","0.2536259712","","0.3450691196","","","","","",""
"3718","","bandit","325","1054582","0.0-287.0-0.0","92465855","wem/bandit_single","A3JTMXHPNCUFNX","pain","7","","75","K","2","","0","0","1","","0.2748463286","false","250","","0.2423579198","main_expt","","0.4418367533","","0.2748463286","","0.3451339369","","","","","",""
"5","","bandit","326","1056372","0.0-288.0-0.0","92465855","wem/bandit_single","A3JTMXHPNCUFNX","pain","7","","75","K","2","","0","0","1","","0.2623633266","false","251","","0.2275025436","main_expt","","0.4227475224","","0.2623633266","","0.3928119302","","","","","",""
"48","","bandit","327","1058228","0.0-289.0-0.0","92465855","wem/bandit_single","A3JTMXHPNCUFNX","pain","7","","75","K","2","","0","0","1","","0.3173920108","false","252","","0.2868871138","main_expt","","0.423648384","","0.3173920108","","0.3926241496","","","","","",""
"112","","bandit","328","1060190","0.0-290.0-0.0","92465855","wem/bandit_single","A3JTMXHPNCUFNX","pain","7","","75","K","2","","0","0","1","","0.3172059241","false","253","","0.2719675916","main_expt","","0.4321428437","","0.3172059241","","0.4074069762","","","","","",""
"164","","bandit","329","1062173","0.0-291.0-0.0","92465855","wem/bandit_single","A3JTMXHPNCUFNX","pain","7","","75","K","2","","0","0","1","","0.3200237469","false","254","","0.3118638267","main_expt","","0.4621147124","","0.3200237469","","0.3831412703","","","","","",""
"168","","bandit","330","1064167","0.0-292.0-0.0","92465855","wem/bandit_single","A3JTMXHPNCUFNX","pain","7","","75","K","2","","0","0","1","","0.3358809316","false","255","","0.2103897122","main_expt","","0.4586218194","","0.3358809316","","0.3639457665","","","","","",""
"67","","bandit","331","1066060","0.0-293.0-0.0","92465855","wem/bandit_single","A3JTMXHPNCUFNX","pain","7","","75","K","2","","0","1","0","","0.3288682213","false","256","","0.2053105091","main_expt","","0.4661438042","","0.3288682213","","0.3353936822","","","","","",""
"1673","","bandit","332","1070239","0.0-294.0-0.0","92465855","wem/bandit_single","A3JTMXHPNCUFNX","pain","7","","75","K","2","","0","0","1","","0.3298558235","false","257","","0.2101260802","main_expt","","0.4746145216","","0.3298558235","","0.3457786028","","","","","",""
"541","","bandit","333","1072587","0.0-295.0-0.0","92465855","wem/bandit_single","A3JTMXHPNCUFNX","pain","7","","75","K","2","","0","1","0","","0.3544886593","false","258","","0.251470712","main_expt","","0.479590246","","0.3544886593","","0.3336199161","","","","","",""
"122","","bandit","334","1074571","0.0-296.0-0.0","92465855","wem/bandit_single","A3JTMXHPNCUFNX","pain","7","","75","K","2","","0","1","0","","0.3380036538","false","259","","0.2320991284","main_expt","","0.4543592645","","0.3380036538","","0.3182937175","","","","","",""
"72","","bandit","335","1076461","0.0-297.0-0.0","92465855","wem/bandit_single","A3JTMXHPNCUFNX","pain","7","","72","H","0","img/none_selected.jpg","0","0","1","","0.2850429488","false","260","","0.2850429488","main_expt","","0.4591910344","","0.2797544445","","0.3004718715","","","","","",""
"133","","bandit","336","1078409","0.0-298.0-0.0","92465855","wem/bandit_single","A3JTMXHPNCUFNX","pain","7","","72","H","0","img/none_selected.jpg","0","1","0","","0.3396488321","false","261","","0.3396488321","main_expt","","0.4416244086","","0.2594239605","","0.2969538951","","","","","",""
"43","","bandit","337","1080273","0.0-299.0-0.0","92465855","wem/bandit_single","A3JTMXHPNCUFNX","pain","7","","72","H","0","img/none_selected.jpg","0","0","1","","0.243241633","false","262","","0.243241633","main_expt","","0.410126596","","0.2804023839","","0.336502974","","","","","",""
"179","","bandit","338","1082277","0.0-300.0-0.0","92465855","wem/bandit_single","A3JTMXHPNCUFNX","pain","7","","72","H","0","img/none_selected.jpg","0","1","0","","0.221101122","false","263","","0.221101122","main_expt","","0.3852167719","","0.2526654216","","0.3417757729","","","","","",""
"13","","bandit","339","1084103","0.0-301.0-0.0","92465855","wem/bandit_single","A3JTMXHPNCUFNX","pain","7","","72","H","0","img/none_selected.jpg","0","1","0","","0.2475963948","false","264","","0.2475963948","main_expt","","0.4048243192","","0.2262009497","","0.3288238543","","","","","",""
"193","","bandit","340","1086098","0.0-302.0-0.0","92465855","wem/bandit_single","A3JTMXHPNCUFNX","pain","7","","72","H","0","img/none_selected.jpg","0","0","1","","0.2472156829","false","265","","0.2472156829","main_expt","","0.3671025299","","0.2111455706","","0.2661945806","","","","","",""
"64","","bandit","341","1087969","0.0-303.0-0.0","92465855","wem/bandit_single","A3JTMXHPNCUFNX","pain","7","","72","H","0","img/none_selected.jpg","0","0","1","","0.2257792125","false","266","","0.2257792125","main_expt","","0.366792141","","0.1816972253","","0.2831053071","","","","","",""
"24","","bandit","342","1089817","0.0-304.0-0.0","92465855","wem/bandit_single","A3JTMXHPNCUFNX","pain","7","","72","H","0","img/none_selected.jpg","0","0","1","","0.2434052149","false","267","","0.2434052149","main_expt","","0.3187551676","","0.08996407949","","0.2814616526","","","","","",""
"113","","bandit","343","1091734","0.0-305.0-0.0","92465855","wem/bandit_single","A3JTMXHPNCUFNX","pain","7","","72","H","0","img/none_selected.jpg","0","0","1","","0.2472891614","false","268","","0.2472891614","main_expt","","0.2992927481","","0.08316088703","","0.2698532634","","","","","",""
"180","","bandit","344","1093735","0.0-306.0-0.0","92465855","wem/bandit_single","A3JTMXHPNCUFNX","pain","7","","72","H","0","img/none_selected.jpg","0","0","1","","0.2592343403","false","269","","0.2592343403","main_expt","","0.3158706852","","0.132755096","","0.332936287","","","","","",""
"248","","bandit","345","1095767","0.0-307.0-0.0","92465855","wem/bandit_single","A3JTMXHPNCUFNX","pain","7","","72","H","0","img/none_selected.jpg","0","0","1","","0.2626766442","false","270","","0.2626766442","main_expt","","0.3399881701","","0.1295257529","","0.3520051328","","","","","",""
"404","","bandit","346","1097984","0.0-308.0-0.0","92465855","wem/bandit_single","A3JTMXHPNCUFNX","pain","7","","72","H","0","img/none_selected.jpg","0","0","1","","0.2889536683","false","271","","0.2889536683","main_expt","","0.3425846673","","0.1243547369","","0.319936882","","","","","",""
"101","","bandit","347","1100001","0.0-309.0-0.0","92465855","wem/bandit_single","A3JTMXHPNCUFNX","pain","7","","72","H","0","img/none_selected.jpg","0","0","1","","0.3519527746","false","272","","0.3519527746","main_expt","","0.3661992365","","0.1129401117","","0.3526338178","","","","","",""
"107","","bandit","348","1101999","0.0-310.0-0.0","92465855","wem/bandit_single","A3JTMXHPNCUFNX","pain","7","","72","H","0","img/none_selected.jpg","0","0","1","","0.3142239271","false","273","","0.3142239271","main_expt","","0.3548292996","","0.07602588951","","0.3661190652","","","","","",""
"81","","bandit","349","1103970","0.0-311.0-0.0","92465855","wem/bandit_single","A3JTMXHPNCUFNX","pain","7","","72","H","0","img/none_selected.jpg","0","0","1","","0.2858465014","false","274","","0.2858465014","main_expt","","0.3015993901","","0.08326080211","","0.3531355024","","","","","",""
"146","","bandit","350","1105943","0.0-312.0-0.0","92465855","wem/bandit_single","A3JTMXHPNCUFNX","pain","7","","72","H","0","img/none_selected.jpg","0","0","1","","0.2833142968","false","275","","0.2833142968","main_expt","","0.3074537736","","0.1117875064","","0.3710682781","","","","","",""
"1861","","bandit","351","1111054","0.0-313.0-0.0","92465855","wem/bandit_single","A3JTMXHPNCUFNX","pain","7","","72","H","0","img/none_selected.jpg","0","0","1","","0.303505508","false","276","","0.303505508","main_expt","","0.2995557441","","0.1087564456","","0.3039620657","","","","","",""
"1858","","bandit","352","1116246","0.0-314.0-0.0","92465855","wem/bandit_single","A3JTMXHPNCUFNX","pain","7","","72","H","0","img/none_selected.jpg","0","0","1","","0.2503405658","false","277","","0.2503405658","main_expt","","0.3372524479","","0.1402577261","","0.3661174243","","","","","",""
"4348","","bandit","353","1122380","0.0-315.0-0.0","92465855","wem/bandit_single","A3JTMXHPNCUFNX","pain","7","","72","H","0","img/none_selected.jpg","0","0","1","","0.2575241406","false","278","","0.2575241406","main_expt","","0.3941332117","","0.1639331241","","0.3603903852","","","","","",""
"96","","bandit","354","1124286","0.0-316.0-0.0","92465855","wem/bandit_single","A3JTMXHPNCUFNX","pain","7","","72","H","0","img/none_selected.jpg","0","0","1","","0.2537993043","false","279","","0.2537993043","main_expt","","0.369807449","","0.08855821706","","0.3865241344","","","","","",""
"150","","bandit","355","1126238","0.0-317.0-0.0","92465855","wem/bandit_single","A3JTMXHPNCUFNX","pain","7","","72","H","0","img/none_selected.jpg","0","0","1","","0.1734094061","false","280","","0.1734094061","main_expt","","0.3726167961","","0.1116659285","","0.3941828848","","","","","",""
"246","","bandit","356","1128331","0.0-318.0-0.0","92465855","wem/bandit_single","A3JTMXHPNCUFNX","pain","7","","72","H","0","img/none_selected.jpg","0","1","0","","0.1846732939","false","281","","0.1846732939","main_expt","","0.3849966858","","0.1032088387","","0.4060440919","","","","","",""
"4","","bandit","357","1130153","0.0-319.0-0.0","92465855","wem/bandit_single","A3JTMXHPNCUFNX","pain","7","","72","H","0","img/none_selected.jpg","0","0","1","","0.1808782366","false","282","","0.1808782366","main_expt","","0.4081920515","","0.1449157137","","0.3855255831","","","","","",""
"122","","bandit","358","1132088","0.0-320.0-0.0","92465855","wem/bandit_single","A3JTMXHPNCUFNX","pain","7","","72","H","0","img/none_selected.jpg","0","0","1","","0.1375342675","false","283","","0.1375342675","main_expt","","0.3930572229","","0.1649674285","","0.3694157076","","","","","",""
"21","","bandit","359","1133919","0.0-321.0-0.0","92465855","wem/bandit_single","A3JTMXHPNCUFNX","pain","7","","72","H","0","img/none_selected.jpg","0","0","1","","0.1029306966","false","284","","0.1029306966","main_expt","","0.379410926","","0.1373277791","","0.4137550783","","","","","",""
"174","","bandit","360","1136022","0.0-322.0-0.0","92465855","wem/bandit_single","A3JTMXHPNCUFNX","pain","7","","72","H","0","img/none_selected.jpg","0","0","1","","0.08821361919","false","285","","0.08821361919","main_expt","","0.3947179778","","0.1616488504","","0.4268254387","","","","","",""
"179","","bandit","361","1138060","0.0-323.0-0.0","92465855","wem/bandit_single","A3JTMXHPNCUFNX","pain","7","","72","H","0","img/none_selected.jpg","0","0","1","","0.08321279743","false","286","","0.08321279743","main_expt","","0.4036344472","","0.1306737704","","0.4115685589","","","","","",""
"249","","bandit","362","1140092","0.0-324.0-0.0","92465855","wem/bandit_single","A3JTMXHPNCUFNX","pain","7","","72","H","0","img/none_selected.jpg","0","0","1","","0.0595967864","false","287","","0.0595967864","main_expt","","0.4025981517","","0.2059275786","","0.3828423493","","","","","",""
"191","","bandit","363","1142073","0.0-325.0-0.0","92465855","wem/bandit_single","A3JTMXHPNCUFNX","pain","7","","72","H","0","img/none_selected.jpg","0","0","1","","0.06539189492","false","288","","0.06539189492","main_expt","","0.4183513528","","0.1892738114","","0.4121581376","","","","","",""
"22","","bandit","364","1144002","0.0-326.0-0.0","92465855","wem/bandit_single","A3JTMXHPNCUFNX","pain","7","","72","H","0","img/none_selected.jpg","0","0","1","","0.06484578344","false","289","","0.06484578344","main_expt","","0.4516793017","","0.1656659279","","0.4227758831","","","","","",""
"87","","bandit","365","1145922","0.0-327.0-0.0","92465855","wem/bandit_single","A3JTMXHPNCUFNX","pain","7","","72","H","0","img/none_selected.jpg","0","0","1","","0.06626982825","false","290","","0.06626982825","main_expt","","0.4112115972","","0.1814252587","","0.4149367164","","","","","",""
"120","","bandit","366","1147828","0.0-328.0-0.0","92465855","wem/bandit_single","A3JTMXHPNCUFNX","pain","7","","72","H","0","img/none_selected.jpg","0","0","1","","0.1096348163","false","291","","0.1096348163","main_expt","","0.4372982331","","0.2385479929","","0.399757838","","","","","",""
"5","","bandit","367","1149651","0.0-329.0-0.0","92465855","wem/bandit_single","A3JTMXHPNCUFNX","pain","7","","72","H","0","img/none_selected.jpg","0","1","0","","0.1604398542","false","292","","0.1604398542","main_expt","","0.4238416902","","0.2322046479","","0.3846886596","","","","","",""
"127","","bandit","368","1151635","0.0-330.0-0.0","92465855","wem/bandit_single","A3JTMXHPNCUFNX","pain","7","","76","L","3","","0","1","0","","0.3364000065","false","293","","0.1714651471","main_expt","","0.4034354509","","0.223393304","","0.3364000065","","","","","",""
"169","","bandit","369","1153659","0.0-331.0-0.0","92465855","wem/bandit_single","A3JTMXHPNCUFNX","pain","7","","75","K","2","","0","0","1","","0.2290093083","false","294","","0.1378543876","main_expt","","0.4093667064","","0.2290093083","","0.3545739736","","","","","",""
"169","","bandit","370","1155608","0.0-332.0-0.0","92465855","wem/bandit_single","A3JTMXHPNCUFNX","pain","7","","75","K","2","","0","0","1","","0.2875464899","false","295","","0.1243446737","main_expt","","0.4294791191","","0.2875464899","","0.2891777922","","","","","",""
"1","","bandit","371","1157478","0.0-333.0-0.0","92465855","wem/bandit_single","A3JTMXHPNCUFNX","pain","7","","75","K","2","","0","0","1","","0.2880416719","false","296","","0.1831574145","main_expt","","0.4289259587","","0.2880416719","","0.2084544567","","","","","",""
