"rt","responses","trial_type","trial_index","time_elapsed","internal_node_id","subjID","study","MID","cond","drift","key_press","respCharCode","respKey","respChoiceNum","respChoice","gems","bombs","no_reward","GemPrChosen","BombPrChosen","practice","trial_counter","WinPr_0","LosePr_0","trial_label","WinPr_1","LosePr_1","WinPr_2","LosePr_2","WinPr_3","LosePr_3","Q0","Q1","Q2","gender","age","ethnicity"
"45513","{""Q0"":""A2KG59JUICJLP0""}","survey-text","0","45516","0.0-0.0","92952111","wem/bandit_single","A2KG59JUICJLP0","gain","3","","","","","","","","","","","","","","","","","","","","","","","","","","",""
"3806","","text","1","50326","0.0-1.0","92952111","wem/bandit_single","A2KG59JUICJLP0","gain","3","32","","","","","","","","","","","","","","","","","","","","","","","","","",""
"3353","","text","2","53680","0.0-2.0","92952111","wem/bandit_single","A2KG59JUICJLP0","gain","3","32","","","","","","","","","","","","","","","","","","","","","","","","","",""
"14665","","text","3","68346","0.0-3.0","92952111","wem/bandit_single","A2KG59JUICJLP0","gain","3","32","","","","","","","","","","","","","","","","","","","","","","","","","",""
"274652","","text","4","343000","0.0-4.0","92952111","wem/bandit_single","A2KG59JUICJLP0","gain","3","32","","","","","","","","","","","","","","","","","","","","","","","","","",""
"2737","","text","5","345739","0.0-5.0","92952111","wem/bandit_single","A2KG59JUICJLP0","gain","3","32","","","","","","","","","","","","","","","","","","","","","","","","","",""
"1717","","text","6","347457","0.0-6.0","92952111","wem/bandit_single","A2KG59JUICJLP0","gain","3","32","","","","","","","","","","","","","","","","","","","","","","","","","",""
"2200","","text","7","349658","0.0-7.0","92952111","wem/bandit_single","A2KG59JUICJLP0","gain","3","32","","","","","","","","","","","","","","","","","","","","","","","","","",""
"1691","","text","8","351350","0.0-8.0","92952111","wem/bandit_single","A2KG59JUICJLP0","gain","3","32","","","","","","","","","","","","","","","","","","","","","","","","","",""
"954","","text","9","352306","0.0-9.0","92952111","wem/bandit_single","A2KG59JUICJLP0","gain","3","32","","","","","","","","","","","","","","","","","","","","","","","","","",""
"3997","","text","10","356304","0.0-10.0","92952111","wem/bandit_single","A2KG59JUICJLP0","gain","3","32","","","","","","","","","","","","","","","","","","","","","","","","","",""
"10542","","text","11","366848","0.0-11.0","92952111","wem/bandit_single","A2KG59JUICJLP0","gain","3","32","","","","","","","","","","","","","","","","","","","","","","","","","",""
"1786","","bandit","12","370143","0.0-12.0-0.0","92952111","wem/bandit_single","A2KG59JUICJLP0","gain","3","","74","J","0","img/none_selected_demo.jpg","0","0","1","0","0","true","0","0","0","","","","","","","","","","","","",""
"1277","","bandit","13","373178","0.0-13.0-0.0","92952111","wem/bandit_single","A2KG59JUICJLP0","gain","3","","75","K","0","img/none_selected_demo.jpg","0","0","1","0","0","true","0","0","0","","","","","","","","","","","","",""
"151","","text","14","373582","0.0-14.0","92952111","wem/bandit_single","A2KG59JUICJLP0","gain","3","32","","","","","","","","","","","","","","","","","","","","","","","","","",""
"797","","text","15","374380","0.0-15.0","92952111","wem/bandit_single","A2KG59JUICJLP0","gain","3","32","","","","","","","","","","","","","","","","","","","","","","","","","",""
"892","","text","16","375274","0.0-16.0","92952111","wem/bandit_single","A2KG59JUICJLP0","gain","3","32","","","","","","","","","","","","","","","","","","","","","","","","","",""
"641","","text","17","375916","0.0-17.0","92952111","wem/bandit_single","A2KG59JUICJLP0","gain","3","32","","","","","","","","","","","","","","","","","","","","","","","","","",""
"1228","","bandit","18","378649","0.0-18.0-0.0","92952111","wem/bandit_single","A2KG59JUICJLP0","gain","3","","74","J","0","img/none_selected_demo.jpg","1","0","0","0.8","0","true","0","0.8","0","80_20_practice","0.2","0","","","","","","","","","",""
"193","","bandit","19","380598","0.0-18.0-1.0","92952111","wem/bandit_single","A2KG59JUICJLP0","gain","3","","75","K","1","","0","0","1","0.2","0","true","0","0.8","0","80_20_practice","0.2","0","","","","","","","","","",""
"1280","","bandit","20","383634","0.0-18.0-2.0","92952111","wem/bandit_single","A2KG59JUICJLP0","gain","3","","74","J","0","img/none_selected_demo.jpg","0","0","1","0.8","0","true","0","0.8","0","80_20_practice","0.2","0","","","","","","","","","",""
"254","","bandit","21","385645","0.0-18.0-3.0","92952111","wem/bandit_single","A2KG59JUICJLP0","gain","3","","74","J","0","img/none_selected_demo.jpg","1","0","0","0.8","0","true","0","0.8","0","80_20_practice","0.2","0","","","","","","","","","",""
"1501","","bandit","22","388902","0.0-18.0-4.0","92952111","wem/bandit_single","A2KG59JUICJLP0","gain","3","","74","J","0","img/none_selected_demo.jpg","1","0","0","0.8","0","true","0","0.8","0","80_20_practice","0.2","0","","","","","","","","","",""
"1596","","bandit","23","392255","0.0-18.0-5.0","92952111","wem/bandit_single","A2KG59JUICJLP0","gain","3","","74","J","0","img/none_selected_demo.jpg","1","0","0","0.8","0","true","0","0.8","0","80_20_practice","0.2","0","","","","","","","","","",""
"153","","bandit","24","394163","0.0-18.0-6.0","92952111","wem/bandit_single","A2KG59JUICJLP0","gain","3","","75","K","1","","0","0","1","0.2","0","true","0","0.8","0","80_20_practice","0.2","0","","","","","","","","","",""
"122","","bandit","25","396041","0.0-18.0-7.0","92952111","wem/bandit_single","A2KG59JUICJLP0","gain","3","","75","K","1","","1","0","0","0.2","0","true","0","0.8","0","80_20_practice","0.2","0","","","","","","","","","",""
"43","","bandit","26","397840","0.0-18.0-8.0","92952111","wem/bandit_single","A2KG59JUICJLP0","gain","3","","75","K","1","","1","0","0","0.2","0","true","0","0.8","0","80_20_practice","0.2","0","","","","","","","","","",""
"1410","","bandit","27","401005","0.0-18.0-9.0","92952111","wem/bandit_single","A2KG59JUICJLP0","gain","3","","75","K","1","","0","0","1","0.2","0","true","0","0.8","0","80_20_practice","0.2","0","","","","","","","","","",""
"353","","bandit","28","403114","0.0-18.0-10.0","92952111","wem/bandit_single","A2KG59JUICJLP0","gain","3","","75","K","1","","0","0","1","0.2","0","true","0","0.8","0","80_20_practice","0.2","0","","","","","","","","","",""
"563","","bandit","29","405434","0.0-18.0-11.0","92952111","wem/bandit_single","A2KG59JUICJLP0","gain","3","","74","J","0","img/none_selected_demo.jpg","1","0","0","0.8","0","true","0","0.8","0","80_20_practice","0.2","0","","","","","","","","","",""
"158","","bandit","30","407348","0.0-18.0-12.0","92952111","wem/bandit_single","A2KG59JUICJLP0","gain","3","","74","J","0","img/none_selected_demo.jpg","0","0","1","0.8","0","true","0","0.8","0","80_20_practice","0.2","0","","","","","","","","","",""
"69","","bandit","31","409172","0.0-18.0-13.0","92952111","wem/bandit_single","A2KG59JUICJLP0","gain","3","","74","J","0","img/none_selected_demo.jpg","1","0","0","0.8","0","true","0","0.8","0","80_20_practice","0.2","0","","","","","","","","","",""
"33","","bandit","32","410960","0.0-18.0-14.0","92952111","wem/bandit_single","A2KG59JUICJLP0","gain","3","","74","J","0","img/none_selected_demo.jpg","1","0","0","0.8","0","true","0","0.8","0","80_20_practice","0.2","0","","","","","","","","","",""
"1705","","bandit","33","414420","0.0-18.0-15.0","92952111","wem/bandit_single","A2KG59JUICJLP0","gain","3","","74","J","0","img/none_selected_demo.jpg","1","0","0","0.8","0","true","0","0.8","0","80_20_practice","0.2","0","","","","","","","","","",""
"31","","bandit","34","416208","0.0-18.0-16.0","92952111","wem/bandit_single","A2KG59JUICJLP0","gain","3","","74","J","0","img/none_selected_demo.jpg","0","0","1","0.8","0","true","0","0.8","0","80_20_practice","0.2","0","","","","","","","","","",""
"5140","","bandit","35","423103","0.0-18.0-17.0","92952111","wem/bandit_single","A2KG59JUICJLP0","gain","3","","75","K","1","","0","0","1","0.2","0","true","0","0.8","0","80_20_practice","0.2","0","","","","","","","","","",""
"221","","bandit","36","425078","0.0-18.0-18.0","92952111","wem/bandit_single","A2KG59JUICJLP0","gain","3","","74","J","0","img/none_selected_demo.jpg","1","0","0","0.8","0","true","0","0.8","0","80_20_practice","0.2","0","","","","","","","","","",""
"112","","bandit","37","426946","0.0-18.0-19.0","92952111","wem/bandit_single","A2KG59JUICJLP0","gain","3","","74","J","0","img/none_selected_demo.jpg","1","0","0","0.8","0","true","0","0.8","0","80_20_practice","0.2","0","","","","","","","","","",""
"3779","","text","38","430977","0.0-19.0","92952111","wem/bandit_single","A2KG59JUICJLP0","gain","3","32","","","","","","","","","","","","","","","","","","","","","","","","","",""
"991","","bandit","39","433472","0.0-20.0-0.0","92952111","wem/bandit_single","A2KG59JUICJLP0","gain","3","","74","J","0","img/none_selected_demo.jpg","0","0","1","0","0","true","0","0","0","","0","0","","","","","","","","","",""
"1490","","text","40","435214","0.0-21.0","92952111","wem/bandit_single","A2KG59JUICJLP0","gain","3","32","","","","","","","","","","","","","","","","","","","","","","","","","",""
"1990","","text","41","437205","0.0-22.0","92952111","wem/bandit_single","A2KG59JUICJLP0","gain","3","32","","","","","","","","","","","","","","","","","","","","","","","","","",""
"1342","","text","42","438549","0.0-23.0","92952111","wem/bandit_single","A2KG59JUICJLP0","gain","3","32","","","","","","","","","","","","","","","","","","","","","","","","","",""
"2251","","text","43","440801","0.0-24.0","92952111","wem/bandit_single","A2KG59JUICJLP0","gain","3","32","","","","","","","","","","","","","","","","","","","","","","","","","",""
"1990","","text","44","442794","0.0-25.0","92952111","wem/bandit_single","A2KG59JUICJLP0","gain","3","32","","","","","","","","","","","","","","","","","","","","","","","","","",""
"1308","","text","45","444104","0.0-26.0","92952111","wem/bandit_single","A2KG59JUICJLP0","gain","3","32","","","","","","","","","","","","","","","","","","","","","","","","","",""
"1493","","text","46","445597","0.0-27.0","92952111","wem/bandit_single","A2KG59JUICJLP0","gain","3","32","","","","","","","","","","","","","","","","","","","","","","","","","",""
"2085","","text","47","447684","0.0-28.0","92952111","wem/bandit_single","A2KG59JUICJLP0","gain","3","32","","","","","","","","","","","","","","","","","","","","","","","","","",""
"2416","","text","48","450103","0.0-29.0","92952111","wem/bandit_single","A2KG59JUICJLP0","gain","3","32","","","","","","","","","","","","","","","","","","","","","","","","","",""
"2131","","text","49","452235","0.0-30.0","92952111","wem/bandit_single","A2KG59JUICJLP0","gain","3","32","","","","","","","","","","","","","","","","","","","","","","","","","",""
"4983","","text","50","457219","0.0-31.0","92952111","wem/bandit_single","A2KG59JUICJLP0","gain","3","32","","","","","","","","","","","","","","","","","","","","","","","","","",""
"566","","bandit","51","459290","0.0-32.0-0.0","92952111","wem/bandit_single","A2KG59JUICJLP0","gain","3","","72","H","0","img/none_selected.jpg","1","0","0","0.8","0","true","0","0.8","0","full_practice","0.2","0","0.6","0","0.2","0","","","","","",""
"10","","bandit","52","461057","0.0-32.0-1.0","92952111","wem/bandit_single","A2KG59JUICJLP0","gain","3","","72","H","0","img/none_selected.jpg","1","0","0","0.8","0","true","0","0.8","0","full_practice","0.2","0","0.6","0","0.2","0","","","","","",""
"154","","bandit","53","462967","0.0-32.0-2.0","92952111","wem/bandit_single","A2KG59JUICJLP0","gain","3","","74","J","1","","0","0","1","0.2","0","true","0","0.8","0","full_practice","0.2","0","0.6","0","0.2","0","","","","","",""
"1258","","bandit","54","465980","0.0-32.0-3.0","92952111","wem/bandit_single","A2KG59JUICJLP0","gain","3","","75","K","2","","0","0","1","0.6","0","true","0","0.8","0","full_practice","0.2","0","0.6","0","0.2","0","","","","","",""
"211","","bandit","55","467950","0.0-32.0-4.0","92952111","wem/bandit_single","A2KG59JUICJLP0","gain","3","","76","L","3","","0","0","1","0.2","0","true","0","0.8","0","full_practice","0.2","0","0.6","0","0.2","0","","","","","",""
"41","","bandit","56","469747","0.0-32.0-5.0","92952111","wem/bandit_single","A2KG59JUICJLP0","gain","3","","72","H","0","img/none_selected.jpg","0","0","1","0.8","0","true","0","0.8","0","full_practice","0.2","0","0.6","0","0.2","0","","","","","",""
"1271","","bandit","57","472773","0.0-32.0-6.0","92952111","wem/bandit_single","A2KG59JUICJLP0","gain","3","","72","H","0","img/none_selected.jpg","1","0","0","0.8","0","true","0","0.8","0","full_practice","0.2","0","0.6","0","0.2","0","","","","","",""
"13","","bandit","58","474541","0.0-32.0-7.0","92952111","wem/bandit_single","A2KG59JUICJLP0","gain","3","","74","J","1","","0","0","1","0.2","0","true","0","0.8","0","full_practice","0.2","0","0.6","0","0.2","0","","","","","",""
"91","","bandit","59","476387","0.0-32.0-8.0","92952111","wem/bandit_single","A2KG59JUICJLP0","gain","3","","74","J","1","","0","0","1","0.2","0","true","0","0.8","0","full_practice","0.2","0","0.6","0","0.2","0","","","","","",""
"36","","bandit","60","478179","0.0-32.0-9.0","92952111","wem/bandit_single","A2KG59JUICJLP0","gain","3","","75","K","2","","1","0","0","0.6","0","true","0","0.8","0","full_practice","0.2","0","0.6","0","0.2","0","","","","","",""
"927","","bandit","61","480861","0.0-32.0-10.0","92952111","wem/bandit_single","A2KG59JUICJLP0","gain","3","","75","K","2","","1","0","0","0.6","0","true","0","0.8","0","full_practice","0.2","0","0.6","0","0.2","0","","","","","",""
"33","","bandit","62","482650","0.0-32.0-11.0","92952111","wem/bandit_single","A2KG59JUICJLP0","gain","3","","75","K","2","","1","0","0","0.6","0","true","0","0.8","0","full_practice","0.2","0","0.6","0","0.2","0","","","","","",""
"789","","bandit","63","485196","0.0-32.0-12.0","92952111","wem/bandit_single","A2KG59JUICJLP0","gain","3","","75","K","2","","1","0","0","0.6","0","true","0","0.8","0","full_practice","0.2","0","0.6","0","0.2","0","","","","","",""
"195","","bandit","64","487147","0.0-32.0-13.0","92952111","wem/bandit_single","A2KG59JUICJLP0","gain","3","","75","K","2","","0","0","1","0.6","0","true","0","0.8","0","full_practice","0.2","0","0.6","0","0.2","0","","","","","",""
"75","","bandit","65","488977","0.0-32.0-14.0","92952111","wem/bandit_single","A2KG59JUICJLP0","gain","3","","75","K","2","","0","0","1","0.6","0","true","0","0.8","0","full_practice","0.2","0","0.6","0","0.2","0","","","","","",""
"18","","bandit","66","490750","0.0-32.0-15.0","92952111","wem/bandit_single","A2KG59JUICJLP0","gain","3","","76","L","3","","0","0","1","0.2","0","true","0","0.8","0","full_practice","0.2","0","0.6","0","0.2","0","","","","","",""
"89","","bandit","67","492595","0.0-32.0-16.0","92952111","wem/bandit_single","A2KG59JUICJLP0","gain","3","","76","L","3","","1","0","0","0.2","0","true","0","0.8","0","full_practice","0.2","0","0.6","0","0.2","0","","","","","",""
"17","","bandit","68","494369","0.0-32.0-17.0","92952111","wem/bandit_single","A2KG59JUICJLP0","gain","3","","72","H","0","img/none_selected.jpg","1","0","0","0.8","0","true","0","0.8","0","full_practice","0.2","0","0.6","0","0.2","0","","","","","",""
"81","","bandit","69","496205","0.0-32.0-18.0","92952111","wem/bandit_single","A2KG59JUICJLP0","gain","3","","72","H","0","img/none_selected.jpg","1","0","0","0.8","0","true","0","0.8","0","full_practice","0.2","0","0.6","0","0.2","0","","","","","",""
"2","","bandit","70","497964","0.0-32.0-19.0","92952111","wem/bandit_single","A2KG59JUICJLP0","gain","3","","72","H","0","img/none_selected.jpg","1","0","0","0.8","0","true","0","0.8","0","full_practice","0.2","0","0.6","0","0.2","0","","","","","",""
"1858","","text","71","500077","0.0-33.0","92952111","wem/bandit_single","A2KG59JUICJLP0","gain","3","32","","","","","","","","","","","","","","","","","","","","","","","","","",""
"2409","","text","72","503488","0.0-34.0","92952111","wem/bandit_single","A2KG59JUICJLP0","gain","3","32","","","","","","","","","","","","","","","","","","","","","","","","","",""
"1079","","text","73","504568","0.0-35.0","92952111","wem/bandit_single","A2KG59JUICJLP0","gain","3","32","","","","","","","","","","","","","","","","","","","","","","","","","",""
"1609","","text","74","506178","0.0-36.0","92952111","wem/bandit_single","A2KG59JUICJLP0","gain","3","32","","","","","","","","","","","","","","","","","","","","","","","","","",""
"3879","","text","75","510059","0.0-37.0","92952111","wem/bandit_single","A2KG59JUICJLP0","gain","3","32","","","","","","","","","","","","","","","","","","","","","","","","","",""
"2184","","bandit","76","513747","0.0-38.0-0.0","92952111","wem/bandit_single","A2KG59JUICJLP0","gain","3","","72","H","0","img/none_selected.jpg","0","0","1","0.3417032333","","false","1","0.3417032333","","main_expt","0.2015711498","","0.06813583588","","0.2211287853","","","","","","",""
"19","","bandit","77","515522","0.0-39.0-0.0","92952111","wem/bandit_single","A2KG59JUICJLP0","gain","3","","72","H","0","img/none_selected.jpg","0","0","1","0.3935143322","","false","2","0.3935143322","","main_expt","0.1868286341","","0.08840771113","","0.2921894834","","","","","","",""
"216","","bandit","78","517494","0.0-40.0-0.0","92952111","wem/bandit_single","A2KG59JUICJLP0","gain","3","","74","J","1","","1","0","0","0.2285659085","","false","3","0.3247841161","","main_expt","0.2285659085","","0.14311428","","0.2712314767","","","","","","",""
"956","","bandit","79","520206","0.0-41.0-0.0","92952111","wem/bandit_single","A2KG59JUICJLP0","gain","3","","74","J","1","","1","0","0","0.2587006496","","false","4","0.3524809632","","main_expt","0.2587006496","","0.1389033164","","0.3501044345","","","","","","",""
"766","","bandit","80","522728","0.0-42.0-0.0","92952111","wem/bandit_single","A2KG59JUICJLP0","gain","3","","74","J","1","","1","0","0","0.2238216231","","false","5","0.3243282494","","main_expt","0.2238216231","","0.1064755534","","0.3826883046","","","","","","",""
"2","","bandit","81","524486","0.0-43.0-0.0","92952111","wem/bandit_single","A2KG59JUICJLP0","gain","3","","74","J","1","","0","0","1","0.2114086621","","false","6","0.3856520047","","main_expt","0.2114086621","","0.07607549968","","0.3538977559","","","","","","",""
"605","","bandit","82","526847","0.0-44.0-0.0","92952111","wem/bandit_single","A2KG59JUICJLP0","gain","3","","75","K","2","","0","0","1","0.0490522351","","false","7","0.3595299576","","main_expt","0.225256176","","0.0490522351","","0.3911179113","","","","","","",""
"22","","bandit","83","528626","0.0-45.0-0.0","92952111","wem/bandit_single","A2KG59JUICJLP0","gain","3","","75","K","2","","0","0","1","0.04564729275","","false","8","0.2908809246","","main_expt","0.1920600422","","0.04564729275","","0.3378010318","","","","","","",""
"1156","","bandit","84","531537","0.0-46.0-0.0","92952111","wem/bandit_single","A2KG59JUICJLP0","gain","3","","76","L","3","","1","0","0","0.3584091786","","false","9","0.3401169694","","main_expt","0.222474992","","0.05361883364","","0.3584091786","","","","","","",""
"16","","bandit","85","533308","0.0-47.0-0.0","92952111","wem/bandit_single","A2KG59JUICJLP0","gain","3","","76","L","3","","1","0","0","0.3822252457","","false","10","0.370347707","","main_expt","0.1720297318","","0.05689605437","","0.3822252457","","","","","","",""
"107","","bandit","86","535173","0.0-48.0-0.0","92952111","wem/bandit_single","A2KG59JUICJLP0","gain","3","","76","L","3","","1","0","0","0.4003480189","","false","11","0.3385652673","","main_expt","0.1672236423","","0.05596529361","","0.4003480189","","","","","","",""
"1081","","bandit","87","538012","0.0-49.0-0.0","92952111","wem/bandit_single","A2KG59JUICJLP0","gain","3","","76","L","3","","0","0","1","0.4035898181","","false","12","0.3433253296","","main_expt","0.1908353862","","0.07455145674","","0.4035898181","","","","","","",""
"1283","","bandit","88","541050","0.0-50.0-0.0","92952111","wem/bandit_single","A2KG59JUICJLP0","gain","3","","74","J","1","","0","0","1","0.1373256951","","false","13","0.3306460316","","main_expt","0.1373256951","","0.1061797552","","0.3939267589","","","","","","",""
"7","","bandit","89","542812","0.0-51.0-0.0","92952111","wem/bandit_single","A2KG59JUICJLP0","gain","3","","74","J","1","","0","0","1","0.1605467602","","false","14","0.3423394156","","main_expt","0.1605467602","","0.09003395111","","0.4058751809","","","","","","",""
"239","","bandit","90","544809","0.0-52.0-0.0","92952111","wem/bandit_single","A2KG59JUICJLP0","gain","3","","74","J","1","","0","0","1","0.1270826231","","false","15","0.3514631564","","main_expt","0.1270826231","","0.09190110762","","0.3784768297","","","","","","",""
"277","","bandit","91","546842","0.0-53.0-0.0","92952111","wem/bandit_single","A2KG59JUICJLP0","gain","3","","76","L","3","","0","0","1","0.3742197382","","false","16","0.3763865137","","main_expt","0.1659789958","","0.1119147711","","0.3742197382","","","","","","",""
"1207","","bandit","92","549806","0.0-54.0-0.0","92952111","wem/bandit_single","A2KG59JUICJLP0","gain","3","","75","K","2","","0","0","1","0.1268228496","","false","17","0.3613216018","","main_expt","0.1810296119","","0.1268228496","","0.3738750299","","","","","","",""
"253","","bandit","93","551816","0.0-55.0-0.0","92952111","wem/bandit_single","A2KG59JUICJLP0","gain","3","","72","H","0","img/none_selected.jpg","1","0","0","0.3354311471","","false","18","0.3354311471","","main_expt","0.2209588372","","0.160542793","","0.30878177","","","","","","",""
"90","","bandit","94","553665","0.0-56.0-0.0","92952111","wem/bandit_single","A2KG59JUICJLP0","gain","3","","72","H","0","img/none_selected.jpg","0","0","1","0.3151580681","","false","19","0.3151580681","","main_expt","0.1577150754","","0.1913020378","","0.3257740717","","","","","","",""
"698","","bandit","95","556120","0.0-57.0-0.0","92952111","wem/bandit_single","A2KG59JUICJLP0","gain","3","","72","H","0","img/none_selected.jpg","0","0","1","0.2633525784","","false","20","0.2633525784","","main_expt","0.2368366468","","0.2201213849","","0.2780557495","","","","","","",""
"40","","bandit","96","557919","0.0-58.0-0.0","92952111","wem/bandit_single","A2KG59JUICJLP0","gain","3","","72","H","0","img/none_selected.jpg","0","0","1","0.2730255539","","false","21","0.2730255539","","main_expt","0.1692925459","","0.1747441944","","0.2552615423","","","","","","",""
"738","","bandit","97","560414","0.0-59.0-0.0","92952111","wem/bandit_single","A2KG59JUICJLP0","gain","3","","72","H","0","img/none_selected.jpg","1","0","0","0.2366183143","","false","22","0.2366183143","","main_expt","0.144462955","","0.1407764438","","0.2862558775","","","","","","",""
"21","","bandit","98","562194","0.0-60.0-0.0","92952111","wem/bandit_single","A2KG59JUICJLP0","gain","3","","72","H","0","img/none_selected.jpg","0","0","1","0.2193011186","","false","23","0.2193011186","","main_expt","0.1928882479","","0.1444197889","","0.290674517","","","","","","",""
"718","","bandit","99","564667","0.0-61.0-0.0","92952111","wem/bandit_single","A2KG59JUICJLP0","gain","3","","74","J","1","","0","0","1","0.2077361259","","false","24","0.2058852999","","main_expt","0.2077361259","","0.1898422889","","0.2669553567","","","","","","",""
"126","","bandit","100","566548","0.0-62.0-0.0","92952111","wem/bandit_single","A2KG59JUICJLP0","gain","3","","75","K","2","","0","0","1","0.2319991336","","false","25","0.2377147794","","main_expt","0.2580980749","","0.2319991336","","0.2134469473","","","","","","",""
"1184","","bandit","101","569491","0.0-63.0-0.0","92952111","wem/bandit_single","A2KG59JUICJLP0","gain","3","","75","K","2","","0","0","1","0.2140617454","","false","26","0.3017638279","","main_expt","0.2593960467","","0.2140617454","","0.2027981442","","","","","","",""
"846","","bandit","102","572094","0.0-64.0-0.0","92952111","wem/bandit_single","A2KG59JUICJLP0","gain","3","","76","L","3","","0","0","1","0.1669761534","","false","27","0.2647551657","","main_expt","0.2913294918","","0.2186733942","","0.1669761534","","","","","","",""
"131","","bandit","103","573980","0.0-65.0-0.0","92952111","wem/bandit_single","A2KG59JUICJLP0","gain","3","","76","L","3","","0","0","1","0.1301617017","","false","28","0.2864353885","","main_expt","0.2838721205","","0.2573772923","","0.1301617017","","","","","","",""
"131","","bandit","104","575868","0.0-66.0-0.0","92952111","wem/bandit_single","A2KG59JUICJLP0","gain","3","","72","H","0","img/none_selected.jpg","0","0","1","0.2669447337","","false","29","0.2669447337","","main_expt","0.2225595658","","0.2563684882","","0.1540227795","","","","","","",""
"1278","","bandit","105","578902","0.0-67.0-0.0","92952111","wem/bandit_single","A2KG59JUICJLP0","gain","3","","72","H","0","img/none_selected.jpg","0","0","1","0.242519946","","false","30","0.242519946","","main_expt","0.2450998207","","0.3180657859","","0.1290956128","","","","","","",""
"248","","bandit","106","580904","0.0-68.0-0.0","92952111","wem/bandit_single","A2KG59JUICJLP0","gain","3","","72","H","0","img/none_selected.jpg","0","0","1","0.1808952067","","false","31","0.1808952067","","main_expt","0.2358374841","","0.3391977199","","0.157476084","","","","","","",""
"451","","bandit","107","583110","0.0-69.0-0.0","92952111","wem/bandit_single","A2KG59JUICJLP0","gain","3","","72","H","0","img/none_selected.jpg","0","0","1","0.1490402933","","false","32","0.1490402933","","main_expt","0.2465538883","","0.3655242212","","0.1667461438","","","","","","",""
"203","","bandit","108","585073","0.0-70.0-0.0","92952111","wem/bandit_single","A2KG59JUICJLP0","gain","3","","72","H","0","img/none_selected.jpg","0","0","1","0.1607825008","","false","33","0.1607825008","","main_expt","0.2479029149","","0.3476833293","","0.1698659255","","","","","","",""
"185","","bandit","109","587017","0.0-71.0-0.0","92952111","wem/bandit_single","A2KG59JUICJLP0","gain","3","","72","H","0","img/none_selected.jpg","1","0","0","0.2019438485","","false","34","0.2019438485","","main_expt","0.1813792252","","0.3287357547","","0.1830702822","","","","","","",""
"176","","bandit","110","588947","0.0-72.0-0.0","92952111","wem/bandit_single","A2KG59JUICJLP0","gain","3","","72","H","0","img/none_selected.jpg","0","0","1","0.1187506792","","false","35","0.1187506792","","main_expt","0.1507873856","","0.3568635533","","0.1648441896","","","","","","",""
"164","","bandit","111","590867","0.0-73.0-0.0","92952111","wem/bandit_single","A2KG59JUICJLP0","gain","3","","74","J","1","","0","0","1","0.185146395","","false","36","0.107122158","","main_expt","0.185146395","","0.2559818432","","0.1702375356","","","","","","",""
"78","","bandit","112","592702","0.0-74.0-0.0","92952111","wem/bandit_single","A2KG59JUICJLP0","gain","3","","74","J","1","","0","0","1","0.1995500277","","false","37","0.1462043769","","main_expt","0.1995500277","","0.2095103509","","0.1248493821","","","","","","",""
"15","","bandit","113","594473","0.0-75.0-0.0","92952111","wem/bandit_single","A2KG59JUICJLP0","gain","3","","74","J","1","","1","0","0","0.2324476024","","false","38","0.1562864446","","main_expt","0.2324476024","","0.1824107212","","0.1806095344","","","","","","",""
"93","","bandit","114","596323","0.0-76.0-0.0","92952111","wem/bandit_single","A2KG59JUICJLP0","gain","3","","74","J","1","","0","0","1","0.2374336796","","false","39","0.1425148763","","main_expt","0.2374336796","","0.180532013","","0.1636381498","","","","","","",""
"150","","bandit","115","598230","0.0-77.0-0.0","92952111","wem/bandit_single","A2KG59JUICJLP0","gain","3","","74","J","1","","0","0","1","0.1871034738","","false","40","0.1332413707","","main_expt","0.1871034738","","0.209403608","","0.128328165","","","","","","",""
"130","","bandit","116","600115","0.0-78.0-0.0","92952111","wem/bandit_single","A2KG59JUICJLP0","gain","3","","75","K","2","","0","0","1","0.1790729352","","false","41","0.170838957","","main_expt","0.1923798107","","0.1790729352","","0.1128848486","","","","","","",""
"45","","bandit","117","601915","0.0-79.0-0.0","92952111","wem/bandit_single","A2KG59JUICJLP0","gain","3","","75","K","2","","0","0","1","0.1586268334","","false","42","0.221577246","","main_expt","0.2175202152","","0.1586268334","","0.1024028154","","","","","","",""
"35","","bandit","118","603705","0.0-80.0-0.0","92952111","wem/bandit_single","A2KG59JUICJLP0","gain","3","","75","K","2","","0","0","1","0.1953085145","","false","43","0.2937465132","","main_expt","0.199004634","","0.1953085145","","0.1842117743","","","","","","",""
"65","","bandit","119","605525","0.0-81.0-0.0","92952111","wem/bandit_single","A2KG59JUICJLP0","gain","3","","76","L","3","","1","0","0","0.2398699605","","false","44","0.2473378206","","main_expt","0.1979694218","","0.229373846","","0.2398699605","","","","","","",""
"169","","bandit","120","607450","0.0-82.0-0.0","92952111","wem/bandit_single","A2KG59JUICJLP0","gain","3","","76","L","3","","0","0","1","0.2666943954","","false","45","0.2911711657","","main_expt","0.1992427108","","0.2387173179","","0.2666943954","","","","","","",""
"115","","bandit","121","609322","0.0-83.0-0.0","92952111","wem/bandit_single","A2KG59JUICJLP0","gain","3","","76","L","3","","0","0","1","0.3187479261","","false","46","0.2520057509","","main_expt","0.2240306516","","0.2142046797","","0.3187479261","","","","","","",""
"81","","bandit","122","611158","0.0-84.0-0.0","92952111","wem/bandit_single","A2KG59JUICJLP0","gain","3","","76","L","3","","0","0","1","0.3190608455","","false","47","0.2527148282","","main_expt","0.2065012218","","0.2454335886","","0.3190608455","","","","","","",""
"127","","bandit","123","613042","0.0-85.0-0.0","92952111","wem/bandit_single","A2KG59JUICJLP0","gain","3","","76","L","3","","0","0","1","0.3135096665","","false","48","0.273334487","","main_expt","0.1926440163","","0.2810950816","","0.3135096665","","","","","","",""
"65","","bandit","124","614863","0.0-86.0-0.0","92952111","wem/bandit_single","A2KG59JUICJLP0","gain","3","","76","L","3","","0","0","1","0.3341811191","","false","49","0.3181736471","","main_expt","0.1670810943","","0.2547597437","","0.3341811191","","","","","","",""
"58","","bandit","125","616679","0.0-87.0-0.0","92952111","wem/bandit_single","A2KG59JUICJLP0","gain","3","","72","H","0","img/none_selected.jpg","1","0","0","0.3806153608","","false","50","0.3806153608","","main_expt","0.1198069869","","0.224323175","","0.3459923598","","","","","","",""
"144","","bandit","126","618582","0.0-88.0-0.0","92952111","wem/bandit_single","A2KG59JUICJLP0","gain","3","","72","H","0","img/none_selected.jpg","1","0","0","0.3949296296","","false","51","0.3949296296","","main_expt","0.103394302","","0.2755477452","","0.3331953563","","","","","","",""
"167","","bandit","127","620506","0.0-89.0-0.0","92952111","wem/bandit_single","A2KG59JUICJLP0","gain","3","","72","H","0","img/none_selected.jpg","1","0","0","0.3544293331","","false","52","0.3544293331","","main_expt","0.1018912343","","0.3022170302","","0.3915962888","","","","","","",""
"151","","bandit","128","622413","0.0-90.0-0.0","92952111","wem/bandit_single","A2KG59JUICJLP0","gain","3","","72","H","0","img/none_selected.jpg","1","0","0","0.3007967805","","false","53","0.3007967805","","main_expt","0.07233269407","","0.2886203433","","0.3984086051","","","","","","",""
"73","","bandit","129","624243","0.0-91.0-0.0","92952111","wem/bandit_single","A2KG59JUICJLP0","gain","3","","72","H","0","img/none_selected.jpg","0","0","1","0.3376398899","","false","54","0.3376398899","","main_expt","0.09210147888","","0.3072524501","","0.4181407331","","","","","","",""
"114","","bandit","130","626114","0.0-92.0-0.0","92952111","wem/bandit_single","A2KG59JUICJLP0","gain","3","","72","H","0","img/none_selected.jpg","1","0","0","0.3625264345","","false","55","0.3625264345","","main_expt","0.08866102842","","0.3847595325","","0.3964386999","","","","","","",""
"54","","bandit","131","627926","0.0-93.0-0.0","92952111","wem/bandit_single","A2KG59JUICJLP0","gain","3","","72","H","0","img/none_selected.jpg","1","0","0","0.313137485","","false","56","0.313137485","","main_expt","0.1208391037","","0.4008313728","","0.4043277199","","","","","","",""
"139","","bandit","132","629823","0.0-94.0-0.0","92952111","wem/bandit_single","A2KG59JUICJLP0","gain","3","","72","H","0","img/none_selected.jpg","0","0","1","0.3287581384","","false","57","0.3287581384","","main_expt","0.1429525169","","0.3763680666","","0.3232173094","","","","","","",""
"153","","bandit","133","631735","0.0-95.0-0.0","92952111","wem/bandit_single","A2KG59JUICJLP0","gain","3","","72","H","0","img/none_selected.jpg","0","0","1","0.2891608333","","false","58","0.2891608333","","main_expt","0.1800007821","","0.3630839511","","0.3352595409","","","","","","",""
"176","","bandit","134","633672","0.0-96.0-0.0","92952111","wem/bandit_single","A2KG59JUICJLP0","gain","3","","72","H","0","img/none_selected.jpg","0","0","1","0.2228703537","","false","59","0.2228703537","","main_expt","0.1168587732","","0.3166885591","","0.3423270404","","","","","","",""
"172","","bandit","135","635606","0.0-97.0-0.0","92952111","wem/bandit_single","A2KG59JUICJLP0","gain","3","","74","J","1","","0","0","1","0.08966050757","","false","60","0.2694349638","","main_expt","0.08966050757","","0.3339947878","","0.3326485747","","","","","","",""
"59","","bandit","136","637422","0.0-98.0-0.0","92952111","wem/bandit_single","A2KG59JUICJLP0","gain","3","","74","J","1","","0","0","1","0.06827284498","","false","61","0.3291501217","","main_expt","0.06827284498","","0.3559621948","","0.3239501662","","","","","","",""
"176","","bandit","137","639354","0.0-99.0-0.0","92952111","wem/bandit_single","A2KG59JUICJLP0","gain","3","","74","J","1","","0","0","1","0.0870528816","","false","62","0.3516688484","","main_expt","0.0870528816","","0.3565904981","","0.3140158541","","","","","","",""
"151","","bandit","138","641264","0.0-100.0-0.0","92952111","wem/bandit_single","A2KG59JUICJLP0","gain","3","","75","K","2","","0","0","1","0.3766945074","","false","63","0.3662001291","","main_expt","0.07384780705","","0.3766945074","","0.2896297009","","","","","","",""
"125","","bandit","139","643148","0.0-101.0-0.0","92952111","wem/bandit_single","A2KG59JUICJLP0","gain","3","","75","K","2","","1","0","0","0.4038560084","","false","64","0.3986377969","","main_expt","0.09386223648","","0.4038560084","","0.2848001348","","","","","","",""
"49","","bandit","140","644954","0.0-102.0-0.0","92952111","wem/bandit_single","A2KG59JUICJLP0","gain","3","","75","K","2","","0","0","1","0.4081833366","","false","65","0.4284050928","","main_expt","0.08656227431","","0.4081833366","","0.2621939157","","","","","","",""
"111","","bandit","141","646822","0.0-103.0-0.0","92952111","wem/bandit_single","A2KG59JUICJLP0","gain","3","","75","K","2","","1","0","0","0.4111507483","","false","66","0.4295130084","","main_expt","0.1254260964","","0.4111507483","","0.2218985249","","","","","","",""
"154","","bandit","142","648734","0.0-104.0-0.0","92952111","wem/bandit_single","A2KG59JUICJLP0","gain","3","","75","K","2","","1","0","0","0.3731562577","","false","67","0.4192215244","","main_expt","0.0848557225","","0.3731562577","","0.2203007364","","","","","","",""
"98","","bandit","143","650588","0.0-105.0-0.0","92952111","wem/bandit_single","A2KG59JUICJLP0","gain","3","","75","K","2","","0","0","1","0.3471707475","","false","68","0.4617344849","","main_expt","0.1277621339","","0.3471707475","","0.2163243509","","","","","","",""
"23","","bandit","144","652370","0.0-106.0-0.0","92952111","wem/bandit_single","A2KG59JUICJLP0","gain","3","","75","K","2","","0","0","1","0.3163780081","","false","69","0.4496684627","","main_expt","0.1425885083","","0.3163780081","","0.1552451017","","","","","","",""
"48","","bandit","145","654175","0.0-107.0-0.0","92952111","wem/bandit_single","A2KG59JUICJLP0","gain","3","","75","K","2","","0","0","1","0.2872849644","","false","70","0.4572021165","","main_expt","0.1765985622","","0.2872849644","","0.144295094","","","","","","",""
"162","","bandit","146","656094","0.0-108.0-0.0","92952111","wem/bandit_single","A2KG59JUICJLP0","gain","3","","76","L","3","","0","0","1","0.1823242822","","false","71","0.457930868","","main_expt","0.1520060204","","0.300298776","","0.1823242822","","","","","","",""
"186","","bandit","147","658037","0.0-109.0-0.0","92952111","wem/bandit_single","A2KG59JUICJLP0","gain","3","","76","L","3","","0","0","1","0.144478384","","false","72","0.4687468973","","main_expt","0.09933583891","","0.3280152389","","0.144478384","","","","","","",""
"185","","bandit","148","659980","0.0-110.0-0.0","92952111","wem/bandit_single","A2KG59JUICJLP0","gain","3","","76","L","3","","1","0","0","0.1420634247","","false","73","0.4707862587","","main_expt","0.1087995109","","0.2758062481","","0.1420634247","","","","","","",""
"192","","bandit","149","661929","0.0-111.0-0.0","92952111","wem/bandit_single","A2KG59JUICJLP0","gain","3","","76","L","3","","0","0","1","0.1358649702","","false","74","0.4602293826","","main_expt","0.150223613","","0.3370537031","","0.1358649702","","","","","","",""
"36","","bandit","150","663721","0.0-112.0-0.0","92952111","wem/bandit_single","A2KG59JUICJLP0","gain","3","","76","L","3","","0","0","1","0.09700523291","","false","75","0.439891953","","main_expt","0.1945690608","","0.3323795279","","0.09700523291","","","","","","",""
"93","","bandit","151","665571","0.0-113.0-0.0","92952111","wem/bandit_single","A2KG59JUICJLP0","gain","3","","76","L","3","","0","0","1","0.07829726083","","false","76","0.4424180744","","main_expt","0.2454913388","","0.3822428931","","0.07829726083","","","","","","",""
"527","","bandit","152","667857","0.0-114.0-0.0","92952111","wem/bandit_single","A2KG59JUICJLP0","gain","3","","72","H","0","img/none_selected.jpg","0","0","1","0.4066280348","","false","77","0.4066280348","","main_expt","0.2181262922","","0.4136836411","","0.08460916486","","","","","","",""
"151","","bandit","153","669764","0.0-115.0-0.0","92952111","wem/bandit_single","A2KG59JUICJLP0","gain","3","","72","H","0","img/none_selected.jpg","0","0","1","0.3969262671","","false","78","0.3969262671","","main_expt","0.2500794828","","0.4505469687","","0.0875988483","","","","","","",""
"163","","bandit","154","671684","0.0-116.0-0.0","92952111","wem/bandit_single","A2KG59JUICJLP0","gain","3","","72","H","0","img/none_selected.jpg","0","0","1","0.4119020232","","false","79","0.4119020232","","main_expt","0.2021405589","","0.4251749511","","0.06491107755","","","","","","",""
"7865","","bandit","155","681307","0.0-117.0-0.0","92952111","wem/bandit_single","A2KG59JUICJLP0","gain","3","","74","J","1","","0","0","1","0.1654874554","","false","80","0.3797331509","","main_expt","0.1654874554","","0.3976376265","","0.1021818806","","","","","","",""
"4409","","bandit","156","687476","0.0-118.0-0.0","92952111","wem/bandit_single","A2KG59JUICJLP0","gain","3","","74","J","1","","0","0","1","0.1281487551","","false","81","0.4024270851","","main_expt","0.1281487551","","0.409462467","","0.07175209231","","","","","","",""
"95","","bandit","157","689326","0.0-119.0-0.0","92952111","wem/bandit_single","A2KG59JUICJLP0","gain","3","","74","J","1","","0","0","1","0.1167166884","","false","82","0.3976574516","","main_expt","0.1167166884","","0.4541942335","","0.04651379375","","","","","","",""
"175","","bandit","158","691256","0.0-120.0-0.0","92952111","wem/bandit_single","A2KG59JUICJLP0","gain","3","","75","K","2","","1","0","0","0.4452160763","","false","83","0.3749492802","","main_expt","0.1426109787","","0.4452160763","","0.03148502893","","","","","","",""
"79","","bandit","159","693094","0.0-121.0-0.0","92952111","wem/bandit_single","A2KG59JUICJLP0","gain","3","","75","K","2","","0","0","1","0.438985114","","false","84","0.4021863709","","main_expt","0.121887906","","0.438985114","","0.05186863446","","","","","","",""
"136","","bandit","160","694985","0.0-122.0-0.0","92952111","wem/bandit_single","A2KG59JUICJLP0","gain","3","","75","K","2","","0","0","1","0.4331173667","","false","85","0.3624574422","","main_expt","0.1361926199","","0.4331173667","","0.04986731509","","","","","","",""
"72","","bandit","161","696816","0.0-123.0-0.0","92952111","wem/bandit_single","A2KG59JUICJLP0","gain","3","","75","K","2","","1","0","0","0.447547065","","false","86","0.387939101","","main_expt","0.1287871674","","0.447547065","","0.05891938772","","","","","","",""
"75","","bandit","162","698649","0.0-124.0-0.0","92952111","wem/bandit_single","A2KG59JUICJLP0","gain","3","","75","K","2","","1","0","0","0.4451560311","","false","87","0.3949621072","","main_expt","0.13112728","","0.4451560311","","0.06619539979","","","","","","",""
"124","","bandit","163","700528","0.0-125.0-0.0","92952111","wem/bandit_single","A2KG59JUICJLP0","gain","3","","75","K","2","","1","0","0","0.4010299359","","false","88","0.3789082299","","main_expt","0.1385028762","","0.4010299359","","0.03553047297","","","","","","",""
"113","","bandit","164","702398","0.0-126.0-0.0","92952111","wem/bandit_single","A2KG59JUICJLP0","gain","3","","75","K","2","","0","0","1","0.430672582","","false","89","0.3718344374","","main_expt","0.1377901848","","0.430672582","","0.03983007571","","","","","","",""
"86","","bandit","165","704242","0.0-127.0-0.0","92952111","wem/bandit_single","A2KG59JUICJLP0","gain","3","","75","K","2","","1","0","0","0.4063924327","","false","90","0.4341719303","","main_expt","0.1642812903","","0.4063924327","","0.02618566652","","","","","","",""
"117","","bandit","166","706118","0.0-128.0-0.0","92952111","wem/bandit_single","A2KG59JUICJLP0","gain","3","","75","K","2","","1","0","0","0.4115689239","","false","91","0.4538289377","","main_expt","0.2115922749","","0.4115689239","","0.03325063158","","","","","","",""
"56","","bandit","167","707932","0.0-129.0-0.0","92952111","wem/bandit_single","A2KG59JUICJLP0","gain","3","","75","K","2","","1","0","0","0.4195244723","","false","92","0.4508501544","","main_expt","0.1819790886","","0.4195244723","","0.02042352937","","","","","","",""
"106","","bandit","168","709795","0.0-130.0-0.0","92952111","wem/bandit_single","A2KG59JUICJLP0","gain","3","","75","K","2","","1","0","0","0.3976010387","","false","93","0.4548943395","","main_expt","0.2039146085","","0.3976010387","","0.01887694535","","","","","","",""
"35","","bandit","169","711589","0.0-131.0-0.0","92952111","wem/bandit_single","A2KG59JUICJLP0","gain","3","","75","K","2","","0","0","1","0.3668479885","","false","94","0.4646086811","","main_expt","0.2307813202","","0.3668479885","","0.02367451168","","","","","","",""
"88","","bandit","170","713437","0.0-132.0-0.0","92952111","wem/bandit_single","A2KG59JUICJLP0","gain","3","","75","K","2","","1","0","0","0.3332342888","","false","95","0.467541367","","main_expt","0.2213313998","","0.3332342888","","0.02723032617","","","","","","",""
"3","","bandit","171","715200","0.0-133.0-0.0","92952111","wem/bandit_single","A2KG59JUICJLP0","gain","3","","75","K","2","","0","0","1","0.2884910782","","false","96","0.4642351642","","main_expt","0.2568515079","","0.2884910782","","0.02648196594","","","","","","",""
"48","","bandit","172","717005","0.0-134.0-0.0","92952111","wem/bandit_single","A2KG59JUICJLP0","gain","3","","75","K","2","","0","0","1","0.2656891479","","false","97","0.4467755515","","main_expt","0.2699845376","","0.2656891479","","0.01585024216","","","","","","",""
"115","","bandit","173","718877","0.0-135.0-0.0","92952111","wem/bandit_single","A2KG59JUICJLP0","gain","3","","75","K","2","","1","0","0","0.2595300749","","false","98","0.4056350907","","main_expt","0.2797451528","","0.2595300749","","0.01169409205","","","","","","",""
"173","","bandit","174","720810","0.0-136.0-0.0","92952111","wem/bandit_single","A2KG59JUICJLP0","gain","3","","75","K","2","","0","0","1","0.2519900202","","false","99","0.339742379","","main_expt","0.3187705275","","0.2519900202","","0.01197913588","","","","","","",""
"165","","bandit","175","722732","0.0-137.0-0.0","92952111","wem/bandit_single","A2KG59JUICJLP0","gain","3","","75","K","2","","0","0","1","0.2523409295","","false","100","0.3381167522","","main_expt","0.3570824245","","0.2523409295","","0.01759776774","","","","","","",""
"39","","bandit","176","724527","0.0-138.0-0.0","92952111","wem/bandit_single","A2KG59JUICJLP0","gain","3","","75","K","2","","0","0","1","0.2146893193","","false","101","0.2803213009","","main_expt","0.3489468272","","0.2146893193","","0.04295615511","","","","","","",""
"157","","bandit","177","726443","0.0-139.0-0.0","92952111","wem/bandit_single","A2KG59JUICJLP0","gain","3","","76","L","3","","0","0","1","0.06572998715","","false","102","0.317644571","","main_expt","0.3015799625","","0.1843767259","","0.06572998715","","","","","","",""
"158","","bandit","178","728361","0.0-140.0-0.0","92952111","wem/bandit_single","A2KG59JUICJLP0","gain","3","","76","L","3","","0","0","1","0.1043212589","","false","103","0.3024927185","","main_expt","0.2656450655","","0.2108432206","","0.1043212589","","","","","","",""
"151","","bandit","179","730272","0.0-141.0-0.0","92952111","wem/bandit_single","A2KG59JUICJLP0","gain","3","","76","L","3","","0","0","1","0.07063930719","","false","104","0.3339077782","","main_expt","0.261155182","","0.26792014","","0.07063930719","","","","","","",""
"25","","bandit","180","732056","0.0-142.0-0.0","92952111","wem/bandit_single","A2KG59JUICJLP0","gain","3","","76","L","3","","1","0","0","0.09992353171","","false","105","0.2966783269","","main_expt","0.2794756432","","0.3302583292","","0.09992353171","","","","","","",""
"116","","bandit","181","733929","0.0-143.0-0.0","92952111","wem/bandit_single","A2KG59JUICJLP0","gain","3","","76","L","3","","0","0","1","0.1074399807","","false","106","0.3722996478","","main_expt","0.2719827923","","0.3099187861","","0.1074399807","","","","","","",""
"200","","bandit","182","735886","0.0-144.0-0.0","92952111","wem/bandit_single","A2KG59JUICJLP0","gain","3","","76","L","3","","0","0","1","0.1398361659","","false","107","0.3764369168","","main_expt","0.2614179637","","0.3526315454","","0.1398361659","","","","","","",""
"74","","bandit","183","737719","0.0-145.0-0.0","92952111","wem/bandit_single","A2KG59JUICJLP0","gain","3","","76","L","3","","1","0","0","0.1503356919","","false","108","0.3221289315","","main_expt","0.3154283329","","0.3741147492","","0.1503356919","","","","","","",""
"119","","bandit","184","739596","0.0-146.0-0.0","92952111","wem/bandit_single","A2KG59JUICJLP0","gain","3","","76","L","3","","0","0","1","0.1554773292","","false","109","0.3394272446","","main_expt","0.3965133924","","0.3775387023","","0.1554773292","","","","","","",""
"38","","bandit","185","741393","0.0-147.0-0.0","92952111","wem/bandit_single","A2KG59JUICJLP0","gain","3","","76","L","3","","1","0","0","0.1862379276","","false","110","0.3108194313","","main_expt","0.4096679205","","0.3603169275","","0.1862379276","","","","","","",""
"12","","bandit","186","743163","0.0-148.0-0.0","92952111","wem/bandit_single","A2KG59JUICJLP0","gain","3","","76","L","3","","1","0","0","0.2096222548","","false","111","0.2754643313","","main_expt","0.4107972434","","0.3492898999","","0.2096222548","","","","","","",""
"90","","bandit","187","745010","0.0-149.0-0.0","92952111","wem/bandit_single","A2KG59JUICJLP0","gain","3","","76","L","3","","0","0","1","0.2432579143","","false","112","0.2906444469","","main_expt","0.4229867006","","0.3332089306","","0.2432579143","","","","","","",""
"370","","bandit","188","747138","0.0-150.0-0.0","92952111","wem/bandit_single","A2KG59JUICJLP0","gain","3","","76","L","3","","0","0","1","0.1721880852","","false","113","0.3006146448","","main_expt","0.4045712819","","0.3450976056","","0.1721880852","","","","","","",""
"233","","bandit","189","749127","0.0-151.0-0.0","92952111","wem/bandit_single","A2KG59JUICJLP0","gain","3","","76","L","3","","1","0","0","0.2081909003","","false","114","0.2668468313","","main_expt","0.3821667802","","0.3725565121","","0.2081909003","","","","","","",""
"120","","bandit","190","751007","0.0-152.0-0.0","92952111","wem/bandit_single","A2KG59JUICJLP0","gain","3","","76","L","3","","0","0","1","0.272711811","","false","115","0.3032344037","","main_expt","0.3342096713","","0.3789561431","","0.272711811","","","","","","",""
"136","","bandit","191","752903","0.0-153.0-0.0","92952111","wem/bandit_single","A2KG59JUICJLP0","gain","3","","76","L","3","","0","0","1","0.2801201945","","false","116","0.279678247","","main_expt","0.3475890958","","0.3829881954","","0.2801201945","","","","","","",""
"453","","bandit","192","755114","0.0-154.0-0.0","92952111","wem/bandit_single","A2KG59JUICJLP0","gain","3","","72","H","0","img/none_selected.jpg","0","0","1","0.2762620489","","false","117","0.2762620489","","main_expt","0.3545652452","","0.3872477479","","0.3615324036","","","","","","",""
"172","","bandit","193","757044","0.0-155.0-0.0","92952111","wem/bandit_single","A2KG59JUICJLP0","gain","3","","72","H","0","img/none_selected.jpg","0","0","1","0.2880572365","","false","118","0.2880572365","","main_expt","0.3542043025","","0.3952603005","","0.3615177178","","","","","","",""
"235","","bandit","194","759039","0.0-156.0-0.0","92952111","wem/bandit_single","A2KG59JUICJLP0","gain","3","","74","J","1","","1","0","0","0.3471352845","","false","119","0.2807620685","","main_expt","0.3471352845","","0.3838673248","","0.3875935955","","","","","","",""
"7","","bandit","195","760804","0.0-157.0-0.0","92952111","wem/bandit_single","A2KG59JUICJLP0","gain","3","","74","J","1","","0","0","1","0.3343169965","","false","120","0.2811576832","","main_expt","0.3343169965","","0.4148997213","","0.4052723714","","","","","","",""
"199","","bandit","196","762762","0.0-158.0-0.0","92952111","wem/bandit_single","A2KG59JUICJLP0","gain","3","","74","J","1","","0","0","1","0.3595120763","","false","121","0.3016455194","","main_expt","0.3595120763","","0.4184259471","","0.44462971","","","","","","",""
"123","","bandit","197","764642","0.0-159.0-0.0","92952111","wem/bandit_single","A2KG59JUICJLP0","gain","3","","74","J","1","","0","0","1","0.3296914373","","false","122","0.3161331551","","main_expt","0.3296914373","","0.4271141924","","0.4338931322","","","","","","",""
"47","","bandit","198","766448","0.0-160.0-0.0","92952111","wem/bandit_single","A2KG59JUICJLP0","gain","3","","74","J","1","","0","0","1","0.3369167856","","false","123","0.2882518765","","main_expt","0.3369167856","","0.3994299035","","0.4248885798","","","","","","",""
"123","","bandit","199","768332","0.0-161.0-0.0","92952111","wem/bandit_single","A2KG59JUICJLP0","gain","3","","72","H","0","img/none_selected.jpg","0","0","1","0.3426101702","","false","124","0.3426101702","","main_expt","0.3181772373","","0.4319292606","","0.3773411534","","","","","","",""
"153","","bandit","200","770243","0.0-162.0-0.0","92952111","wem/bandit_single","A2KG59JUICJLP0","gain","3","","72","H","0","img/none_selected.jpg","1","0","0","0.3623178769","","false","125","0.3623178769","","main_expt","0.3285823626","","0.4228137624","","0.3322500489","","","","","","",""
"122","","bandit","201","772123","0.0-163.0-0.0","92952111","wem/bandit_single","A2KG59JUICJLP0","gain","3","","72","H","0","img/none_selected.jpg","0","0","1","0.3487147863","","false","126","0.3487147863","","main_expt","0.3203566048","","0.4445824992","","0.3742157909","","","","","","",""
"109","","bandit","202","773990","0.0-164.0-0.0","92952111","wem/bandit_single","A2KG59JUICJLP0","gain","3","","72","H","0","img/none_selected.jpg","0","0","1","0.4137567253","","false","127","0.4137567253","","main_expt","0.3852478983","","0.4525048151","","0.3851047317","","","","","","",""
"157","","bandit","203","775907","0.0-165.0-0.0","92952111","wem/bandit_single","A2KG59JUICJLP0","gain","3","","72","H","0","img/none_selected.jpg","0","0","1","0.3814482247","","false","128","0.3814482247","","main_expt","0.3389365807","","0.4692783601","","0.4043255462","","","","","","",""
"100","","bandit","204","777765","0.0-166.0-0.0","92952111","wem/bandit_single","A2KG59JUICJLP0","gain","3","","72","H","0","img/none_selected.jpg","0","0","1","0.4168244781","","false","129","0.4168244781","","main_expt","0.3137404055","","0.4168961411","","0.4123407707","","","","","","",""
"52","","bandit","205","779577","0.0-167.0-0.0","92952111","wem/bandit_single","A2KG59JUICJLP0","gain","3","","75","K","2","","0","0","1","0.3790243023","","false","130","0.4365918222","","main_expt","0.3258581953","","0.3790243023","","0.4046971735","","","","","","",""
"251","","bandit","206","781587","0.0-168.0-0.0","92952111","wem/bandit_single","A2KG59JUICJLP0","gain","3","","75","K","2","","0","0","1","0.4049885765","","false","131","0.4389841863","","main_expt","0.2883577813","","0.4049885765","","0.4461276952","","","","","","",""
"19","","bandit","207","783365","0.0-169.0-0.0","92952111","wem/bandit_single","A2KG59JUICJLP0","gain","3","","75","K","2","","0","0","1","0.4146365962","","false","132","0.4152650591","","main_expt","0.3560589507","","0.4146365962","","0.4611465992","","","","","","",""
"128","","bandit","208","785255","0.0-170.0-0.0","92952111","wem/bandit_single","A2KG59JUICJLP0","gain","3","","75","K","2","","0","0","1","0.3895917514","","false","133","0.4542457407","","main_expt","0.358394082","","0.3895917514","","0.4798080461","","","","","","",""
"32","","bandit","209","787046","0.0-171.0-0.0","92952111","wem/bandit_single","A2KG59JUICJLP0","gain","3","","76","L","3","","1","0","0","0.4536835414","","false","134","0.4598844585","","main_expt","0.3605573227","","0.4031985028","","0.4536835414","","","","","","",""
"5","","bandit","210","788810","0.0-172.0-0.0","92952111","wem/bandit_single","A2KG59JUICJLP0","gain","3","","76","L","3","","1","0","0","0.4297718384","","false","135","0.4690925783","","main_expt","0.3695471057","","0.3950250086","","0.4297718384","","","","","","",""
"56","","bandit","211","790626","0.0-173.0-0.0","92952111","wem/bandit_single","A2KG59JUICJLP0","gain","3","","76","L","3","","0","0","1","0.4047290025","","false","136","0.4382452635","","main_expt","0.4060603524","","0.3958408827","","0.4047290025","","","","","","",""
"53","","bandit","212","792440","0.0-174.0-0.0","92952111","wem/bandit_single","A2KG59JUICJLP0","gain","3","","76","L","3","","0","0","1","0.4062789173","","false","137","0.4469583278","","main_expt","0.3977168634","","0.4025558346","","0.4062789173","","","","","","",""
"129","","bandit","213","794330","0.0-175.0-0.0","92952111","wem/bandit_single","A2KG59JUICJLP0","gain","3","","76","L","3","","0","0","1","0.3893267926","","false","138","0.44739429","","main_expt","0.3884520433","","0.3901350715","","0.3893267926","","","","","","",""
"210","","bandit","214","796298","0.0-176.0-0.0","92952111","wem/bandit_single","A2KG59JUICJLP0","gain","3","","76","L","3","","0","0","1","0.3355070849","","false","139","0.4329330235","","main_expt","0.3517782966","","0.4069565875","","0.3355070849","","","","","","",""
"81","","bandit","215","798140","0.0-177.0-0.0","92952111","wem/bandit_single","A2KG59JUICJLP0","gain","3","","76","L","3","","0","0","1","0.3033729388","","false","140","0.4427321083","","main_expt","0.3147433726","","0.4384632306","","0.3033729388","","","","","","",""
"141","","bandit","216","800038","0.0-178.0-0.0","92952111","wem/bandit_single","A2KG59JUICJLP0","gain","3","","76","L","3","","0","0","1","0.3495942718","","false","141","0.4630674526","","main_expt","0.315874603","","0.4513823692","","0.3495942718","","","","","","",""
"154","","bandit","217","801949","0.0-179.0-0.0","92952111","wem/bandit_single","A2KG59JUICJLP0","gain","3","","76","L","3","","0","0","1","0.373744609","","false","142","0.4678156034","","main_expt","0.2660579121","","0.4477105457","","0.373744609","","","","","","",""
"157","","bandit","218","803867","0.0-180.0-0.0","92952111","wem/bandit_single","A2KG59JUICJLP0","gain","3","","76","L","3","","1","0","0","0.3983109068","","false","143","0.4556942345","","main_expt","0.2791435274","","0.4399018081","","0.3983109068","","","","","","",""
"66","","bandit","219","805693","0.0-181.0-0.0","92952111","wem/bandit_single","A2KG59JUICJLP0","gain","3","","76","L","3","","0","0","1","0.4290647624","","false","144","0.4606745253","","main_expt","0.3232226047","","0.3929519584","","0.4290647624","","","","","","",""
"96","","bandit","220","807549","0.0-182.0-0.0","92952111","wem/bandit_single","A2KG59JUICJLP0","gain","3","","76","L","3","","1","0","0","0.4360055891","","false","145","0.4493721712","","main_expt","0.2863527335","","0.3638959839","","0.4360055891","","","","","","",""
"81","","bandit","221","809390","0.0-183.0-0.0","92952111","wem/bandit_single","A2KG59JUICJLP0","gain","3","","76","L","3","","0","0","1","0.4408793748","","false","146","0.411205332","","main_expt","0.2399582054","","0.3109408856","","0.4408793748","","","","","","",""
"54","","bandit","222","811207","0.0-184.0-0.0","92952111","wem/bandit_single","A2KG59JUICJLP0","gain","3","","76","L","3","","0","0","1","0.4152856751","","false","147","0.4091009254","","main_expt","0.2186627863","","0.303790043","","0.4152856751","","","","","","",""
"135","","bandit","223","813100","0.0-185.0-0.0","92952111","wem/bandit_single","A2KG59JUICJLP0","gain","3","","76","L","3","","0","0","1","0.400149315","","false","148","0.3878952866","","main_expt","0.233860686","","0.2836070719","","0.400149315","","","","","","",""
"552","","bandit","224","815411","0.0-186.0-0.0","92952111","wem/bandit_single","A2KG59JUICJLP0","gain","3","","72","H","0","img/none_selected.jpg","1","0","0","0.39239053","","false","149","0.39239053","","main_expt","0.2752018233","","0.2132997302","","0.4081055764","","","","","","",""
"109","","bandit","225","817277","0.0-187.0-0.0","92952111","wem/bandit_single","A2KG59JUICJLP0","gain","3","","72","H","0","img/none_selected.jpg","1","0","0","0.3869122725","","false","150","0.3869122725","","main_expt","0.2306982087","","0.1906505553","","0.3946041437","","","","","","",""
"49","","bandit","226","819086","0.0-188.0-0.0","92952111","wem/bandit_single","A2KG59JUICJLP0","gain","3","","72","H","0","img/none_selected.jpg","1","0","0","0.3562084687","","false","151","0.3562084687","","main_expt","0.272940168","","0.1887938372","","0.3517385329","","","","","","",""
"35","","bandit","227","820881","0.0-189.0-0.0","92952111","wem/bandit_single","A2KG59JUICJLP0","gain","3","","72","H","0","img/none_selected.jpg","1","0","0","0.3975166132","","false","152","0.3975166132","","main_expt","0.246833375","","0.1452925277","","0.33807167","","","","","","",""
"78","","bandit","228","822725","0.0-190.0-0.0","92952111","wem/bandit_single","A2KG59JUICJLP0","gain","3","","72","H","0","img/none_selected.jpg","0","0","1","0.4221253747","","false","153","0.4221253747","","main_expt","0.2555278221","","0.1236287895","","0.3507556502","","","","","","",""
"45","","bandit","229","824528","0.0-191.0-0.0","92952111","wem/bandit_single","A2KG59JUICJLP0","gain","3","","72","H","0","img/none_selected.jpg","0","0","1","0.3887365422","","false","154","0.3887365422","","main_expt","0.1964980564","","0.119712108","","0.3484399371","","","","","","",""
"46","","bandit","230","826333","0.0-192.0-0.0","92952111","wem/bandit_single","A2KG59JUICJLP0","gain","3","","72","H","0","img/none_selected.jpg","1","0","0","0.3935049101","","false","155","0.3935049101","","main_expt","0.2158986014","","0.1638630184","","0.4023996329","","","","","","",""
"577","","bandit","231","828669","0.0-193.0-0.0","92952111","wem/bandit_single","A2KG59JUICJLP0","gain","3","","72","H","0","img/none_selected.jpg","1","0","0","0.4185769797","","false","156","0.4185769797","","main_expt","0.2269609611","","0.138562935","","0.3489947109","","","","","","",""
"172","","bandit","232","830600","0.0-194.0-0.0","92952111","wem/bandit_single","A2KG59JUICJLP0","gain","3","","72","H","0","img/none_selected.jpg","0","0","1","0.412821327","","false","157","0.412821327","","main_expt","0.2997599927","","0.1424057266","","0.3223479281","","","","","","",""
"85","","bandit","233","832442","0.0-195.0-0.0","92952111","wem/bandit_single","A2KG59JUICJLP0","gain","3","","72","H","0","img/none_selected.jpg","0","0","1","0.4433072999","","false","158","0.4433072999","","main_expt","0.2608946303","","0.1068688432","","0.3334556671","","","","","","",""
"136","","bandit","234","834337","0.0-196.0-0.0","92952111","wem/bandit_single","A2KG59JUICJLP0","gain","3","","72","H","0","img/none_selected.jpg","1","0","0","0.4600675837","","false","159","0.4600675837","","main_expt","0.2927903113","","0.08394897778","","0.3686402331","","","","","","",""
"0","","bandit","235","836099","0.0-197.0-0.0","92952111","wem/bandit_single","A2KG59JUICJLP0","gain","3","","72","H","0","img/none_selected.jpg","1","0","0","0.449399373","","false","160","0.449399373","","main_expt","0.3165869591","","0.09909711901","","0.3711838842","","","","","","",""
"110","","bandit","236","837969","0.0-198.0-0.0","92952111","wem/bandit_single","A2KG59JUICJLP0","gain","3","","72","H","0","img/none_selected.jpg","1","0","0","0.4303005813","","false","161","0.4303005813","","main_expt","0.3355773311","","0.09256485174","","0.385982022","","","","","","",""
"73","","bandit","237","839799","0.0-199.0-0.0","92952111","wem/bandit_single","A2KG59JUICJLP0","gain","3","","72","H","0","img/none_selected.jpg","0","0","1","0.4319487415","","false","162","0.4319487415","","main_expt","0.3801839585","","0.07550585721","","0.3435676447","","","","","","",""
"150","","bandit","238","841709","0.0-200.0-0.0","92952111","wem/bandit_single","A2KG59JUICJLP0","gain","3","","72","H","0","img/none_selected.jpg","1","0","0","0.4459750046","","false","163","0.4459750046","","main_expt","0.3796909961","","0.08055395315","","0.3840292687","","","","","","",""
"136","","bandit","239","843604","0.0-201.0-0.0","92952111","wem/bandit_single","A2KG59JUICJLP0","gain","3","","72","H","0","img/none_selected.jpg","0","0","1","0.4529977304","","false","164","0.4529977304","","main_expt","0.3657353238","","0.07824920034","","0.3427058888","","","","","","",""
"99","","bandit","240","845463","0.0-202.0-0.0","92952111","wem/bandit_single","A2KG59JUICJLP0","gain","3","","72","H","0","img/none_selected.jpg","0","0","1","0.4472909282","","false","165","0.4472909282","","main_expt","0.3937598932","","0.08439791844","","0.3258967388","","","","","","",""
"148","","bandit","241","847371","0.0-203.0-0.0","92952111","wem/bandit_single","A2KG59JUICJLP0","gain","3","","72","H","0","img/none_selected.jpg","1","0","0","0.4399772256","","false","166","0.4399772256","","main_expt","0.3914196171","","0.05039915739","","0.2704303424","","","","","","",""
"49","","bandit","242","849180","0.0-204.0-0.0","92952111","wem/bandit_single","A2KG59JUICJLP0","gain","3","","72","H","0","img/none_selected.jpg","1","0","0","0.4636729032","","false","167","0.4636729032","","main_expt","0.3919877423","","0.05759530337","","0.3205555932","","","","","","",""
"89","","bandit","243","851028","0.0-205.0-0.0","92952111","wem/bandit_single","A2KG59JUICJLP0","gain","3","","72","H","0","img/none_selected.jpg","1","0","0","0.4437796743","","false","168","0.4437796743","","main_expt","0.3647459683","","0.04992464654","","0.3639109947","","","","","","",""
"78","","bandit","244","852868","0.0-206.0-0.0","92952111","wem/bandit_single","A2KG59JUICJLP0","gain","3","","72","H","0","img/none_selected.jpg","0","0","1","0.456101387","","false","169","0.456101387","","main_expt","0.4058418149","","0.03416660819","","0.3733582142","","","","","","",""
"84","","bandit","245","854712","0.0-207.0-0.0","92952111","wem/bandit_single","A2KG59JUICJLP0","gain","3","","72","H","0","img/none_selected.jpg","1","0","0","0.4571218852","","false","170","0.4571218852","","main_expt","0.3998590153","","0.01917125828","","0.3832331311","","","","","","",""
"44","","bandit","246","856513","0.0-208.0-0.0","92952111","wem/bandit_single","A2KG59JUICJLP0","gain","3","","72","H","0","img/none_selected.jpg","1","0","0","0.445510323","","false","171","0.445510323","","main_expt","0.3887500458","","0.02244253376","","0.3815339887","","","","","","",""
"56","","bandit","247","858327","0.0-209.0-0.0","92952111","wem/bandit_single","A2KG59JUICJLP0","gain","3","","72","H","0","img/none_selected.jpg","0","0","1","0.4280794999","","false","172","0.4280794999","","main_expt","0.4102182378","","0.02619280326","","0.3471775219","","","","","","",""
"60","","bandit","248","860150","0.0-210.0-0.0","92952111","wem/bandit_single","A2KG59JUICJLP0","gain","3","","72","H","0","img/none_selected.jpg","0","0","1","0.4379780546","","false","173","0.4379780546","","main_expt","0.3895773165","","0.0218428458","","0.340289466","","","","","","",""
"33","","bandit","249","861943","0.0-211.0-0.0","92952111","wem/bandit_single","A2KG59JUICJLP0","gain","3","","72","H","0","img/none_selected.jpg","0","0","1","0.4160926905","","false","174","0.4160926905","","main_expt","0.3826402373","","0.02840617367","","0.3280863639","","","","","","",""
"196","","bandit","250","863898","0.0-212.0-0.0","92952111","wem/bandit_single","A2KG59JUICJLP0","gain","3","","72","H","0","img/none_selected.jpg","0","0","1","0.44195178","","false","175","0.44195178","","main_expt","0.38572844","","0.0268928826","","0.3782643392","","","","","","",""
"53","","bandit","251","865710","0.0-213.0-0.0","92952111","wem/bandit_single","A2KG59JUICJLP0","gain","3","","74","J","1","","1","0","0","0.3566605828","","false","176","0.4469840309","","main_expt","0.3566605828","","0.04471375276","","0.3714875018","","","","","","",""
"130","","bandit","252","867597","0.0-214.0-0.0","92952111","wem/bandit_single","A2KG59JUICJLP0","gain","3","","74","J","1","","0","0","1","0.3736379944","","false","177","0.4732589693","","main_expt","0.3736379944","","0.04508647299","","0.3110573775","","","","","","",""
"123","","bandit","253","869479","0.0-215.0-0.0","92952111","wem/bandit_single","A2KG59JUICJLP0","gain","3","","74","J","1","","1","0","0","0.3835263095","","false","178","0.4716065645","","main_expt","0.3835263095","","0.07342594821","","0.3725785744","","","","","","",""
"102","","bandit","254","871340","0.0-216.0-0.0","92952111","wem/bandit_single","A2KG59JUICJLP0","gain","3","","74","J","1","","1","0","0","0.3531759074","","false","179","0.4724187392","","main_expt","0.3531759074","","0.08189943715","","0.4143512522","","","","","","",""
"125","","bandit","255","873223","0.0-217.0-0.0","92952111","wem/bandit_single","A2KG59JUICJLP0","gain","3","","74","J","1","","0","0","1","0.3185705061","","false","180","0.4551908631","","main_expt","0.3185705061","","0.07894611151","","0.4240428135","","","","","","",""
"44","","bandit","256","875024","0.0-218.0-0.0","92952111","wem/bandit_single","A2KG59JUICJLP0","gain","3","","74","J","1","","1","0","0","0.2823592255","","false","181","0.456416976","","main_expt","0.2823592255","","0.06982230443","","0.4394908049","","","","","","",""
"114","","bandit","257","876896","0.0-219.0-0.0","92952111","wem/bandit_single","A2KG59JUICJLP0","gain","3","","74","J","1","","1","0","0","0.2741397005","","false","182","0.4525945541","","main_expt","0.2741397005","","0.06674639092","","0.4180692962","","","","","","",""
"158","","bandit","258","878813","0.0-220.0-0.0","92952111","wem/bandit_single","A2KG59JUICJLP0","gain","3","","74","J","1","","1","0","0","0.2936799338","","false","183","0.4439654651","","main_expt","0.2936799338","","0.04008595334","","0.4468782907","","","","","","",""
"141","","bandit","259","880713","0.0-221.0-0.0","92952111","wem/bandit_single","A2KG59JUICJLP0","gain","3","","74","J","1","","0","0","1","0.3027831177","","false","184","0.4366406792","","main_expt","0.3027831177","","0.04652727321","","0.4489540851","","","","","","",""
"88","","bandit","260","882563","0.0-222.0-0.0","92952111","wem/bandit_single","A2KG59JUICJLP0","gain","3","","74","J","1","","0","0","1","0.3180510168","","false","185","0.4282468188","","main_expt","0.3180510168","","0.05033673313","","0.4669005471","","","","","","",""
"185","","bandit","261","884508","0.0-223.0-0.0","92952111","wem/bandit_single","A2KG59JUICJLP0","gain","3","","74","J","1","","0","0","1","0.3285352945","","false","186","0.4249990568","","main_expt","0.3285352945","","0.03009771755","","0.419417397","","","","","","",""
"124","","bandit","262","886395","0.0-224.0-0.0","92952111","wem/bandit_single","A2KG59JUICJLP0","gain","3","","75","K","2","","0","0","1","0.02601150791","","false","187","0.4159118542","","main_expt","0.3278715557","","0.02601150791","","0.3735271503","","","","","","",""
"137","","bandit","263","888290","0.0-225.0-0.0","92952111","wem/bandit_single","A2KG59JUICJLP0","gain","3","","76","L","3","","0","0","1","0.3339942922","","false","188","0.4294829221","","main_expt","0.3408065186","","0.02389042297","","0.3339942922","","","","","","",""
"124","","bandit","264","890172","0.0-226.0-0.0","92952111","wem/bandit_single","A2KG59JUICJLP0","gain","3","","75","K","2","","0","0","1","0.02303770395","","false","189","0.4183094629","","main_expt","0.3335894225","","0.02303770395","","0.3200911101","","","","","","",""
"166","","bandit","265","892098","0.0-227.0-0.0","92952111","wem/bandit_single","A2KG59JUICJLP0","gain","3","","75","K","2","","0","0","1","0.0156858998","","false","190","0.3769048436","","main_expt","0.2560009578","","0.0156858998","","0.379511296","","","","","","",""
"90","","bandit","266","893946","0.0-228.0-0.0","92952111","wem/bandit_single","A2KG59JUICJLP0","gain","3","","76","L","3","","0","0","1","0.3475909393","","false","191","0.3654839124","","main_expt","0.2422543603","","0.02184200568","","0.3475909393","","","","","","",""
"162","","bandit","267","895867","0.0-229.0-0.0","92952111","wem/bandit_single","A2KG59JUICJLP0","gain","3","","76","L","3","","0","0","1","0.3248483226","","false","192","0.4158526776","","main_expt","0.2479432207","","0.04159540118","","0.3248483226","","","","","","",""
"158","","bandit","268","897783","0.0-230.0-0.0","92952111","wem/bandit_single","A2KG59JUICJLP0","gain","3","","76","L","3","","1","0","0","0.3530355579","","false","193","0.4294001388","","main_expt","0.2198669916","","0.02418359434","","0.3530355579","","","","","","",""
"113","","bandit","269","899652","0.0-231.0-0.0","92952111","wem/bandit_single","A2KG59JUICJLP0","gain","3","","76","L","3","","0","0","1","0.3613612536","","false","194","0.421006879","","main_expt","0.1832858475","","0.03036789999","","0.3613612536","","","","","","",""
"217","","bandit","270","901629","0.0-232.0-0.0","92952111","wem/bandit_single","A2KG59JUICJLP0","gain","3","","76","L","3","","0","0","1","0.3712676973","","false","195","0.3993762185","","main_expt","0.1758973168","","0.0328032794","","0.3712676973","","","","","","",""
"40","","bandit","271","903425","0.0-233.0-0.0","92952111","wem/bandit_single","A2KG59JUICJLP0","gain","3","","72","H","0","img/none_selected.jpg","1","0","0","0.3953591144","","false","196","0.3953591144","","main_expt","0.1472052011","","0.03367124179","","0.3797177139","","","","","","",""
"178","","bandit","272","905360","0.0-234.0-0.0","92952111","wem/bandit_single","A2KG59JUICJLP0","gain","3","","72","H","0","img/none_selected.jpg","1","0","0","0.4186523265","","false","197","0.4186523265","","main_expt","0.09357285733","","0.03515804352","","0.3703437648","","","","","","",""
"34","","bandit","273","907152","0.0-235.0-0.0","92952111","wem/bandit_single","A2KG59JUICJLP0","gain","3","","72","H","0","img/none_selected.jpg","1","0","0","0.4334783576","","false","198","0.4334783576","","main_expt","0.1466532231","","0.0474911349","","0.3269028648","","","","","","",""
"89","","bandit","274","909002","0.0-236.0-0.0","92952111","wem/bandit_single","A2KG59JUICJLP0","gain","3","","72","H","0","img/none_selected.jpg","1","0","0","0.452916177","","false","199","0.452916177","","main_expt","0.1745555733","","0.04758635843","","0.2972028605","","","","","","",""
"63","","bandit","275","910825","0.0-237.0-0.0","92952111","wem/bandit_single","A2KG59JUICJLP0","gain","3","","72","H","0","img/none_selected.jpg","1","0","0","0.4652130485","","false","200","0.4652130485","","main_expt","0.1496088854","","0.06637193447","","0.2548635421","","","","","","",""
"105","","bandit","276","912691","0.0-238.0-0.0","92952111","wem/bandit_single","A2KG59JUICJLP0","gain","3","","72","H","0","img/none_selected.jpg","0","0","1","0.4544628945","","false","201","0.4544628945","","main_expt","0.1144678821","","0.03961336895","","0.2360204523","","","","","","",""
"17","","bandit","277","914467","0.0-239.0-0.0","92952111","wem/bandit_single","A2KG59JUICJLP0","gain","3","","72","H","0","img/none_selected.jpg","0","0","1","0.4346785174","","false","202","0.4346785174","","main_expt","0.08314182588","","0.04217273593","","0.1847208139","","","","","","",""
"189","","bandit","278","916416","0.0-240.0-0.0","92952111","wem/bandit_single","A2KG59JUICJLP0","gain","3","","72","H","0","img/none_selected.jpg","1","0","0","0.4340895374","","false","203","0.4340895374","","main_expt","0.1008304514","","0.03601881868","","0.1740418795","","","","","","",""
"47","","bandit","279","918227","0.0-241.0-0.0","92952111","wem/bandit_single","A2KG59JUICJLP0","gain","3","","72","H","0","img/none_selected.jpg","0","0","1","0.4398780919","","false","204","0.4398780919","","main_expt","0.1170364225","","0.04663301139","","0.1469060572","","","","","","",""
"159","","bandit","280","920145","0.0-242.0-0.0","92952111","wem/bandit_single","A2KG59JUICJLP0","gain","3","","72","H","0","img/none_selected.jpg","0","0","1","0.4001316318","","false","205","0.4001316318","","main_expt","0.1228414706","","0.04643109282","","0.1162446513","","","","","","",""
"62","","bandit","281","921968","0.0-243.0-0.0","92952111","wem/bandit_single","A2KG59JUICJLP0","gain","3","","72","H","0","img/none_selected.jpg","0","0","1","0.4347617828","","false","206","0.4347617828","","main_expt","0.1574749647","","0.06886832812","","0.1289033918","","","","","","",""
"173","","bandit","282","923899","0.0-244.0-0.0","92952111","wem/bandit_single","A2KG59JUICJLP0","gain","3","","72","H","0","img/none_selected.jpg","1","0","0","0.4383015813","","false","207","0.4383015813","","main_expt","0.1922173773","","0.0600143171","","0.1261822501","","","","","","",""
"26","","bandit","283","925684","0.0-245.0-0.0","92952111","wem/bandit_single","A2KG59JUICJLP0","gain","3","","72","H","0","img/none_selected.jpg","1","0","0","0.4038237536","","false","208","0.4038237536","","main_expt","0.1673160211","","0.04637571639","","0.1024795668","","","","","","",""
"6","","bandit","284","927449","0.0-246.0-0.0","92952111","wem/bandit_single","A2KG59JUICJLP0","gain","3","","72","H","0","img/none_selected.jpg","0","0","1","0.3890753365","","false","209","0.3890753365","","main_expt","0.1269527993","","0.04040360689","","0.1129838087","","","","","","",""
"194","","bandit","285","929402","0.0-247.0-0.0","92952111","wem/bandit_single","A2KG59JUICJLP0","gain","3","","72","H","0","img/none_selected.jpg","0","0","1","0.3792373644","","false","210","0.3792373644","","main_expt","0.1114377498","","0.02069644656","","0.1562804612","","","","","","",""
"46","","bandit","286","931210","0.0-248.0-0.0","92952111","wem/bandit_single","A2KG59JUICJLP0","gain","3","","72","H","0","img/none_selected.jpg","0","0","1","0.3780611868","","false","211","0.3780611868","","main_expt","0.1155820846","","0.03173395488","","0.1363837251","","","","","","",""
"81","","bandit","287","933051","0.0-249.0-0.0","92952111","wem/bandit_single","A2KG59JUICJLP0","gain","3","","72","H","0","img/none_selected.jpg","0","0","1","0.3483689532","","false","212","0.3483689532","","main_expt","0.1553323518","","0.02469601981","","0.09358237554","","","","","","",""
"20","","bandit","288","934831","0.0-250.0-0.0","92952111","wem/bandit_single","A2KG59JUICJLP0","gain","3","","72","H","0","img/none_selected.jpg","0","0","1","0.2874103991","","false","213","0.2874103991","","main_expt","0.2062901667","","0.04258417901","","0.05743859841","","","","","","",""
"187","","bandit","289","936778","0.0-251.0-0.0","92952111","wem/bandit_single","A2KG59JUICJLP0","gain","3","","72","H","0","img/none_selected.jpg","0","0","1","0.2620706088","","false","214","0.2620706088","","main_expt","0.2076956631","","0.05493755721","","0.05800100084","","","","","","",""
"164","","bandit","290","938704","0.0-252.0-0.0","92952111","wem/bandit_single","A2KG59JUICJLP0","gain","3","","72","H","0","img/none_selected.jpg","1","0","0","0.2855520155","","false","215","0.2855520155","","main_expt","0.2609492508","","0.08978059799","","0.05413405856","","","","","","",""
"175","","bandit","291","940637","0.0-253.0-0.0","92952111","wem/bandit_single","A2KG59JUICJLP0","gain","3","","72","H","0","img/none_selected.jpg","0","0","1","0.2916786734","","false","216","0.2916786734","","main_expt","0.2500101786","","0.09809121306","","0.03942357166","","","","","","",""
"57","","bandit","292","942453","0.0-254.0-0.0","92952111","wem/bandit_single","A2KG59JUICJLP0","gain","3","","72","H","0","img/none_selected.jpg","0","0","1","0.2823685681","","false","217","0.2823685681","","main_expt","0.2748248586","","0.1427848958","","0.03801572204","","","","","","",""
"110","","bandit","293","944322","0.0-255.0-0.0","92952111","wem/bandit_single","A2KG59JUICJLP0","gain","3","","72","H","0","img/none_selected.jpg","1","0","0","0.2423520158","","false","218","0.2423520158","","main_expt","0.311954441","","0.1570322525","","0.03890441123","","","","","","",""
"90","","bandit","294","946172","0.0-256.0-0.0","92952111","wem/bandit_single","A2KG59JUICJLP0","gain","3","","72","H","0","img/none_selected.jpg","1","0","0","0.2949403562","","false","219","0.2949403562","","main_expt","0.3632760336","","0.1805036953","","0.01887456362","","","","","","",""
"152","","bandit","295","948081","0.0-257.0-0.0","92952111","wem/bandit_single","A2KG59JUICJLP0","gain","3","","72","H","0","img/none_selected.jpg","0","0","1","0.3123592507","","false","220","0.3123592507","","main_expt","0.3369908474","","0.1305519061","","0.02149820142","","","","","","",""
"87","","bandit","296","949927","0.0-258.0-0.0","92952111","wem/bandit_single","A2KG59JUICJLP0","gain","3","","72","H","0","img/none_selected.jpg","0","0","1","0.3184432139","","false","221","0.3184432139","","main_expt","0.3047504054","","0.09039333473","","0.03528878979","","","","","","",""
"1144","","bandit","297","952832","0.0-259.0-0.0","92952111","wem/bandit_single","A2KG59JUICJLP0","gain","3","","74","J","1","","1","0","0","0.3107799438","","false","222","0.3596246423","","main_expt","0.3107799438","","0.0801847008","","0.03906528797","","","","","","",""
"20","","bandit","298","954609","0.0-260.0-0.0","92952111","wem/bandit_single","A2KG59JUICJLP0","gain","3","","74","J","1","","0","0","1","0.3359374044","","false","223","0.3048299186","","main_expt","0.3359374044","","0.08930296305","","0.04285152396","","","","","","",""
"21","","bandit","299","956386","0.0-261.0-0.0","92952111","wem/bandit_single","A2KG59JUICJLP0","gain","3","","74","J","1","","0","0","1","0.354776332","","false","224","0.3097637171","","main_expt","0.354776332","","0.0783544472","","0.03308098724","","","","","","",""
"121","","bandit","300","958269","0.0-262.0-0.0","92952111","wem/bandit_single","A2KG59JUICJLP0","gain","3","","74","J","1","","0","0","1","0.3747964846","","false","225","0.3313621339","","main_expt","0.3747964846","","0.05733223117","","0.03318257961","","","","","","",""
"63","","bandit","301","960094","0.0-263.0-0.0","92952111","wem/bandit_single","A2KG59JUICJLP0","gain","3","","74","J","1","","0","0","1","0.3530330239","","false","226","0.2611013425","","main_expt","0.3530330239","","0.09472546141","","0.02568716964","","","","","","",""
"54","","bandit","302","961910","0.0-264.0-0.0","92952111","wem/bandit_single","A2KG59JUICJLP0","gain","3","","74","J","1","","1","0","0","0.3299445106","","false","227","0.2761398934","","main_expt","0.3299445106","","0.08353253247","","0.03534330031","","","","","","",""
"3","","bandit","303","963674","0.0-265.0-0.0","92952111","wem/bandit_single","A2KG59JUICJLP0","gain","3","","74","J","1","","0","0","1","0.3286020352","","false","228","0.2358148364","","main_expt","0.3286020352","","0.06220105415","","0.03702628412","","","","","","",""
"129","","bandit","304","965566","0.0-266.0-0.0","92952111","wem/bandit_single","A2KG59JUICJLP0","gain","3","","74","J","1","","0","0","1","0.3178943429","","false","229","0.2091128555","","main_expt","0.3178943429","","0.06639782905","","0.03077125553","","","","","","",""
"138","","bandit","305","967463","0.0-267.0-0.0","92952111","wem/bandit_single","A2KG59JUICJLP0","gain","3","","74","J","1","","0","0","1","0.3254915512","","false","230","0.181986641","","main_expt","0.3254915512","","0.07029464087","","0.03752036101","","","","","","",""
"58","","bandit","306","969281","0.0-268.0-0.0","92952111","wem/bandit_single","A2KG59JUICJLP0","gain","3","","75","K","2","","0","0","1","0.07612781315","","false","231","0.1599443191","","main_expt","0.3298497064","","0.07612781315","","0.02736090244","","","","","","",""
"156","","bandit","307","971199","0.0-269.0-0.0","92952111","wem/bandit_single","A2KG59JUICJLP0","gain","3","","75","K","2","","1","0","0","0.04325191911","","false","232","0.125214013","","main_expt","0.300331178","","0.04325191911","","0.02154887034","","","","","","",""
"36","","bandit","308","972996","0.0-270.0-0.0","92952111","wem/bandit_single","A2KG59JUICJLP0","gain","3","","75","K","2","","0","0","1","0.04039924652","","false","233","0.134118517","","main_expt","0.3357562734","","0.04039924652","","0.0228348974","","","","","","",""
"119","","bandit","309","974872","0.0-271.0-0.0","92952111","wem/bandit_single","A2KG59JUICJLP0","gain","3","","75","K","2","","0","0","1","0.0435796211","","false","234","0.1238594142","","main_expt","0.3257461803","","0.0435796211","","0.01030782054","","","","","","",""
"137","","bandit","310","976770","0.0-272.0-0.0","92952111","wem/bandit_single","A2KG59JUICJLP0","gain","3","","76","L","3","","0","0","1","0.02615737471","","false","235","0.1141846942","","main_expt","0.3534766227","","0.02315237623","","0.02615737471","","","","","","",""
"87","","bandit","311","978620","0.0-273.0-0.0","92952111","wem/bandit_single","A2KG59JUICJLP0","gain","3","","76","L","3","","0","0","1","0.0224272094","","false","236","0.1101280349","","main_expt","0.3733068719","","0.02010779399","","0.0224272094","","","","","","",""
"330","","bandit","312","980708","0.0-274.0-0.0","92952111","wem/bandit_single","A2KG59JUICJLP0","gain","3","","72","H","0","img/none_selected.jpg","0","0","1","0.09079266978","","false","237","0.09079266978","","main_expt","0.4105295152","","0.01796146932","","0.02679999918","","","","","","",""
"16","","bandit","313","982484","0.0-275.0-0.0","92952111","wem/bandit_single","A2KG59JUICJLP0","gain","3","","72","H","0","img/none_selected.jpg","0","0","1","0.1365862295","","false","238","0.1365862295","","main_expt","0.4225156592","","0.0167141813","","0.07542988795","","","","","","",""
"214","","bandit","314","984456","0.0-276.0-0.0","92952111","wem/bandit_single","A2KG59JUICJLP0","gain","3","","72","H","0","img/none_selected.jpg","0","0","1","0.1846819155","","false","239","0.1846819155","","main_expt","0.4360895212","","0.03283355296","","0.09772903","","","","","","",""
"67","","bandit","315","986283","0.0-277.0-0.0","92952111","wem/bandit_single","A2KG59JUICJLP0","gain","3","","74","J","1","","0","0","1","0.423514393","","false","240","0.1795044078","","main_expt","0.423514393","","0.05325110434","","0.1044145256","","","","","","",""
"155","","bandit","316","988199","0.0-278.0-0.0","92952111","wem/bandit_single","A2KG59JUICJLP0","gain","3","","74","J","1","","1","0","0","0.3824942702","","false","241","0.1522343712","","main_expt","0.3824942702","","0.04551940083","","0.109937241","","","","","","",""
"162","","bandit","317","990119","0.0-279.0-0.0","92952111","wem/bandit_single","A2KG59JUICJLP0","gain","3","","74","J","1","","1","0","0","0.3758562762","","false","242","0.1433696576","","main_expt","0.3758562762","","0.05503183359","","0.09239004846","","","","","","",""
"195","","bandit","318","992076","0.0-280.0-0.0","92952111","wem/bandit_single","A2KG59JUICJLP0","gain","3","","74","J","1","","0","0","1","0.2984655584","","false","243","0.1427577162","","main_expt","0.2984655584","","0.04467871076","","0.1014218366","","","","","","",""
"63","","bandit","319","993897","0.0-281.0-0.0","92952111","wem/bandit_single","A2KG59JUICJLP0","gain","3","","74","J","1","","0","0","1","0.2901672904","","false","244","0.1340795621","","main_expt","0.2901672904","","0.06552455376","","0.192841162","","","","","","",""
"70","","bandit","320","995731","0.0-282.0-0.0","92952111","wem/bandit_single","A2KG59JUICJLP0","gain","3","","74","J","1","","0","0","1","0.2495050599","","false","245","0.1469719784","","main_expt","0.2495050599","","0.1005127954","","0.1953250812","","","","","","",""
"169","","bandit","321","997661","0.0-283.0-0.0","92952111","wem/bandit_single","A2KG59JUICJLP0","gain","3","","74","J","1","","0","0","1","0.2406773486","","false","246","0.140914489","","main_expt","0.2406773486","","0.11534406","","0.1865380945","","","","","","",""
"7","","bandit","322","999429","0.0-284.0-0.0","92952111","wem/bandit_single","A2KG59JUICJLP0","gain","3","","75","K","2","","0","0","1","0.08579934652","","false","247","0.1592666071","","main_expt","0.2265306157","","0.08579934652","","0.221100819","","","","","","",""
"52","","bandit","323","1001245","0.0-285.0-0.0","92952111","wem/bandit_single","A2KG59JUICJLP0","gain","3","","75","K","2","","0","0","1","0.08554071629","","false","248","0.2210893918","","main_expt","0.2000380921","","0.08554071629","","0.2106100544","","","","","","",""
"49","","bandit","324","1003056","0.0-286.0-0.0","92952111","wem/bandit_single","A2KG59JUICJLP0","gain","3","","75","K","2","","0","0","1","0.07137080198","","false","249","0.2306666851","","main_expt","0.1920984986","","0.07137080198","","0.2172535859","","","","","","",""
"141","","bandit","325","1004959","0.0-287.0-0.0","92952111","wem/bandit_single","A2KG59JUICJLP0","gain","3","","76","L","3","","0","0","1","0.1953648199","","false","250","0.2422322172","","main_expt","0.1624135027","","0.06874505311","","0.1953648199","","","","","","",""
"99","","bandit","326","1006817","0.0-288.0-0.0","92952111","wem/bandit_single","A2KG59JUICJLP0","gain","3","","76","L","3","","0","0","1","0.2129795833","","false","251","0.2425189851","","main_expt","0.2057369507","","0.04927492375","","0.2129795833","","","","","","",""
"101","","bandit","327","1008680","0.0-289.0-0.0","92952111","wem/bandit_single","A2KG59JUICJLP0","gain","3","","76","L","3","","0","0","1","0.2271134102","","false","252","0.1980379423","","main_expt","0.26034901","","0.0504542679","","0.2271134102","","","","","","",""
"9","","bandit","328","1010447","0.0-290.0-0.0","92952111","wem/bandit_single","A2KG59JUICJLP0","gain","3","","72","H","0","img/none_selected.jpg","0","0","1","0.2040952335","","false","253","0.2040952335","","main_expt","0.1886300366","","0.0313618618","","0.2152809257","","","","","","",""
"98","","bandit","329","1012307","0.0-291.0-0.0","92952111","wem/bandit_single","A2KG59JUICJLP0","gain","3","","72","H","0","img/none_selected.jpg","1","0","0","0.1621407843","","false","254","0.1621407843","","main_expt","0.1978078828","","0.0191685034","","0.2065685424","","","","","","",""
"160","","bandit","330","1014229","0.0-292.0-0.0","92952111","wem/bandit_single","A2KG59JUICJLP0","gain","3","","72","H","0","img/none_selected.jpg","1","0","0","0.1817956319","","false","255","0.1817956319","","main_expt","0.1544468143","","0.01882474885","","0.2000715388","","","","","","",""
"130","","bandit","331","1016118","0.0-293.0-0.0","92952111","wem/bandit_single","A2KG59JUICJLP0","gain","3","","72","H","0","img/none_selected.jpg","0","0","1","0.1796151025","","false","256","0.1796151025","","main_expt","0.1552120094","","0.01765542058","","0.1997851389","","","","","","",""
"36","","bandit","332","1017914","0.0-294.0-0.0","92952111","wem/bandit_single","A2KG59JUICJLP0","gain","3","","72","H","0","img/none_selected.jpg","0","0","1","0.1874922979","","false","257","0.1874922979","","main_expt","0.1337291471","","0.0162265086","","0.1965173465","","","","","","",""
"34","","bandit","333","1019707","0.0-295.0-0.0","92952111","wem/bandit_single","A2KG59JUICJLP0","gain","3","","72","H","0","img/none_selected.jpg","1","0","0","0.2152410464","","false","258","0.2152410464","","main_expt","0.1279332347","","0.01630278654","","0.1816932188","","","","","","",""
"37","","bandit","334","1021507","0.0-296.0-0.0","92952111","wem/bandit_single","A2KG59JUICJLP0","gain","3","","72","H","0","img/none_selected.jpg","0","0","1","0.2311433436","","false","259","0.2311433436","","main_expt","0.152418206","","0.0149919991","","0.2275026539","","","","","","",""
"154","","bandit","335","1023422","0.0-297.0-0.0","92952111","wem/bandit_single","A2KG59JUICJLP0","gain","3","","72","H","0","img/none_selected.jpg","1","0","0","0.1621257941","","false","260","0.1621257941","","main_expt","0.1100328583","","0.02225913397","","0.1798156178","","","","","","",""
"111","","bandit","336","1025294","0.0-298.0-0.0","92952111","wem/bandit_single","A2KG59JUICJLP0","gain","3","","72","H","0","img/none_selected.jpg","0","0","1","0.1219102136","","false","261","0.1219102136","","main_expt","0.1537012171","","0.02865634389","","0.187122726","","","","","","",""
"175","","bandit","337","1027228","0.0-299.0-0.0","92952111","wem/bandit_single","A2KG59JUICJLP0","gain","3","","72","H","0","img/none_selected.jpg","0","0","1","0.1667536199","","false","262","0.1667536199","","main_expt","0.1302597035","","0.03173788073","","0.1507521212","","","","","","",""
"111","","bandit","338","1029100","0.0-300.0-0.0","92952111","wem/bandit_single","A2KG59JUICJLP0","gain","3","","74","J","1","","0","0","1","0.1297736826","","false","263","0.1361259709","","main_expt","0.1297736826","","0.04250990858","","0.1374951011","","","","","","",""
"55","","bandit","339","1030917","0.0-301.0-0.0","92952111","wem/bandit_single","A2KG59JUICJLP0","gain","3","","74","J","1","","0","0","1","0.1326654045","","false","264","0.1217381733","","main_expt","0.1326654045","","0.056503948","","0.1158818852","","","","","","",""
"175","","bandit","340","1032855","0.0-302.0-0.0","92952111","wem/bandit_single","A2KG59JUICJLP0","gain","3","","74","J","1","","0","0","1","0.1586413096","","false","265","0.1258265959","","main_expt","0.1586413096","","0.07592662832","","0.1147359408","","","","","","",""
"131","","bandit","341","1034745","0.0-303.0-0.0","92952111","wem/bandit_single","A2KG59JUICJLP0","gain","3","","74","J","1","","0","0","1","0.1496521415","","false","266","0.1445769791","","main_expt","0.1496521415","","0.1002340293","","0.09491002089","","","","","","",""
"57","","bandit","342","1036564","0.0-304.0-0.0","92952111","wem/bandit_single","A2KG59JUICJLP0","gain","3","","74","J","1","","0","0","1","0.1410052581","","false","267","0.1014120844","","main_expt","0.1410052581","","0.1526998269","","0.1181284109","","","","","","",""
"100","","bandit","343","1038422","0.0-305.0-0.0","92952111","wem/bandit_single","A2KG59JUICJLP0","gain","3","","74","J","1","","0","0","1","0.145208313","","false","268","0.06386630904","","main_expt","0.145208313","","0.1340815566","","0.1054434992","","","","","","",""
"114","","bandit","344","1040294","0.0-306.0-0.0","92952111","wem/bandit_single","A2KG59JUICJLP0","gain","3","","74","J","1","","0","0","1","0.1387339362","","false","269","0.03725778621","","main_expt","0.1387339362","","0.1350059692","","0.1307900039","","","","","","",""
"14","","bandit","345","1042068","0.0-307.0-0.0","92952111","wem/bandit_single","A2KG59JUICJLP0","gain","3","","74","J","1","","0","0","1","0.1822325734","","false","270","0.02825676517","","main_expt","0.1822325734","","0.1008257698","","0.1444746669","","","","","","",""
"78","","bandit","346","1043906","0.0-308.0-0.0","92952111","wem/bandit_single","A2KG59JUICJLP0","gain","3","","75","K","2","","1","0","0","0.1257425884","","false","271","0.02967844624","","main_expt","0.1752825828","","0.1257425884","","0.1622504114","","","","","","",""
"96","","bandit","347","1045764","0.0-309.0-0.0","92952111","wem/bandit_single","A2KG59JUICJLP0","gain","3","","75","K","2","","0","0","1","0.1363444874","","false","272","0.03051557875","","main_expt","0.1572277832","","0.1363444874","","0.1814673171","","","","","","",""
"253","","bandit","348","1047776","0.0-310.0-0.0","92952111","wem/bandit_single","A2KG59JUICJLP0","gain","3","","75","K","2","","1","0","0","0.1090842693","","false","273","0.0408401102","","main_expt","0.1609880977","","0.1090842693","","0.1930303076","","","","","","",""
"161","","bandit","349","1049700","0.0-311.0-0.0","92952111","wem/bandit_single","A2KG59JUICJLP0","gain","3","","75","K","2","","1","0","0","0.1397265487","","false","274","0.03240614182","","main_expt","0.2228580822","","0.1397265487","","0.1704680895","","","","","","",""
"183","","bandit","350","1051643","0.0-312.0-0.0","92952111","wem/bandit_single","A2KG59JUICJLP0","gain","3","","75","K","2","","1","0","0","0.210641606","","false","275","0.04120982645","","main_expt","0.2126640298","","0.210641606","","0.1785534293","","","","","","",""
"48","","bandit","351","1053454","0.0-313.0-0.0","92952111","wem/bandit_single","A2KG59JUICJLP0","gain","3","","75","K","2","","0","0","1","0.1523626192","","false","276","0.04353307789","","main_expt","0.2006548762","","0.1523626192","","0.1843971019","","","","","","",""
"39","","bandit","352","1055262","0.0-314.0-0.0","92952111","wem/bandit_single","A2KG59JUICJLP0","gain","3","","75","K","2","","0","0","1","0.16102954","","false","277","0.0172565486","","main_expt","0.1986275587","","0.16102954","","0.2042268453","","","","","","",""
"106","","bandit","353","1057128","0.0-315.0-0.0","92952111","wem/bandit_single","A2KG59JUICJLP0","gain","3","","75","K","2","","0","0","1","0.1166001048","","false","278","0.02582715814","","main_expt","0.1321506531","","0.1166001048","","0.1609113936","","","","","","",""
"137","","bandit","354","1059025","0.0-316.0-0.0","92952111","wem/bandit_single","A2KG59JUICJLP0","gain","3","","75","K","2","","0","0","1","0.1427402012","","false","279","0.03609925784","","main_expt","0.2112193978","","0.1427402012","","0.1604878733","","","","","","",""
"172","","bandit","355","1060957","0.0-317.0-0.0","92952111","wem/bandit_single","A2KG59JUICJLP0","gain","3","","75","K","2","","0","0","1","0.1524149458","","false","280","0.02629944548","","main_expt","0.1872216356","","0.1524149458","","0.1678567182","","","","","","",""
"61","","bandit","356","1062779","0.0-318.0-0.0","92952111","wem/bandit_single","A2KG59JUICJLP0","gain","3","","75","K","2","","1","0","0","0.1638207856","","false","281","0.01890368782","","main_expt","0.1635487084","","0.1638207856","","0.1338700362","","","","","","",""
"88","","bandit","357","1064628","0.0-319.0-0.0","92952111","wem/bandit_single","A2KG59JUICJLP0","gain","3","","75","K","2","","0","0","1","0.1055747009","","false","282","0.01508823693","","main_expt","0.1576359327","","0.1055747009","","0.2010661714","","","","","","",""
"126","","bandit","358","1066514","0.0-320.0-0.0","92952111","wem/bandit_single","A2KG59JUICJLP0","gain","3","","75","K","2","","0","0","1","0.1121395768","","false","283","0.01359220223","","main_expt","0.21861051","","0.1121395768","","0.1763159594","","","","","","",""
"54","","bandit","359","1068330","0.0-321.0-0.0","92952111","wem/bandit_single","A2KG59JUICJLP0","gain","3","","76","L","3","","0","0","1","0.2379754842","","false","284","0.01691173417","","main_expt","0.180487154","","0.1110051372","","0.2379754842","","","","","","",""
"153","","bandit","360","1070240","0.0-322.0-0.0","92952111","wem/bandit_single","A2KG59JUICJLP0","gain","3","","76","L","3","","0","0","1","0.2769670592","","false","285","0.01734240677","","main_expt","0.1641106304","","0.1746572204","","0.2769670592","","","","","","",""
"359","","bandit","361","1072361","0.0-323.0-0.0","92952111","wem/bandit_single","A2KG59JUICJLP0","gain","3","","75","K","2","","0","0","1","0.2038956484","","false","286","0.01574531315","","main_expt","0.1866508097","","0.2038956484","","0.3002963297","","","","","","",""
"111","","bandit","362","1074232","0.0-324.0-0.0","92952111","wem/bandit_single","A2KG59JUICJLP0","gain","3","","75","K","2","","1","0","0","0.2396876396","","false","287","0.011703364","","main_expt","0.1339791425","","0.2396876396","","0.2804215723","","","","","","",""
"140","","bandit","363","1076131","0.0-325.0-0.0","92952111","wem/bandit_single","A2KG59JUICJLP0","gain","3","","74","J","1","","0","0","1","0.1910191906","","false","288","0.01499165326","","main_expt","0.1910191906","","0.2300823482","","0.2873948651","","","","","","",""
"47","","bandit","364","1077937","0.0-326.0-0.0","92952111","wem/bandit_single","A2KG59JUICJLP0","gain","3","","75","K","2","","1","0","0","0.2697946193","","false","289","0.01307353483","","main_expt","0.1987886011","","0.2697946193","","0.3383825142","","","","","","",""
"111","","bandit","365","1079808","0.0-327.0-0.0","92952111","wem/bandit_single","A2KG59JUICJLP0","gain","3","","75","K","2","","0","0","1","0.3030113395","","false","290","0.005839555229","","main_expt","0.2163493667","","0.3030113395","","0.3597664772","","","","","","",""
"9","","bandit","366","1081578","0.0-328.0-0.0","92952111","wem/bandit_single","A2KG59JUICJLP0","gain","3","","75","K","2","","1","0","0","0.2903670118","","false","291","0.00760433752","","main_expt","0.1987756658","","0.2903670118","","0.3684517111","","","","","","",""
"206","","bandit","367","1083546","0.0-329.0-0.0","92952111","wem/bandit_single","A2KG59JUICJLP0","gain","3","","75","K","2","","0","0","1","0.3219279298","","false","292","0.01807310376","","main_expt","0.1996771378","","0.3219279298","","0.3471931258","","","","","","",""
"85","","bandit","368","1085394","0.0-330.0-0.0","92952111","wem/bandit_single","A2KG59JUICJLP0","gain","3","","75","K","2","","0","0","1","0.2585416619","","false","293","0.02882206876","","main_expt","0.2067525645","","0.2585416619","","0.3742872252","","","","","","",""
"81","","bandit","369","1087235","0.0-331.0-0.0","92952111","wem/bandit_single","A2KG59JUICJLP0","gain","3","","75","K","2","","0","0","1","0.3093607287","","false","294","0.02728804169","","main_expt","0.230585761","","0.3093607287","","0.3937541296","","","","","","",""
"118","","bandit","370","1089110","0.0-332.0-0.0","92952111","wem/bandit_single","A2KG59JUICJLP0","gain","3","","75","K","2","","0","0","1","0.315069057","","false","295","0.01545304162","","main_expt","0.1936278336","","0.315069057","","0.3331550888","","","","","","",""
"115","","bandit","371","1090988","0.0-333.0-0.0","92952111","wem/bandit_single","A2KG59JUICJLP0","gain","3","","75","K","2","","1","0","0","0.3556215031","","false","296","0.01463146341","","main_expt","0.1733248866","","0.3556215031","","0.3564327955","","","","","","",""
