"rt","responses","trial_type","trial_index","time_elapsed","internal_node_id","subjID","study","MID","cond","drift","key_press","respCharCode","respKey","respChoiceNum","respChoice","gems","bombs","no_reward","GemPrChosen","BombPrChosen","practice","trial_counter","WinPr_0","LosePr_0","trial_label","WinPr_1","LosePr_1","WinPr_2","LosePr_2","WinPr_3","LosePr_3","Q0","Q1","Q2","gender","age","ethnicity"
"14738","{""Q0"":""A3L0DCUXI7X3A9""}","survey-text","0","14753","0.0-0.0","93577392","wem/bandit_single","A3L0DCUXI7X3A9","gain","3","","","","","","","","","","","","","","","","","","","","","","","","","","",""
"3040","","text","1","18800","0.0-1.0","93577392","wem/bandit_single","A3L0DCUXI7X3A9","gain","3","32","","","","","","","","","","","","","","","","","","","","","","","","","",""
"28749","","text","2","47559","0.0-2.0","93577392","wem/bandit_single","A3L0DCUXI7X3A9","gain","3","32","","","","","","","","","","","","","","","","","","","","","","","","","",""
"31405","","text","3","78964","0.0-3.0","93577392","wem/bandit_single","A3L0DCUXI7X3A9","gain","3","32","","","","","","","","","","","","","","","","","","","","","","","","","",""
"4203","","text","4","83167","0.0-4.0","93577392","wem/bandit_single","A3L0DCUXI7X3A9","gain","3","32","","","","","","","","","","","","","","","","","","","","","","","","","",""
"44681","","text","5","127858","0.0-5.0","93577392","wem/bandit_single","A3L0DCUXI7X3A9","gain","3","32","","","","","","","","","","","","","","","","","","","","","","","","","",""
"3177","","text","6","131035","0.0-6.0","93577392","wem/bandit_single","A3L0DCUXI7X3A9","gain","3","32","","","","","","","","","","","","","","","","","","","","","","","","","",""
"3612","","text","7","134647","0.0-7.0","93577392","wem/bandit_single","A3L0DCUXI7X3A9","gain","3","32","","","","","","","","","","","","","","","","","","","","","","","","","",""
"3189","","text","8","137836","0.0-8.0","93577392","wem/bandit_single","A3L0DCUXI7X3A9","gain","3","32","","","","","","","","","","","","","","","","","","","","","","","","","",""
"2826","","text","9","140662","0.0-9.0","93577392","wem/bandit_single","A3L0DCUXI7X3A9","gain","3","32","","","","","","","","","","","","","","","","","","","","","","","","","",""
"67441","","text","10","208113","0.0-10.0","93577392","wem/bandit_single","A3L0DCUXI7X3A9","gain","3","32","","","","","","","","","","","","","","","","","","","","","","","","","",""
"7077","","text","11","215190","0.0-11.0","93577392","wem/bandit_single","A3L0DCUXI7X3A9","gain","3","32","","","","","","","","","","","","","","","","","","","","","","","","","",""
"1209","","bandit","12","217928","0.0-12.0-0.0","93577392","wem/bandit_single","A3L0DCUXI7X3A9","gain","3","","74","J","0","img/none_selected_demo.jpg","0","0","1","0","0","true","0","0","0","","","","","","","","","","","","",""
"600","","bandit","13","220285","0.0-13.0-0.0","93577392","wem/bandit_single","A3L0DCUXI7X3A9","gain","3","","75","K","0","img/none_selected_demo.jpg","0","0","1","0","0","true","0","0","0","","","","","","","","","","","","",""
"4580","","text","14","225122","0.0-14.0","93577392","wem/bandit_single","A3L0DCUXI7X3A9","gain","3","32","","","","","","","","","","","","","","","","","","","","","","","","","",""
"1344","","text","15","226466","0.0-15.0","93577392","wem/bandit_single","A3L0DCUXI7X3A9","gain","3","32","","","","","","","","","","","","","","","","","","","","","","","","","",""
"50281","","text","16","276747","0.0-16.0","93577392","wem/bandit_single","A3L0DCUXI7X3A9","gain","3","32","","","","","","","","","","","","","","","","","","","","","","","","","",""
"3523","","text","17","280280","0.0-17.0","93577392","wem/bandit_single","A3L0DCUXI7X3A9","gain","3","32","","","","","","","","","","","","","","","","","","","","","","","","","",""
"1501","","bandit","18","283282","0.0-18.0-0.0","93577392","wem/bandit_single","A3L0DCUXI7X3A9","gain","3","","74","J","0","img/none_selected_demo.jpg","0","0","1","0.8","0","true","0","0.8","0","80_20_practice","0.2","0","","","","","","","","","",""
"791","","bandit","19","285833","0.0-18.0-1.0","93577392","wem/bandit_single","A3L0DCUXI7X3A9","gain","3","","75","K","1","","0","0","1","0.2","0","true","0","0.8","0","80_20_practice","0.2","0","","","","","","","","","",""
"1182","","bandit","20","288774","0.0-18.0-2.0","93577392","wem/bandit_single","A3L0DCUXI7X3A9","gain","3","","74","J","0","img/none_selected_demo.jpg","1","0","0","0.8","0","true","0","0.8","0","80_20_practice","0.2","0","","","","","","","","","",""
"702","","bandit","21","291235","0.0-18.0-3.0","93577392","wem/bandit_single","A3L0DCUXI7X3A9","gain","3","","74","J","0","img/none_selected_demo.jpg","0","0","1","0.8","0","true","0","0.8","0","80_20_practice","0.2","0","","","","","","","","","",""
"273","","bandit","22","293266","0.0-18.0-4.0","93577392","wem/bandit_single","A3L0DCUXI7X3A9","gain","3","","74","J","0","img/none_selected_demo.jpg","1","0","0","0.8","0","true","0","0.8","0","80_20_practice","0.2","0","","","","","","","","","",""
"368","","bandit","23","295391","0.0-18.0-5.0","93577392","wem/bandit_single","A3L0DCUXI7X3A9","gain","3","","74","J","0","img/none_selected_demo.jpg","1","0","0","0.8","0","true","0","0.8","0","80_20_practice","0.2","0","","","","","","","","","",""
"234","","bandit","24","297383","0.0-18.0-6.0","93577392","wem/bandit_single","A3L0DCUXI7X3A9","gain","3","","75","K","1","","0","0","1","0.2","0","true","0","0.8","0","80_20_practice","0.2","0","","","","","","","","","",""
"124","","bandit","25","299263","0.0-18.0-7.0","93577392","wem/bandit_single","A3L0DCUXI7X3A9","gain","3","","74","J","0","img/none_selected_demo.jpg","1","0","0","0.8","0","true","0","0.8","0","80_20_practice","0.2","0","","","","","","","","","",""
"389","","bandit","26","301408","0.0-18.0-8.0","93577392","wem/bandit_single","A3L0DCUXI7X3A9","gain","3","","74","J","0","img/none_selected_demo.jpg","1","0","0","0.8","0","true","0","0.8","0","80_20_practice","0.2","0","","","","","","","","","",""
"752","","bandit","27","303916","0.0-18.0-9.0","93577392","wem/bandit_single","A3L0DCUXI7X3A9","gain","3","","74","J","0","img/none_selected_demo.jpg","1","0","0","0.8","0","true","0","0.8","0","80_20_practice","0.2","0","","","","","","","","","",""
"648","","bandit","28","306320","0.0-18.0-10.0","93577392","wem/bandit_single","A3L0DCUXI7X3A9","gain","3","","74","J","0","img/none_selected_demo.jpg","1","0","0","0.8","0","true","0","0.8","0","80_20_practice","0.2","0","","","","","","","","","",""
"665","","bandit","29","308743","0.0-18.0-11.0","93577392","wem/bandit_single","A3L0DCUXI7X3A9","gain","3","","74","J","0","img/none_selected_demo.jpg","1","0","0","0.8","0","true","0","0.8","0","80_20_practice","0.2","0","","","","","","","","","",""
"3196","","bandit","30","313696","0.0-18.0-12.0","93577392","wem/bandit_single","A3L0DCUXI7X3A9","gain","3","","74","J","0","img/none_selected_demo.jpg","1","0","0","0.8","0","true","0","0.8","0","80_20_practice","0.2","0","","","","","","","","","",""
"829","","bandit","31","316283","0.0-18.0-13.0","93577392","wem/bandit_single","A3L0DCUXI7X3A9","gain","3","","74","J","0","img/none_selected_demo.jpg","1","0","0","0.8","0","true","0","0.8","0","80_20_practice","0.2","0","","","","","","","","","",""
"695","","bandit","32","318734","0.0-18.0-14.0","93577392","wem/bandit_single","A3L0DCUXI7X3A9","gain","3","","74","J","0","img/none_selected_demo.jpg","1","0","0","0.8","0","true","0","0.8","0","80_20_practice","0.2","0","","","","","","","","","",""
"423","","bandit","33","320914","0.0-18.0-15.0","93577392","wem/bandit_single","A3L0DCUXI7X3A9","gain","3","","74","J","0","img/none_selected_demo.jpg","0","0","1","0.8","0","true","0","0.8","0","80_20_practice","0.2","0","","","","","","","","","",""
"1515","","bandit","34","324186","0.0-18.0-16.0","93577392","wem/bandit_single","A3L0DCUXI7X3A9","gain","3","","74","J","0","img/none_selected_demo.jpg","1","0","0","0.8","0","true","0","0.8","0","80_20_practice","0.2","0","","","","","","","","","",""
"744","","bandit","35","326690","0.0-18.0-17.0","93577392","wem/bandit_single","A3L0DCUXI7X3A9","gain","3","","74","J","0","img/none_selected_demo.jpg","1","0","0","0.8","0","true","0","0.8","0","80_20_practice","0.2","0","","","","","","","","","",""
"943","","bandit","36","329390","0.0-18.0-18.0","93577392","wem/bandit_single","A3L0DCUXI7X3A9","gain","3","","74","J","0","img/none_selected_demo.jpg","1","0","0","0.8","0","true","0","0.8","0","80_20_practice","0.2","0","","","","","","","","","",""
"4646","","bandit","37","335793","0.0-18.0-19.0","93577392","wem/bandit_single","A3L0DCUXI7X3A9","gain","3","","74","J","0","img/none_selected_demo.jpg","1","0","0","0.8","0","true","0","0.8","0","80_20_practice","0.2","0","","","","","","","","","",""
"7516","","text","38","343564","0.0-19.0","93577392","wem/bandit_single","A3L0DCUXI7X3A9","gain","3","32","","","","","","","","","","","","","","","","","","","","","","","","","",""
"3096","","bandit","39","348166","0.0-20.0-0.0","93577392","wem/bandit_single","A3L0DCUXI7X3A9","gain","3","","74","J","0","img/none_selected_demo.jpg","0","0","1","0","0","true","0","0","0","","0","0","","","","","","","","","",""
"43220","","text","40","391640","0.0-21.0","93577392","wem/bandit_single","A3L0DCUXI7X3A9","gain","3","32","","","","","","","","","","","","","","","","","","","","","","","","","",""
"46261","","text","41","437904","0.0-22.0","93577392","wem/bandit_single","A3L0DCUXI7X3A9","gain","3","32","","","","","","","","","","","","","","","","","","","","","","","","","",""
"3277","","text","42","441184","0.0-23.0","93577392","wem/bandit_single","A3L0DCUXI7X3A9","gain","3","32","","","","","","","","","","","","","","","","","","","","","","","","","",""
"2509","","text","43","443696","0.0-24.0","93577392","wem/bandit_single","A3L0DCUXI7X3A9","gain","3","32","","","","","","","","","","","","","","","","","","","","","","","","","",""
"39699","","text","44","483400","0.0-25.0","93577392","wem/bandit_single","A3L0DCUXI7X3A9","gain","3","32","","","","","","","","","","","","","","","","","","","","","","","","","",""
"2563","","text","45","485966","0.0-26.0","93577392","wem/bandit_single","A3L0DCUXI7X3A9","gain","3","32","","","","","","","","","","","","","","","","","","","","","","","","","",""
"3280","","text","46","489249","0.0-27.0","93577392","wem/bandit_single","A3L0DCUXI7X3A9","gain","3","32","","","","","","","","","","","","","","","","","","","","","","","","","",""
"48","","text","47","489300","0.0-28.0","93577392","wem/bandit_single","A3L0DCUXI7X3A9","gain","3","32","","","","","","","","","","","","","","","","","","","","","","","","","",""
"3599","","text","48","492904","0.0-29.0","93577392","wem/bandit_single","A3L0DCUXI7X3A9","gain","3","32","","","","","","","","","","","","","","","","","","","","","","","","","",""
"84","","text","49","492991","0.0-30.0","93577392","wem/bandit_single","A3L0DCUXI7X3A9","gain","3","32","","","","","","","","","","","","","","","","","","","","","","","","","",""
"87456","","text","50","580450","0.0-31.0","93577392","wem/bandit_single","A3L0DCUXI7X3A9","gain","3","32","","","","","","","","","","","","","","","","","","","","","","","","","",""
"1019","","bandit","51","582975","0.0-32.0-0.0","93577392","wem/bandit_single","A3L0DCUXI7X3A9","gain","3","","72","H","0","img/none_selected.jpg","1","0","0","0.8","0","true","0","0.8","0","full_practice","0.2","0","0.6","0","0.2","0","","","","","",""
"178","","bandit","52","584909","0.0-32.0-1.0","93577392","wem/bandit_single","A3L0DCUXI7X3A9","gain","3","","74","J","1","","0","0","1","0.2","0","true","0","0.8","0","full_practice","0.2","0","0.6","0","0.2","0","","","","","",""
"174","","bandit","53","586843","0.0-32.0-2.0","93577392","wem/bandit_single","A3L0DCUXI7X3A9","gain","3","","75","K","2","","0","0","1","0.6","0","true","0","0.8","0","full_practice","0.2","0","0.6","0","0.2","0","","","","","",""
"108","","bandit","54","588708","0.0-32.0-3.0","93577392","wem/bandit_single","A3L0DCUXI7X3A9","gain","3","","76","L","3","","0","0","1","0.2","0","true","0","0.8","0","full_practice","0.2","0","0.6","0","0.2","0","","","","","",""
"128","","bandit","55","590592","0.0-32.0-4.0","93577392","wem/bandit_single","A3L0DCUXI7X3A9","gain","3","","72","H","0","img/none_selected.jpg","0","0","1","0.8","0","true","0","0.8","0","full_practice","0.2","0","0.6","0","0.2","0","","","","","",""
"350","","bandit","56","592700","0.0-32.0-5.0","93577392","wem/bandit_single","A3L0DCUXI7X3A9","gain","3","","72","H","0","img/none_selected.jpg","1","0","0","0.8","0","true","0","0.8","0","full_practice","0.2","0","0.6","0","0.2","0","","","","","",""
"667","","bandit","57","595128","0.0-32.0-6.0","93577392","wem/bandit_single","A3L0DCUXI7X3A9","gain","3","","72","H","0","img/none_selected.jpg","1","0","0","0.8","0","true","0","0.8","0","full_practice","0.2","0","0.6","0","0.2","0","","","","","",""
"536","","bandit","58","597422","0.0-32.0-7.0","93577392","wem/bandit_single","A3L0DCUXI7X3A9","gain","3","","72","H","0","img/none_selected.jpg","1","0","0","0.8","0","true","0","0.8","0","full_practice","0.2","0","0.6","0","0.2","0","","","","","",""
"826","","bandit","59","600005","0.0-32.0-8.0","93577392","wem/bandit_single","A3L0DCUXI7X3A9","gain","3","","72","H","0","img/none_selected.jpg","1","0","0","0.8","0","true","0","0.8","0","full_practice","0.2","0","0.6","0","0.2","0","","","","","",""
"2783","","bandit","60","604545","0.0-32.0-9.0","93577392","wem/bandit_single","A3L0DCUXI7X3A9","gain","3","","72","H","0","img/none_selected.jpg","0","0","1","0.8","0","true","0","0.8","0","full_practice","0.2","0","0.6","0","0.2","0","","","","","",""
"192","","bandit","61","606497","0.0-32.0-10.0","93577392","wem/bandit_single","A3L0DCUXI7X3A9","gain","3","","72","H","0","img/none_selected.jpg","1","0","0","0.8","0","true","0","0.8","0","full_practice","0.2","0","0.6","0","0.2","0","","","","","",""
"377","","bandit","62","608633","0.0-32.0-11.0","93577392","wem/bandit_single","A3L0DCUXI7X3A9","gain","3","","74","J","1","","1","0","0","0.2","0","true","0","0.8","0","full_practice","0.2","0","0.6","0","0.2","0","","","","","",""
"186","","bandit","63","610578","0.0-32.0-12.0","93577392","wem/bandit_single","A3L0DCUXI7X3A9","gain","3","","75","K","2","","0","0","1","0.6","0","true","0","0.8","0","full_practice","0.2","0","0.6","0","0.2","0","","","","","",""
"176","","bandit","64","612513","0.0-32.0-13.0","93577392","wem/bandit_single","A3L0DCUXI7X3A9","gain","3","","76","L","3","","1","0","0","0.2","0","true","0","0.8","0","full_practice","0.2","0","0.6","0","0.2","0","","","","","",""
"249","","bandit","65","614522","0.0-32.0-14.0","93577392","wem/bandit_single","A3L0DCUXI7X3A9","gain","3","","72","H","0","img/none_selected.jpg","1","0","0","0.8","0","true","0","0.8","0","full_practice","0.2","0","0.6","0","0.2","0","","","","","",""
"504","","bandit","66","616786","0.0-32.0-15.0","93577392","wem/bandit_single","A3L0DCUXI7X3A9","gain","3","","74","J","1","","0","0","1","0.2","0","true","0","0.8","0","full_practice","0.2","0","0.6","0","0.2","0","","","","","",""
"195","","bandit","67","618741","0.0-32.0-16.0","93577392","wem/bandit_single","A3L0DCUXI7X3A9","gain","3","","76","L","3","","0","0","1","0.2","0","true","0","0.8","0","full_practice","0.2","0","0.6","0","0.2","0","","","","","",""
"71","","bandit","68","620571","0.0-32.0-17.0","93577392","wem/bandit_single","A3L0DCUXI7X3A9","gain","3","","72","H","0","img/none_selected.jpg","1","0","0","0.8","0","true","0","0.8","0","full_practice","0.2","0","0.6","0","0.2","0","","","","","",""
"642","","bandit","69","622972","0.0-32.0-18.0","93577392","wem/bandit_single","A3L0DCUXI7X3A9","gain","3","","72","H","0","img/none_selected.jpg","1","0","0","0.8","0","true","0","0.8","0","full_practice","0.2","0","0.6","0","0.2","0","","","","","",""
"4134","","bandit","70","628865","0.0-32.0-19.0","93577392","wem/bandit_single","A3L0DCUXI7X3A9","gain","3","","72","H","0","img/none_selected.jpg","1","0","0","0.8","0","true","0","0.8","0","full_practice","0.2","0","0.6","0","0.2","0","","","","","",""
"4953","","text","71","634083","0.0-33.0","93577392","wem/bandit_single","A3L0DCUXI7X3A9","gain","3","32","","","","","","","","","","","","","","","","","","","","","","","","","",""
"73312","","text","72","708400","0.0-34.0","93577392","wem/bandit_single","A3L0DCUXI7X3A9","gain","3","32","","","","","","","","","","","","","","","","","","","","","","","","","",""
"14","","text","73","708421","0.0-35.0","93577392","wem/bandit_single","A3L0DCUXI7X3A9","gain","3","32","","","","","","","","","","","","","","","","","","","","","","","","","",""
"6841","","text","74","715268","0.0-36.0","93577392","wem/bandit_single","A3L0DCUXI7X3A9","gain","3","32","","","","","","","","","","","","","","","","","","","","","","","","","",""
"67702","","text","75","782975","0.0-37.0","93577392","wem/bandit_single","A3L0DCUXI7X3A9","gain","3","32","","","","","","","","","","","","","","","","","","","","","","","","","",""
"723","","bandit","76","785207","0.0-38.0-0.0","93577392","wem/bandit_single","A3L0DCUXI7X3A9","gain","3","","72","H","0","img/none_selected.jpg","0","0","1","0.2211287853","","false","1","0.2211287853","","main_expt","0.06813583588","","0.2015711498","","0.3417032333","","","","","","",""
"84","","bandit","77","787053","0.0-39.0-0.0","93577392","wem/bandit_single","A3L0DCUXI7X3A9","gain","3","","74","J","1","","0","0","1","0.08840771113","","false","2","0.2921894834","","main_expt","0.08840771113","","0.1868286341","","0.3935143322","","","","","","",""
"28","","bandit","78","788841","0.0-40.0-0.0","93577392","wem/bandit_single","A3L0DCUXI7X3A9","gain","3","","75","K","2","","0","0","1","0.2285659085","","false","3","0.2712314767","","main_expt","0.14311428","","0.2285659085","","0.3247841161","","","","","","",""
"23","","bandit","79","790624","0.0-41.0-0.0","93577392","wem/bandit_single","A3L0DCUXI7X3A9","gain","3","","76","L","3","","1","0","0","0.3524809632","","false","4","0.3501044345","","main_expt","0.1389033164","","0.2587006496","","0.3524809632","","","","","","",""
"73","","bandit","80","792456","0.0-42.0-0.0","93577392","wem/bandit_single","A3L0DCUXI7X3A9","gain","3","","76","L","3","","0","0","1","0.3243282494","","false","5","0.3826883046","","main_expt","0.1064755534","","0.2238216231","","0.3243282494","","","","","","",""
"145","","bandit","81","794364","0.0-43.0-0.0","93577392","wem/bandit_single","A3L0DCUXI7X3A9","gain","3","","72","H","0","img/none_selected.jpg","1","0","0","0.3538977559","","false","6","0.3538977559","","main_expt","0.07607549968","","0.2114086621","","0.3856520047","","","","","","",""
"90","","bandit","82","796213","0.0-44.0-0.0","93577392","wem/bandit_single","A3L0DCUXI7X3A9","gain","3","","74","J","1","","0","0","1","0.0490522351","","false","7","0.3911179113","","main_expt","0.0490522351","","0.225256176","","0.3595299576","","","","","","",""
"32","","bandit","83","798004","0.0-45.0-0.0","93577392","wem/bandit_single","A3L0DCUXI7X3A9","gain","3","","75","K","2","","1","0","0","0.1920600422","","false","8","0.3378010318","","main_expt","0.04564729275","","0.1920600422","","0.2908809246","","","","","","",""
"109","","bandit","84","799873","0.0-46.0-0.0","93577392","wem/bandit_single","A3L0DCUXI7X3A9","gain","3","","76","L","3","","0","0","1","0.3401169694","","false","9","0.3584091786","","main_expt","0.05361883364","","0.222474992","","0.3401169694","","","","","","",""
"276","","bandit","85","801909","0.0-47.0-0.0","93577392","wem/bandit_single","A3L0DCUXI7X3A9","gain","3","","72","H","0","img/none_selected.jpg","0","0","1","0.3822252457","","false","10","0.3822252457","","main_expt","0.05689605437","","0.1720297318","","0.370347707","","","","","","",""
"72","","bandit","86","803739","0.0-48.0-0.0","93577392","wem/bandit_single","A3L0DCUXI7X3A9","gain","3","","75","K","2","","0","0","1","0.1672236423","","false","11","0.4003480189","","main_expt","0.05596529361","","0.1672236423","","0.3385652673","","","","","","",""
"55","","bandit","87","805554","0.0-49.0-0.0","93577392","wem/bandit_single","A3L0DCUXI7X3A9","gain","3","","76","L","3","","0","0","1","0.3433253296","","false","12","0.4035898181","","main_expt","0.07455145674","","0.1908353862","","0.3433253296","","","","","","",""
"53","","bandit","88","807370","0.0-50.0-0.0","93577392","wem/bandit_single","A3L0DCUXI7X3A9","gain","3","","74","J","1","","0","0","1","0.1061797552","","false","13","0.3939267589","","main_expt","0.1061797552","","0.1373256951","","0.3306460316","","","","","","",""
"336","","bandit","89","809466","0.0-51.0-0.0","93577392","wem/bandit_single","A3L0DCUXI7X3A9","gain","3","","72","H","0","img/none_selected.jpg","1","0","0","0.4058751809","","false","14","0.4058751809","","main_expt","0.09003395111","","0.1605467602","","0.3423394156","","","","","","",""
"3747","","bandit","90","814973","0.0-52.0-0.0","93577392","wem/bandit_single","A3L0DCUXI7X3A9","gain","3","","72","H","0","img/none_selected.jpg","1","0","0","0.3784768297","","false","15","0.3784768297","","main_expt","0.09190110762","","0.1270826231","","0.3514631564","","","","","","",""
"86","","bandit","91","816820","0.0-53.0-0.0","93577392","wem/bandit_single","A3L0DCUXI7X3A9","gain","3","","76","L","3","","1","0","0","0.3763865137","","false","16","0.3742197382","","main_expt","0.1119147711","","0.1659789958","","0.3763865137","","","","","","",""
"235","","bandit","92","818816","0.0-54.0-0.0","93577392","wem/bandit_single","A3L0DCUXI7X3A9","gain","3","","72","H","0","img/none_selected.jpg","0","0","1","0.3738750299","","false","17","0.3738750299","","main_expt","0.1268228496","","0.1810296119","","0.3613216018","","","","","","",""
"109","","bandit","93","820686","0.0-55.0-0.0","93577392","wem/bandit_single","A3L0DCUXI7X3A9","gain","3","","76","L","3","","1","0","0","0.3354311471","","false","18","0.30878177","","main_expt","0.160542793","","0.2209588372","","0.3354311471","","","","","","",""
"123","","bandit","94","822572","0.0-56.0-0.0","93577392","wem/bandit_single","A3L0DCUXI7X3A9","gain","3","","76","L","3","","0","0","1","0.3151580681","","false","19","0.3257740717","","main_expt","0.1913020378","","0.1577150754","","0.3151580681","","","","","","",""
"105","","bandit","95","824438","0.0-57.0-0.0","93577392","wem/bandit_single","A3L0DCUXI7X3A9","gain","3","","76","L","3","","0","0","1","0.2633525784","","false","20","0.2780557495","","main_expt","0.2201213849","","0.2368366468","","0.2633525784","","","","","","",""
"70","","bandit","96","826268","0.0-58.0-0.0","93577392","wem/bandit_single","A3L0DCUXI7X3A9","gain","3","","75","K","2","","0","0","1","0.1692925459","","false","21","0.2552615423","","main_expt","0.1747441944","","0.1692925459","","0.2730255539","","","","","","",""
"1491","","bandit","97","829519","0.0-59.0-0.0","93577392","wem/bandit_single","A3L0DCUXI7X3A9","gain","3","","74","J","1","","1","0","0","0.1407764438","","false","22","0.2862558775","","main_expt","0.1407764438","","0.144462955","","0.2366183143","","","","","","",""
"261","","bandit","98","831540","0.0-60.0-0.0","93577392","wem/bandit_single","A3L0DCUXI7X3A9","gain","3","","74","J","1","","0","0","1","0.1444197889","","false","23","0.290674517","","main_expt","0.1444197889","","0.1928882479","","0.2193011186","","","","","","",""
"22","","bandit","99","833323","0.0-61.0-0.0","93577392","wem/bandit_single","A3L0DCUXI7X3A9","gain","3","","72","H","0","img/none_selected.jpg","0","0","1","0.2669553567","","false","24","0.2669553567","","main_expt","0.1898422889","","0.2077361259","","0.2058852999","","","","","","",""
"1140","","bandit","100","836237","0.0-62.0-0.0","93577392","wem/bandit_single","A3L0DCUXI7X3A9","gain","3","","76","L","3","","0","0","1","0.2377147794","","false","25","0.2134469473","","main_expt","0.2319991336","","0.2580980749","","0.2377147794","","","","","","",""
"103","","bandit","101","838102","0.0-63.0-0.0","93577392","wem/bandit_single","A3L0DCUXI7X3A9","gain","3","","74","J","1","","0","0","1","0.2140617454","","false","26","0.2027981442","","main_expt","0.2140617454","","0.2593960467","","0.3017638279","","","","","","",""
"235","","bandit","102","840098","0.0-64.0-0.0","93577392","wem/bandit_single","A3L0DCUXI7X3A9","gain","3","","75","K","2","","0","0","1","0.2913294918","","false","27","0.1669761534","","main_expt","0.2186733942","","0.2913294918","","0.2647551657","","","","","","",""
"2628","","bandit","103","844487","0.0-65.0-0.0","93577392","wem/bandit_single","A3L0DCUXI7X3A9","gain","3","","76","L","3","","0","0","1","0.2864353885","","false","28","0.1301617017","","main_expt","0.2573772923","","0.2838721205","","0.2864353885","","","","","","",""
"338","","bandit","104","846586","0.0-66.0-0.0","93577392","wem/bandit_single","A3L0DCUXI7X3A9","gain","3","","72","H","0","img/none_selected.jpg","0","0","1","0.1540227795","","false","29","0.1540227795","","main_expt","0.2563684882","","0.2225595658","","0.2669447337","","","","","","",""
"37","","bandit","105","848384","0.0-67.0-0.0","93577392","wem/bandit_single","A3L0DCUXI7X3A9","gain","3","","74","J","1","","0","0","1","0.3180657859","","false","30","0.1290956128","","main_expt","0.3180657859","","0.2450998207","","0.242519946","","","","","","",""
"57","","bandit","106","850202","0.0-68.0-0.0","93577392","wem/bandit_single","A3L0DCUXI7X3A9","gain","3","","75","K","2","","1","0","0","0.2358374841","","false","31","0.157476084","","main_expt","0.3391977199","","0.2358374841","","0.1808952067","","","","","","",""
"239","","bandit","107","852201","0.0-69.0-0.0","93577392","wem/bandit_single","A3L0DCUXI7X3A9","gain","3","","75","K","2","","1","0","0","0.2465538883","","false","32","0.1667461438","","main_expt","0.3655242212","","0.2465538883","","0.1490402933","","","","","","",""
"236","","bandit","108","854199","0.0-70.0-0.0","93577392","wem/bandit_single","A3L0DCUXI7X3A9","gain","3","","75","K","2","","0","0","1","0.2479029149","","false","33","0.1698659255","","main_expt","0.3476833293","","0.2479029149","","0.1607825008","","","","","","",""
"340","","bandit","109","856303","0.0-71.0-0.0","93577392","wem/bandit_single","A3L0DCUXI7X3A9","gain","3","","75","K","2","","0","0","1","0.1813792252","","false","34","0.1830702822","","main_expt","0.3287357547","","0.1813792252","","0.2019438485","","","","","","",""
"2852","","bandit","110","860917","0.0-72.0-0.0","93577392","wem/bandit_single","A3L0DCUXI7X3A9","gain","3","","75","K","2","","0","0","1","0.1507873856","","false","35","0.1648441896","","main_expt","0.3568635533","","0.1507873856","","0.1187506792","","","","","","",""
"56","","bandit","111","862736","0.0-73.0-0.0","93577392","wem/bandit_single","A3L0DCUXI7X3A9","gain","3","","76","L","3","","0","0","1","0.107122158","","false","36","0.1702375356","","main_expt","0.2559818432","","0.185146395","","0.107122158","","","","","","",""
"20","","bandit","112","864519","0.0-74.0-0.0","93577392","wem/bandit_single","A3L0DCUXI7X3A9","gain","3","","74","J","1","","0","0","1","0.2095103509","","false","37","0.1248493821","","main_expt","0.2095103509","","0.1995500277","","0.1462043769","","","","","","",""
"37","","bandit","113","866316","0.0-75.0-0.0","93577392","wem/bandit_single","A3L0DCUXI7X3A9","gain","3","","72","H","0","img/none_selected.jpg","0","0","1","0.1806095344","","false","38","0.1806095344","","main_expt","0.1824107212","","0.2324476024","","0.1562864446","","","","","","",""
"23","","bandit","114","868102","0.0-76.0-0.0","93577392","wem/bandit_single","A3L0DCUXI7X3A9","gain","3","","76","L","3","","0","0","1","0.1425148763","","false","39","0.1636381498","","main_expt","0.180532013","","0.2374336796","","0.1425148763","","","","","","",""
"36","","bandit","115","869901","0.0-77.0-0.0","93577392","wem/bandit_single","A3L0DCUXI7X3A9","gain","3","","75","K","2","","0","0","1","0.1871034738","","false","40","0.128328165","","main_expt","0.209403608","","0.1871034738","","0.1332413707","","","","","","",""
"22","","bandit","116","871685","0.0-78.0-0.0","93577392","wem/bandit_single","A3L0DCUXI7X3A9","gain","3","","74","J","1","","0","0","1","0.1790729352","","false","41","0.1128848486","","main_expt","0.1790729352","","0.1923798107","","0.170838957","","","","","","",""
"206","","bandit","117","873653","0.0-79.0-0.0","93577392","wem/bandit_single","A3L0DCUXI7X3A9","gain","3","","72","H","0","img/none_selected.jpg","1","0","0","0.1024028154","","false","42","0.1024028154","","main_expt","0.1586268334","","0.2175202152","","0.221577246","","","","","","",""
"57","","bandit","118","875472","0.0-80.0-0.0","93577392","wem/bandit_single","A3L0DCUXI7X3A9","gain","3","","72","H","0","img/none_selected.jpg","0","0","1","0.1842117743","","false","43","0.1842117743","","main_expt","0.1953085145","","0.199004634","","0.2937465132","","","","","","",""
"80","","bandit","119","877313","0.0-81.0-0.0","93577392","wem/bandit_single","A3L0DCUXI7X3A9","gain","3","","72","H","0","img/none_selected.jpg","0","0","1","0.2398699605","","false","44","0.2398699605","","main_expt","0.229373846","","0.1979694218","","0.2473378206","","","","","","",""
"56","","bandit","120","879130","0.0-82.0-0.0","93577392","wem/bandit_single","A3L0DCUXI7X3A9","gain","3","","76","L","3","","0","0","1","0.2911711657","","false","45","0.2666943954","","main_expt","0.2387173179","","0.1992427108","","0.2911711657","","","","","","",""
"40","","bandit","121","880934","0.0-83.0-0.0","93577392","wem/bandit_single","A3L0DCUXI7X3A9","gain","3","","75","K","2","","1","0","0","0.2240306516","","false","46","0.3187479261","","main_expt","0.2142046797","","0.2240306516","","0.2520057509","","","","","","",""
"83","","bandit","122","882778","0.0-84.0-0.0","93577392","wem/bandit_single","A3L0DCUXI7X3A9","gain","3","","75","K","2","","0","0","1","0.2065012218","","false","47","0.3190608455","","main_expt","0.2454335886","","0.2065012218","","0.2527148282","","","","","","",""
"159","","bandit","123","884697","0.0-85.0-0.0","93577392","wem/bandit_single","A3L0DCUXI7X3A9","gain","3","","74","J","1","","0","0","1","0.2810950816","","false","48","0.3135096665","","main_expt","0.2810950816","","0.1926440163","","0.273334487","","","","","","",""
"3","","bandit","124","886461","0.0-86.0-0.0","93577392","wem/bandit_single","A3L0DCUXI7X3A9","gain","3","","75","K","2","","0","0","1","0.1670810943","","false","49","0.3341811191","","main_expt","0.2547597437","","0.1670810943","","0.3181736471","","","","","","",""
"39","","bandit","125","888263","0.0-87.0-0.0","93577392","wem/bandit_single","A3L0DCUXI7X3A9","gain","3","","76","L","3","","0","0","1","0.3806153608","","false","50","0.3459923598","","main_expt","0.224323175","","0.1198069869","","0.3806153608","","","","","","",""
"72","","bandit","126","890098","0.0-88.0-0.0","93577392","wem/bandit_single","A3L0DCUXI7X3A9","gain","3","","72","H","0","img/none_selected.jpg","0","0","1","0.3331953563","","false","51","0.3331953563","","main_expt","0.2755477452","","0.103394302","","0.3949296296","","","","","","",""
"55","","bandit","127","891920","0.0-89.0-0.0","93577392","wem/bandit_single","A3L0DCUXI7X3A9","gain","3","","76","L","3","","0","0","1","0.3544293331","","false","52","0.3915962888","","main_expt","0.3022170302","","0.1018912343","","0.3544293331","","","","","","",""
"140","","bandit","128","893821","0.0-90.0-0.0","93577392","wem/bandit_single","A3L0DCUXI7X3A9","gain","3","","74","J","1","","1","0","0","0.2886203433","","false","53","0.3984086051","","main_expt","0.2886203433","","0.07233269407","","0.3007967805","","","","","","",""
"279","","bandit","129","895862","0.0-91.0-0.0","93577392","wem/bandit_single","A3L0DCUXI7X3A9","gain","3","","74","J","1","","0","0","1","0.3072524501","","false","54","0.4181407331","","main_expt","0.3072524501","","0.09210147888","","0.3376398899","","","","","","",""
"512","","bandit","130","898137","0.0-92.0-0.0","93577392","wem/bandit_single","A3L0DCUXI7X3A9","gain","3","","75","K","2","","0","0","1","0.08866102842","","false","55","0.3964386999","","main_expt","0.3847595325","","0.08866102842","","0.3625264345","","","","","","",""
"41","","bandit","131","899946","0.0-93.0-0.0","93577392","wem/bandit_single","A3L0DCUXI7X3A9","gain","3","","74","J","1","","0","0","1","0.4008313728","","false","56","0.4043277199","","main_expt","0.4008313728","","0.1208391037","","0.313137485","","","","","","",""
"16","","bandit","132","901727","0.0-94.0-0.0","93577392","wem/bandit_single","A3L0DCUXI7X3A9","gain","3","","72","H","0","img/none_selected.jpg","0","0","1","0.3232173094","","false","57","0.3232173094","","main_expt","0.3763680666","","0.1429525169","","0.3287581384","","","","","","",""
"25","","bandit","133","903514","0.0-95.0-0.0","93577392","wem/bandit_single","A3L0DCUXI7X3A9","gain","3","","72","H","0","img/none_selected.jpg","0","0","1","0.3352595409","","false","58","0.3352595409","","main_expt","0.3630839511","","0.1800007821","","0.2891608333","","","","","","",""
"25","","bandit","134","905305","0.0-96.0-0.0","93577392","wem/bandit_single","A3L0DCUXI7X3A9","gain","3","","76","L","3","","1","0","0","0.2228703537","","false","59","0.3423270404","","main_expt","0.3166885591","","0.1168587732","","0.2228703537","","","","","","",""
"35","","bandit","135","907103","0.0-97.0-0.0","93577392","wem/bandit_single","A3L0DCUXI7X3A9","gain","3","","76","L","3","","0","0","1","0.2694349638","","false","60","0.3326485747","","main_expt","0.3339947878","","0.08966050757","","0.2694349638","","","","","","",""
"42","","bandit","136","908906","0.0-98.0-0.0","93577392","wem/bandit_single","A3L0DCUXI7X3A9","gain","3","","75","K","2","","0","0","1","0.06827284498","","false","61","0.3239501662","","main_expt","0.3559621948","","0.06827284498","","0.3291501217","","","","","","",""
"277","","bandit","137","910943","0.0-99.0-0.0","93577392","wem/bandit_single","A3L0DCUXI7X3A9","gain","3","","74","J","1","","1","0","0","0.3565904981","","false","62","0.3140158541","","main_expt","0.3565904981","","0.0870528816","","0.3516688484","","","","","","",""
"181","","bandit","138","912888","0.0-100.0-0.0","93577392","wem/bandit_single","A3L0DCUXI7X3A9","gain","3","","74","J","1","","1","0","0","0.3766945074","","false","63","0.2896297009","","main_expt","0.3766945074","","0.07384780705","","0.3662001291","","","","","","",""
"176","","bandit","139","914826","0.0-101.0-0.0","93577392","wem/bandit_single","A3L0DCUXI7X3A9","gain","3","","74","J","1","","1","0","0","0.4038560084","","false","64","0.2848001348","","main_expt","0.4038560084","","0.09386223648","","0.3986377969","","","","","","",""
"177","","bandit","140","916769","0.0-102.0-0.0","93577392","wem/bandit_single","A3L0DCUXI7X3A9","gain","3","","74","J","1","","1","0","0","0.4081833366","","false","65","0.2621939157","","main_expt","0.4081833366","","0.08656227431","","0.4284050928","","","","","","",""
"173","","bandit","141","918706","0.0-103.0-0.0","93577392","wem/bandit_single","A3L0DCUXI7X3A9","gain","3","","74","J","1","","1","0","0","0.4111507483","","false","66","0.2218985249","","main_expt","0.4111507483","","0.1254260964","","0.4295130084","","","","","","",""
"100","","bandit","142","920569","0.0-104.0-0.0","93577392","wem/bandit_single","A3L0DCUXI7X3A9","gain","3","","74","J","1","","0","0","1","0.3731562577","","false","67","0.2203007364","","main_expt","0.3731562577","","0.0848557225","","0.4192215244","","","","","","",""
"437","","bandit","143","922769","0.0-105.0-0.0","93577392","wem/bandit_single","A3L0DCUXI7X3A9","gain","3","","74","J","1","","1","0","0","0.3471707475","","false","68","0.2163243509","","main_expt","0.3471707475","","0.1277621339","","0.4617344849","","","","","","",""
"4225","","bandit","144","928753","0.0-106.0-0.0","93577392","wem/bandit_single","A3L0DCUXI7X3A9","gain","3","","76","L","3","","1","0","0","0.4496684627","","false","69","0.1552451017","","main_expt","0.3163780081","","0.1425885083","","0.4496684627","","","","","","",""
"98","","bandit","145","930614","0.0-107.0-0.0","93577392","wem/bandit_single","A3L0DCUXI7X3A9","gain","3","","74","J","1","","0","0","1","0.2872849644","","false","70","0.144295094","","main_expt","0.2872849644","","0.1765985622","","0.4572021165","","","","","","",""
"323","","bandit","146","932703","0.0-108.0-0.0","93577392","wem/bandit_single","A3L0DCUXI7X3A9","gain","3","","76","L","3","","1","0","0","0.457930868","","false","71","0.1823242822","","main_expt","0.300298776","","0.1520060204","","0.457930868","","","","","","",""
"1341","","bandit","147","935806","0.0-109.0-0.0","93577392","wem/bandit_single","A3L0DCUXI7X3A9","gain","3","","76","L","3","","0","0","1","0.4687468973","","false","72","0.144478384","","main_expt","0.3280152389","","0.09933583891","","0.4687468973","","","","","","",""
"274","","bandit","148","937843","0.0-110.0-0.0","93577392","wem/bandit_single","A3L0DCUXI7X3A9","gain","3","","75","K","2","","0","0","1","0.1087995109","","false","73","0.1420634247","","main_expt","0.2758062481","","0.1087995109","","0.4707862587","","","","","","",""
"74","","bandit","149","939678","0.0-111.0-0.0","93577392","wem/bandit_single","A3L0DCUXI7X3A9","gain","3","","74","J","1","","0","0","1","0.3370537031","","false","74","0.1358649702","","main_expt","0.3370537031","","0.150223613","","0.4602293826","","","","","","",""
"44","","bandit","150","941485","0.0-112.0-0.0","93577392","wem/bandit_single","A3L0DCUXI7X3A9","gain","3","","72","H","0","img/none_selected.jpg","0","0","1","0.09700523291","","false","75","0.09700523291","","main_expt","0.3323795279","","0.1945690608","","0.439891953","","","","","","",""
"71","","bandit","151","943319","0.0-113.0-0.0","93577392","wem/bandit_single","A3L0DCUXI7X3A9","gain","3","","74","J","1","","1","0","0","0.3822428931","","false","76","0.07829726083","","main_expt","0.3822428931","","0.2454913388","","0.4424180744","","","","","","",""
"279","","bandit","152","945362","0.0-114.0-0.0","93577392","wem/bandit_single","A3L0DCUXI7X3A9","gain","3","","76","L","3","","0","0","1","0.4066280348","","false","77","0.08460916486","","main_expt","0.4136836411","","0.2181262922","","0.4066280348","","","","","","",""
"2827","","bandit","153","949954","0.0-115.0-0.0","93577392","wem/bandit_single","A3L0DCUXI7X3A9","gain","3","","76","L","3","","1","0","0","0.3969262671","","false","78","0.0875988483","","main_expt","0.4505469687","","0.2500794828","","0.3969262671","","","","","","",""
"116","","bandit","154","951833","0.0-116.0-0.0","93577392","wem/bandit_single","A3L0DCUXI7X3A9","gain","3","","74","J","1","","0","0","1","0.4251749511","","false","79","0.06491107755","","main_expt","0.4251749511","","0.2021405589","","0.4119020232","","","","","","",""
"55","","bandit","155","953650","0.0-117.0-0.0","93577392","wem/bandit_single","A3L0DCUXI7X3A9","gain","3","","75","K","2","","0","0","1","0.1654874554","","false","80","0.1021818806","","main_expt","0.3976376265","","0.1654874554","","0.3797331509","","","","","","",""
"43","","bandit","156","955455","0.0-118.0-0.0","93577392","wem/bandit_single","A3L0DCUXI7X3A9","gain","3","","72","H","0","img/none_selected.jpg","0","0","1","0.07175209231","","false","81","0.07175209231","","main_expt","0.409462467","","0.1281487551","","0.4024270851","","","","","","",""
"543","","bandit","157","957761","0.0-119.0-0.0","93577392","wem/bandit_single","A3L0DCUXI7X3A9","gain","3","","76","L","3","","1","0","0","0.3976574516","","false","82","0.04651379375","","main_expt","0.4541942335","","0.1167166884","","0.3976574516","","","","","","",""
"560","","bandit","158","960086","0.0-120.0-0.0","93577392","wem/bandit_single","A3L0DCUXI7X3A9","gain","3","","76","L","3","","0","0","1","0.3749492802","","false","83","0.03148502893","","main_expt","0.4452160763","","0.1426109787","","0.3749492802","","","","","","",""
"117","","bandit","159","961966","0.0-121.0-0.0","93577392","wem/bandit_single","A3L0DCUXI7X3A9","gain","3","","74","J","1","","0","0","1","0.438985114","","false","84","0.05186863446","","main_expt","0.438985114","","0.121887906","","0.4021863709","","","","","","",""
"71","","bandit","160","963800","0.0-122.0-0.0","93577392","wem/bandit_single","A3L0DCUXI7X3A9","gain","3","","76","L","3","","1","0","0","0.3624574422","","false","85","0.04986731509","","main_expt","0.4331173667","","0.1361926199","","0.3624574422","","","","","","",""
"1475","","bandit","161","967041","0.0-123.0-0.0","93577392","wem/bandit_single","A3L0DCUXI7X3A9","gain","3","","74","J","1","","1","0","0","0.447547065","","false","86","0.05891938772","","main_expt","0.447547065","","0.1287871674","","0.387939101","","","","","","",""
"283","","bandit","162","969087","0.0-124.0-0.0","93577392","wem/bandit_single","A3L0DCUXI7X3A9","gain","3","","74","J","1","","0","0","1","0.4451560311","","false","87","0.06619539979","","main_expt","0.4451560311","","0.13112728","","0.3949621072","","","","","","",""
"62","","bandit","163","970911","0.0-125.0-0.0","93577392","wem/bandit_single","A3L0DCUXI7X3A9","gain","3","","76","L","3","","1","0","0","0.3789082299","","false","88","0.03553047297","","main_expt","0.4010299359","","0.1385028762","","0.3789082299","","","","","","",""
"528","","bandit","164","973205","0.0-126.0-0.0","93577392","wem/bandit_single","A3L0DCUXI7X3A9","gain","3","","76","L","3","","0","0","1","0.3718344374","","false","89","0.03983007571","","main_expt","0.430672582","","0.1377901848","","0.3718344374","","","","","","",""
"2567","","bandit","165","977537","0.0-127.0-0.0","93577392","wem/bandit_single","A3L0DCUXI7X3A9","gain","3","","76","L","3","","1","0","0","0.4341719303","","false","90","0.02618566652","","main_expt","0.4063924327","","0.1642812903","","0.4341719303","","","","","","",""
"736","","bandit","166","980036","0.0-128.0-0.0","93577392","wem/bandit_single","A3L0DCUXI7X3A9","gain","3","","74","J","1","","1","0","0","0.4115689239","","false","91","0.03325063158","","main_expt","0.4115689239","","0.2115922749","","0.4538289377","","","","","","",""
"66","","bandit","167","981866","0.0-129.0-0.0","93577392","wem/bandit_single","A3L0DCUXI7X3A9","gain","3","","76","L","3","","0","0","1","0.4508501544","","false","92","0.02042352937","","main_expt","0.4195244723","","0.1819790886","","0.4508501544","","","","","","",""
"460","","bandit","168","984091","0.0-130.0-0.0","93577392","wem/bandit_single","A3L0DCUXI7X3A9","gain","3","","74","J","1","","0","0","1","0.3976010387","","false","93","0.01887694535","","main_expt","0.3976010387","","0.2039146085","","0.4548943395","","","","","","",""
"162","","bandit","169","986019","0.0-131.0-0.0","93577392","wem/bandit_single","A3L0DCUXI7X3A9","gain","3","","75","K","2","","1","0","0","0.2307813202","","false","94","0.02367451168","","main_expt","0.3668479885","","0.2307813202","","0.4646086811","","","","","","",""
"105","","bandit","170","987885","0.0-132.0-0.0","93577392","wem/bandit_single","A3L0DCUXI7X3A9","gain","3","","75","K","2","","0","0","1","0.2213313998","","false","95","0.02723032617","","main_expt","0.3332342888","","0.2213313998","","0.467541367","","","","","","",""
"697","","bandit","171","990347","0.0-133.0-0.0","93577392","wem/bandit_single","A3L0DCUXI7X3A9","gain","3","","72","H","0","img/none_selected.jpg","0","0","1","0.02648196594","","false","96","0.02648196594","","main_expt","0.2884910782","","0.2568515079","","0.4642351642","","","","","","",""
"2144","","bandit","172","994255","0.0-134.0-0.0","93577392","wem/bandit_single","A3L0DCUXI7X3A9","gain","3","","76","L","3","","0","0","1","0.4467755515","","false","97","0.01585024216","","main_expt","0.2656891479","","0.2699845376","","0.4467755515","","","","","","",""
"535","","bandit","173","996554","0.0-135.0-0.0","93577392","wem/bandit_single","A3L0DCUXI7X3A9","gain","3","","72","H","0","img/none_selected.jpg","0","0","1","0.01169409205","","false","98","0.01169409205","","main_expt","0.2595300749","","0.2797451528","","0.4056350907","","","","","","",""
"161","","bandit","174","998481","0.0-136.0-0.0","93577392","wem/bandit_single","A3L0DCUXI7X3A9","gain","3","","75","K","2","","1","0","0","0.3187705275","","false","99","0.01197913588","","main_expt","0.2519900202","","0.3187705275","","0.339742379","","","","","","",""
"211","","bandit","175","1000456","0.0-137.0-0.0","93577392","wem/bandit_single","A3L0DCUXI7X3A9","gain","3","","75","K","2","","1","0","0","0.3570824245","","false","100","0.01759776774","","main_expt","0.2523409295","","0.3570824245","","0.3381167522","","","","","","",""
"177","","bandit","176","1002396","0.0-138.0-0.0","93577392","wem/bandit_single","A3L0DCUXI7X3A9","gain","3","","75","K","2","","1","0","0","0.3489468272","","false","101","0.04295615511","","main_expt","0.2146893193","","0.3489468272","","0.2803213009","","","","","","",""
"89","","bandit","177","1004253","0.0-139.0-0.0","93577392","wem/bandit_single","A3L0DCUXI7X3A9","gain","3","","75","K","2","","0","0","1","0.3015799625","","false","102","0.06572998715","","main_expt","0.1843767259","","0.3015799625","","0.317644571","","","","","","",""
"56","","bandit","178","1006073","0.0-140.0-0.0","93577392","wem/bandit_single","A3L0DCUXI7X3A9","gain","3","","74","J","1","","0","0","1","0.2108432206","","false","103","0.1043212589","","main_expt","0.2108432206","","0.2656450655","","0.3024927185","","","","","","",""
"84","","bandit","179","1007922","0.0-141.0-0.0","93577392","wem/bandit_single","A3L0DCUXI7X3A9","gain","3","","76","L","3","","0","0","1","0.3339077782","","false","104","0.07063930719","","main_expt","0.26792014","","0.261155182","","0.3339077782","","","","","","",""
"43","","bandit","180","1009731","0.0-142.0-0.0","93577392","wem/bandit_single","A3L0DCUXI7X3A9","gain","3","","75","K","2","","0","0","1","0.2794756432","","false","105","0.09992353171","","main_expt","0.3302583292","","0.2794756432","","0.2966783269","","","","","","",""
"74","","bandit","181","1011570","0.0-143.0-0.0","93577392","wem/bandit_single","A3L0DCUXI7X3A9","gain","3","","72","H","0","img/none_selected.jpg","0","0","1","0.1074399807","","false","106","0.1074399807","","main_expt","0.3099187861","","0.2719827923","","0.3722996478","","","","","","",""
"505","","bandit","182","1013839","0.0-144.0-0.0","93577392","wem/bandit_single","A3L0DCUXI7X3A9","gain","3","","75","K","2","","0","0","1","0.2614179637","","false","107","0.1398361659","","main_expt","0.3526315454","","0.2614179637","","0.3764369168","","","","","","",""
"2734","","bandit","183","1018340","0.0-145.0-0.0","93577392","wem/bandit_single","A3L0DCUXI7X3A9","gain","3","","76","L","3","","0","0","1","0.3221289315","","false","108","0.1503356919","","main_expt","0.3741147492","","0.3154283329","","0.3221289315","","","","","","",""
"1111","","bandit","184","1021218","0.0-146.0-0.0","93577392","wem/bandit_single","A3L0DCUXI7X3A9","gain","3","","75","K","2","","0","0","1","0.3965133924","","false","109","0.1554773292","","main_expt","0.3775387023","","0.3965133924","","0.3394272446","","","","","","",""
"128","","bandit","185","1023112","0.0-147.0-0.0","93577392","wem/bandit_single","A3L0DCUXI7X3A9","gain","3","","74","J","1","","1","0","0","0.3603169275","","false","110","0.1862379276","","main_expt","0.3603169275","","0.4096679205","","0.3108194313","","","","","","",""
"156","","bandit","186","1025035","0.0-148.0-0.0","93577392","wem/bandit_single","A3L0DCUXI7X3A9","gain","3","","74","J","1","","0","0","1","0.3492898999","","false","111","0.2096222548","","main_expt","0.3492898999","","0.4107972434","","0.2754643313","","","","","","",""
"305","","bandit","187","1027104","0.0-149.0-0.0","93577392","wem/bandit_single","A3L0DCUXI7X3A9","gain","3","","72","H","0","img/none_selected.jpg","0","0","1","0.2432579143","","false","112","0.2432579143","","main_expt","0.3332089306","","0.4229867006","","0.2906444469","","","","","","",""
"135","","bandit","188","1029004","0.0-150.0-0.0","93577392","wem/bandit_single","A3L0DCUXI7X3A9","gain","3","","75","K","2","","0","0","1","0.4045712819","","false","113","0.1721880852","","main_expt","0.3450976056","","0.4045712819","","0.3006146448","","","","","","",""
"615","","bandit","189","1031386","0.0-151.0-0.0","93577392","wem/bandit_single","A3L0DCUXI7X3A9","gain","3","","76","L","3","","0","0","1","0.2668468313","","false","114","0.2081909003","","main_expt","0.3725565121","","0.3821667802","","0.2668468313","","","","","","",""
"646","","bandit","190","1033796","0.0-152.0-0.0","93577392","wem/bandit_single","A3L0DCUXI7X3A9","gain","3","","72","H","0","img/none_selected.jpg","0","0","1","0.272711811","","false","115","0.272711811","","main_expt","0.3789561431","","0.3342096713","","0.3032344037","","","","","","",""
"141","","bandit","191","1035703","0.0-153.0-0.0","93577392","wem/bandit_single","A3L0DCUXI7X3A9","gain","3","","74","J","1","","0","0","1","0.3829881954","","false","116","0.2801201945","","main_expt","0.3829881954","","0.3475890958","","0.279678247","","","","","","",""
"53","","bandit","192","1037521","0.0-154.0-0.0","93577392","wem/bandit_single","A3L0DCUXI7X3A9","gain","3","","75","K","2","","0","0","1","0.3545652452","","false","117","0.3615324036","","main_expt","0.3872477479","","0.3545652452","","0.2762620489","","","","","","",""
"28","","bandit","193","1039314","0.0-155.0-0.0","93577392","wem/bandit_single","A3L0DCUXI7X3A9","gain","3","","76","L","3","","1","0","0","0.2880572365","","false","118","0.3615177178","","main_expt","0.3952603005","","0.3542043025","","0.2880572365","","","","","","",""
"28","","bandit","194","1041107","0.0-156.0-0.0","93577392","wem/bandit_single","A3L0DCUXI7X3A9","gain","3","","76","L","3","","0","0","1","0.2807620685","","false","119","0.3875935955","","main_expt","0.3838673248","","0.3471352845","","0.2807620685","","","","","","",""
"71","","bandit","195","1042943","0.0-157.0-0.0","93577392","wem/bandit_single","A3L0DCUXI7X3A9","gain","3","","75","K","2","","0","0","1","0.3343169965","","false","120","0.4052723714","","main_expt","0.4148997213","","0.3343169965","","0.2811576832","","","","","","",""
"256","","bandit","196","1044964","0.0-158.0-0.0","93577392","wem/bandit_single","A3L0DCUXI7X3A9","gain","3","","74","J","1","","0","0","1","0.4184259471","","false","121","0.44462971","","main_expt","0.4184259471","","0.3595120763","","0.3016455194","","","","","","",""
"321","","bandit","197","1047051","0.0-159.0-0.0","93577392","wem/bandit_single","A3L0DCUXI7X3A9","gain","3","","72","H","0","img/none_selected.jpg","0","0","1","0.4338931322","","false","122","0.4338931322","","main_expt","0.4271141924","","0.3296914373","","0.3161331551","","","","","","",""
"2188","","bandit","198","1051005","0.0-160.0-0.0","93577392","wem/bandit_single","A3L0DCUXI7X3A9","gain","3","","76","L","3","","0","0","1","0.2882518765","","false","123","0.4248885798","","main_expt","0.3994299035","","0.3369167856","","0.2882518765","","","","","","",""
"58","","bandit","199","1052829","0.0-161.0-0.0","93577392","wem/bandit_single","A3L0DCUXI7X3A9","gain","3","","72","H","0","img/none_selected.jpg","1","0","0","0.3773411534","","false","124","0.3773411534","","main_expt","0.4319292606","","0.3181772373","","0.3426101702","","","","","","",""
"17","","bandit","200","1054611","0.0-162.0-0.0","93577392","wem/bandit_single","A3L0DCUXI7X3A9","gain","3","","72","H","0","img/none_selected.jpg","0","0","1","0.3322500489","","false","125","0.3322500489","","main_expt","0.4228137624","","0.3285823626","","0.3623178769","","","","","","",""
"38","","bandit","201","1056415","0.0-163.0-0.0","93577392","wem/bandit_single","A3L0DCUXI7X3A9","gain","3","","76","L","3","","0","0","1","0.3487147863","","false","126","0.3742157909","","main_expt","0.4445824992","","0.3203566048","","0.3487147863","","","","","","",""
"29","","bandit","202","1058211","0.0-164.0-0.0","93577392","wem/bandit_single","A3L0DCUXI7X3A9","gain","3","","74","J","1","","1","0","0","0.4525048151","","false","127","0.3851047317","","main_expt","0.4525048151","","0.3852478983","","0.4137567253","","","","","","",""
"35","","bandit","203","1060013","0.0-165.0-0.0","93577392","wem/bandit_single","A3L0DCUXI7X3A9","gain","3","","74","J","1","","1","0","0","0.4692783601","","false","128","0.4043255462","","main_expt","0.4692783601","","0.3389365807","","0.3814482247","","","","","","",""
"138","","bandit","204","1061917","0.0-166.0-0.0","93577392","wem/bandit_single","A3L0DCUXI7X3A9","gain","3","","74","J","1","","1","0","0","0.4168961411","","false","129","0.4123407707","","main_expt","0.4168961411","","0.3137404055","","0.4168244781","","","","","","",""
"90","","bandit","205","1063771","0.0-167.0-0.0","93577392","wem/bandit_single","A3L0DCUXI7X3A9","gain","3","","74","J","1","","1","0","0","0.3790243023","","false","130","0.4046971735","","main_expt","0.3790243023","","0.3258581953","","0.4365918222","","","","","","",""
"177","","bandit","206","1065714","0.0-168.0-0.0","93577392","wem/bandit_single","A3L0DCUXI7X3A9","gain","3","","74","J","1","","0","0","1","0.4049885765","","false","131","0.4461276952","","main_expt","0.4049885765","","0.2883577813","","0.4389841863","","","","","","",""
"1172","","bandit","207","1068653","0.0-169.0-0.0","93577392","wem/bandit_single","A3L0DCUXI7X3A9","gain","3","","72","H","0","img/none_selected.jpg","1","0","0","0.4611465992","","false","132","0.4611465992","","main_expt","0.4146365962","","0.3560589507","","0.4152650591","","","","","","",""
"152","","bandit","208","1070571","0.0-170.0-0.0","93577392","wem/bandit_single","A3L0DCUXI7X3A9","gain","3","","72","H","0","img/none_selected.jpg","0","0","1","0.4798080461","","false","133","0.4798080461","","main_expt","0.3895917514","","0.358394082","","0.4542457407","","","","","","",""
"109","","bandit","209","1072447","0.0-171.0-0.0","93577392","wem/bandit_single","A3L0DCUXI7X3A9","gain","3","","74","J","1","","0","0","1","0.4031985028","","false","134","0.4536835414","","main_expt","0.4031985028","","0.3605573227","","0.4598844585","","","","","","",""
"117","","bandit","210","1074328","0.0-172.0-0.0","93577392","wem/bandit_single","A3L0DCUXI7X3A9","gain","3","","75","K","2","","1","0","0","0.3695471057","","false","135","0.4297718384","","main_expt","0.3950250086","","0.3695471057","","0.4690925783","","","","","","",""
"110","","bandit","211","1076204","0.0-173.0-0.0","93577392","wem/bandit_single","A3L0DCUXI7X3A9","gain","3","","75","K","2","","1","0","0","0.4060603524","","false","136","0.4047290025","","main_expt","0.3958408827","","0.4060603524","","0.4382452635","","","","","","",""
"230","","bandit","212","1078202","0.0-174.0-0.0","93577392","wem/bandit_single","A3L0DCUXI7X3A9","gain","3","","75","K","2","","1","0","0","0.3977168634","","false","137","0.4062789173","","main_expt","0.4025558346","","0.3977168634","","0.4469583278","","","","","","",""
"3703","","bandit","213","1083671","0.0-175.0-0.0","93577392","wem/bandit_single","A3L0DCUXI7X3A9","gain","3","","72","H","0","img/none_selected.jpg","0","0","1","0.3893267926","","false","138","0.3893267926","","main_expt","0.3901350715","","0.3884520433","","0.44739429","","","","","","",""
"1465","","bandit","214","1086903","0.0-176.0-0.0","93577392","wem/bandit_single","A3L0DCUXI7X3A9","gain","3","","75","K","2","","1","0","0","0.3517782966","","false","139","0.3355070849","","main_expt","0.4069565875","","0.3517782966","","0.4329330235","","","","","","",""
"141","","bandit","215","1088811","0.0-177.0-0.0","93577392","wem/bandit_single","A3L0DCUXI7X3A9","gain","3","","75","K","2","","0","0","1","0.3147433726","","false","140","0.3033729388","","main_expt","0.4384632306","","0.3147433726","","0.4427321083","","","","","","",""
"248","","bandit","216","1090828","0.0-178.0-0.0","93577392","wem/bandit_single","A3L0DCUXI7X3A9","gain","3","","74","J","1","","0","0","1","0.4513823692","","false","141","0.3495942718","","main_expt","0.4513823692","","0.315874603","","0.4630674526","","","","","","",""
"467","","bandit","217","1093063","0.0-179.0-0.0","93577392","wem/bandit_single","A3L0DCUXI7X3A9","gain","3","","72","H","0","img/none_selected.jpg","1","0","0","0.373744609","","false","142","0.373744609","","main_expt","0.4477105457","","0.2660579121","","0.4678156034","","","","","","",""
"619","","bandit","218","1095448","0.0-180.0-0.0","93577392","wem/bandit_single","A3L0DCUXI7X3A9","gain","3","","76","L","3","","0","0","1","0.4556942345","","false","143","0.3983109068","","main_expt","0.4399018081","","0.2791435274","","0.4556942345","","","","","","",""
"106","","bandit","219","1097319","0.0-181.0-0.0","93577392","wem/bandit_single","A3L0DCUXI7X3A9","gain","3","","74","J","1","","1","0","0","0.3929519584","","false","144","0.4290647624","","main_expt","0.3929519584","","0.3232226047","","0.4606745253","","","","","","",""
"436","","bandit","220","1099522","0.0-182.0-0.0","93577392","wem/bandit_single","A3L0DCUXI7X3A9","gain","3","","74","J","1","","1","0","0","0.3638959839","","false","145","0.4360055891","","main_expt","0.3638959839","","0.2863527335","","0.4493721712","","","","","","",""
"473","","bandit","221","1101763","0.0-183.0-0.0","93577392","wem/bandit_single","A3L0DCUXI7X3A9","gain","3","","74","J","1","","1","0","0","0.3109408856","","false","146","0.4408793748","","main_expt","0.3109408856","","0.2399582054","","0.411205332","","","","","","",""
"1120","","bandit","222","1104651","0.0-184.0-0.0","93577392","wem/bandit_single","A3L0DCUXI7X3A9","gain","3","","74","J","1","","0","0","1","0.303790043","","false","147","0.4152856751","","main_expt","0.303790043","","0.2186627863","","0.4091009254","","","","","","",""
"392","","bandit","223","1106811","0.0-185.0-0.0","93577392","wem/bandit_single","A3L0DCUXI7X3A9","gain","3","","75","K","2","","1","0","0","0.233860686","","false","148","0.400149315","","main_expt","0.2836070719","","0.233860686","","0.3878952866","","","","","","",""
"250","","bandit","224","1108828","0.0-186.0-0.0","93577392","wem/bandit_single","A3L0DCUXI7X3A9","gain","3","","75","K","2","","1","0","0","0.2752018233","","false","149","0.4081055764","","main_expt","0.2132997302","","0.2752018233","","0.39239053","","","","","","",""
"790","","bandit","225","1111386","0.0-187.0-0.0","93577392","wem/bandit_single","A3L0DCUXI7X3A9","gain","3","","75","K","2","","0","0","1","0.2306982087","","false","150","0.3946041437","","main_expt","0.1906505553","","0.2306982087","","0.3869122725","","","","","","",""
"646","","bandit","226","1113799","0.0-188.0-0.0","93577392","wem/bandit_single","A3L0DCUXI7X3A9","gain","3","","75","K","2","","0","0","1","0.272940168","","false","151","0.3517385329","","main_expt","0.1887938372","","0.272940168","","0.3562084687","","","","","","",""
"619","","bandit","227","1116186","0.0-189.0-0.0","93577392","wem/bandit_single","A3L0DCUXI7X3A9","gain","3","","75","K","2","","0","0","1","0.246833375","","false","152","0.33807167","","main_expt","0.1452925277","","0.246833375","","0.3975166132","","","","","","",""
"446","","bandit","228","1118398","0.0-190.0-0.0","93577392","wem/bandit_single","A3L0DCUXI7X3A9","gain","3","","75","K","2","","0","0","1","0.2555278221","","false","153","0.3507556502","","main_expt","0.1236287895","","0.2555278221","","0.4221253747","","","","","","",""
"2853","","bandit","229","1123017","0.0-191.0-0.0","93577392","wem/bandit_single","A3L0DCUXI7X3A9","gain","3","","75","K","2","","0","0","1","0.1964980564","","false","154","0.3484399371","","main_expt","0.119712108","","0.1964980564","","0.3887365422","","","","","","",""
"344","","bandit","230","1125128","0.0-192.0-0.0","93577392","wem/bandit_single","A3L0DCUXI7X3A9","gain","3","","72","H","0","img/none_selected.jpg","1","0","0","0.4023996329","","false","155","0.4023996329","","main_expt","0.1638630184","","0.2158986014","","0.3935049101","","","","","","",""
"442","","bandit","231","1127337","0.0-193.0-0.0","93577392","wem/bandit_single","A3L0DCUXI7X3A9","gain","3","","72","H","0","img/none_selected.jpg","0","0","1","0.3489947109","","false","156","0.3489947109","","main_expt","0.138562935","","0.2269609611","","0.4185769797","","","","","","",""
"28","","bandit","232","1129133","0.0-194.0-0.0","93577392","wem/bandit_single","A3L0DCUXI7X3A9","gain","3","","74","J","1","","0","0","1","0.1424057266","","false","157","0.3223479281","","main_expt","0.1424057266","","0.2997599927","","0.412821327","","","","","","",""
"14","","bandit","233","1130915","0.0-195.0-0.0","93577392","wem/bandit_single","A3L0DCUXI7X3A9","gain","3","","75","K","2","","0","0","1","0.2608946303","","false","158","0.3334556671","","main_expt","0.1068688432","","0.2608946303","","0.4433072999","","","","","","",""
"39","","bandit","234","1132725","0.0-196.0-0.0","93577392","wem/bandit_single","A3L0DCUXI7X3A9","gain","3","","76","L","3","","0","0","1","0.4600675837","","false","159","0.3686402331","","main_expt","0.08394897778","","0.2927903113","","0.4600675837","","","","","","",""
"43","","bandit","235","1134535","0.0-197.0-0.0","93577392","wem/bandit_single","A3L0DCUXI7X3A9","gain","3","","74","J","1","","0","0","1","0.09909711901","","false","160","0.3711838842","","main_expt","0.09909711901","","0.3165869591","","0.449399373","","","","","","",""
"279","","bandit","236","1136582","0.0-198.0-0.0","93577392","wem/bandit_single","A3L0DCUXI7X3A9","gain","3","","72","H","0","img/none_selected.jpg","1","0","0","0.385982022","","false","161","0.385982022","","main_expt","0.09256485174","","0.3355773311","","0.4303005813","","","","","","",""
"2230","","bandit","237","1140579","0.0-199.0-0.0","93577392","wem/bandit_single","A3L0DCUXI7X3A9","gain","3","","72","H","0","img/none_selected.jpg","1","0","0","0.3435676447","","false","162","0.3435676447","","main_expt","0.07550585721","","0.3801839585","","0.4319487415","","","","","","",""
"112","","bandit","238","1142460","0.0-200.0-0.0","93577392","wem/bandit_single","A3L0DCUXI7X3A9","gain","3","","72","H","0","img/none_selected.jpg","0","0","1","0.3840292687","","false","163","0.3840292687","","main_expt","0.08055395315","","0.3796909961","","0.4459750046","","","","","","",""
"73","","bandit","239","1144303","0.0-201.0-0.0","93577392","wem/bandit_single","A3L0DCUXI7X3A9","gain","3","","74","J","1","","0","0","1","0.07824920034","","false","164","0.3427058888","","main_expt","0.07824920034","","0.3657353238","","0.4529977304","","","","","","",""
"9","","bandit","240","1146079","0.0-202.0-0.0","93577392","wem/bandit_single","A3L0DCUXI7X3A9","gain","3","","75","K","2","","1","0","0","0.3937598932","","false","165","0.3258967388","","main_expt","0.08439791844","","0.3937598932","","0.4472909282","","","","","","",""
"132","","bandit","241","1147981","0.0-203.0-0.0","93577392","wem/bandit_single","A3L0DCUXI7X3A9","gain","3","","75","K","2","","1","0","0","0.3914196171","","false","166","0.2704303424","","main_expt","0.05039915739","","0.3914196171","","0.4399772256","","","","","","",""
"359","","bandit","242","1150109","0.0-204.0-0.0","93577392","wem/bandit_single","A3L0DCUXI7X3A9","gain","3","","75","K","2","","0","0","1","0.3919877423","","false","167","0.3205555932","","main_expt","0.05759530337","","0.3919877423","","0.4636729032","","","","","","",""
"995","","bandit","243","1152874","0.0-205.0-0.0","93577392","wem/bandit_single","A3L0DCUXI7X3A9","gain","3","","75","K","2","","1","0","0","0.3647459683","","false","168","0.3639109947","","main_expt","0.04992464654","","0.3647459683","","0.4437796743","","","","","","",""
"244","","bandit","244","1154886","0.0-206.0-0.0","93577392","wem/bandit_single","A3L0DCUXI7X3A9","gain","3","","75","K","2","","0","0","1","0.4058418149","","false","169","0.3733582142","","main_expt","0.03416660819","","0.4058418149","","0.456101387","","","","","","",""
"112","","bandit","245","1156767","0.0-207.0-0.0","93577392","wem/bandit_single","A3L0DCUXI7X3A9","gain","3","","76","L","3","","0","0","1","0.4571218852","","false","170","0.3832331311","","main_expt","0.01917125828","","0.3998590153","","0.4571218852","","","","","","",""
"331","","bandit","246","1158866","0.0-208.0-0.0","93577392","wem/bandit_single","A3L0DCUXI7X3A9","gain","3","","72","H","0","img/none_selected.jpg","0","0","1","0.3815339887","","false","171","0.3815339887","","main_expt","0.02244253376","","0.3887500458","","0.445510323","","","","","","",""
"127","","bandit","247","1160761","0.0-209.0-0.0","93577392","wem/bandit_single","A3L0DCUXI7X3A9","gain","3","","74","J","1","","0","0","1","0.02619280326","","false","172","0.3471775219","","main_expt","0.02619280326","","0.4102182378","","0.4280794999","","","","","","",""
"63","","bandit","248","1162592","0.0-210.0-0.0","93577392","wem/bandit_single","A3L0DCUXI7X3A9","gain","3","","75","K","2","","0","0","1","0.3895773165","","false","173","0.340289466","","main_expt","0.0218428458","","0.3895773165","","0.4379780546","","","","","","",""
"36","","bandit","249","1164398","0.0-211.0-0.0","93577392","wem/bandit_single","A3L0DCUXI7X3A9","gain","3","","72","H","0","img/none_selected.jpg","0","0","1","0.3280863639","","false","174","0.3280863639","","main_expt","0.02840617367","","0.3826402373","","0.4160926905","","","","","","",""
"383","","bandit","250","1166549","0.0-212.0-0.0","93577392","wem/bandit_single","A3L0DCUXI7X3A9","gain","3","","76","L","3","","1","0","0","0.44195178","","false","175","0.3782643392","","main_expt","0.0268928826","","0.38572844","","0.44195178","","","","","","",""
"456","","bandit","251","1168776","0.0-213.0-0.0","93577392","wem/bandit_single","A3L0DCUXI7X3A9","gain","3","","75","K","2","","1","0","0","0.3566605828","","false","176","0.3714875018","","main_expt","0.04471375276","","0.3566605828","","0.4469840309","","","","","","",""
"517","","bandit","252","1171059","0.0-214.0-0.0","93577392","wem/bandit_single","A3L0DCUXI7X3A9","gain","3","","74","J","1","","0","0","1","0.04508647299","","false","177","0.3110573775","","main_expt","0.04508647299","","0.3736379944","","0.4732589693","","","","","","",""
"1505","","bandit","253","1174334","0.0-215.0-0.0","93577392","wem/bandit_single","A3L0DCUXI7X3A9","gain","3","","74","J","1","","0","0","1","0.07342594821","","false","178","0.3725785744","","main_expt","0.07342594821","","0.3835263095","","0.4716065645","","","","","","",""
"1120","","bandit","254","1177223","0.0-216.0-0.0","93577392","wem/bandit_single","A3L0DCUXI7X3A9","gain","3","","74","J","1","","1","0","0","0.08189943715","","false","179","0.4143512522","","main_expt","0.08189943715","","0.3531759074","","0.4724187392","","","","","","",""
"117","","bandit","255","1179110","0.0-217.0-0.0","93577392","wem/bandit_single","A3L0DCUXI7X3A9","gain","3","","74","J","1","","0","0","1","0.07894611151","","false","180","0.4240428135","","main_expt","0.07894611151","","0.3185705061","","0.4551908631","","","","","","",""
"14","","bandit","256","1180894","0.0-218.0-0.0","93577392","wem/bandit_single","A3L0DCUXI7X3A9","gain","3","","72","H","0","img/none_selected.jpg","1","0","0","0.4394908049","","false","181","0.4394908049","","main_expt","0.06982230443","","0.2823592255","","0.456416976","","","","","","",""
"159","","bandit","257","1182822","0.0-219.0-0.0","93577392","wem/bandit_single","A3L0DCUXI7X3A9","gain","3","","72","H","0","img/none_selected.jpg","1","0","0","0.4180692962","","false","182","0.4180692962","","main_expt","0.06674639092","","0.2741397005","","0.4525945541","","","","","","",""
"127","","bandit","258","1184717","0.0-220.0-0.0","93577392","wem/bandit_single","A3L0DCUXI7X3A9","gain","3","","72","H","0","img/none_selected.jpg","1","0","0","0.4468782907","","false","183","0.4468782907","","main_expt","0.04008595334","","0.2936799338","","0.4439654651","","","","","","",""
"639","","bandit","259","1187126","0.0-221.0-0.0","93577392","wem/bandit_single","A3L0DCUXI7X3A9","gain","3","","72","H","0","img/none_selected.jpg","0","0","1","0.4489540851","","false","184","0.4489540851","","main_expt","0.04652727321","","0.3027831177","","0.4366406792","","","","","","",""
"415","","bandit","260","1189308","0.0-222.0-0.0","93577392","wem/bandit_single","A3L0DCUXI7X3A9","gain","3","","72","H","0","img/none_selected.jpg","0","0","1","0.4669005471","","false","185","0.4669005471","","main_expt","0.05033673313","","0.3180510168","","0.4282468188","","","","","","",""
"1017","","bandit","261","1192096","0.0-223.0-0.0","93577392","wem/bandit_single","A3L0DCUXI7X3A9","gain","3","","72","H","0","img/none_selected.jpg","0","0","1","0.419417397","","false","186","0.419417397","","main_expt","0.03009771755","","0.3285352945","","0.4249990568","","","","","","",""
"1066","","bandit","262","1194931","0.0-224.0-0.0","93577392","wem/bandit_single","A3L0DCUXI7X3A9","gain","3","","74","J","1","","0","0","1","0.02601150791","","false","187","0.3735271503","","main_expt","0.02601150791","","0.3278715557","","0.4159118542","","","","","","",""
"203","","bandit","263","1196908","0.0-225.0-0.0","93577392","wem/bandit_single","A3L0DCUXI7X3A9","gain","3","","75","K","2","","0","0","1","0.3408065186","","false","188","0.3339942922","","main_expt","0.02389042297","","0.3408065186","","0.4294829221","","","","","","",""
"89","","bandit","264","1198767","0.0-226.0-0.0","93577392","wem/bandit_single","A3L0DCUXI7X3A9","gain","3","","76","L","3","","0","0","1","0.4183094629","","false","189","0.3200911101","","main_expt","0.02303770395","","0.3335894225","","0.4183094629","","","","","","",""
"58","","bandit","265","1200596","0.0-227.0-0.0","93577392","wem/bandit_single","A3L0DCUXI7X3A9","gain","3","","72","H","0","img/none_selected.jpg","0","0","1","0.379511296","","false","190","0.379511296","","main_expt","0.0156858998","","0.2560009578","","0.3769048436","","","","","","",""
"439","","bandit","266","1202803","0.0-228.0-0.0","93577392","wem/bandit_single","A3L0DCUXI7X3A9","gain","3","","74","J","1","","0","0","1","0.02184200568","","false","191","0.3475909393","","main_expt","0.02184200568","","0.2422543603","","0.3654839124","","","","","","",""
"1597","","bandit","267","1206169","0.0-229.0-0.0","93577392","wem/bandit_single","A3L0DCUXI7X3A9","gain","3","","72","H","0","img/none_selected.jpg","0","0","1","0.3248483226","","false","192","0.3248483226","","main_expt","0.04159540118","","0.2479432207","","0.4158526776","","","","","","",""
"1681","","bandit","268","1209622","0.0-230.0-0.0","93577392","wem/bandit_single","A3L0DCUXI7X3A9","gain","3","","74","J","1","","0","0","1","0.02418359434","","false","193","0.3530355579","","main_expt","0.02418359434","","0.2198669916","","0.4294001388","","","","","","",""
"1552","","bandit","269","1212943","0.0-231.0-0.0","93577392","wem/bandit_single","A3L0DCUXI7X3A9","gain","3","","74","J","1","","0","0","1","0.03036789999","","false","194","0.3613612536","","main_expt","0.03036789999","","0.1832858475","","0.421006879","","","","","","",""
"1671","","bandit","270","1216383","0.0-232.0-0.0","93577392","wem/bandit_single","A3L0DCUXI7X3A9","gain","3","","75","K","2","","0","0","1","0.1758973168","","false","195","0.3712676973","","main_expt","0.0328032794","","0.1758973168","","0.3993762185","","","","","","",""
"123","","bandit","271","1218275","0.0-233.0-0.0","93577392","wem/bandit_single","A3L0DCUXI7X3A9","gain","3","","76","L","3","","1","0","0","0.3953591144","","false","196","0.3797177139","","main_expt","0.03367124179","","0.1472052011","","0.3953591144","","","","","","",""
"92","","bandit","272","1220138","0.0-234.0-0.0","93577392","wem/bandit_single","A3L0DCUXI7X3A9","gain","3","","76","L","3","","1","0","0","0.4186523265","","false","197","0.3703437648","","main_expt","0.03515804352","","0.09357285733","","0.4186523265","","","","","","",""
"268","","bandit","273","1222177","0.0-235.0-0.0","93577392","wem/bandit_single","A3L0DCUXI7X3A9","gain","3","","76","L","3","","1","0","0","0.4334783576","","false","198","0.3269028648","","main_expt","0.0474911349","","0.1466532231","","0.4334783576","","","","","","",""
"216","","bandit","274","1224162","0.0-236.0-0.0","93577392","wem/bandit_single","A3L0DCUXI7X3A9","gain","3","","76","L","3","","1","0","0","0.452916177","","false","199","0.2972028605","","main_expt","0.04758635843","","0.1745555733","","0.452916177","","","","","","",""
"556","","bandit","275","1226488","0.0-237.0-0.0","93577392","wem/bandit_single","A3L0DCUXI7X3A9","gain","3","","76","L","3","","0","0","1","0.4652130485","","false","200","0.2548635421","","main_expt","0.06637193447","","0.1496088854","","0.4652130485","","","","","","",""
"1674","","bandit","276","1229934","0.0-238.0-0.0","93577392","wem/bandit_single","A3L0DCUXI7X3A9","gain","3","","76","L","3","","0","0","1","0.4544628945","","false","201","0.2360204523","","main_expt","0.03961336895","","0.1144678821","","0.4544628945","","","","","","",""
"131","","bandit","277","1231839","0.0-239.0-0.0","93577392","wem/bandit_single","A3L0DCUXI7X3A9","gain","3","","72","H","0","img/none_selected.jpg","0","0","1","0.1847208139","","false","202","0.1847208139","","main_expt","0.04217273593","","0.08314182588","","0.4346785174","","","","","","",""
"48","","bandit","278","1233655","0.0-240.0-0.0","93577392","wem/bandit_single","A3L0DCUXI7X3A9","gain","3","","74","J","1","","0","0","1","0.03601881868","","false","203","0.1740418795","","main_expt","0.03601881868","","0.1008304514","","0.4340895374","","","","","","",""
"91","","bandit","279","1235517","0.0-241.0-0.0","93577392","wem/bandit_single","A3L0DCUXI7X3A9","gain","3","","75","K","2","","0","0","1","0.1170364225","","false","204","0.1469060572","","main_expt","0.04663301139","","0.1170364225","","0.4398780919","","","","","","",""
"58","","bandit","280","1237344","0.0-242.0-0.0","93577392","wem/bandit_single","A3L0DCUXI7X3A9","gain","3","","76","L","3","","0","0","1","0.4001316318","","false","205","0.1162446513","","main_expt","0.04643109282","","0.1228414706","","0.4001316318","","","","","","",""
"298","","bandit","281","1239412","0.0-243.0-0.0","93577392","wem/bandit_single","A3L0DCUXI7X3A9","gain","3","","75","K","2","","0","0","1","0.1574749647","","false","206","0.1289033918","","main_expt","0.06886832812","","0.1574749647","","0.4347617828","","","","","","",""
"327","","bandit","282","1241508","0.0-244.0-0.0","93577392","wem/bandit_single","A3L0DCUXI7X3A9","gain","3","","74","J","1","","0","0","1","0.0600143171","","false","207","0.1261822501","","main_expt","0.0600143171","","0.1922173773","","0.4383015813","","","","","","",""
"121","","bandit","283","1243399","0.0-245.0-0.0","93577392","wem/bandit_single","A3L0DCUXI7X3A9","gain","3","","72","H","0","img/none_selected.jpg","0","0","1","0.1024795668","","false","208","0.1024795668","","main_expt","0.04637571639","","0.1673160211","","0.4038237536","","","","","","",""
"388","","bandit","284","1245554","0.0-246.0-0.0","93577392","wem/bandit_single","A3L0DCUXI7X3A9","gain","3","","76","L","3","","0","0","1","0.3890753365","","false","209","0.1129838087","","main_expt","0.04040360689","","0.1269527993","","0.3890753365","","","","","","",""
"409","","bandit","285","1247736","0.0-247.0-0.0","93577392","wem/bandit_single","A3L0DCUXI7X3A9","gain","3","","74","J","1","","0","0","1","0.02069644656","","false","210","0.1562804612","","main_expt","0.02069644656","","0.1114377498","","0.3792373644","","","","","","",""
"648","","bandit","286","1250153","0.0-248.0-0.0","93577392","wem/bandit_single","A3L0DCUXI7X3A9","gain","3","","72","H","0","img/none_selected.jpg","1","0","0","0.1363837251","","false","211","0.1363837251","","main_expt","0.03173395488","","0.1155820846","","0.3780611868","","","","","","",""
"570","","bandit","287","1252493","0.0-249.0-0.0","93577392","wem/bandit_single","A3L0DCUXI7X3A9","gain","3","","72","H","0","img/none_selected.jpg","0","0","1","0.09358237554","","false","212","0.09358237554","","main_expt","0.02469601981","","0.1553323518","","0.3483689532","","","","","","",""
"769","","bandit","288","1255031","0.0-250.0-0.0","93577392","wem/bandit_single","A3L0DCUXI7X3A9","gain","3","","72","H","0","img/none_selected.jpg","0","0","1","0.05743859841","","false","213","0.05743859841","","main_expt","0.04258417901","","0.2062901667","","0.2874103991","","","","","","",""
"663","","bandit","289","1257464","0.0-251.0-0.0","93577392","wem/bandit_single","A3L0DCUXI7X3A9","gain","3","","72","H","0","img/none_selected.jpg","0","0","1","0.05800100084","","false","214","0.05800100084","","main_expt","0.05493755721","","0.2076956631","","0.2620706088","","","","","","",""
"138","","bandit","290","1259371","0.0-252.0-0.0","93577392","wem/bandit_single","A3L0DCUXI7X3A9","gain","3","","74","J","1","","0","0","1","0.08978059799","","false","215","0.05413405856","","main_expt","0.08978059799","","0.2609492508","","0.2855520155","","","","","","",""
"421","","bandit","291","1261564","0.0-253.0-0.0","93577392","wem/bandit_single","A3L0DCUXI7X3A9","gain","3","","75","K","2","","0","0","1","0.2500101786","","false","216","0.03942357166","","main_expt","0.09809121306","","0.2500101786","","0.2916786734","","","","","","",""
"744","","bandit","292","1264075","0.0-254.0-0.0","93577392","wem/bandit_single","A3L0DCUXI7X3A9","gain","3","","76","L","3","","1","0","0","0.2823685681","","false","217","0.03801572204","","main_expt","0.1427848958","","0.2748248586","","0.2823685681","","","","","","",""
"320","","bandit","293","1266165","0.0-255.0-0.0","93577392","wem/bandit_single","A3L0DCUXI7X3A9","gain","3","","76","L","3","","0","0","1","0.2423520158","","false","218","0.03890441123","","main_expt","0.1570322525","","0.311954441","","0.2423520158","","","","","","",""
"466","","bandit","294","1268401","0.0-256.0-0.0","93577392","wem/bandit_single","A3L0DCUXI7X3A9","gain","3","","72","H","0","img/none_selected.jpg","0","0","1","0.01887456362","","false","219","0.01887456362","","main_expt","0.1805036953","","0.3632760336","","0.2949403562","","","","","","",""
"631","","bandit","295","1270802","0.0-257.0-0.0","93577392","wem/bandit_single","A3L0DCUXI7X3A9","gain","3","","74","J","1","","0","0","1","0.1305519061","","false","220","0.02149820142","","main_expt","0.1305519061","","0.3369908474","","0.3123592507","","","","","","",""
"1139","","bandit","296","1273711","0.0-258.0-0.0","93577392","wem/bandit_single","A3L0DCUXI7X3A9","gain","3","","75","K","2","","0","0","1","0.3047504054","","false","221","0.03528878979","","main_expt","0.09039333473","","0.3047504054","","0.3184432139","","","","","","",""
"1758","","bandit","297","1277241","0.0-259.0-0.0","93577392","wem/bandit_single","A3L0DCUXI7X3A9","gain","3","","72","H","0","img/none_selected.jpg","0","0","1","0.03906528797","","false","222","0.03906528797","","main_expt","0.0801847008","","0.3107799438","","0.3596246423","","","","","","",""
"64","","bandit","298","1279076","0.0-260.0-0.0","93577392","wem/bandit_single","A3L0DCUXI7X3A9","gain","3","","76","L","3","","0","0","1","0.3048299186","","false","223","0.04285152396","","main_expt","0.08930296305","","0.3359374044","","0.3048299186","","","","","","",""
"116","","bandit","299","1280962","0.0-261.0-0.0","93577392","wem/bandit_single","A3L0DCUXI7X3A9","gain","3","","74","J","1","","0","0","1","0.0783544472","","false","224","0.03308098724","","main_expt","0.0783544472","","0.354776332","","0.3097637171","","","","","","",""
"34","","bandit","300","1282766","0.0-262.0-0.0","93577392","wem/bandit_single","A3L0DCUXI7X3A9","gain","3","","75","K","2","","1","0","0","0.3747964846","","false","225","0.03318257961","","main_expt","0.05733223117","","0.3747964846","","0.3313621339","","","","","","",""
"117","","bandit","301","1284654","0.0-263.0-0.0","93577392","wem/bandit_single","A3L0DCUXI7X3A9","gain","3","","75","K","2","","0","0","1","0.3530330239","","false","226","0.02568716964","","main_expt","0.09472546141","","0.3530330239","","0.2611013425","","","","","","",""
"758","","bandit","302","1287184","0.0-264.0-0.0","93577392","wem/bandit_single","A3L0DCUXI7X3A9","gain","3","","75","K","2","","0","0","1","0.3299445106","","false","227","0.03534330031","","main_expt","0.08353253247","","0.3299445106","","0.2761398934","","","","","","",""
"1613","","bandit","303","1290568","0.0-265.0-0.0","93577392","wem/bandit_single","A3L0DCUXI7X3A9","gain","3","","75","K","2","","0","0","1","0.3286020352","","false","228","0.03702628412","","main_expt","0.06220105415","","0.3286020352","","0.2358148364","","","","","","",""
"126","","bandit","304","1292467","0.0-266.0-0.0","93577392","wem/bandit_single","A3L0DCUXI7X3A9","gain","3","","72","H","0","img/none_selected.jpg","0","0","1","0.03077125553","","false","229","0.03077125553","","main_expt","0.06639782905","","0.3178943429","","0.2091128555","","","","","","",""
"49","","bandit","305","1294286","0.0-267.0-0.0","93577392","wem/bandit_single","A3L0DCUXI7X3A9","gain","3","","76","L","3","","0","0","1","0.181986641","","false","230","0.03752036101","","main_expt","0.07029464087","","0.3254915512","","0.181986641","","","","","","",""
"88","","bandit","306","1296145","0.0-268.0-0.0","93577392","wem/bandit_single","A3L0DCUXI7X3A9","gain","3","","74","J","1","","0","0","1","0.07612781315","","false","231","0.02736090244","","main_expt","0.07612781315","","0.3298497064","","0.1599443191","","","","","","",""
"35","","bandit","307","1297953","0.0-269.0-0.0","93577392","wem/bandit_single","A3L0DCUXI7X3A9","gain","3","","75","K","2","","1","0","0","0.300331178","","false","232","0.02154887034","","main_expt","0.04325191911","","0.300331178","","0.125214013","","","","","","",""
"113","","bandit","308","1299837","0.0-270.0-0.0","93577392","wem/bandit_single","A3L0DCUXI7X3A9","gain","3","","75","K","2","","0","0","1","0.3357562734","","false","233","0.0228348974","","main_expt","0.04039924652","","0.3357562734","","0.134118517","","","","","","",""
"156","","bandit","309","1301762","0.0-271.0-0.0","93577392","wem/bandit_single","A3L0DCUXI7X3A9","gain","3","","74","J","1","","0","0","1","0.0435796211","","false","234","0.01030782054","","main_expt","0.0435796211","","0.3257461803","","0.1238594142","","","","","","",""
"90","","bandit","310","1303623","0.0-272.0-0.0","93577392","wem/bandit_single","A3L0DCUXI7X3A9","gain","3","","76","L","3","","0","0","1","0.1141846942","","false","235","0.02615737471","","main_expt","0.02315237623","","0.3534766227","","0.1141846942","","","","","","",""
"85","","bandit","311","1305480","0.0-273.0-0.0","93577392","wem/bandit_single","A3L0DCUXI7X3A9","gain","3","","75","K","2","","0","0","1","0.3733068719","","false","236","0.0224272094","","main_expt","0.02010779399","","0.3733068719","","0.1101280349","","","","","","",""
"1027","","bandit","312","1308278","0.0-274.0-0.0","93577392","wem/bandit_single","A3L0DCUXI7X3A9","gain","3","","75","K","2","","1","0","0","0.4105295152","","false","237","0.02679999918","","main_expt","0.01796146932","","0.4105295152","","0.09079266978","","","","","","",""
"596","","bandit","313","1310648","0.0-275.0-0.0","93577392","wem/bandit_single","A3L0DCUXI7X3A9","gain","3","","75","K","2","","0","0","1","0.4225156592","","false","238","0.07542988795","","main_expt","0.0167141813","","0.4225156592","","0.1365862295","","","","","","",""
"1275","","bandit","314","1313693","0.0-276.0-0.0","93577392","wem/bandit_single","A3L0DCUXI7X3A9","gain","3","","74","J","1","","0","0","1","0.03283355296","","false","239","0.09772903","","main_expt","0.03283355296","","0.4360895212","","0.1846819155","","","","","","",""
"99","","bandit","315","1315565","0.0-277.0-0.0","93577392","wem/bandit_single","A3L0DCUXI7X3A9","gain","3","","72","H","0","img/none_selected.jpg","0","0","1","0.1044145256","","false","240","0.1044145256","","main_expt","0.05325110434","","0.423514393","","0.1795044078","","","","","","",""
"37","","bandit","316","1317373","0.0-278.0-0.0","93577392","wem/bandit_single","A3L0DCUXI7X3A9","gain","3","","76","L","3","","0","0","1","0.1522343712","","false","241","0.109937241","","main_expt","0.04551940083","","0.3824942702","","0.1522343712","","","","","","",""
"60","","bandit","317","1319204","0.0-279.0-0.0","93577392","wem/bandit_single","A3L0DCUXI7X3A9","gain","3","","75","K","2","","0","0","1","0.3758562762","","false","242","0.09239004846","","main_expt","0.05503183359","","0.3758562762","","0.1433696576","","","","","","",""
"342","","bandit","318","1321319","0.0-280.0-0.0","93577392","wem/bandit_single","A3L0DCUXI7X3A9","gain","3","","74","J","1","","0","0","1","0.04467871076","","false","243","0.1014218366","","main_expt","0.04467871076","","0.2984655584","","0.1427577162","","","","","","",""
"271","","bandit","319","1323362","0.0-281.0-0.0","93577392","wem/bandit_single","A3L0DCUXI7X3A9","gain","3","","75","K","2","","0","0","1","0.2901672904","","false","244","0.192841162","","main_expt","0.06552455376","","0.2901672904","","0.1340795621","","","","","","",""
"268","","bandit","320","1325404","0.0-282.0-0.0","93577392","wem/bandit_single","A3L0DCUXI7X3A9","gain","3","","72","H","0","img/none_selected.jpg","0","0","1","0.1953250812","","false","245","0.1953250812","","main_expt","0.1005127954","","0.2495050599","","0.1469719784","","","","","","",""
"185","","bandit","321","1327360","0.0-283.0-0.0","93577392","wem/bandit_single","A3L0DCUXI7X3A9","gain","3","","76","L","3","","0","0","1","0.140914489","","false","246","0.1865380945","","main_expt","0.11534406","","0.2406773486","","0.140914489","","","","","","",""
"178","","bandit","322","1329310","0.0-284.0-0.0","93577392","wem/bandit_single","A3L0DCUXI7X3A9","gain","3","","74","J","1","","0","0","1","0.08579934652","","false","247","0.221100819","","main_expt","0.08579934652","","0.2265306157","","0.1592666071","","","","","","",""
"86","","bandit","323","1331168","0.0-285.0-0.0","93577392","wem/bandit_single","A3L0DCUXI7X3A9","gain","3","","75","K","2","","0","0","1","0.2000380921","","false","248","0.2106100544","","main_expt","0.08554071629","","0.2000380921","","0.2210893918","","","","","","",""
"67","","bandit","324","1333006","0.0-286.0-0.0","93577392","wem/bandit_single","A3L0DCUXI7X3A9","gain","3","","74","J","1","","0","0","1","0.07137080198","","false","249","0.2172535859","","main_expt","0.07137080198","","0.1920984986","","0.2306666851","","","","","","",""
"83","","bandit","325","1334861","0.0-287.0-0.0","93577392","wem/bandit_single","A3L0DCUXI7X3A9","gain","3","","72","H","0","img/none_selected.jpg","0","0","1","0.1953648199","","false","250","0.1953648199","","main_expt","0.06874505311","","0.1624135027","","0.2422322172","","","","","","",""
"29","","bandit","326","1336662","0.0-288.0-0.0","93577392","wem/bandit_single","A3L0DCUXI7X3A9","gain","3","","76","L","3","","0","0","1","0.2425189851","","false","251","0.2129795833","","main_expt","0.04927492375","","0.2057369507","","0.2425189851","","","","","","",""
"40","","bandit","327","1338473","0.0-289.0-0.0","93577392","wem/bandit_single","A3L0DCUXI7X3A9","gain","3","","74","J","1","","0","0","1","0.0504542679","","false","252","0.2271134102","","main_expt","0.0504542679","","0.26034901","","0.1980379423","","","","","","",""
"93","","bandit","328","1340339","0.0-290.0-0.0","93577392","wem/bandit_single","A3L0DCUXI7X3A9","gain","3","","75","K","2","","0","0","1","0.1886300366","","false","253","0.2152809257","","main_expt","0.0313618618","","0.1886300366","","0.2040952335","","","","","","",""
"918","","bandit","329","1343028","0.0-291.0-0.0","93577392","wem/bandit_single","A3L0DCUXI7X3A9","gain","3","","72","H","0","img/none_selected.jpg","0","0","1","0.2065685424","","false","254","0.2065685424","","main_expt","0.0191685034","","0.1978078828","","0.1621407843","","","","","","",""
"78","","bandit","330","1344879","0.0-292.0-0.0","93577392","wem/bandit_single","A3L0DCUXI7X3A9","gain","3","","76","L","3","","1","0","0","0.1817956319","","false","255","0.2000715388","","main_expt","0.01882474885","","0.1544468143","","0.1817956319","","","","","","",""
"474","","bandit","331","1347127","0.0-293.0-0.0","93577392","wem/bandit_single","A3L0DCUXI7X3A9","gain","3","","76","L","3","","0","0","1","0.1796151025","","false","256","0.1997851389","","main_expt","0.01765542058","","0.1552120094","","0.1796151025","","","","","","",""
"691","","bandit","332","1349588","0.0-294.0-0.0","93577392","wem/bandit_single","A3L0DCUXI7X3A9","gain","3","","76","L","3","","0","0","1","0.1874922979","","false","257","0.1965173465","","main_expt","0.0162265086","","0.1337291471","","0.1874922979","","","","","","",""
"961","","bandit","333","1352323","0.0-295.0-0.0","93577392","wem/bandit_single","A3L0DCUXI7X3A9","gain","3","","76","L","3","","0","0","1","0.2152410464","","false","258","0.1816932188","","main_expt","0.01630278654","","0.1279332347","","0.2152410464","","","","","","",""
"473","","bandit","334","1354570","0.0-296.0-0.0","93577392","wem/bandit_single","A3L0DCUXI7X3A9","gain","3","","75","K","2","","0","0","1","0.152418206","","false","259","0.2275026539","","main_expt","0.0149919991","","0.152418206","","0.2311433436","","","","","","",""
"62","","bandit","335","1356405","0.0-297.0-0.0","93577392","wem/bandit_single","A3L0DCUXI7X3A9","gain","3","","74","J","1","","0","0","1","0.02225913397","","false","260","0.1798156178","","main_expt","0.02225913397","","0.1100328583","","0.1621257941","","","","","","",""
"73","","bandit","336","1358251","0.0-298.0-0.0","93577392","wem/bandit_single","A3L0DCUXI7X3A9","gain","3","","72","H","0","img/none_selected.jpg","0","0","1","0.187122726","","false","261","0.187122726","","main_expt","0.02865634389","","0.1537012171","","0.1219102136","","","","","","",""
"25","","bandit","337","1360052","0.0-299.0-0.0","93577392","wem/bandit_single","A3L0DCUXI7X3A9","gain","3","","76","L","3","","0","0","1","0.1667536199","","false","262","0.1507521212","","main_expt","0.03173788073","","0.1302597035","","0.1667536199","","","","","","",""
"82","","bandit","338","1361906","0.0-300.0-0.0","93577392","wem/bandit_single","A3L0DCUXI7X3A9","gain","3","","75","K","2","","0","0","1","0.1297736826","","false","263","0.1374951011","","main_expt","0.04250990858","","0.1297736826","","0.1361259709","","","","","","",""
"72","","bandit","339","1363750","0.0-301.0-0.0","93577392","wem/bandit_single","A3L0DCUXI7X3A9","gain","3","","74","J","1","","0","0","1","0.056503948","","false","264","0.1158818852","","main_expt","0.056503948","","0.1326654045","","0.1217381733","","","","","","",""
"61","","bandit","340","1365585","0.0-302.0-0.0","93577392","wem/bandit_single","A3L0DCUXI7X3A9","gain","3","","72","H","0","img/none_selected.jpg","0","0","1","0.1147359408","","false","265","0.1147359408","","main_expt","0.07592662832","","0.1586413096","","0.1258265959","","","","","","",""
"115","","bandit","341","1367473","0.0-303.0-0.0","93577392","wem/bandit_single","A3L0DCUXI7X3A9","gain","3","","76","L","3","","1","0","0","0.1445769791","","false","266","0.09491002089","","main_expt","0.1002340293","","0.1496521415","","0.1445769791","","","","","","",""
"381","","bandit","342","1369625","0.0-304.0-0.0","93577392","wem/bandit_single","A3L0DCUXI7X3A9","gain","3","","76","L","3","","1","0","0","0.1014120844","","false","267","0.1181284109","","main_expt","0.1526998269","","0.1410052581","","0.1014120844","","","","","","",""
"741","","bandit","343","1372139","0.0-305.0-0.0","93577392","wem/bandit_single","A3L0DCUXI7X3A9","gain","3","","76","L","3","","0","0","1","0.06386630904","","false","268","0.1054434992","","main_expt","0.1340815566","","0.145208313","","0.06386630904","","","","","","",""
"259","","bandit","344","1374171","0.0-306.0-0.0","93577392","wem/bandit_single","A3L0DCUXI7X3A9","gain","3","","76","L","3","","0","0","1","0.03725778621","","false","269","0.1307900039","","main_expt","0.1350059692","","0.1387339362","","0.03725778621","","","","","","",""
"168","","bandit","345","1376112","0.0-307.0-0.0","93577392","wem/bandit_single","A3L0DCUXI7X3A9","gain","3","","76","L","3","","0","0","1","0.02825676517","","false","270","0.1444746669","","main_expt","0.1008257698","","0.1822325734","","0.02825676517","","","","","","",""
"451","","bandit","346","1378337","0.0-308.0-0.0","93577392","wem/bandit_single","A3L0DCUXI7X3A9","gain","3","","76","L","3","","0","0","1","0.02967844624","","false","271","0.1622504114","","main_expt","0.1257425884","","0.1752825828","","0.02967844624","","","","","","",""
"276","","bandit","347","1380385","0.0-309.0-0.0","93577392","wem/bandit_single","A3L0DCUXI7X3A9","gain","3","","76","L","3","","0","0","1","0.03051557875","","false","272","0.1814673171","","main_expt","0.1363444874","","0.1572277832","","0.03051557875","","","","","","",""
"71","","bandit","348","1382232","0.0-310.0-0.0","93577392","wem/bandit_single","A3L0DCUXI7X3A9","gain","3","","75","K","2","","0","0","1","0.1609880977","","false","273","0.1930303076","","main_expt","0.1090842693","","0.1609880977","","0.0408401102","","","","","","",""
"87","","bandit","349","1384091","0.0-311.0-0.0","93577392","wem/bandit_single","A3L0DCUXI7X3A9","gain","3","","74","J","1","","1","0","0","0.1397265487","","false","274","0.1704680895","","main_expt","0.1397265487","","0.2228580822","","0.03240614182","","","","","","",""
"269","","bandit","350","1386133","0.0-312.0-0.0","93577392","wem/bandit_single","A3L0DCUXI7X3A9","gain","3","","74","J","1","","0","0","1","0.210641606","","false","275","0.1785534293","","main_expt","0.210641606","","0.2126640298","","0.04120982645","","","","","","",""
"259","","bandit","351","1388165","0.0-313.0-0.0","93577392","wem/bandit_single","A3L0DCUXI7X3A9","gain","3","","74","J","1","","0","0","1","0.1523626192","","false","276","0.1843971019","","main_expt","0.1523626192","","0.2006548762","","0.04353307789","","","","","","",""
"417","","bandit","352","1390355","0.0-314.0-0.0","93577392","wem/bandit_single","A3L0DCUXI7X3A9","gain","3","","72","H","0","img/none_selected.jpg","1","0","0","0.2042268453","","false","277","0.2042268453","","main_expt","0.16102954","","0.1986275587","","0.0172565486","","","","","","",""
"583","","bandit","353","1392710","0.0-315.0-0.0","93577392","wem/bandit_single","A3L0DCUXI7X3A9","gain","3","","76","L","3","","0","0","1","0.02582715814","","false","278","0.1609113936","","main_expt","0.1166001048","","0.1321506531","","0.02582715814","","","","","","",""
"1407","","bandit","354","1395891","0.0-316.0-0.0","93577392","wem/bandit_single","A3L0DCUXI7X3A9","gain","3","","76","L","3","","0","0","1","0.03609925784","","false","279","0.1604878733","","main_expt","0.1427402012","","0.2112193978","","0.03609925784","","","","","","",""
"953","","bandit","355","1398619","0.0-317.0-0.0","93577392","wem/bandit_single","A3L0DCUXI7X3A9","gain","3","","76","L","3","","0","0","1","0.02629944548","","false","280","0.1678567182","","main_expt","0.1524149458","","0.1872216356","","0.02629944548","","","","","","",""
"2721","","bandit","356","1403116","0.0-318.0-0.0","93577392","wem/bandit_single","A3L0DCUXI7X3A9","gain","3","","76","L","3","","0","0","1","0.01890368782","","false","281","0.1338700362","","main_expt","0.1638207856","","0.1635487084","","0.01890368782","","","","","","",""
"342","","bandit","357","1405233","0.0-319.0-0.0","93577392","wem/bandit_single","A3L0DCUXI7X3A9","gain","3","","74","J","1","","0","0","1","0.1055747009","","false","282","0.2010661714","","main_expt","0.1055747009","","0.1576359327","","0.01508823693","","","","","","",""
"67","","bandit","358","1407072","0.0-320.0-0.0","93577392","wem/bandit_single","A3L0DCUXI7X3A9","gain","3","","75","K","2","","1","0","0","0.21861051","","false","283","0.1763159594","","main_expt","0.1121395768","","0.21861051","","0.01359220223","","","","","","",""
"285","","bandit","359","1409131","0.0-321.0-0.0","93577392","wem/bandit_single","A3L0DCUXI7X3A9","gain","3","","75","K","2","","0","0","1","0.180487154","","false","284","0.2379754842","","main_expt","0.1110051372","","0.180487154","","0.01691173417","","","","","","",""
"760","","bandit","360","1411664","0.0-322.0-0.0","93577392","wem/bandit_single","A3L0DCUXI7X3A9","gain","3","","75","K","2","","0","0","1","0.1641106304","","false","285","0.2769670592","","main_expt","0.1746572204","","0.1641106304","","0.01734240677","","","","","","",""
"48","","bandit","361","1413486","0.0-323.0-0.0","93577392","wem/bandit_single","A3L0DCUXI7X3A9","gain","3","","72","H","0","img/none_selected.jpg","0","0","1","0.3002963297","","false","286","0.3002963297","","main_expt","0.2038956484","","0.1866508097","","0.01574531315","","","","","","",""
"128","","bandit","362","1415389","0.0-324.0-0.0","93577392","wem/bandit_single","A3L0DCUXI7X3A9","gain","3","","74","J","1","","0","0","1","0.2396876396","","false","287","0.2804215723","","main_expt","0.2396876396","","0.1339791425","","0.011703364","","","","","","",""
"804","","bandit","363","1417965","0.0-325.0-0.0","93577392","wem/bandit_single","A3L0DCUXI7X3A9","gain","3","","76","L","3","","0","0","1","0.01499165326","","false","288","0.2873948651","","main_expt","0.2300823482","","0.1910191906","","0.01499165326","","","","","","",""
"21","","bandit","364","1419763","0.0-326.0-0.0","93577392","wem/bandit_single","A3L0DCUXI7X3A9","gain","3","","74","J","1","","0","0","1","0.2697946193","","false","289","0.3383825142","","main_expt","0.2697946193","","0.1987886011","","0.01307353483","","","","","","",""
"803","","bandit","365","1422340","0.0-327.0-0.0","93577392","wem/bandit_single","A3L0DCUXI7X3A9","gain","3","","74","J","1","","1","0","0","0.3030113395","","false","290","0.3597664772","","main_expt","0.3030113395","","0.2163493667","","0.005839555229","","","","","","",""
"361","","bandit","366","1424474","0.0-328.0-0.0","93577392","wem/bandit_single","A3L0DCUXI7X3A9","gain","3","","74","J","1","","0","0","1","0.2903670118","","false","291","0.3684517111","","main_expt","0.2903670118","","0.1987756658","","0.00760433752","","","","","","",""
"692","","bandit","367","1426939","0.0-329.0-0.0","93577392","wem/bandit_single","A3L0DCUXI7X3A9","gain","3","","74","J","1","","0","0","1","0.3219279298","","false","292","0.3471931258","","main_expt","0.3219279298","","0.1996771378","","0.01807310376","","","","","","",""
"8","","bandit","368","1428719","0.0-330.0-0.0","93577392","wem/bandit_single","A3L0DCUXI7X3A9","gain","3","","75","K","2","","0","0","1","0.2067525645","","false","293","0.3742872252","","main_expt","0.2585416619","","0.2067525645","","0.02882206876","","","","","","",""
"328","","bandit","369","1430822","0.0-331.0-0.0","93577392","wem/bandit_single","A3L0DCUXI7X3A9","gain","3","","72","H","0","img/none_selected.jpg","0","0","1","0.3937541296","","false","294","0.3937541296","","main_expt","0.3093607287","","0.230585761","","0.02728804169","","","","","","",""
"90","","bandit","370","1432689","0.0-332.0-0.0","93577392","wem/bandit_single","A3L0DCUXI7X3A9","gain","3","","76","L","3","","0","0","1","0.01545304162","","false","295","0.3331550888","","main_expt","0.315069057","","0.1936278336","","0.01545304162","","","","","","",""
"69","","bandit","371","1434533","0.0-333.0-0.0","93577392","wem/bandit_single","A3L0DCUXI7X3A9","gain","3","","74","J","1","","0","0","1","0.3556215031","","false","296","0.3564327955","","main_expt","0.3556215031","","0.1733248866","","0.01463146341","","","","","","",""
"63","","bandit","372","1436371","0.0-334.0-0.0","93577392","wem/bandit_single","A3L0DCUXI7X3A9","gain","3","","75","K","2","","0","0","1","0.1762096585","","false","297","0.3344242189","","main_expt","0.3380436511","","0.1762096585","","0.03487584845","","","","","","",""
