"rt","responses","trial_type","trial_index","time_elapsed","internal_node_id","subjID","study","MID","cond","drift","key_press","respCharCode","respKey","respChoiceNum","respChoice","gems","bombs","no_reward","GemPrChosen","BombPrChosen","practice","trial_counter","WinPr_0","LosePr_0","trial_label","WinPr_1","LosePr_1","WinPr_2","LosePr_2","WinPr_3","LosePr_3","Q0","Q1","Q2","gender","age","ethnicity"
"9585","{""Q0"":""A2HGAQ9WOEU9PN""}","survey-text","0","9598","0.0-0.0","94038596","wem/bandit_single","A2HGAQ9WOEU9PN","gain","2","","","","","","","","","","","","","","","","","","","","","","","","","","",""
"1390","","text","1","12002","0.0-1.0","94038596","wem/bandit_single","A2HGAQ9WOEU9PN","gain","2","32","","","","","","","","","","","","","","","","","","","","","","","","","",""
"7130","","text","2","19140","0.0-2.0","94038596","wem/bandit_single","A2HGAQ9WOEU9PN","gain","2","32","","","","","","","","","","","","","","","","","","","","","","","","","",""
"40863","","text","3","60011","0.0-3.0","94038596","wem/bandit_single","A2HGAQ9WOEU9PN","gain","2","32","","","","","","","","","","","","","","","","","","","","","","","","","",""
"16805","","text","4","76823","0.0-4.0","94038596","wem/bandit_single","A2HGAQ9WOEU9PN","gain","2","32","","","","","","","","","","","","","","","","","","","","","","","","","",""
"8636","","text","5","85466","0.0-5.0","94038596","wem/bandit_single","A2HGAQ9WOEU9PN","gain","2","32","","","","","","","","","","","","","","","","","","","","","","","","","",""
"7289","","text","6","92763","0.0-6.0","94038596","wem/bandit_single","A2HGAQ9WOEU9PN","gain","2","32","","","","","","","","","","","","","","","","","","","","","","","","","",""
"4025","","text","7","96796","0.0-7.0","94038596","wem/bandit_single","A2HGAQ9WOEU9PN","gain","2","32","","","","","","","","","","","","","","","","","","","","","","","","","",""
"6516","","text","8","103319","0.0-8.0","94038596","wem/bandit_single","A2HGAQ9WOEU9PN","gain","2","32","","","","","","","","","","","","","","","","","","","","","","","","","",""
"2074","","text","9","105398","0.0-9.0","94038596","wem/bandit_single","A2HGAQ9WOEU9PN","gain","2","32","","","","","","","","","","","","","","","","","","","","","","","","","",""
"3184","","text","10","108589","0.0-10.0","94038596","wem/bandit_single","A2HGAQ9WOEU9PN","gain","2","32","","","","","","","","","","","","","","","","","","","","","","","","","",""
"2835","","text","11","111429","0.0-11.0","94038596","wem/bandit_single","A2HGAQ9WOEU9PN","gain","2","32","","","","","","","","","","","","","","","","","","","","","","","","","",""
"4004","","bandit","12","116953","0.0-12.0-0.0","94038596","wem/bandit_single","A2HGAQ9WOEU9PN","gain","2","","74","J","0","img/none_selected_demo.jpg","0","0","1","0","0","true","0","0","0","","","","","","","","","","","","",""
"1954","","bandit","13","120683","0.0-13.0-0.0","94038596","wem/bandit_single","A2HGAQ9WOEU9PN","gain","2","","75","K","0","img/none_selected_demo.jpg","0","0","1","0","0","true","0","0","0","","","","","","","","","","","","",""
"2630","","text","14","123573","0.0-14.0","94038596","wem/bandit_single","A2HGAQ9WOEU9PN","gain","2","32","","","","","","","","","","","","","","","","","","","","","","","","","",""
"2018","","text","15","125596","0.0-15.0","94038596","wem/bandit_single","A2HGAQ9WOEU9PN","gain","2","32","","","","","","","","","","","","","","","","","","","","","","","","","",""
"4196","","text","16","129797","0.0-16.0","94038596","wem/bandit_single","A2HGAQ9WOEU9PN","gain","2","32","","","","","","","","","","","","","","","","","","","","","","","","","",""
"4083","","text","17","133884","0.0-17.0","94038596","wem/bandit_single","A2HGAQ9WOEU9PN","gain","2","32","","","","","","","","","","","","","","","","","","","","","","","","","",""
"1884","","bandit","18","137288","0.0-18.0-0.0","94038596","wem/bandit_single","A2HGAQ9WOEU9PN","gain","2","","74","J","0","img/none_selected_demo.jpg","1","0","0","0.8","0","true","0","0.8","0","80_20_practice","0.2","0","","","","","","","","","",""
"423","","bandit","19","139477","0.0-18.0-1.0","94038596","wem/bandit_single","A2HGAQ9WOEU9PN","gain","2","","74","J","0","img/none_selected_demo.jpg","1","0","0","0.8","0","true","0","0.8","0","80_20_practice","0.2","0","","","","","","","","","",""
"722","","bandit","20","141963","0.0-18.0-2.0","94038596","wem/bandit_single","A2HGAQ9WOEU9PN","gain","2","","74","J","0","img/none_selected_demo.jpg","1","0","0","0.8","0","true","0","0.8","0","80_20_practice","0.2","0","","","","","","","","","",""
"543","","bandit","21","144315","0.0-18.0-3.0","94038596","wem/bandit_single","A2HGAQ9WOEU9PN","gain","2","","74","J","0","img/none_selected_demo.jpg","1","0","0","0.8","0","true","0","0.8","0","80_20_practice","0.2","0","","","","","","","","","",""
"27","","bandit","22","146231","0.0-18.0-4.0","94038596","wem/bandit_single","A2HGAQ9WOEU9PN","gain","2","","74","J","0","img/none_selected_demo.jpg","1","0","0","0.8","0","true","0","0.8","0","80_20_practice","0.2","0","","","","","","","","","",""
"412","","bandit","23","148415","0.0-18.0-5.0","94038596","wem/bandit_single","A2HGAQ9WOEU9PN","gain","2","","74","J","0","img/none_selected_demo.jpg","0","0","1","0.8","0","true","0","0.8","0","80_20_practice","0.2","0","","","","","","","","","",""
"396","","bandit","24","150589","0.0-18.0-6.0","94038596","wem/bandit_single","A2HGAQ9WOEU9PN","gain","2","","74","J","0","img/none_selected_demo.jpg","1","0","0","0.8","0","true","0","0.8","0","80_20_practice","0.2","0","","","","","","","","","",""
"423","","bandit","25","152784","0.0-18.0-7.0","94038596","wem/bandit_single","A2HGAQ9WOEU9PN","gain","2","","74","J","0","img/none_selected_demo.jpg","1","0","0","0.8","0","true","0","0.8","0","80_20_practice","0.2","0","","","","","","","","","",""
"362","","bandit","26","154936","0.0-18.0-8.0","94038596","wem/bandit_single","A2HGAQ9WOEU9PN","gain","2","","74","J","0","img/none_selected_demo.jpg","1","0","0","0.8","0","true","0","0.8","0","80_20_practice","0.2","0","","","","","","","","","",""
"306","","bandit","27","157014","0.0-18.0-9.0","94038596","wem/bandit_single","A2HGAQ9WOEU9PN","gain","2","","74","J","0","img/none_selected_demo.jpg","0","0","1","0.8","0","true","0","0.8","0","80_20_practice","0.2","0","","","","","","","","","",""
"152","","bandit","28","158933","0.0-18.0-10.0","94038596","wem/bandit_single","A2HGAQ9WOEU9PN","gain","2","","74","J","0","img/none_selected_demo.jpg","1","0","0","0.8","0","true","0","0.8","0","80_20_practice","0.2","0","","","","","","","","","",""
"250","","bandit","29","160950","0.0-18.0-11.0","94038596","wem/bandit_single","A2HGAQ9WOEU9PN","gain","2","","74","J","0","img/none_selected_demo.jpg","1","0","0","0.8","0","true","0","0.8","0","80_20_practice","0.2","0","","","","","","","","","",""
"389","","bandit","30","163111","0.0-18.0-12.0","94038596","wem/bandit_single","A2HGAQ9WOEU9PN","gain","2","","74","J","0","img/none_selected_demo.jpg","1","0","0","0.8","0","true","0","0.8","0","80_20_practice","0.2","0","","","","","","","","","",""
"653","","bandit","31","165533","0.0-18.0-13.0","94038596","wem/bandit_single","A2HGAQ9WOEU9PN","gain","2","","74","J","0","img/none_selected_demo.jpg","1","0","0","0.8","0","true","0","0.8","0","80_20_practice","0.2","0","","","","","","","","","",""
"306","","bandit","32","167638","0.0-18.0-14.0","94038596","wem/bandit_single","A2HGAQ9WOEU9PN","gain","2","","74","J","0","img/none_selected_demo.jpg","1","0","0","0.8","0","true","0","0.8","0","80_20_practice","0.2","0","","","","","","","","","",""
"192","","bandit","33","169601","0.0-18.0-15.0","94038596","wem/bandit_single","A2HGAQ9WOEU9PN","gain","2","","74","J","0","img/none_selected_demo.jpg","1","0","0","0.8","0","true","0","0.8","0","80_20_practice","0.2","0","","","","","","","","","",""
"138","","bandit","34","171508","0.0-18.0-16.0","94038596","wem/bandit_single","A2HGAQ9WOEU9PN","gain","2","","74","J","0","img/none_selected_demo.jpg","1","0","0","0.8","0","true","0","0.8","0","80_20_practice","0.2","0","","","","","","","","","",""
"322","","bandit","35","173599","0.0-18.0-17.0","94038596","wem/bandit_single","A2HGAQ9WOEU9PN","gain","2","","74","J","0","img/none_selected_demo.jpg","1","0","0","0.8","0","true","0","0.8","0","80_20_practice","0.2","0","","","","","","","","","",""
"237","","bandit","36","175605","0.0-18.0-18.0","94038596","wem/bandit_single","A2HGAQ9WOEU9PN","gain","2","","74","J","0","img/none_selected_demo.jpg","1","0","0","0.8","0","true","0","0.8","0","80_20_practice","0.2","0","","","","","","","","","",""
"283","","bandit","37","177690","0.0-18.0-19.0","94038596","wem/bandit_single","A2HGAQ9WOEU9PN","gain","2","","74","J","0","img/none_selected_demo.jpg","1","0","0","0.8","0","true","0","0.8","0","80_20_practice","0.2","0","","","","","","","","","",""
"3344","","text","38","181293","0.0-19.0","94038596","wem/bandit_single","A2HGAQ9WOEU9PN","gain","2","32","","","","","","","","","","","","","","","","","","","","","","","","","",""
"2020","","bandit","39","184838","0.0-20.0-0.0","94038596","wem/bandit_single","A2HGAQ9WOEU9PN","gain","2","","74","J","0","img/none_selected_demo.jpg","0","0","1","0","0","true","0","0","0","","0","0","","","","","","","","","",""
"5976","","text","40","191080","0.0-21.0","94038596","wem/bandit_single","A2HGAQ9WOEU9PN","gain","2","32","","","","","","","","","","","","","","","","","","","","","","","","","",""
"2554","","text","41","193644","0.0-22.0","94038596","wem/bandit_single","A2HGAQ9WOEU9PN","gain","2","32","","","","","","","","","","","","","","","","","","","","","","","","","",""
"4091","","text","42","197743","0.0-23.0","94038596","wem/bandit_single","A2HGAQ9WOEU9PN","gain","2","32","","","","","","","","","","","","","","","","","","","","","","","","","",""
"3584","","text","43","201336","0.0-24.0","94038596","wem/bandit_single","A2HGAQ9WOEU9PN","gain","2","32","","","","","","","","","","","","","","","","","","","","","","","","","",""
"16422","","text","44","217772","0.0-25.0","94038596","wem/bandit_single","A2HGAQ9WOEU9PN","gain","2","32","","","","","","","","","","","","","","","","","","","","","","","","","",""
"4568","","text","45","222350","0.0-26.0","94038596","wem/bandit_single","A2HGAQ9WOEU9PN","gain","2","32","","","","","","","","","","","","","","","","","","","","","","","","","",""
"7399","","text","46","229763","0.0-27.0","94038596","wem/bandit_single","A2HGAQ9WOEU9PN","gain","2","32","","","","","","","","","","","","","","","","","","","","","","","","","",""
"4578","","text","47","234354","0.0-28.0","94038596","wem/bandit_single","A2HGAQ9WOEU9PN","gain","2","32","","","","","","","","","","","","","","","","","","","","","","","","","",""
"4592","","text","48","238959","0.0-29.0","94038596","wem/bandit_single","A2HGAQ9WOEU9PN","gain","2","32","","","","","","","","","","","","","","","","","","","","","","","","","",""
"3588","","text","49","242562","0.0-30.0","94038596","wem/bandit_single","A2HGAQ9WOEU9PN","gain","2","32","","","","","","","","","","","","","","","","","","","","","","","","","",""
"5239","","text","50","247814","0.0-31.0","94038596","wem/bandit_single","A2HGAQ9WOEU9PN","gain","2","32","","","","","","","","","","","","","","","","","","","","","","","","","",""
"1181","","bandit","51","250543","0.0-32.0-0.0","94038596","wem/bandit_single","A2HGAQ9WOEU9PN","gain","2","","72","H","0","img/none_selected.jpg","0","0","1","0.8","0","true","0","0.8","0","full_practice","0.2","0","0.6","0","0.2","0","","","","","",""
"161","","bandit","52","252480","0.0-32.0-1.0","94038596","wem/bandit_single","A2HGAQ9WOEU9PN","gain","2","","74","J","1","","0","0","1","0.2","0","true","0","0.8","0","full_practice","0.2","0","0.6","0","0.2","0","","","","","",""
"324","","bandit","53","254582","0.0-32.0-2.0","94038596","wem/bandit_single","A2HGAQ9WOEU9PN","gain","2","","75","K","2","","0","0","1","0.6","0","true","0","0.8","0","full_practice","0.2","0","0.6","0","0.2","0","","","","","",""
"229","","bandit","54","256644","0.0-32.0-3.0","94038596","wem/bandit_single","A2HGAQ9WOEU9PN","gain","2","","76","L","3","","0","0","1","0.2","0","true","0","0.8","0","full_practice","0.2","0","0.6","0","0.2","0","","","","","",""
"164","","bandit","55","258580","0.0-32.0-4.0","94038596","wem/bandit_single","A2HGAQ9WOEU9PN","gain","2","","72","H","0","img/none_selected.jpg","1","0","0","0.8","0","true","0","0.8","0","full_practice","0.2","0","0.6","0","0.2","0","","","","","",""
"174","","bandit","56","260566","0.0-32.0-5.0","94038596","wem/bandit_single","A2HGAQ9WOEU9PN","gain","2","","74","J","1","","0","0","1","0.2","0","true","0","0.8","0","full_practice","0.2","0","0.6","0","0.2","0","","","","","",""
"670","","bandit","57","263004","0.0-32.0-6.0","94038596","wem/bandit_single","A2HGAQ9WOEU9PN","gain","2","","74","J","1","","1","0","0","0.2","0","true","0","0.8","0","full_practice","0.2","0","0.6","0","0.2","0","","","","","",""
"589","","bandit","58","265363","0.0-32.0-7.0","94038596","wem/bandit_single","A2HGAQ9WOEU9PN","gain","2","","74","J","1","","0","0","1","0.2","0","true","0","0.8","0","full_practice","0.2","0","0.6","0","0.2","0","","","","","",""
"205","","bandit","59","267363","0.0-32.0-8.0","94038596","wem/bandit_single","A2HGAQ9WOEU9PN","gain","2","","75","K","2","","1","0","0","0.6","0","true","0","0.8","0","full_practice","0.2","0","0.6","0","0.2","0","","","","","",""
"580","","bandit","60","269707","0.0-32.0-9.0","94038596","wem/bandit_single","A2HGAQ9WOEU9PN","gain","2","","75","K","2","","0","0","1","0.6","0","true","0","0.8","0","full_practice","0.2","0","0.6","0","0.2","0","","","","","",""
"3475","","bandit","61","274982","0.0-32.0-10.0","94038596","wem/bandit_single","A2HGAQ9WOEU9PN","gain","2","","76","L","3","","1","0","0","0.2","0","true","0","0.8","0","full_practice","0.2","0","0.6","0","0.2","0","","","","","",""
"132","","bandit","62","276891","0.0-32.0-11.0","94038596","wem/bandit_single","A2HGAQ9WOEU9PN","gain","2","","76","L","3","","0","0","1","0.2","0","true","0","0.8","0","full_practice","0.2","0","0.6","0","0.2","0","","","","","",""
"128","","bandit","63","278787","0.0-32.0-12.0","94038596","wem/bandit_single","A2HGAQ9WOEU9PN","gain","2","","72","H","0","img/none_selected.jpg","1","0","0","0.8","0","true","0","0.8","0","full_practice","0.2","0","0.6","0","0.2","0","","","","","",""
"226","","bandit","64","280781","0.0-32.0-13.0","94038596","wem/bandit_single","A2HGAQ9WOEU9PN","gain","2","","72","H","0","img/none_selected.jpg","0","0","1","0.8","0","true","0","0.8","0","full_practice","0.2","0","0.6","0","0.2","0","","","","","",""
"142","","bandit","65","282692","0.0-32.0-14.0","94038596","wem/bandit_single","A2HGAQ9WOEU9PN","gain","2","","72","H","0","img/none_selected.jpg","1","0","0","0.8","0","true","0","0.8","0","full_practice","0.2","0","0.6","0","0.2","0","","","","","",""
"219","","bandit","66","284674","0.0-32.0-15.0","94038596","wem/bandit_single","A2HGAQ9WOEU9PN","gain","2","","72","H","0","img/none_selected.jpg","1","0","0","0.8","0","true","0","0.8","0","full_practice","0.2","0","0.6","0","0.2","0","","","","","",""
"19","","bandit","67","286498","0.0-32.0-16.0","94038596","wem/bandit_single","A2HGAQ9WOEU9PN","gain","2","","72","H","0","img/none_selected.jpg","1","0","0","0.8","0","true","0","0.8","0","full_practice","0.2","0","0.6","0","0.2","0","","","","","",""
"166","","bandit","68","288465","0.0-32.0-17.0","94038596","wem/bandit_single","A2HGAQ9WOEU9PN","gain","2","","72","H","0","img/none_selected.jpg","1","0","0","0.8","0","true","0","0.8","0","full_practice","0.2","0","0.6","0","0.2","0","","","","","",""
"250","","bandit","69","290491","0.0-32.0-18.0","94038596","wem/bandit_single","A2HGAQ9WOEU9PN","gain","2","","72","H","0","img/none_selected.jpg","1","0","0","0.8","0","true","0","0.8","0","full_practice","0.2","0","0.6","0","0.2","0","","","","","",""
"112","","bandit","70","292396","0.0-32.0-19.0","94038596","wem/bandit_single","A2HGAQ9WOEU9PN","gain","2","","72","H","0","img/none_selected.jpg","1","0","0","0.8","0","true","0","0.8","0","full_practice","0.2","0","0.6","0","0.2","0","","","","","",""
"2439","","text","71","295109","0.0-33.0","94038596","wem/bandit_single","A2HGAQ9WOEU9PN","gain","2","32","","","","","","","","","","","","","","","","","","","","","","","","","",""
"13775","","text","72","309897","0.0-34.0","94038596","wem/bandit_single","A2HGAQ9WOEU9PN","gain","2","32","","","","","","","","","","","","","","","","","","","","","","","","","",""
"9741","","text","73","319655","0.0-35.0","94038596","wem/bandit_single","A2HGAQ9WOEU9PN","gain","2","32","","","","","","","","","","","","","","","","","","","","","","","","","",""
"23174","","text","74","342840","0.0-36.0","94038596","wem/bandit_single","A2HGAQ9WOEU9PN","gain","2","32","","","","","","","","","","","","","","","","","","","","","","","","","",""
"7514","","text","75","350367","0.0-37.0","94038596","wem/bandit_single","A2HGAQ9WOEU9PN","gain","2","32","","","","","","","","","","","","","","","","","","","","","","","","","",""
"2665","","bandit","76","354557","0.0-38.0-0.0","94038596","wem/bandit_single","A2HGAQ9WOEU9PN","gain","2","","72","H","0","img/none_selected.jpg","0","0","1","0.1196507759","","false","1","0.1196507759","","main_expt","0.1047922924","","0.03692567881","","0.1473353724","","","","","","",""
"187","","bandit","77","356518","0.0-39.0-0.0","94038596","wem/bandit_single","A2HGAQ9WOEU9PN","gain","2","","74","J","1","","0","0","1","0.09232691068","","false","2","0.1434551849","","main_expt","0.09232691068","","0.0535834513","","0.1471364572","","","","","","",""
"332","","bandit","78","358621","0.0-40.0-0.0","94038596","wem/bandit_single","A2HGAQ9WOEU9PN","gain","2","","75","K","2","","0","0","1","0.06455495551","","false","3","0.1966750378","","main_expt","0.07878604621","","0.06455495551","","0.1792173289","","","","","","",""
"241","","bandit","79","360654","0.0-41.0-0.0","94038596","wem/bandit_single","A2HGAQ9WOEU9PN","gain","2","","76","L","3","","1","0","0","0.2089457512","","false","4","0.1731728381","","main_expt","0.06180226224","","0.1075220519","","0.2089457512","","","","","","",""
"257","","bandit","80","362677","0.0-42.0-0.0","94038596","wem/bandit_single","A2HGAQ9WOEU9PN","gain","2","","76","L","3","","0","0","1","0.2627176439","","false","5","0.151671232","","main_expt","0.05657605877","","0.1459974634","","0.2627176439","","","","","","",""
"302","","bandit","81","364748","0.0-43.0-0.0","94038596","wem/bandit_single","A2HGAQ9WOEU9PN","gain","2","","72","H","0","img/none_selected.jpg","1","0","0","0.2201434377","","false","6","0.2201434377","","main_expt","0.03926223851","","0.1119865757","","0.2052823447","","","","","","",""
"244","","bandit","82","366755","0.0-44.0-0.0","94038596","wem/bandit_single","A2HGAQ9WOEU9PN","gain","2","","72","H","0","img/none_selected.jpg","0","0","1","0.1924323999","","false","7","0.1924323999","","main_expt","0.02952185798","","0.1135710889","","0.2424381104","","","","","","",""
"163","","bandit","83","368715","0.0-45.0-0.0","94038596","wem/bandit_single","A2HGAQ9WOEU9PN","gain","2","","74","J","1","","0","0","1","0.01847757052","","false","8","0.187431757","","main_expt","0.01847757052","","0.148696524","","0.2324683495","","","","","","",""
"209","","bandit","84","370739","0.0-46.0-0.0","94038596","wem/bandit_single","A2HGAQ9WOEU9PN","gain","2","","75","K","2","","1","0","0","0.1181121295","","false","9","0.197470847","","main_expt","0.02695314055","","0.1181121295","","0.2440295668","","","","","","",""
"267","","bandit","85","372771","0.0-47.0-0.0","94038596","wem/bandit_single","A2HGAQ9WOEU9PN","gain","2","","75","K","2","","0","0","1","0.1082266346","","false","10","0.2298270047","","main_expt","0.02234311218","","0.1082266346","","0.2465422232","","","","","","",""
"115","","bandit","86","374667","0.0-48.0-0.0","94038596","wem/bandit_single","A2HGAQ9WOEU9PN","gain","2","","76","L","3","","0","0","1","0.1529972956","","false","11","0.2124937163","","main_expt","0.04960883058","","0.1102162287","","0.1529972956","","","","","","",""
"187","","bandit","87","376618","0.0-49.0-0.0","94038596","wem/bandit_single","A2HGAQ9WOEU9PN","gain","2","","75","K","2","","0","0","1","0.1420736562","","false","12","0.2043121782","","main_expt","0.06086541187","","0.1420736562","","0.1827224572","","","","","","",""
"251","","bandit","88","378644","0.0-50.0-0.0","94038596","wem/bandit_single","A2HGAQ9WOEU9PN","gain","2","","75","K","2","","1","0","0","0.1582971975","","false","13","0.2122729008","","main_expt","0.06603274732","","0.1582971975","","0.1973099221","","","","","","",""
"365","","bandit","89","380781","0.0-51.0-0.0","94038596","wem/bandit_single","A2HGAQ9WOEU9PN","gain","2","","75","K","2","","0","0","1","0.1278364912","","false","14","0.1748916548","","main_expt","0.06952645267","","0.1278364912","","0.2002936143","","","","","","",""
"601","","bandit","90","383161","0.0-52.0-0.0","94038596","wem/bandit_single","A2HGAQ9WOEU9PN","gain","2","","75","K","2","","0","0","1","0.1389591295","","false","15","0.1598041939","","main_expt","0.06705093019","","0.1389591295","","0.2100222876","","","","","","",""
"549","","bandit","91","385477","0.0-53.0-0.0","94038596","wem/bandit_single","A2HGAQ9WOEU9PN","gain","2","","75","K","2","","0","0","1","0.1087507618","","false","16","0.1496559895","","main_expt","0.08739136862","","0.1087507618","","0.192095419","","","","","","",""
"190","","bandit","92","387442","0.0-54.0-0.0","94038596","wem/bandit_single","A2HGAQ9WOEU9PN","gain","2","","74","J","1","","0","0","1","0.0633177824","","false","17","0.1855105105","","main_expt","0.0633177824","","0.1591778588","","0.2057363858","","","","","","",""
"94","","bandit","93","389305","0.0-55.0-0.0","94038596","wem/bandit_single","A2HGAQ9WOEU9PN","gain","2","","76","L","3","","0","0","1","0.2142317849","","false","18","0.180786103","","main_expt","0.05969087175","","0.1612769879","","0.2142317849","","","","","","",""
"119","","bandit","94","391212","0.0-56.0-0.0","94038596","wem/bandit_single","A2HGAQ9WOEU9PN","gain","2","","75","K","2","","0","0","1","0.1706614454","","false","19","0.1867551017","","main_expt","0.08316546351","","0.1706614454","","0.2416868574","","","","","","",""
"162","","bandit","95","393136","0.0-57.0-0.0","94038596","wem/bandit_single","A2HGAQ9WOEU9PN","gain","2","","75","K","2","","0","0","1","0.2173206475","","false","20","0.2414580321","","main_expt","0.08506169859","","0.2173206475","","0.2556662882","","","","","","",""
"124","","bandit","96","395055","0.0-58.0-0.0","94038596","wem/bandit_single","A2HGAQ9WOEU9PN","gain","2","","75","K","2","","0","0","1","0.2297715145","","false","21","0.2552731096","","main_expt","0.08337624199","","0.2297715145","","0.2484624222","","","","","","",""
"114","","bandit","97","396937","0.0-59.0-0.0","94038596","wem/bandit_single","A2HGAQ9WOEU9PN","gain","2","","74","J","1","","0","0","1","0.09400888178","","false","22","0.2706059063","","main_expt","0.09400888178","","0.2893552095","","0.3180013331","","","","","","",""
"634","","bandit","98","399347","0.0-60.0-0.0","94038596","wem/bandit_single","A2HGAQ9WOEU9PN","gain","2","","72","H","0","img/none_selected.jpg","0","0","1","0.2240124609","","false","23","0.2240124609","","main_expt","0.08373077729","","0.1756353462","","0.3018869565","","","","","","",""
"62","","bandit","99","401178","0.0-61.0-0.0","94038596","wem/bandit_single","A2HGAQ9WOEU9PN","gain","2","","76","L","3","","0","0","1","0.3479913718","","false","24","0.2337623096","","main_expt","0.07394888686","","0.144307289","","0.3479913718","","","","","","",""
"156","","bandit","100","403099","0.0-62.0-0.0","94038596","wem/bandit_single","A2HGAQ9WOEU9PN","gain","2","","75","K","2","","0","0","1","0.1103761204","","false","25","0.1992837424","","main_expt","0.1177231478","","0.1103761204","","0.3851600672","","","","","","",""
"113","","bandit","101","404977","0.0-63.0-0.0","94038596","wem/bandit_single","A2HGAQ9WOEU9PN","gain","2","","75","K","2","","0","0","1","0.09313295331","","false","26","0.2273902023","","main_expt","0.1137187285","","0.09313295331","","0.3771699284","","","","","","",""
"257","","bandit","102","407002","0.0-64.0-0.0","94038596","wem/bandit_single","A2HGAQ9WOEU9PN","gain","2","","75","K","2","","0","0","1","0.07841862492","","false","27","0.2020281611","","main_expt","0.1380279251","","0.07841862492","","0.3284072512","","","","","","",""
"119","","bandit","103","408924","0.0-65.0-0.0","94038596","wem/bandit_single","A2HGAQ9WOEU9PN","gain","2","","74","J","1","","0","0","1","0.1926536066","","false","28","0.2121805601","","main_expt","0.1926536066","","0.0635621653","","0.3708797381","","","","","","",""
"449","","bandit","104","411138","0.0-66.0-0.0","94038596","wem/bandit_single","A2HGAQ9WOEU9PN","gain","2","","76","L","3","","1","0","0","0.3630760189","","false","29","0.1986823058","","main_expt","0.1919064193","","0.04349452081","","0.3630760189","","","","","","",""
"345","","bandit","105","413252","0.0-67.0-0.0","94038596","wem/bandit_single","A2HGAQ9WOEU9PN","gain","2","","76","L","3","","1","0","0","0.3414786107","","false","30","0.2674628916","","main_expt","0.1767437005","","0.06175929786","","0.3414786107","","","","","","",""
"258","","bandit","106","415284","0.0-68.0-0.0","94038596","wem/bandit_single","A2HGAQ9WOEU9PN","gain","2","","76","L","3","","0","0","1","0.3536929226","","false","31","0.2862820789","","main_expt","0.2417082081","","0.06380111671","","0.3536929226","","","","","","",""
"427","","bandit","107","417483","0.0-69.0-0.0","94038596","wem/bandit_single","A2HGAQ9WOEU9PN","gain","2","","76","L","3","","1","0","0","0.3238646006","","false","32","0.2895619367","","main_expt","0.2312742115","","0.08507033619","","0.3238646006","","","","","","",""
"558","","bandit","108","419829","0.0-70.0-0.0","94038596","wem/bandit_single","A2HGAQ9WOEU9PN","gain","2","","76","L","3","","1","0","0","0.3018803865","","false","33","0.312502841","","main_expt","0.2247834387","","0.1242974044","","0.3018803865","","","","","","",""
"271","","bandit","109","421874","0.0-71.0-0.0","94038596","wem/bandit_single","A2HGAQ9WOEU9PN","gain","2","","76","L","3","","0","0","1","0.2551449341","","false","34","0.2830864838","","main_expt","0.1192543008","","0.158311101","","0.2551449341","","","","","","",""
"163","","bandit","110","423848","0.0-72.0-0.0","94038596","wem/bandit_single","A2HGAQ9WOEU9PN","gain","2","","76","L","3","","0","0","1","0.3200580053","","false","35","0.2489219385","","main_expt","0.1336327135","","0.1293969191","","0.3200580053","","","","","","",""
"286","","bandit","111","425917","0.0-73.0-0.0","94038596","wem/bandit_single","A2HGAQ9WOEU9PN","gain","2","","76","L","3","","1","0","0","0.3241899647","","false","36","0.2090346537","","main_expt","0.09851205292","","0.1800853883","","0.3241899647","","","","","","",""
"369","","bandit","112","428058","0.0-74.0-0.0","94038596","wem/bandit_single","A2HGAQ9WOEU9PN","gain","2","","76","L","3","","1","0","0","0.3029113802","","false","37","0.210385238","","main_expt","0.05943694951","","0.1025448258","","0.3029113802","","","","","","",""
"200","","bandit","113","430029","0.0-75.0-0.0","94038596","wem/bandit_single","A2HGAQ9WOEU9PN","gain","2","","76","L","3","","1","0","0","0.2958592888","","false","38","0.162227856","","main_expt","0.06217728149","","0.1604021245","","0.2958592888","","","","","","",""
"157","","bandit","114","432092","0.0-76.0-0.0","94038596","wem/bandit_single","A2HGAQ9WOEU9PN","gain","2","","76","L","3","","0","0","1","0.2941945884","","false","39","0.1444893634","","main_expt","0.08902833973","","0.1336531769","","0.2941945884","","","","","","",""
"29113","","bandit","115","463020","0.0-77.0-0.0","94038596","wem/bandit_single","A2HGAQ9WOEU9PN","gain","2","","76","L","3","","1","0","0","0.2784490849","","false","40","0.1340169349","","main_expt","0.1098655825","","0.1356889635","","0.2784490849","","","","","","",""
"904","","bandit","116","466189","0.0-78.0-0.0","94038596","wem/bandit_single","A2HGAQ9WOEU9PN","gain","2","","76","L","3","","0","0","1","0.2943099773","","false","41","0.1019114547","","main_expt","0.125718056","","0.1434276379","","0.2943099773","","","","","","",""
"109","","bandit","117","468067","0.0-79.0-0.0","94038596","wem/bandit_single","A2HGAQ9WOEU9PN","gain","2","","76","L","3","","0","0","1","0.2502187242","","false","42","0.07379386716","","main_expt","0.07668278466","","0.1432973755","","0.2502187242","","","","","","",""
"109","","bandit","118","469963","0.0-80.0-0.0","94038596","wem/bandit_single","A2HGAQ9WOEU9PN","gain","2","","76","L","3","","0","0","1","0.2691097515","","false","43","0.08186566242","","main_expt","0.08403116819","","0.1605884153","","0.2691097515","","","","","","",""
"288","","bandit","119","472127","0.0-81.0-0.0","94038596","wem/bandit_single","A2HGAQ9WOEU9PN","gain","2","","75","K","2","","1","0","0","0.1396132557","","false","44","0.08692603594","","main_expt","0.08258467284","","0.1396132557","","0.2601206974","","","","","","",""
"309","","bandit","120","474215","0.0-82.0-0.0","94038596","wem/bandit_single","A2HGAQ9WOEU9PN","gain","2","","75","K","2","","0","0","1","0.2250933593","","false","45","0.1212470101","","main_expt","0.07253936928","","0.2250933593","","0.3222012474","","","","","","",""
"157","","bandit","121","476137","0.0-83.0-0.0","94038596","wem/bandit_single","A2HGAQ9WOEU9PN","gain","2","","75","K","2","","0","0","1","0.1826421925","","false","46","0.134661007","","main_expt","0.05374479905","","0.1826421925","","0.3060845752","","","","","","",""
"202","","bandit","122","478110","0.0-84.0-0.0","94038596","wem/bandit_single","A2HGAQ9WOEU9PN","gain","2","","74","J","1","","1","0","0","0.06764850751","","false","47","0.1377890551","","main_expt","0.06764850751","","0.1706758886","","0.290950603","","","","","","",""
"177","","bandit","123","480058","0.0-85.0-0.0","94038596","wem/bandit_single","A2HGAQ9WOEU9PN","gain","2","","74","J","1","","0","0","1","0.05656727153","","false","48","0.1325860966","","main_expt","0.05656727153","","0.1686178854","","0.329307254","","","","","","",""
"133","","bandit","124","481962","0.0-86.0-0.0","94038596","wem/bandit_single","A2HGAQ9WOEU9PN","gain","2","","74","J","1","","1","0","0","0.08131597157","","false","49","0.1231750139","","main_expt","0.08131597157","","0.1822379713","","0.405044281","","","","","","",""
"122","","bandit","125","483852","0.0-87.0-0.0","94038596","wem/bandit_single","A2HGAQ9WOEU9PN","gain","2","","74","J","1","","0","0","1","0.08274267654","","false","50","0.1565964086","","main_expt","0.08274267654","","0.2513484478","","0.4121919591","","","","","","",""
"131","","bandit","126","485793","0.0-88.0-0.0","94038596","wem/bandit_single","A2HGAQ9WOEU9PN","gain","2","","74","J","1","","0","0","1","0.1154896937","","false","51","0.1464659706","","main_expt","0.1154896937","","0.2812942615","","0.4271607293","","","","","","",""
"138","","bandit","127","487744","0.0-89.0-0.0","94038596","wem/bandit_single","A2HGAQ9WOEU9PN","gain","2","","74","J","1","","1","0","0","0.07649260985","","false","52","0.1196909414","","main_expt","0.07649260985","","0.2224049931","","0.4249516559","","","","","","",""
"153","","bandit","128","489668","0.0-90.0-0.0","94038596","wem/bandit_single","A2HGAQ9WOEU9PN","gain","2","","74","J","1","","0","0","1","0.06211708307","","false","53","0.1578713891","","main_expt","0.06211708307","","0.2135714686","","0.414238899","","","","","","",""
"66","","bandit","129","491508","0.0-91.0-0.0","94038596","wem/bandit_single","A2HGAQ9WOEU9PN","gain","2","","74","J","1","","0","0","1","0.05122165179","","false","54","0.1420893662","","main_expt","0.05122165179","","0.2471494284","","0.4404827494","","","","","","",""
"97","","bandit","130","493377","0.0-92.0-0.0","94038596","wem/bandit_single","A2HGAQ9WOEU9PN","gain","2","","74","J","1","","0","0","1","0.05779626682","","false","55","0.1255118638","","main_expt","0.05779626682","","0.26732004","","0.4258944343","","","","","","",""
"1536","","bandit","131","496729","0.0-93.0-0.0","94038596","wem/bandit_single","A2HGAQ9WOEU9PN","gain","2","","74","J","1","","0","0","1","0.06578325953","","false","56","0.1040792381","","main_expt","0.06578325953","","0.258853447","","0.4058732664","","","","","","",""
"84","","bandit","132","498596","0.0-94.0-0.0","94038596","wem/bandit_single","A2HGAQ9WOEU9PN","gain","2","","72","H","0","img/none_selected.jpg","0","0","1","0.1058118143","","false","57","0.1058118143","","main_expt","0.07487929626","","0.247757255","","0.4269212616","","","","","","",""
"110","","bandit","133","500478","0.0-95.0-0.0","94038596","wem/bandit_single","A2HGAQ9WOEU9PN","gain","2","","72","H","0","img/none_selected.jpg","0","0","1","0.08107820888","","false","58","0.08107820888","","main_expt","0.05601765109","","0.2380046022","","0.4120073189","","","","","","",""
"44","","bandit","134","502316","0.0-96.0-0.0","94038596","wem/bandit_single","A2HGAQ9WOEU9PN","gain","2","","74","J","1","","0","0","1","0.07158824907","","false","59","0.115954585","","main_expt","0.07158824907","","0.273239949","","0.367464959","","","","","","",""
"127","","bandit","135","504207","0.0-97.0-0.0","94038596","wem/bandit_single","A2HGAQ9WOEU9PN","gain","2","","74","J","1","","0","0","1","0.1021813758","","false","60","0.190529156","","main_expt","0.1021813758","","0.314936794","","0.3113576115","","","","","","",""
"114","","bandit","136","506093","0.0-98.0-0.0","94038596","wem/bandit_single","A2HGAQ9WOEU9PN","gain","2","","74","J","1","","0","0","1","0.1422244628","","false","61","0.2024767933","","main_expt","0.1422244628","","0.3361315769","","0.3217665369","","","","","","",""
"361","","bandit","137","508220","0.0-99.0-0.0","94038596","wem/bandit_single","A2HGAQ9WOEU9PN","gain","2","","76","L","3","","0","0","1","0.3396020841","","false","62","0.1478811465","","main_expt","0.1543762338","","0.3012470308","","0.3396020841","","","","","","",""
"81","","bandit","138","510067","0.0-100.0-0.0","94038596","wem/bandit_single","A2HGAQ9WOEU9PN","gain","2","","75","K","2","","0","0","1","0.3035933772","","false","63","0.1472080331","","main_expt","0.1957871903","","0.3035933772","","0.3326008901","","","","","","",""
"51","","bandit","139","511890","0.0-101.0-0.0","94038596","wem/bandit_single","A2HGAQ9WOEU9PN","gain","2","","76","L","3","","0","0","1","0.2759567044","","false","64","0.1523556625","","main_expt","0.1998827037","","0.3061864711","","0.2759567044","","","","","","",""
"90","","bandit","140","513810","0.0-102.0-0.0","94038596","wem/bandit_single","A2HGAQ9WOEU9PN","gain","2","","76","L","3","","1","0","0","0.330340259","","false","65","0.1640586258","","main_expt","0.2229124218","","0.2795045379","","0.330340259","","","","","","",""
"183","","bandit","141","515761","0.0-103.0-0.0","94038596","wem/bandit_single","A2HGAQ9WOEU9PN","gain","2","","76","L","3","","0","0","1","0.394496842","","false","66","0.1559289375","","main_expt","0.2821528041","","0.2624990872","","0.394496842","","","","","","",""
"115","","bandit","142","517646","0.0-104.0-0.0","94038596","wem/bandit_single","A2HGAQ9WOEU9PN","gain","2","","76","L","3","","0","0","1","0.3780229448","","false","67","0.09042099393","","main_expt","0.2228434199","","0.2316809648","","0.3780229448","","","","","","",""
"101","","bandit","143","519522","0.0-105.0-0.0","94038596","wem/bandit_single","A2HGAQ9WOEU9PN","gain","2","","74","J","1","","0","0","1","0.2039549584","","false","68","0.08874767337","","main_expt","0.2039549584","","0.2266776066","","0.313258317","","","","","","",""
"113","","bandit","144","521421","0.0-106.0-0.0","94038596","wem/bandit_single","A2HGAQ9WOEU9PN","gain","2","","74","J","1","","1","0","0","0.1998164138","","false","69","0.09103688118","","main_expt","0.1998164138","","0.1734363374","","0.3466590849","","","","","","",""
"145","","bandit","145","523337","0.0-107.0-0.0","94038596","wem/bandit_single","A2HGAQ9WOEU9PN","gain","2","","74","J","1","","0","0","1","0.1936545157","","false","70","0.139461016","","main_expt","0.1936545157","","0.1469163378","","0.3389702644","","","","","","",""
"21","","bandit","146","525197","0.0-108.0-0.0","94038596","wem/bandit_single","A2HGAQ9WOEU9PN","gain","2","","74","J","1","","0","0","1","0.1875420319","","false","71","0.1269809057","","main_expt","0.1875420319","","0.1903103683","","0.3037518088","","","","","","",""
"86","","bandit","147","527077","0.0-109.0-0.0","94038596","wem/bandit_single","A2HGAQ9WOEU9PN","gain","2","","74","J","1","","0","0","1","0.2275961541","","false","72","0.1541032278","","main_expt","0.2275961541","","0.2364630875","","0.3007282465","","","","","","",""
"940","","bandit","148","529794","0.0-110.0-0.0","94038596","wem/bandit_single","A2HGAQ9WOEU9PN","gain","2","","74","J","1","","1","0","0","0.2485431464","","false","73","0.1618198783","","main_expt","0.2485431464","","0.2715971604","","0.2796446257","","","","","","",""
"273","","bandit","149","531843","0.0-111.0-0.0","94038596","wem/bandit_single","A2HGAQ9WOEU9PN","gain","2","","74","J","1","","1","0","0","0.2394527842","","false","74","0.1428156761","","main_expt","0.2394527842","","0.2716254876","","0.2729876577","","","","","","",""
"116","","bandit","150","533740","0.0-112.0-0.0","94038596","wem/bandit_single","A2HGAQ9WOEU9PN","gain","2","","74","J","1","","1","0","0","0.2074684787","","false","75","0.1312504708","","main_expt","0.2074684787","","0.2998540279","","0.2067723694","","","","","","",""
"165","","bandit","151","535775","0.0-113.0-0.0","94038596","wem/bandit_single","A2HGAQ9WOEU9PN","gain","2","","74","J","1","","1","0","0","0.178133335","","false","76","0.1002429729","","main_expt","0.178133335","","0.3195890579","","0.2130899639","","","","","","",""
"129","","bandit","152","537686","0.0-114.0-0.0","94038596","wem/bandit_single","A2HGAQ9WOEU9PN","gain","2","","74","J","1","","0","0","1","0.1788248706","","false","77","0.07543037954","","main_expt","0.1788248706","","0.2856322382","","0.2109525889","","","","","","",""
"110","","bandit","153","539570","0.0-115.0-0.0","94038596","wem/bandit_single","A2HGAQ9WOEU9PN","gain","2","","74","J","1","","0","0","1","0.1530293784","","false","78","0.1153668935","","main_expt","0.1530293784","","0.2919105172","","0.1884332626","","","","","","",""
"49","","bandit","154","541408","0.0-116.0-0.0","94038596","wem/bandit_single","A2HGAQ9WOEU9PN","gain","2","","74","J","1","","0","0","1","0.1593806387","","false","79","0.07716777456","","main_expt","0.1593806387","","0.2567181874","","0.1883433777","","","","","","",""
"168","","bandit","155","543402","0.0-117.0-0.0","94038596","wem/bandit_single","A2HGAQ9WOEU9PN","gain","2","","74","J","1","","0","0","1","0.1428411119","","false","80","0.08058819474","","main_expt","0.1428411119","","0.3200023444","","0.1998795799","","","","","","",""
"97","","bandit","156","545278","0.0-118.0-0.0","94038596","wem/bandit_single","A2HGAQ9WOEU9PN","gain","2","","74","J","1","","0","0","1","0.1982686668","","false","81","0.09856946308","","main_expt","0.1982686668","","0.3117755618","","0.1651756375","","","","","","",""
"910","","bandit","157","547965","0.0-119.0-0.0","94038596","wem/bandit_single","A2HGAQ9WOEU9PN","gain","2","","75","K","2","","0","0","1","0.3379160562","","false","82","0.1000946235","","main_expt","0.2291501313","","0.3379160562","","0.2235829688","","","","","","",""
"156","","bandit","158","549903","0.0-120.0-0.0","94038596","wem/bandit_single","A2HGAQ9WOEU9PN","gain","2","","72","H","0","img/none_selected.jpg","0","0","1","0.06687408093","","false","83","0.06687408093","","main_expt","0.2259362275","","0.3620865136","","0.2456561592","","","","","","",""
"121","","bandit","159","551805","0.0-121.0-0.0","94038596","wem/bandit_single","A2HGAQ9WOEU9PN","gain","2","","74","J","1","","1","0","0","0.1733031115","","false","84","0.06463964557","","main_expt","0.1733031115","","0.3904685548","","0.2790354554","","","","","","",""
"201","","bandit","160","553781","0.0-122.0-0.0","94038596","wem/bandit_single","A2HGAQ9WOEU9PN","gain","2","","74","J","1","","0","0","1","0.1577379057","","false","85","0.09044174456","","main_expt","0.1577379057","","0.4201611698","","0.2389339959","","","","","","",""
"101","","bandit","161","555657","0.0-123.0-0.0","94038596","wem/bandit_single","A2HGAQ9WOEU9PN","gain","2","","74","J","1","","0","0","1","0.1646880331","","false","86","0.07242924321","","main_expt","0.1646880331","","0.4544588035","","0.2905830411","","","","","","",""
"71","","bandit","162","557508","0.0-124.0-0.0","94038596","wem/bandit_single","A2HGAQ9WOEU9PN","gain","2","","74","J","1","","0","0","1","0.157008097","","false","87","0.06356931104","","main_expt","0.157008097","","0.4444110865","","0.3336128518","","","","","","",""
"811","","bandit","163","560099","0.0-125.0-0.0","94038596","wem/bandit_single","A2HGAQ9WOEU9PN","gain","2","","75","K","2","","0","0","1","0.4276611285","","false","88","0.08819972964","","main_expt","0.14663069","","0.4276611285","","0.3720796031","","","","","","",""
"180","","bandit","164","562053","0.0-126.0-0.0","94038596","wem/bandit_single","A2HGAQ9WOEU9PN","gain","2","","76","L","3","","0","0","1","0.3383028484","","false","89","0.09388884115","","main_expt","0.1510377787","","0.395063318","","0.3383028484","","","","","","",""
"171","","bandit","165","564000","0.0-127.0-0.0","94038596","wem/bandit_single","A2HGAQ9WOEU9PN","gain","2","","76","L","3","","0","0","1","0.3550100304","","false","90","0.1265583984","","main_expt","0.1600185234","","0.3790569413","","0.3550100304","","","","","","",""
"509","","bandit","166","566282","0.0-128.0-0.0","94038596","wem/bandit_single","A2HGAQ9WOEU9PN","gain","2","","76","L","3","","1","0","0","0.4198742783","","false","91","0.09433033469","","main_expt","0.1618321768","","0.3763017738","","0.4198742783","","","","","","",""
"966","","bandit","167","569019","0.0-129.0-0.0","94038596","wem/bandit_single","A2HGAQ9WOEU9PN","gain","2","","74","J","1","","0","0","1","0.1408839615","","false","92","0.05111462501","","main_expt","0.1408839615","","0.3829045729","","0.4522920775","","","","","","",""
"475","","bandit","168","571268","0.0-130.0-0.0","94038596","wem/bandit_single","A2HGAQ9WOEU9PN","gain","2","","72","H","0","img/none_selected.jpg","0","0","1","0.05378689714","","false","93","0.05378689714","","main_expt","0.1675332925","","0.4155552038","","0.4572096334","","","","","","",""
"237","","bandit","169","573323","0.0-131.0-0.0","94038596","wem/bandit_single","A2HGAQ9WOEU9PN","gain","2","","72","H","0","img/none_selected.jpg","0","0","1","0.04385487208","","false","94","0.04385487208","","main_expt","0.2154783406","","0.3964247486","","0.457248447","","","","","","",""
"99","","bandit","170","575194","0.0-132.0-0.0","94038596","wem/bandit_single","A2HGAQ9WOEU9PN","gain","2","","74","J","1","","0","0","1","0.2434825378","","false","95","0.02374316345","","main_expt","0.2434825378","","0.4028729744","","0.4284600246","","","","","","",""
"186","","bandit","171","577154","0.0-133.0-0.0","94038596","wem/bandit_single","A2HGAQ9WOEU9PN","gain","2","","74","J","1","","0","0","1","0.300751002","","false","96","0.01119532444","","main_expt","0.300751002","","0.3937220057","","0.4213934208","","","","","","",""
"171","","bandit","172","579100","0.0-134.0-0.0","94038596","wem/bandit_single","A2HGAQ9WOEU9PN","gain","2","","74","J","1","","1","0","0","0.2390268827","","false","97","0.01205949719","","main_expt","0.2390268827","","0.3951408858","","0.4093218277","","","","","","",""
"258","","bandit","173","581134","0.0-135.0-0.0","94038596","wem/bandit_single","A2HGAQ9WOEU9PN","gain","2","","74","J","1","","0","0","1","0.1872158766","","false","98","0.02530753644","","main_expt","0.1872158766","","0.3872505806","","0.4011771953","","","","","","",""
"96","","bandit","174","583009","0.0-136.0-0.0","94038596","wem/bandit_single","A2HGAQ9WOEU9PN","gain","2","","74","J","1","","0","0","1","0.2281726053","","false","99","0.02318317113","","main_expt","0.2281726053","","0.3237376228","","0.4319140629","","","","","","",""
"219","","bandit","175","585017","0.0-137.0-0.0","94038596","wem/bandit_single","A2HGAQ9WOEU9PN","gain","2","","74","J","1","","0","0","1","0.2322026393","","false","100","0.01577819671","","main_expt","0.2322026393","","0.3840854176","","0.4388591553","","","","","","",""
"122","","bandit","176","586909","0.0-138.0-0.0","94038596","wem/bandit_single","A2HGAQ9WOEU9PN","gain","2","","74","J","1","","1","0","0","0.2675158553","","false","101","0.03767304301","","main_expt","0.2675158553","","0.4043087267","","0.4405661836","","","","","","",""
"211","","bandit","177","588898","0.0-139.0-0.0","94038596","wem/bandit_single","A2HGAQ9WOEU9PN","gain","2","","74","J","1","","0","0","1","0.2334450153","","false","102","0.03003558128","","main_expt","0.2334450153","","0.423372456","","0.4155134761","","","","","","",""
"197","","bandit","178","590891","0.0-140.0-0.0","94038596","wem/bandit_single","A2HGAQ9WOEU9PN","gain","2","","74","J","1","","0","0","1","0.2546104349","","false","103","0.04748945294","","main_expt","0.2546104349","","0.4305794097","","0.4079284656","","","","","","",""
"446","","bandit","179","593109","0.0-141.0-0.0","94038596","wem/bandit_single","A2HGAQ9WOEU9PN","gain","2","","74","J","1","","1","0","0","0.2657782481","","false","104","0.06674284653","","main_expt","0.2657782481","","0.4515631957","","0.3827156199","","","","","","",""
"282","","bandit","180","595233","0.0-142.0-0.0","94038596","wem/bandit_single","A2HGAQ9WOEU9PN","gain","2","","74","J","1","","1","0","0","0.2397797145","","false","105","0.0806059128","","main_expt","0.2397797145","","0.454723383","","0.3892206975","","","","","","",""
"273","","bandit","181","597299","0.0-143.0-0.0","94038596","wem/bandit_single","A2HGAQ9WOEU9PN","gain","2","","74","J","1","","1","0","0","0.1744994936","","false","106","0.1147522423","","main_expt","0.1744994936","","0.4487898282","","0.3499671591","","","","","","",""
"215","","bandit","182","599297","0.0-144.0-0.0","94038596","wem/bandit_single","A2HGAQ9WOEU9PN","gain","2","","74","J","1","","1","0","0","0.2004436591","","false","107","0.1225979079","","main_expt","0.2004436591","","0.4300484018","","0.3378870415","","","","","","",""
"129","","bandit","183","601205","0.0-145.0-0.0","94038596","wem/bandit_single","A2HGAQ9WOEU9PN","gain","2","","74","J","1","","0","0","1","0.1781349215","","false","108","0.1808232933","","main_expt","0.1781349215","","0.4056187414","","0.3206855754","","","","","","",""
"311","","bandit","184","603293","0.0-146.0-0.0","94038596","wem/bandit_single","A2HGAQ9WOEU9PN","gain","2","","74","J","1","","0","0","1","0.1603989886","","false","109","0.2004688742","","main_expt","0.1603989886","","0.4145536126","","0.3412252333","","","","","","",""
"167","","bandit","185","605235","0.0-147.0-0.0","94038596","wem/bandit_single","A2HGAQ9WOEU9PN","gain","2","","74","J","1","","0","0","1","0.1300992081","","false","110","0.2261403934","","main_expt","0.1300992081","","0.3897928763","","0.3650365033","","","","","","",""
"164","","bandit","186","607179","0.0-148.0-0.0","94038596","wem/bandit_single","A2HGAQ9WOEU9PN","gain","2","","74","J","1","","0","0","1","0.1740321776","","false","111","0.1612973213","","main_expt","0.1740321776","","0.4150540561","","0.341048274","","","","","","",""
"289","","bandit","187","609245","0.0-149.0-0.0","94038596","wem/bandit_single","A2HGAQ9WOEU9PN","gain","2","","74","J","1","","0","0","1","0.2444477537","","false","112","0.1655724556","","main_expt","0.2444477537","","0.4394636757","","0.3254027875","","","","","","",""
"206","","bandit","188","611252","0.0-150.0-0.0","94038596","wem/bandit_single","A2HGAQ9WOEU9PN","gain","2","","74","J","1","","0","0","1","0.2195244909","","false","113","0.1319876284","","main_expt","0.2195244909","","0.4301961846","","0.308059901","","","","","","",""
"108","","bandit","189","613132","0.0-151.0-0.0","94038596","wem/bandit_single","A2HGAQ9WOEU9PN","gain","2","","75","K","2","","0","0","1","0.4497687286","","false","114","0.1147934267","","main_expt","0.2719971232","","0.4497687286","","0.3238695313","","","","","","",""
"125","","bandit","190","615074","0.0-152.0-0.0","94038596","wem/bandit_single","A2HGAQ9WOEU9PN","gain","2","","76","L","3","","1","0","0","0.3315084933","","false","115","0.1301750396","","main_expt","0.2447677414","","0.4448888627","","0.3315084933","","","","","","",""
"175","","bandit","191","617031","0.0-153.0-0.0","94038596","wem/bandit_single","A2HGAQ9WOEU9PN","gain","2","","76","L","3","","0","0","1","0.3234657333","","false","116","0.130185029","","main_expt","0.2296513069","","0.3905844751","","0.3234657333","","","","","","",""
"48","","bandit","192","618859","0.0-154.0-0.0","94038596","wem/bandit_single","A2HGAQ9WOEU9PN","gain","2","","76","L","3","","1","0","0","0.300593156","","false","117","0.1548944576","","main_expt","0.2151266314","","0.424359093","","0.300593156","","","","","","",""
"113","","bandit","193","620747","0.0-155.0-0.0","94038596","wem/bandit_single","A2HGAQ9WOEU9PN","gain","2","","76","L","3","","0","0","1","0.3585138177","","false","118","0.172903741","","main_expt","0.1311834018","","0.4121010571","","0.3585138177","","","","","","",""
"61","","bandit","194","622641","0.0-156.0-0.0","94038596","wem/bandit_single","A2HGAQ9WOEU9PN","gain","2","","76","L","3","","1","0","0","0.3062020697","","false","119","0.1707570171","","main_expt","0.1190099868","","0.4117558181","","0.3062020697","","","","","","",""
"294","","bandit","195","624715","0.0-157.0-0.0","94038596","wem/bandit_single","A2HGAQ9WOEU9PN","gain","2","","76","L","3","","0","0","1","0.3312553157","","false","120","0.1870802187","","main_expt","0.1117686876","","0.4275669698","","0.3312553157","","","","","","",""
"95","","bandit","196","626587","0.0-158.0-0.0","94038596","wem/bandit_single","A2HGAQ9WOEU9PN","gain","2","","76","L","3","","1","0","0","0.3892509988","","false","121","0.1870161021","","main_expt","0.1415869423","","0.4428986123","","0.3892509988","","","","","","",""
"329","","bandit","197","628689","0.0-159.0-0.0","94038596","wem/bandit_single","A2HGAQ9WOEU9PN","gain","2","","76","L","3","","0","0","1","0.4330036483","","false","122","0.1926804843","","main_expt","0.1398412585","","0.4376246318","","0.4330036483","","","","","","",""
"105","","bandit","198","630575","0.0-160.0-0.0","94038596","wem/bandit_single","A2HGAQ9WOEU9PN","gain","2","","76","L","3","","1","0","0","0.4555957022","","false","123","0.2057615037","","main_expt","0.1163210087","","0.4153394585","","0.4555957022","","","","","","",""
"350","","bandit","199","632708","0.0-161.0-0.0","94038596","wem/bandit_single","A2HGAQ9WOEU9PN","gain","2","","76","L","3","","1","0","0","0.4565029776","","false","124","0.2639565913","","main_expt","0.07344578178","","0.4203389285","","0.4565029776","","","","","","",""
"500","","bandit","200","634986","0.0-162.0-0.0","94038596","wem/bandit_single","A2HGAQ9WOEU9PN","gain","2","","76","L","3","","0","0","1","0.4511527373","","false","125","0.3672341475","","main_expt","0.08752025541","","0.3710029205","","0.4511527373","","","","","","",""
"122","","bandit","201","636900","0.0-163.0-0.0","94038596","wem/bandit_single","A2HGAQ9WOEU9PN","gain","2","","76","L","3","","1","0","0","0.4426171603","","false","126","0.3606148775","","main_expt","0.1064058914","","0.3465273485","","0.4426171603","","","","","","",""
"1763","","bandit","202","640434","0.0-164.0-0.0","94038596","wem/bandit_single","A2HGAQ9WOEU9PN","gain","2","","76","L","3","","0","0","1","0.4259104728","","false","127","0.4079700646","","main_expt","0.1103525866","","0.4106613481","","0.4259104728","","","","","","",""
"469","","bandit","203","642675","0.0-165.0-0.0","94038596","wem/bandit_single","A2HGAQ9WOEU9PN","gain","2","","76","L","3","","0","0","1","0.4543754413","","false","128","0.4204919645","","main_expt","0.1060480298","","0.4377707947","","0.4543754413","","","","","","",""
"218","","bandit","204","644666","0.0-166.0-0.0","94038596","wem/bandit_single","A2HGAQ9WOEU9PN","gain","2","","76","L","3","","1","0","0","0.4587533269","","false","129","0.4040923387","","main_expt","0.1332603285","","0.4481781661","","0.4587533269","","","","","","",""
"297","","bandit","205","646744","0.0-167.0-0.0","94038596","wem/bandit_single","A2HGAQ9WOEU9PN","gain","2","","76","L","3","","0","0","1","0.4618517855","","false","130","0.3906791758","","main_expt","0.09182468565","","0.4301237728","","0.4618517855","","","","","","",""
"3981","","bandit","206","652495","0.0-168.0-0.0","94038596","wem/bandit_single","A2HGAQ9WOEU9PN","gain","2","","76","L","3","","0","0","1","0.4622878414","","false","131","0.380553204","","main_expt","0.09388333002","","0.4457858875","","0.4622878414","","","","","","",""
"511","","bandit","207","654783","0.0-169.0-0.0","94038596","wem/bandit_single","A2HGAQ9WOEU9PN","gain","2","","76","L","3","","0","0","1","0.4624711794","","false","132","0.4000467043","","main_expt","0.07277513685","","0.4732894157","","0.4624711794","","","","","","",""
"200","","bandit","208","656759","0.0-170.0-0.0","94038596","wem/bandit_single","A2HGAQ9WOEU9PN","gain","2","","75","K","2","","0","0","1","0.4607838047","","false","133","0.3929100345","","main_expt","0.1108266248","","0.4607838047","","0.4794526202","","","","","","",""
"86","","bandit","209","658622","0.0-171.0-0.0","94038596","wem/bandit_single","A2HGAQ9WOEU9PN","gain","2","","74","J","1","","0","0","1","0.1466671782","","false","134","0.4009617203","","main_expt","0.1466671782","","0.4663808264","","0.481632873","","","","","","",""
"185","","bandit","210","660581","0.0-172.0-0.0","94038596","wem/bandit_single","A2HGAQ9WOEU9PN","gain","2","","72","H","0","img/none_selected.jpg","0","0","1","0.3859426802","","false","135","0.3859426802","","main_expt","0.1625995743","","0.4625615306","","0.4667599148","","","","","","",""
"61","","bandit","211","662416","0.0-173.0-0.0","94038596","wem/bandit_single","A2HGAQ9WOEU9PN","gain","2","","74","J","1","","0","0","1","0.1555673637","","false","136","0.4089350186","","main_expt","0.1555673637","","0.4629143089","","0.4468402508","","","","","","",""
"107","","bandit","212","664291","0.0-174.0-0.0","94038596","wem/bandit_single","A2HGAQ9WOEU9PN","gain","2","","74","J","1","","0","0","1","0.1395554881","","false","137","0.4009707033","","main_expt","0.1395554881","","0.4644074349","","0.4331537256","","","","","","",""
"104","","bandit","213","666170","0.0-175.0-0.0","94038596","wem/bandit_single","A2HGAQ9WOEU9PN","gain","2","","75","K","2","","0","0","1","0.4741213624","","false","138","0.4116224971","","main_expt","0.1387442451","","0.4741213624","","0.4578477473","","","","","","",""
"296","","bandit","214","668351","0.0-176.0-0.0","94038596","wem/bandit_single","A2HGAQ9WOEU9PN","gain","2","","76","L","3","","0","0","1","0.464919911","","false","139","0.4129411324","","main_expt","0.1693780048","","0.4736492243","","0.464919911","","","","","","",""
"120","","bandit","215","670251","0.0-177.0-0.0","94038596","wem/bandit_single","A2HGAQ9WOEU9PN","gain","2","","76","L","3","","0","0","1","0.4614371154","","false","140","0.4494235083","","main_expt","0.1753437518","","0.4752570035","","0.4614371154","","","","","","",""
"79","","bandit","216","672146","0.0-178.0-0.0","94038596","wem/bandit_single","A2HGAQ9WOEU9PN","gain","2","","76","L","3","","0","0","1","0.4747872093","","false","141","0.4453484197","","main_expt","0.2288512635","","0.4857055712","","0.4747872093","","","","","","",""
"104","","bandit","217","674039","0.0-179.0-0.0","94038596","wem/bandit_single","A2HGAQ9WOEU9PN","gain","2","","76","L","3","","1","0","0","0.4513335087","","false","142","0.4604546146","","main_expt","0.2579513082","","0.4792724089","","0.4513335087","","","","","","",""
"116","","bandit","218","675937","0.0-180.0-0.0","94038596","wem/bandit_single","A2HGAQ9WOEU9PN","gain","2","","76","L","3","","0","0","1","0.4198830698","","false","143","0.4826245684","","main_expt","0.21432658","","0.48057755","","0.4198830698","","","","","","",""
"850","","bandit","219","678572","0.0-181.0-0.0","94038596","wem/bandit_single","A2HGAQ9WOEU9PN","gain","2","","76","L","3","","0","0","1","0.3673231636","","false","144","0.4890981767","","main_expt","0.1938021535","","0.4777600445","","0.3673231636","","","","","","",""
"207","","bandit","220","680578","0.0-182.0-0.0","94038596","wem/bandit_single","A2HGAQ9WOEU9PN","gain","2","","76","L","3","","0","0","1","0.3772368795","","false","145","0.4680822138","","main_expt","0.206497324","","0.4735071841","","0.3772368795","","","","","","",""
"33868","","bandit","221","716238","0.0-183.0-0.0","94038596","wem/bandit_single","A2HGAQ9WOEU9PN","gain","2","","76","L","3","","1","0","0","0.3767069828","","false","146","0.4660155258","","main_expt","0.1857351915","","0.4598241197","","0.3767069828","","","","","","",""
"8690","","bandit","222","726718","0.0-184.0-0.0","94038596","wem/bandit_single","A2HGAQ9WOEU9PN","gain","2","","76","L","3","","0","0","1","0.4039806626","","false","147","0.4723880167","","main_expt","0.1046475439","","0.4279993213","","0.4039806626","","","","","","",""
"252","","bandit","223","728760","0.0-185.0-0.0","94038596","wem/bandit_single","A2HGAQ9WOEU9PN","gain","2","","76","L","3","","0","0","1","0.4178396587","","false","148","0.4692947112","","main_expt","0.1098111678","","0.4422782314","","0.4178396587","","","","","","",""
"466","","bandit","224","731004","0.0-186.0-0.0","94038596","wem/bandit_single","A2HGAQ9WOEU9PN","gain","2","","76","L","3","","0","0","1","0.3932004216","","false","149","0.4702562614","","main_expt","0.1221971929","","0.4514785706","","0.3932004216","","","","","","",""
"99","","bandit","225","732882","0.0-187.0-0.0","94038596","wem/bandit_single","A2HGAQ9WOEU9PN","gain","2","","76","L","3","","1","0","0","0.4103897693","","false","150","0.4714094479","","main_expt","0.1354034315","","0.4189864991","","0.4103897693","","","","","","",""
"1671","","bandit","226","736326","0.0-188.0-0.0","94038596","wem/bandit_single","A2HGAQ9WOEU9PN","gain","2","","76","L","3","","1","0","0","0.4122179041","","false","151","0.4761401221","","main_expt","0.1041822367","","0.4389233528","","0.4122179041","","","","","","",""
"302","","bandit","227","738420","0.0-189.0-0.0","94038596","wem/bandit_single","A2HGAQ9WOEU9PN","gain","2","","76","L","3","","0","0","1","0.3952463752","","false","152","0.4697737123","","main_expt","0.09038071171","","0.4244236929","","0.3952463752","","","","","","",""
"255","","bandit","228","740447","0.0-190.0-0.0","94038596","wem/bandit_single","A2HGAQ9WOEU9PN","gain","2","","76","L","3","","0","0","1","0.3877384472","","false","153","0.446753433","","main_expt","0.08460578514","","0.4476471014","","0.3877384472","","","","","","",""
"357","","bandit","229","742586","0.0-191.0-0.0","94038596","wem/bandit_single","A2HGAQ9WOEU9PN","gain","2","","76","L","3","","0","0","1","0.3551427127","","false","154","0.4588815304","","main_expt","0.06957086972","","0.4505336387","","0.3551427127","","","","","","",""
"523","","bandit","230","744892","0.0-192.0-0.0","94038596","wem/bandit_single","A2HGAQ9WOEU9PN","gain","2","","76","L","3","","0","0","1","0.3027898514","","false","155","0.4483664475","","main_expt","0.07570805595","","0.466992112","","0.3027898514","","","","","","",""
"228","","bandit","231","746894","0.0-193.0-0.0","94038596","wem/bandit_single","A2HGAQ9WOEU9PN","gain","2","","75","K","2","","0","0","1","0.4383448919","","false","156","0.4383670719","","main_expt","0.1010055374","","0.4383448919","","0.3245978035","","","","","","",""
"137","","bandit","232","748810","0.0-194.0-0.0","94038596","wem/bandit_single","A2HGAQ9WOEU9PN","gain","2","","74","J","1","","0","0","1","0.09959580587","","false","157","0.42990192","","main_expt","0.09959580587","","0.4181306447","","0.3293821827","","","","","","",""
"184","","bandit","233","750779","0.0-195.0-0.0","94038596","wem/bandit_single","A2HGAQ9WOEU9PN","gain","2","","72","H","0","img/none_selected.jpg","1","0","0","0.4112902825","","false","158","0.4112902825","","main_expt","0.09130540219","","0.4322591637","","0.3053991167","","","","","","",""
"154","","bandit","234","752709","0.0-196.0-0.0","94038596","wem/bandit_single","A2HGAQ9WOEU9PN","gain","2","","72","H","0","img/none_selected.jpg","1","0","0","0.4085113589","","false","159","0.4085113589","","main_expt","0.07080299429","","0.4129829621","","0.3475565739","","","","","","",""
"165","","bandit","235","754648","0.0-197.0-0.0","94038596","wem/bandit_single","A2HGAQ9WOEU9PN","gain","2","","72","H","0","img/none_selected.jpg","0","0","1","0.4079314082","","false","160","0.4079314082","","main_expt","0.05017383151","","0.4094933958","","0.327393219","","","","","","",""
"74","","bandit","236","756504","0.0-198.0-0.0","94038596","wem/bandit_single","A2HGAQ9WOEU9PN","gain","2","","72","H","0","img/none_selected.jpg","0","0","1","0.3631501835","","false","161","0.3631501835","","main_expt","0.03820476969","","0.404058003","","0.303429729","","","","","","",""
"109","","bandit","237","758385","0.0-199.0-0.0","94038596","wem/bandit_single","A2HGAQ9WOEU9PN","gain","2","","72","H","0","img/none_selected.jpg","0","0","1","0.3470346279","","false","162","0.3470346279","","main_expt","0.02512507724","","0.3846726044","","0.3079210788","","","","","","",""
"655","","bandit","238","760824","0.0-200.0-0.0","94038596","wem/bandit_single","A2HGAQ9WOEU9PN","gain","2","","72","H","0","img/none_selected.jpg","1","0","0","0.372656257","","false","163","0.372656257","","main_expt","0.03932379445","","0.4016559577","","0.3004483846","","","","","","",""
"173","","bandit","239","762777","0.0-201.0-0.0","94038596","wem/bandit_single","A2HGAQ9WOEU9PN","gain","2","","72","H","0","img/none_selected.jpg","1","0","0","0.3802753243","","false","164","0.3802753243","","main_expt","0.01829840099","","0.3566256613","","0.2886014424","","","","","","",""
"406","","bandit","240","764983","0.0-202.0-0.0","94038596","wem/bandit_single","A2HGAQ9WOEU9PN","gain","2","","72","H","0","img/none_selected.jpg","0","0","1","0.3881672334","","false","165","0.3881672334","","main_expt","0.02415252971","","0.3509524146","","0.2088325088","","","","","","",""
"264","","bandit","241","767017","0.0-203.0-0.0","94038596","wem/bandit_single","A2HGAQ9WOEU9PN","gain","2","","72","H","0","img/none_selected.jpg","0","0","1","0.359536632","","false","166","0.359536632","","main_expt","0.02185778449","","0.2773632025","","0.2160195985","","","","","","",""
"13","","bandit","242","768808","0.0-204.0-0.0","94038596","wem/bandit_single","A2HGAQ9WOEU9PN","gain","2","","72","H","0","img/none_selected.jpg","0","0","1","0.3693034809","","false","167","0.3693034809","","main_expt","0.02761124673","","0.3022689801","","0.1836534764","","","","","","",""
"164","","bandit","243","770744","0.0-205.0-0.0","94038596","wem/bandit_single","A2HGAQ9WOEU9PN","gain","2","","72","H","0","img/none_selected.jpg","1","0","0","0.3449050916","","false","168","0.3449050916","","main_expt","0.02160611799","","0.2937690027","","0.1701024481","","","","","","",""
"163","","bandit","244","772680","0.0-206.0-0.0","94038596","wem/bandit_single","A2HGAQ9WOEU9PN","gain","2","","72","H","0","img/none_selected.jpg","1","0","0","0.3515710367","","false","169","0.3515710367","","main_expt","0.02113437328","","0.2488586406","","0.1896079261","","","","","","",""
"203","","bandit","245","774657","0.0-207.0-0.0","94038596","wem/bandit_single","A2HGAQ9WOEU9PN","gain","2","","72","H","0","img/none_selected.jpg","0","0","1","0.3233833909","","false","170","0.3233833909","","main_expt","0.01292956957","","0.2112819205","","0.2377789273","","","","","","",""
"216","","bandit","246","776640","0.0-208.0-0.0","94038596","wem/bandit_single","A2HGAQ9WOEU9PN","gain","2","","72","H","0","img/none_selected.jpg","0","0","1","0.2468086364","","false","171","0.2468086364","","main_expt","0.01989811998","","0.2217900108","","0.2640247014","","","","","","",""
"102","","bandit","247","778528","0.0-209.0-0.0","94038596","wem/bandit_single","A2HGAQ9WOEU9PN","gain","2","","72","H","0","img/none_selected.jpg","1","0","0","0.3408906282","","false","172","0.3408906282","","main_expt","0.0296351857","","0.2387596097","","0.2055846389","","","","","","",""
"339","","bandit","248","780666","0.0-210.0-0.0","94038596","wem/bandit_single","A2HGAQ9WOEU9PN","gain","2","","72","H","0","img/none_selected.jpg","0","0","1","0.3252944763","","false","173","0.3252944763","","main_expt","0.03540771295","","0.2602125502","","0.2438181894","","","","","","",""
"133","","bandit","249","782594","0.0-211.0-0.0","94038596","wem/bandit_single","A2HGAQ9WOEU9PN","gain","2","","72","H","0","img/none_selected.jpg","0","0","1","0.3200904142","","false","174","0.3200904142","","main_expt","0.03725130304","","0.2202846771","","0.2733147352","","","","","","",""
"361","","bandit","250","784850","0.0-212.0-0.0","94038596","wem/bandit_single","A2HGAQ9WOEU9PN","gain","2","","72","H","0","img/none_selected.jpg","0","0","1","0.3622659173","","false","175","0.3622659173","","main_expt","0.03242602151","","0.233285157","","0.2767671147","","","","","","",""
"350","","bandit","251","786981","0.0-213.0-0.0","94038596","wem/bandit_single","A2HGAQ9WOEU9PN","gain","2","","72","H","0","img/none_selected.jpg","0","0","1","0.2937007374","","false","176","0.2937007374","","main_expt","0.04697917163","","0.2264555061","","0.2195478827","","","","","","",""
"124","","bandit","252","788883","0.0-214.0-0.0","94038596","wem/bandit_single","A2HGAQ9WOEU9PN","gain","2","","72","H","0","img/none_selected.jpg","0","0","1","0.2513366018","","false","177","0.2513366018","","main_expt","0.04124559051","","0.241841845","","0.1515864758","","","","","","",""
"61","","bandit","253","790729","0.0-215.0-0.0","94038596","wem/bandit_single","A2HGAQ9WOEU9PN","gain","2","","72","H","0","img/none_selected.jpg","1","0","0","0.3159509921","","false","178","0.3159509921","","main_expt","0.06205026603","","0.2423953475","","0.1618037694","","","","","","",""
"987","","bandit","254","793506","0.0-216.0-0.0","94038596","wem/bandit_single","A2HGAQ9WOEU9PN","gain","2","","72","H","0","img/none_selected.jpg","1","0","0","0.2899582247","","false","179","0.2899582247","","main_expt","0.08412795639","","0.2523089652","","0.1653326191","","","","","","",""
"167","","bandit","255","795460","0.0-217.0-0.0","94038596","wem/bandit_single","A2HGAQ9WOEU9PN","gain","2","","72","H","0","img/none_selected.jpg","0","0","1","0.3371390753","","false","180","0.3371390753","","main_expt","0.1304099397","","0.2223981335","","0.1751853148","","","","","","",""
"209","","bandit","256","797447","0.0-218.0-0.0","94038596","wem/bandit_single","A2HGAQ9WOEU9PN","gain","2","","72","H","0","img/none_selected.jpg","1","0","0","0.3365963609","","false","181","0.3365963609","","main_expt","0.1801801058","","0.2319473409","","0.211978586","","","","","","",""
"175","","bandit","257","799420","0.0-219.0-0.0","94038596","wem/bandit_single","A2HGAQ9WOEU9PN","gain","2","","72","H","0","img/none_selected.jpg","0","0","1","0.2643366398","","false","182","0.2643366398","","main_expt","0.1951504204","","0.2338578761","","0.2323199139","","","","","","",""
"79","","bandit","258","801284","0.0-220.0-0.0","94038596","wem/bandit_single","A2HGAQ9WOEU9PN","gain","2","","72","H","0","img/none_selected.jpg","0","0","1","0.2464000872","","false","183","0.2464000872","","main_expt","0.2330781564","","0.265472663","","0.2252803731","","","","","","",""
"169","","bandit","259","803246","0.0-221.0-0.0","94038596","wem/bandit_single","A2HGAQ9WOEU9PN","gain","2","","72","H","0","img/none_selected.jpg","1","0","0","0.3039071009","","false","184","0.3039071009","","main_expt","0.2711395555","","0.2826161147","","0.1614269484","","","","","","",""
"153","","bandit","260","805178","0.0-222.0-0.0","94038596","wem/bandit_single","A2HGAQ9WOEU9PN","gain","2","","72","H","0","img/none_selected.jpg","0","0","1","0.3100879913","","false","185","0.3100879913","","main_expt","0.2182249031","","0.2542525597","","0.1636939604","","","","","","",""
"94","","bandit","261","807052","0.0-223.0-0.0","94038596","wem/bandit_single","A2HGAQ9WOEU9PN","gain","2","","72","H","0","img/none_selected.jpg","0","0","1","0.28505789","","false","186","0.28505789","","main_expt","0.2609412602","","0.260460085","","0.1744134641","","","","","","",""
"92","","bandit","262","808968","0.0-224.0-0.0","94038596","wem/bandit_single","A2HGAQ9WOEU9PN","gain","2","","72","H","0","img/none_selected.jpg","0","0","1","0.2698122055","","false","187","0.2698122055","","main_expt","0.2242136054","","0.2119714508","","0.1955069844","","","","","","",""
"121","","bandit","263","810878","0.0-225.0-0.0","94038596","wem/bandit_single","A2HGAQ9WOEU9PN","gain","2","","72","H","0","img/none_selected.jpg","1","0","0","0.2270240414","","false","188","0.2270240414","","main_expt","0.2404864381","","0.1887053186","","0.2289740151","","","","","","",""
"121","","bandit","264","812780","0.0-226.0-0.0","94038596","wem/bandit_single","A2HGAQ9WOEU9PN","gain","2","","72","H","0","img/none_selected.jpg","0","0","1","0.2182158859","","false","189","0.2182158859","","main_expt","0.2177927796","","0.1944753942","","0.2495887903","","","","","","",""
"78","","bandit","265","814670","0.0-227.0-0.0","94038596","wem/bandit_single","A2HGAQ9WOEU9PN","gain","2","","72","H","0","img/none_selected.jpg","0","0","1","0.2445882628","","false","190","0.2445882628","","main_expt","0.2445379922","","0.2163673671","","0.2815424982","","","","","","",""
"148","","bandit","266","816599","0.0-228.0-0.0","94038596","wem/bandit_single","A2HGAQ9WOEU9PN","gain","2","","72","H","0","img/none_selected.jpg","0","0","1","0.2733302752","","false","191","0.2733302752","","main_expt","0.2910265903","","0.2584180811","","0.2401402076","","","","","","",""
"66","","bandit","267","818451","0.0-229.0-0.0","94038596","wem/bandit_single","A2HGAQ9WOEU9PN","gain","2","","72","H","0","img/none_selected.jpg","1","0","0","0.2776932955","","false","192","0.2776932955","","main_expt","0.3095983682","","0.2555063139","","0.2510809658","","","","","","",""
"1579","","bandit","268","821814","0.0-230.0-0.0","94038596","wem/bandit_single","A2HGAQ9WOEU9PN","gain","2","","72","H","0","img/none_selected.jpg","0","0","1","0.3335190616","","false","193","0.3335190616","","main_expt","0.3217156539","","0.2694863875","","0.2875405407","","","","","","",""
"413","","bandit","269","824007","0.0-231.0-0.0","94038596","wem/bandit_single","A2HGAQ9WOEU9PN","gain","2","","72","H","0","img/none_selected.jpg","0","0","1","0.3308991278","","false","194","0.3308991278","","main_expt","0.278878796","","0.2894821148","","0.2183543786","","","","","","",""
"145","","bandit","270","825939","0.0-232.0-0.0","94038596","wem/bandit_single","A2HGAQ9WOEU9PN","gain","2","","72","H","0","img/none_selected.jpg","0","0","1","0.3676749275","","false","195","0.3676749275","","main_expt","0.2738334973","","0.3028339589","","0.2626349305","","","","","","",""
"244","","bandit","271","827971","0.0-233.0-0.0","94038596","wem/bandit_single","A2HGAQ9WOEU9PN","gain","2","","72","H","0","img/none_selected.jpg","0","0","1","0.3523241719","","false","196","0.3523241719","","main_expt","0.2494818112","","0.3051171059","","0.2046446137","","","","","","",""
"495","","bandit","272","830241","0.0-234.0-0.0","94038596","wem/bandit_single","A2HGAQ9WOEU9PN","gain","2","","72","H","0","img/none_selected.jpg","0","0","1","0.3874168703","","false","197","0.3874168703","","main_expt","0.2620473779","","0.2901305303","","0.2122082762","","","","","","",""
"164","","bandit","273","832190","0.0-235.0-0.0","94038596","wem/bandit_single","A2HGAQ9WOEU9PN","gain","2","","74","J","1","","0","0","1","0.3153682745","","false","198","0.4072223947","","main_expt","0.3153682745","","0.2403600488","","0.1962120249","","","","","","",""
"100","","bandit","274","834098","0.0-236.0-0.0","94038596","wem/bandit_single","A2HGAQ9WOEU9PN","gain","2","","75","K","2","","0","0","1","0.2034733728","","false","199","0.4284861426","","main_expt","0.2424407548","","0.2034733728","","0.1840541487","","","","","","",""
"129","","bandit","275","836006","0.0-237.0-0.0","94038596","wem/bandit_single","A2HGAQ9WOEU9PN","gain","2","","76","L","3","","0","0","1","0.1575563837","","false","200","0.4181746593","","main_expt","0.2692586032","","0.2193557146","","0.1575563837","","","","","","",""
"40","","bandit","276","837827","0.0-238.0-0.0","94038596","wem/bandit_single","A2HGAQ9WOEU9PN","gain","2","","72","H","0","img/none_selected.jpg","1","0","0","0.4134190678","","false","201","0.4134190678","","main_expt","0.2605377594","","0.2412650678","","0.138860739","","","","","","",""
"345","","bandit","277","839964","0.0-239.0-0.0","94038596","wem/bandit_single","A2HGAQ9WOEU9PN","gain","2","","72","H","0","img/none_selected.jpg","1","0","0","0.4255663607","","false","202","0.4255663607","","main_expt","0.2372211354","","0.2106041824","","0.1216759056","","","","","","",""
"128","","bandit","278","841868","0.0-240.0-0.0","94038596","wem/bandit_single","A2HGAQ9WOEU9PN","gain","2","","72","H","0","img/none_selected.jpg","1","0","0","0.4267176133","","false","203","0.4267176133","","main_expt","0.20896917","","0.2182463191","","0.1085797693","","","","","","",""
"102","","bandit","279","844155","0.0-241.0-0.0","94038596","wem/bandit_single","A2HGAQ9WOEU9PN","gain","2","","72","H","0","img/none_selected.jpg","0","0","1","0.460819217","","false","204","0.460819217","","main_expt","0.2277156902","","0.2060997213","","0.08750272662","","","","","","",""
"740","","bandit","280","846857","0.0-242.0-0.0","94038596","wem/bandit_single","A2HGAQ9WOEU9PN","gain","2","","72","H","0","img/none_selected.jpg","0","0","1","0.4797370756","","false","205","0.4797370756","","main_expt","0.2096017385","","0.2179237498","","0.1119911725","","","","","","",""
"132","","bandit","281","848884","0.0-243.0-0.0","94038596","wem/bandit_single","A2HGAQ9WOEU9PN","gain","2","","72","H","0","img/none_selected.jpg","1","0","0","0.4850202511","","false","206","0.4850202511","","main_expt","0.2293009918","","0.194566176","","0.105166696","","","","","","",""
"901","","bandit","282","851567","0.0-244.0-0.0","94038596","wem/bandit_single","A2HGAQ9WOEU9PN","gain","2","","72","H","0","img/none_selected.jpg","0","0","1","0.4588339162","","false","207","0.4588339162","","main_expt","0.2613461541","","0.2540459421","","0.07428909222","","","","","","",""
"1668","","bandit","283","855021","0.0-245.0-0.0","94038596","wem/bandit_single","A2HGAQ9WOEU9PN","gain","2","","72","H","0","img/none_selected.jpg","0","0","1","0.4704498371","","false","208","0.4704498371","","main_expt","0.2921374763","","0.2165425212","","0.08415887516","","","","","","",""
"10717","","bandit","284","867522","0.0-246.0-0.0","94038596","wem/bandit_single","A2HGAQ9WOEU9PN","gain","2","","72","H","0","img/none_selected.jpg","1","0","0","0.4498430745","","false","209","0.4498430745","","main_expt","0.2679345114","","0.1808740619","","0.05558253146","","","","","","",""
"4699","","bandit","285","874100","0.0-247.0-0.0","94038596","wem/bandit_single","A2HGAQ9WOEU9PN","gain","2","","72","H","0","img/none_selected.jpg","0","0","1","0.4463117693","","false","210","0.4463117693","","main_expt","0.2356021564","","0.2298827717","","0.04914985493","","","","","","",""
"1618","","bandit","286","877523","0.0-248.0-0.0","94038596","wem/bandit_single","A2HGAQ9WOEU9PN","gain","2","","72","H","0","img/none_selected.jpg","0","0","1","0.422163821","","false","211","0.422163821","","main_expt","0.2152320876","","0.2533880575","","0.03798033643","","","","","","",""
"1457","","bandit","287","880772","0.0-249.0-0.0","94038596","wem/bandit_single","A2HGAQ9WOEU9PN","gain","2","","72","H","0","img/none_selected.jpg","0","0","1","0.3852039581","","false","212","0.3852039581","","main_expt","0.2216595069","","0.2771241442","","0.03974322714","","","","","","",""
"312","","bandit","288","882868","0.0-250.0-0.0","94038596","wem/bandit_single","A2HGAQ9WOEU9PN","gain","2","","72","H","0","img/none_selected.jpg","0","0","1","0.3822954745","","false","213","0.3822954745","","main_expt","0.2150176613","","0.3010302337","","0.02384455773","","","","","","",""
"767","","bandit","289","885457","0.0-251.0-0.0","94038596","wem/bandit_single","A2HGAQ9WOEU9PN","gain","2","","72","H","0","img/none_selected.jpg","0","0","1","0.3608549874","","false","214","0.3608549874","","main_expt","0.1772129937","","0.3409008015","","0.03216660231","","","","","","",""
"228","","bandit","290","887863","0.0-252.0-0.0","94038596","wem/bandit_single","A2HGAQ9WOEU9PN","gain","2","","72","H","0","img/none_selected.jpg","0","0","1","0.3621739951","","false","215","0.3621739951","","main_expt","0.1584975441","","0.3227810677","","0.03095464101","","","","","","",""
"160","","bandit","291","889806","0.0-253.0-0.0","94038596","wem/bandit_single","A2HGAQ9WOEU9PN","gain","2","","72","H","0","img/none_selected.jpg","0","0","1","0.3733564142","","false","216","0.3733564142","","main_expt","0.1256434713","","0.3636386285","","0.04011500866","","","","","","",""
"205","","bandit","292","891795","0.0-254.0-0.0","94038596","wem/bandit_single","A2HGAQ9WOEU9PN","gain","2","","76","L","3","","0","0","1","0.02351309264","","false","217","0.3856473275","","main_expt","0.1601534085","","0.3649758886","","0.02351309264","","","","","","",""
"256","","bandit","293","893834","0.0-255.0-0.0","94038596","wem/bandit_single","A2HGAQ9WOEU9PN","gain","2","","76","L","3","","0","0","1","0.01650540734","","false","218","0.3645608201","","main_expt","0.1514518834","","0.3641131336","","0.01650540734","","","","","","",""
"480","","bandit","294","896142","0.0-256.0-0.0","94038596","wem/bandit_single","A2HGAQ9WOEU9PN","gain","2","","76","L","3","","0","0","1","0.03577324375","","false","219","0.3851453746","","main_expt","0.2415223947","","0.341156599","","0.03577324375","","","","","","",""
"185","","bandit","295","898121","0.0-257.0-0.0","94038596","wem/bandit_single","A2HGAQ9WOEU9PN","gain","2","","75","K","2","","0","0","1","0.266049218","","false","220","0.4075423229","","main_expt","0.2248182851","","0.266049218","","0.03655385126","","","","","","",""
"161","","bandit","296","900096","0.0-258.0-0.0","94038596","wem/bandit_single","A2HGAQ9WOEU9PN","gain","2","","74","J","1","","0","0","1","0.2588925836","","false","221","0.4083347012","","main_expt","0.2588925836","","0.2359154628","","0.03282050992","","","","","","",""
"175","","bandit","297","902050","0.0-259.0-0.0","94038596","wem/bandit_single","A2HGAQ9WOEU9PN","gain","2","","74","J","1","","1","0","0","0.2025188389","","false","222","0.4083223781","","main_expt","0.2025188389","","0.2640726019","","0.02558717114","","","","","","",""
"311","","bandit","298","904154","0.0-260.0-0.0","94038596","wem/bandit_single","A2HGAQ9WOEU9PN","gain","2","","74","J","1","","0","0","1","0.1609755914","","false","223","0.4240474742","","main_expt","0.1609755914","","0.1860418506","","0.04788205671","","","","","","",""
"275","","bandit","299","906213","0.0-261.0-0.0","94038596","wem/bandit_single","A2HGAQ9WOEU9PN","gain","2","","74","J","1","","0","0","1","0.2316748255","","false","224","0.4346876605","","main_expt","0.2316748255","","0.151875944","","0.05498715651","","","","","","",""
"226","","bandit","300","908224","0.0-262.0-0.0","94038596","wem/bandit_single","A2HGAQ9WOEU9PN","gain","2","","72","H","0","img/none_selected.jpg","0","0","1","0.4541072866","","false","225","0.4541072866","","main_expt","0.1605893144","","0.1209973656","","0.056476577","","","","","","",""
"105","","bandit","301","910156","0.0-263.0-0.0","94038596","wem/bandit_single","A2HGAQ9WOEU9PN","gain","2","","74","J","1","","0","0","1","0.1389366963","","false","226","0.4239515892","","main_expt","0.1389366963","","0.1503457952","","0.06361054401","","","","","","",""
"478","","bandit","302","912437","0.0-264.0-0.0","94038596","wem/bandit_single","A2HGAQ9WOEU9PN","gain","2","","74","J","1","","0","0","1","0.09987042713","","false","227","0.4122914309","","main_expt","0.09987042713","","0.1784166707","","0.03819722012","","","","","","",""
"345","","bandit","303","914574","0.0-265.0-0.0","94038596","wem/bandit_single","A2HGAQ9WOEU9PN","gain","2","","74","J","1","","0","0","1","0.1511988136","","false","228","0.4022765074","","main_expt","0.1511988136","","0.1729157366","","0.03706892342","","","","","","",""
"185","","bandit","304","916540","0.0-266.0-0.0","94038596","wem/bandit_single","A2HGAQ9WOEU9PN","gain","2","","74","J","1","","1","0","0","0.1165125066","","false","229","0.3991813765","","main_expt","0.1165125066","","0.2035050609","","0.05619366589","","","","","","",""
"216","","bandit","305","918542","0.0-267.0-0.0","94038596","wem/bandit_single","A2HGAQ9WOEU9PN","gain","2","","74","J","1","","0","0","1","0.09058018373","","false","230","0.3771825363","","main_expt","0.09058018373","","0.1677195288","","0.02398835026","","","","","","",""
"239","","bandit","306","920579","0.0-268.0-0.0","94038596","wem/bandit_single","A2HGAQ9WOEU9PN","gain","2","","74","J","1","","0","0","1","0.1254599363","","false","231","0.4081115595","","main_expt","0.1254599363","","0.1568417205","","0.01087418165","","","","","","",""
"170","","bandit","307","922529","0.0-269.0-0.0","94038596","wem/bandit_single","A2HGAQ9WOEU9PN","gain","2","","74","J","1","","0","0","1","0.09699218641","","false","232","0.4227202023","","main_expt","0.09699218641","","0.1733774055","","0.005667282796","","","","","","",""
"79","","bandit","308","924386","0.0-270.0-0.0","94038596","wem/bandit_single","A2HGAQ9WOEU9PN","gain","2","","74","J","1","","0","0","1","0.07122003092","","false","233","0.4267606383","","main_expt","0.07122003092","","0.2318808439","","0.00711790457","","","","","","",""
"120","","bandit","309","926281","0.0-271.0-0.0","94038596","wem/bandit_single","A2HGAQ9WOEU9PN","gain","2","","74","J","1","","0","0","1","0.07078025717","","false","234","0.4076790224","","main_expt","0.07078025717","","0.2728484722","","0.01087448681","","","","","","",""
"1441","","bandit","310","929497","0.0-272.0-0.0","94038596","wem/bandit_single","A2HGAQ9WOEU9PN","gain","2","","74","J","1","","0","0","1","0.04546889639","","false","235","0.3750136452","","main_expt","0.04546889639","","0.230842538","","0.008183852991","","","","","","",""
"159","","bandit","311","931433","0.0-273.0-0.0","94038596","wem/bandit_single","A2HGAQ9WOEU9PN","gain","2","","74","J","1","","0","0","1","0.07949547843","","false","236","0.3579900966","","main_expt","0.07949547843","","0.2565969246","","0.00957014591","","","","","","",""
"55","","bandit","312","933264","0.0-274.0-0.0","94038596","wem/bandit_single","A2HGAQ9WOEU9PN","gain","2","","74","J","1","","0","0","1","0.06498208703","","false","237","0.3685919787","","main_expt","0.06498208703","","0.2661079812","","0.02345003211","","","","","","",""
"123","","bandit","313","935160","0.0-275.0-0.0","94038596","wem/bandit_single","A2HGAQ9WOEU9PN","gain","2","","74","J","1","","0","0","1","0.07283675032","","false","238","0.3220789964","","main_expt","0.07283675032","","0.3192940022","","0.02056264696","","","","","","",""
"97","","bandit","314","937032","0.0-276.0-0.0","94038596","wem/bandit_single","A2HGAQ9WOEU9PN","gain","2","","74","J","1","","0","0","1","0.08723568047","","false","239","0.3059519391","","main_expt","0.08723568047","","0.3150738333","","0.02436326326","","","","","","",""
"143","","bandit","315","938955","0.0-277.0-0.0","94038596","wem/bandit_single","A2HGAQ9WOEU9PN","gain","2","","76","L","3","","0","0","1","0.0242835944","","false","240","0.3168560559","","main_expt","0.06404566497","","0.3008600842","","0.0242835944","","","","","","",""
"996","","bandit","316","941748","0.0-278.0-0.0","94038596","wem/bandit_single","A2HGAQ9WOEU9PN","gain","2","","76","L","3","","0","0","1","0.02652021178","","false","241","0.269391424","","main_expt","0.05187051438","","0.2677087501","","0.02652021178","","","","","","",""
"289","","bandit","317","943816","0.0-279.0-0.0","94038596","wem/bandit_single","A2HGAQ9WOEU9PN","gain","2","","76","L","3","","0","0","1","0.0264543433","","false","242","0.2061132751","","main_expt","0.04056120823","","0.2645585527","","0.0264543433","","","","","","",""
"680","","bandit","318","946292","0.0-280.0-0.0","94038596","wem/bandit_single","A2HGAQ9WOEU9PN","gain","2","","72","H","0","img/none_selected.jpg","0","0","1","0.1996760118","","false","243","0.1996760118","","main_expt","0.02806248696","","0.2793098336","","0.02176476481","","","","","","",""
"189","","bandit","319","948367","0.0-281.0-0.0","94038596","wem/bandit_single","A2HGAQ9WOEU9PN","gain","2","","72","H","0","img/none_selected.jpg","0","0","1","0.1719334629","","false","244","0.1719334629","","main_expt","0.04063524207","","0.285685864","","0.01301534777","","","","","","",""
"211","","bandit","320","950401","0.0-282.0-0.0","94038596","wem/bandit_single","A2HGAQ9WOEU9PN","gain","2","","72","H","0","img/none_selected.jpg","0","0","1","0.2264626889","","false","245","0.2264626889","","main_expt","0.03258124644","","0.2792363563","","0.02332936253","","","","","","",""
"166","","bandit","321","952393","0.0-283.0-0.0","94038596","wem/bandit_single","A2HGAQ9WOEU9PN","gain","2","","75","K","2","","1","0","0","0.2721020884","","false","246","0.2097999869","","main_expt","0.034431304","","0.2721020884","","0.02379131239","","","","","","",""
"474","","bandit","322","954680","0.0-284.0-0.0","94038596","wem/bandit_single","A2HGAQ9WOEU9PN","gain","2","","75","K","2","","0","0","1","0.2784836582","","false","247","0.2190078117","","main_expt","0.0335896152","","0.2784836582","","0.02988301985","","","","","","",""
"447","","bandit","323","956988","0.0-285.0-0.0","94038596","wem/bandit_single","A2HGAQ9WOEU9PN","gain","2","","75","K","2","","0","0","1","0.2155360038","","false","248","0.214739415","","main_expt","0.0373608022","","0.2155360038","","0.04121629219","","","","","","",""
"449","","bandit","324","959218","0.0-286.0-0.0","94038596","wem/bandit_single","A2HGAQ9WOEU9PN","gain","2","","75","K","2","","0","0","1","0.2182269439","","false","249","0.2361668487","","main_expt","0.04629433077","","0.2182269439","","0.03081548873","","","","","","",""
"417","","bandit","325","961427","0.0-287.0-0.0","94038596","wem/bandit_single","A2HGAQ9WOEU9PN","gain","2","","75","K","2","","0","0","1","0.2794373206","","false","250","0.2730147117","","main_expt","0.04794370872","","0.2794373206","","0.02831669856","","","","","","",""
"401","","bandit","326","963639","0.0-288.0-0.0","94038596","wem/bandit_single","A2HGAQ9WOEU9PN","gain","2","","75","K","2","","1","0","0","0.2925698281","","false","251","0.2591269664","","main_expt","0.06568157066","","0.2925698281","","0.02600870455","","","","","","",""
"373","","bandit","327","965812","0.0-289.0-0.0","94038596","wem/bandit_single","A2HGAQ9WOEU9PN","gain","2","","75","K","2","","0","0","1","0.2727886948","","false","252","0.3091321407","","main_expt","0.07567030371","","0.2727886948","","0.02705961599","","","","","","",""
"377","","bandit","328","967971","0.0-290.0-0.0","94038596","wem/bandit_single","A2HGAQ9WOEU9PN","gain","2","","75","K","2","","0","0","1","0.2470803404","","false","253","0.2284010385","","main_expt","0.06628052114","","0.2470803404","","0.01805963102","","","","","","",""
"505","","bandit","329","970285","0.0-291.0-0.0","94038596","wem/bandit_single","A2HGAQ9WOEU9PN","gain","2","","75","K","2","","0","0","1","0.3366881304","","false","254","0.2452739286","","main_expt","0.08321976201","","0.3366881304","","0.01631706542","","","","","","",""
"2340","","bandit","330","974435","0.0-292.0-0.0","94038596","wem/bandit_single","A2HGAQ9WOEU9PN","gain","2","","75","K","2","","0","0","1","0.3781216995","","false","255","0.2769296881","","main_expt","0.1379446817","","0.3781216995","","0.01966147099","","","","","","",""
"597","","bandit","331","976820","0.0-293.0-0.0","94038596","wem/bandit_single","A2HGAQ9WOEU9PN","gain","2","","75","K","2","","1","0","0","0.3565974786","","false","256","0.222598086","","main_expt","0.1104053019","","0.3565974786","","0.02801527349","","","","","","",""
"775","","bandit","332","979383","0.0-294.0-0.0","94038596","wem/bandit_single","A2HGAQ9WOEU9PN","gain","2","","75","K","2","","1","0","0","0.3668333327","","false","257","0.2497605863","","main_expt","0.110095483","","0.3668333327","","0.02393064904","","","","","","",""
"700","","bandit","333","981873","0.0-295.0-0.0","94038596","wem/bandit_single","A2HGAQ9WOEU9PN","gain","2","","75","K","2","","1","0","0","0.3978392262","","false","258","0.248028097","","main_expt","0.09250214804","","0.3978392262","","0.01715644076","","","","","","",""
"790","","bandit","334","984440","0.0-296.0-0.0","94038596","wem/bandit_single","A2HGAQ9WOEU9PN","gain","2","","75","K","2","","0","0","1","0.3892622443","","false","259","0.210079309","","main_expt","0.1288972452","","0.3892622443","","0.01812234738","","","","","","",""
"225","","bandit","335","986461","0.0-297.0-0.0","94038596","wem/bandit_single","A2HGAQ9WOEU9PN","gain","2","","75","K","2","","0","0","1","0.3787635018","","false","260","0.1785868889","","main_expt","0.127844668","","0.3787635018","","0.01699252537","","","","","","",""
"1696","","bandit","336","989975","0.0-298.0-0.0","94038596","wem/bandit_single","A2HGAQ9WOEU9PN","gain","2","","75","K","2","","1","0","0","0.4151771386","","false","261","0.1855690742","","main_expt","0.1408125104","","0.4151771386","","0.02027773674","","","","","","",""
"394","","bandit","337","992153","0.0-299.0-0.0","94038596","wem/bandit_single","A2HGAQ9WOEU9PN","gain","2","","75","K","2","","1","0","0","0.4184001904","","false","262","0.2454672077","","main_expt","0.1423762304","","0.4184001904","","0.008159173947","","","","","","",""
"479","","bandit","338","994452","0.0-300.0-0.0","94038596","wem/bandit_single","A2HGAQ9WOEU9PN","gain","2","","75","K","2","","0","0","1","0.4397427278","","false","263","0.2423041147","","main_expt","0.1237094287","","0.4397427278","","0.00730364875","","","","","","",""
"660","","bandit","339","996898","0.0-301.0-0.0","94038596","wem/bandit_single","A2HGAQ9WOEU9PN","gain","2","","75","K","2","","0","0","1","0.4308816061","","false","264","0.2771483686","","main_expt","0.1110826985","","0.4308816061","","0.008891010149","","","","","","",""
"542","","bandit","340","999221","0.0-302.0-0.0","94038596","wem/bandit_single","A2HGAQ9WOEU9PN","gain","2","","75","K","2","","1","0","0","0.4310956018","","false","265","0.2066329382","","main_expt","0.09816719149","","0.4310956018","","0.009434589262","","","","","","",""
"1032","","bandit","341","1002031","0.0-303.0-0.0","94038596","wem/bandit_single","A2HGAQ9WOEU9PN","gain","2","","75","K","2","","1","0","0","0.4462346174","","false","266","0.1954640054","","main_expt","0.1313615454","","0.4462346174","","0.009503255165","","","","","","",""
"412","","bandit","342","1004223","0.0-304.0-0.0","94038596","wem/bandit_single","A2HGAQ9WOEU9PN","gain","2","","75","K","2","","1","0","0","0.4649068607","","false","267","0.132533774","","main_expt","0.1039649444","","0.4649068607","","0.01294763698","","","","","","",""
"902","","bandit","343","1006904","0.0-305.0-0.0","94038596","wem/bandit_single","A2HGAQ9WOEU9PN","gain","2","","75","K","2","","1","0","0","0.4499385749","","false","268","0.1212355483","","main_expt","0.0758663636","","0.4499385749","","0.01002763249","","","","","","",""
"5576","","bandit","344","1014256","0.0-306.0-0.0","94038596","wem/bandit_single","A2HGAQ9WOEU9PN","gain","2","","75","K","2","","0","0","1","0.4702815535","","false","269","0.1363236216","","main_expt","0.08641939852","","0.4702815535","","0.009339874814","","","","","","",""
"590","","bandit","345","1016624","0.0-307.0-0.0","94038596","wem/bandit_single","A2HGAQ9WOEU9PN","gain","2","","75","K","2","","1","0","0","0.4738293899","","false","270","0.1061923246","","main_expt","0.08694739741","","0.4738293899","","0.0101894737","","","","","","",""
"518","","bandit","346","1018920","0.0-308.0-0.0","94038596","wem/bandit_single","A2HGAQ9WOEU9PN","gain","2","","75","K","2","","0","0","1","0.4552130477","","false","271","0.09682021381","","main_expt","0.07507278363","","0.4552130477","","0.0101062795","","","","","","",""
"1354","","bandit","347","1022050","0.0-309.0-0.0","94038596","wem/bandit_single","A2HGAQ9WOEU9PN","gain","2","","75","K","2","","1","0","0","0.4571227508","","false","272","0.0728164368","","main_expt","0.09002305832","","0.4571227508","","0.009276773287","","","","","","",""
"573","","bandit","348","1024419","0.0-310.0-0.0","94038596","wem/bandit_single","A2HGAQ9WOEU9PN","gain","2","","75","K","2","","0","0","1","0.4262778794","","false","273","0.1026255411","","main_expt","0.07941117108","","0.4262778794","","0.0113492324","","","","","","",""
"557","","bandit","349","1026815","0.0-311.0-0.0","94038596","wem/bandit_single","A2HGAQ9WOEU9PN","gain","2","","75","K","2","","1","0","0","0.4017895895","","false","274","0.08683802548","","main_expt","0.09301171309","","0.4017895895","","0.005483919941","","","","","","",""
"956","","bandit","350","1029581","0.0-312.0-0.0","94038596","wem/bandit_single","A2HGAQ9WOEU9PN","gain","2","","75","K","2","","1","0","0","0.4017548056","","false","275","0.08250982893","","main_expt","0.1012072593","","0.4017548056","","0.00462874381","","","","","","",""
"121","","bandit","351","1031494","0.0-313.0-0.0","94038596","wem/bandit_single","A2HGAQ9WOEU9PN","gain","2","","75","K","2","","0","0","1","0.4072561249","","false","276","0.06031930624","","main_expt","0.1230964009","","0.4072561249","","0.009610611089","","","","","","",""
"286","","bandit","352","1033561","0.0-314.0-0.0","94038596","wem/bandit_single","A2HGAQ9WOEU9PN","gain","2","","75","K","2","","0","0","1","0.3248287115","","false","277","0.07169075363","","main_expt","0.1320105939","","0.3248287115","","0.01319252808","","","","","","",""
"316","","bandit","353","1035680","0.0-315.0-0.0","94038596","wem/bandit_single","A2HGAQ9WOEU9PN","gain","2","","75","K","2","","0","0","1","0.2954662343","","false","278","0.119525529","","main_expt","0.100271112","","0.2954662343","","0.008560453299","","","","","","",""
"1572","","bandit","354","1039044","0.0-316.0-0.0","94038596","wem/bandit_single","A2HGAQ9WOEU9PN","gain","2","","75","K","2","","1","0","0","0.3430788315","","false","279","0.05136608794","","main_expt","0.0752783975","","0.3430788315","","0.02270234009","","","","","","",""
"802","","bandit","355","1041672","0.0-317.0-0.0","94038596","wem/bandit_single","A2HGAQ9WOEU9PN","gain","2","","75","K","2","","1","0","0","0.298888987","","false","280","0.06692305053","","main_expt","0.04609407158","","0.298888987","","0.01842994591","","","","","","",""
"206","","bandit","356","1043659","0.0-318.0-0.0","94038596","wem/bandit_single","A2HGAQ9WOEU9PN","gain","2","","75","K","2","","1","0","0","0.317374049","","false","281","0.08594942048","","main_expt","0.05874754036","","0.317374049","","0.01750385803","","","","","","",""
"178","","bandit","357","1045627","0.0-319.0-0.0","94038596","wem/bandit_single","A2HGAQ9WOEU9PN","gain","2","","75","K","2","","0","0","1","0.2905756231","","false","282","0.08562343316","","main_expt","0.05911354127","","0.2905756231","","0.01075771148","","","","","","",""
"199","","bandit","358","1047610","0.0-320.0-0.0","94038596","wem/bandit_single","A2HGAQ9WOEU9PN","gain","2","","75","K","2","","0","0","1","0.335540713","","false","283","0.06507866554","","main_expt","0.0444902615","","0.335540713","","0.009487342711","","","","","","",""
"456","","bandit","359","1049858","0.0-321.0-0.0","94038596","wem/bandit_single","A2HGAQ9WOEU9PN","gain","2","","75","K","2","","0","0","1","0.3569674754","","false","284","0.05738126215","","main_expt","0.03666520406","","0.3569674754","","0.01035814212","","","","","","",""
"475","","bandit","360","1052510","0.0-322.0-0.0","94038596","wem/bandit_single","A2HGAQ9WOEU9PN","gain","2","","75","K","2","","1","0","0","0.4068019922","","false","285","0.06337296056","","main_expt","0.02451873239","","0.4068019922","","0.01056818013","","","","","","",""
"748","","bandit","361","1055047","0.0-323.0-0.0","94038596","wem/bandit_single","A2HGAQ9WOEU9PN","gain","2","","75","K","2","","1","0","0","0.432978486","","false","286","0.04649068967","","main_expt","0.02877547985","","0.432978486","","0.007821227136","","","","","","",""
"425","","bandit","362","1057262","0.0-324.0-0.0","94038596","wem/bandit_single","A2HGAQ9WOEU9PN","gain","2","","75","K","2","","1","0","0","0.4213006965","","false","287","0.04946639224","","main_expt","0.03331393821","","0.4213006965","","0.01039042452","","","","","","",""
"463","","bandit","363","1059506","0.0-325.0-0.0","94038596","wem/bandit_single","A2HGAQ9WOEU9PN","gain","2","","75","K","2","","1","0","0","0.4094413186","","false","288","0.03962947871","","main_expt","0.02363643209","","0.4094413186","","0.02141961277","","","","","","",""
"520","","bandit","364","1061822","0.0-326.0-0.0","94038596","wem/bandit_single","A2HGAQ9WOEU9PN","gain","2","","75","K","2","","0","0","1","0.3731302572","","false","289","0.05295486238","","main_expt","0.0366455232","","0.3731302572","","0.02062414181","","","","","","",""
"157","","bandit","365","1063767","0.0-327.0-0.0","94038596","wem/bandit_single","A2HGAQ9WOEU9PN","gain","2","","75","K","2","","0","0","1","0.4076032329","","false","290","0.06311332932","","main_expt","0.04887184979","","0.4076032329","","0.01411690602","","","","","","",""
"520","","bandit","366","1066069","0.0-328.0-0.0","94038596","wem/bandit_single","A2HGAQ9WOEU9PN","gain","2","","75","K","2","","1","0","0","0.4134699565","","false","291","0.07741633782","","main_expt","0.03783642248","","0.4134699565","","0.03188260643","","","","","","",""
"344","","bandit","367","1068195","0.0-329.0-0.0","94038596","wem/bandit_single","A2HGAQ9WOEU9PN","gain","2","","75","K","2","","0","0","1","0.3827884258","","false","292","0.09064252153","","main_expt","0.07820299584","","0.3827884258","","0.03429620073","","","","","","",""
"526","","bandit","368","1070521","0.0-330.0-0.0","94038596","wem/bandit_single","A2HGAQ9WOEU9PN","gain","2","","75","K","2","","0","0","1","0.4162015812","","false","293","0.07659126906","","main_expt","0.07060894185","","0.4162015812","","0.030392347","","","","","","",""
"253","","bandit","369","1072564","0.0-331.0-0.0","94038596","wem/bandit_single","A2HGAQ9WOEU9PN","gain","2","","75","K","2","","0","0","1","0.447674372","","false","294","0.08042624432","","main_expt","0.1051632986","","0.447674372","","0.04782046051","","","","","","",""
"124","","bandit","370","1074473","0.0-332.0-0.0","94038596","wem/bandit_single","A2HGAQ9WOEU9PN","gain","2","","75","K","2","","0","0","1","0.4402126752","","false","295","0.1216640212","","main_expt","0.06624019153","","0.4402126752","","0.06309063339","","","","","","",""
"163","","bandit","371","1076481","0.0-333.0-0.0","94038596","wem/bandit_single","A2HGAQ9WOEU9PN","gain","2","","75","K","2","","0","0","1","0.4378891161","","false","296","0.1058257345","","main_expt","0.07088700909","","0.4378891161","","0.09511663338","","","","","","",""
