"rt","responses","trial_type","trial_index","time_elapsed","internal_node_id","subjID","study","MID","cond","drift","key_press","respCharCode","respKey","respChoiceNum","respChoice","gems","bombs","no_reward","GemPrChosen","BombPrChosen","practice","trial_counter","WinPr_0","LosePr_0","trial_label","WinPr_1","LosePr_1","WinPr_2","LosePr_2","WinPr_3","LosePr_3","Q0","Q1","Q2","gender","age","ethnicity"
"4576","{""Q0"":""A61GHYNS1DFT7""}","survey-text","0","4587","0.0-0.0","94247567","wem/bandit_single","A61GHYNS1DFT7","gain","2","","","","","","","","","","","","","","","","","","","","","","","","","","",""
"1781","","text","1","7373","0.0-1.0","94247567","wem/bandit_single","A61GHYNS1DFT7","gain","2","32","","","","","","","","","","","","","","","","","","","","","","","","","",""
"4277","","text","2","11653","0.0-2.0","94247567","wem/bandit_single","A61GHYNS1DFT7","gain","2","32","","","","","","","","","","","","","","","","","","","","","","","","","",""
"29744","","text","3","41403","0.0-3.0","94247567","wem/bandit_single","A61GHYNS1DFT7","gain","2","32","","","","","","","","","","","","","","","","","","","","","","","","","",""
"14137","","text","4","55545","0.0-4.0","94247567","wem/bandit_single","A61GHYNS1DFT7","gain","2","32","","","","","","","","","","","","","","","","","","","","","","","","","",""
"6222","","text","5","61770","0.0-5.0","94247567","wem/bandit_single","A61GHYNS1DFT7","gain","2","32","","","","","","","","","","","","","","","","","","","","","","","","","",""
"3879","","text","6","65653","0.0-6.0","94247567","wem/bandit_single","A61GHYNS1DFT7","gain","2","32","","","","","","","","","","","","","","","","","","","","","","","","","",""
"1768","","text","7","67426","0.0-7.0","94247567","wem/bandit_single","A61GHYNS1DFT7","gain","2","32","","","","","","","","","","","","","","","","","","","","","","","","","",""
"1763","","text","8","69192","0.0-8.0","94247567","wem/bandit_single","A61GHYNS1DFT7","gain","2","32","","","","","","","","","","","","","","","","","","","","","","","","","",""
"1198","","text","9","70393","0.0-9.0","94247567","wem/bandit_single","A61GHYNS1DFT7","gain","2","32","","","","","","","","","","","","","","","","","","","","","","","","","",""
"4354","","text","10","74752","0.0-10.0","94247567","wem/bandit_single","A61GHYNS1DFT7","gain","2","32","","","","","","","","","","","","","","","","","","","","","","","","","",""
"3318","","text","11","78074","0.0-11.0","94247567","wem/bandit_single","A61GHYNS1DFT7","gain","2","32","","","","","","","","","","","","","","","","","","","","","","","","","",""
"954","","bandit","12","80547","0.0-12.0-0.0","94247567","wem/bandit_single","A61GHYNS1DFT7","gain","2","","74","J","0","img/none_selected_demo.jpg","0","0","1","0","0","true","0","0","0","","","","","","","","","","","","",""
"715","","bandit","13","83024","0.0-13.0-0.0","94247567","wem/bandit_single","A61GHYNS1DFT7","gain","2","","75","K","0","img/none_selected_demo.jpg","0","0","1","0","0","true","0","0","0","","","","","","","","","","","","",""
"2033","","text","14","85312","0.0-14.0","94247567","wem/bandit_single","A61GHYNS1DFT7","gain","2","32","","","","","","","","","","","","","","","","","","","","","","","","","",""
"804","","text","15","86119","0.0-15.0","94247567","wem/bandit_single","A61GHYNS1DFT7","gain","2","32","","","","","","","","","","","","","","","","","","","","","","","","","",""
"2461","","text","16","88583","0.0-16.0","94247567","wem/bandit_single","A61GHYNS1DFT7","gain","2","32","","","","","","","","","","","","","","","","","","","","","","","","","",""
"1614","","text","17","90200","0.0-17.0","94247567","wem/bandit_single","A61GHYNS1DFT7","gain","2","32","","","","","","","","","","","","","","","","","","","","","","","","","",""
"1120","","bandit","18","92830","0.0-18.0-0.0","94247567","wem/bandit_single","A61GHYNS1DFT7","gain","2","","74","J","0","img/none_selected_demo.jpg","1","0","0","0.8","0","true","0","0.8","0","80_20_practice","0.2","0","","","","","","","","","",""
"151","","bandit","19","94742","0.0-18.0-1.0","94247567","wem/bandit_single","A61GHYNS1DFT7","gain","2","","75","K","1","","0","0","1","0.2","0","true","0","0.8","0","80_20_practice","0.2","0","","","","","","","","","",""
"33","","bandit","20","96541","0.0-18.0-2.0","94247567","wem/bandit_single","A61GHYNS1DFT7","gain","2","","74","J","0","img/none_selected_demo.jpg","1","0","0","0.8","0","true","0","0.8","0","80_20_practice","0.2","0","","","","","","","","","",""
"66","","bandit","21","98365","0.0-18.0-3.0","94247567","wem/bandit_single","A61GHYNS1DFT7","gain","2","","75","K","1","","0","0","1","0.2","0","true","0","0.8","0","80_20_practice","0.2","0","","","","","","","","","",""
"152","","bandit","22","100273","0.0-18.0-4.0","94247567","wem/bandit_single","A61GHYNS1DFT7","gain","2","","74","J","0","img/none_selected_demo.jpg","1","0","0","0.8","0","true","0","0.8","0","80_20_practice","0.2","0","","","","","","","","","",""
"72","","bandit","23","102099","0.0-18.0-5.0","94247567","wem/bandit_single","A61GHYNS1DFT7","gain","2","","74","J","0","img/none_selected_demo.jpg","1","0","0","0.8","0","true","0","0.8","0","80_20_practice","0.2","0","","","","","","","","","",""
"58","","bandit","24","103916","0.0-18.0-6.0","94247567","wem/bandit_single","A61GHYNS1DFT7","gain","2","","74","J","0","img/none_selected_demo.jpg","1","0","0","0.8","0","true","0","0.8","0","80_20_practice","0.2","0","","","","","","","","","",""
"537","","bandit","25","106212","0.0-18.0-7.0","94247567","wem/bandit_single","A61GHYNS1DFT7","gain","2","","74","J","0","img/none_selected_demo.jpg","0","0","1","0.8","0","true","0","0.8","0","80_20_practice","0.2","0","","","","","","","","","",""
"50","","bandit","26","108021","0.0-18.0-8.0","94247567","wem/bandit_single","A61GHYNS1DFT7","gain","2","","74","J","0","img/none_selected_demo.jpg","1","0","0","0.8","0","true","0","0.8","0","80_20_practice","0.2","0","","","","","","","","","",""
"23","","bandit","27","109804","0.0-18.0-9.0","94247567","wem/bandit_single","A61GHYNS1DFT7","gain","2","","74","J","0","img/none_selected_demo.jpg","1","0","0","0.8","0","true","0","0.8","0","80_20_practice","0.2","0","","","","","","","","","",""
"558","","bandit","28","112117","0.0-18.0-10.0","94247567","wem/bandit_single","A61GHYNS1DFT7","gain","2","","74","J","0","img/none_selected_demo.jpg","1","0","0","0.8","0","true","0","0.8","0","80_20_practice","0.2","0","","","","","","","","","",""
"720","","bandit","29","114596","0.0-18.0-11.0","94247567","wem/bandit_single","A61GHYNS1DFT7","gain","2","","74","J","0","img/none_selected_demo.jpg","1","0","0","0.8","0","true","0","0.8","0","80_20_practice","0.2","0","","","","","","","","","",""
"224","","bandit","30","116578","0.0-18.0-12.0","94247567","wem/bandit_single","A61GHYNS1DFT7","gain","2","","75","K","1","","0","0","1","0.2","0","true","0","0.8","0","80_20_practice","0.2","0","","","","","","","","","",""
"4","","bandit","31","118339","0.0-18.0-13.0","94247567","wem/bandit_single","A61GHYNS1DFT7","gain","2","","74","J","0","img/none_selected_demo.jpg","1","0","0","0.8","0","true","0","0.8","0","80_20_practice","0.2","0","","","","","","","","","",""
"130","","bandit","32","120227","0.0-18.0-14.0","94247567","wem/bandit_single","A61GHYNS1DFT7","gain","2","","75","K","1","","0","0","1","0.2","0","true","0","0.8","0","80_20_practice","0.2","0","","","","","","","","","",""
"88","","bandit","33","122071","0.0-18.0-15.0","94247567","wem/bandit_single","A61GHYNS1DFT7","gain","2","","74","J","0","img/none_selected_demo.jpg","1","0","0","0.8","0","true","0","0.8","0","80_20_practice","0.2","0","","","","","","","","","",""
"2","","bandit","34","123828","0.0-18.0-16.0","94247567","wem/bandit_single","A61GHYNS1DFT7","gain","2","","75","K","1","","1","0","0","0.2","0","true","0","0.8","0","80_20_practice","0.2","0","","","","","","","","","",""
"2135","","bandit","35","127722","0.0-18.0-17.0","94247567","wem/bandit_single","A61GHYNS1DFT7","gain","2","","74","J","0","img/none_selected_demo.jpg","1","0","0","0.8","0","true","0","0.8","0","80_20_practice","0.2","0","","","","","","","","","",""
"248","","bandit","36","129729","0.0-18.0-18.0","94247567","wem/bandit_single","A61GHYNS1DFT7","gain","2","","74","J","0","img/none_selected_demo.jpg","1","0","0","0.8","0","true","0","0.8","0","80_20_practice","0.2","0","","","","","","","","","",""
"340","","bandit","37","131826","0.0-18.0-19.0","94247567","wem/bandit_single","A61GHYNS1DFT7","gain","2","","74","J","0","img/none_selected_demo.jpg","1","0","0","0.8","0","true","0","0.8","0","80_20_practice","0.2","0","","","","","","","","","",""
"3670","","text","38","135749","0.0-19.0","94247567","wem/bandit_single","A61GHYNS1DFT7","gain","2","32","","","","","","","","","","","","","","","","","","","","","","","","","",""
"918","","bandit","39","138177","0.0-20.0-0.0","94247567","wem/bandit_single","A61GHYNS1DFT7","gain","2","","74","J","0","img/none_selected_demo.jpg","0","0","1","0","0","true","0","0","0","","0","0","","","","","","","","","",""
"3694","","text","40","142124","0.0-21.0","94247567","wem/bandit_single","A61GHYNS1DFT7","gain","2","32","","","","","","","","","","","","","","","","","","","","","","","","","",""
"1877","","text","41","144004","0.0-22.0","94247567","wem/bandit_single","A61GHYNS1DFT7","gain","2","32","","","","","","","","","","","","","","","","","","","","","","","","","",""
"1562","","text","42","145570","0.0-23.0","94247567","wem/bandit_single","A61GHYNS1DFT7","gain","2","32","","","","","","","","","","","","","","","","","","","","","","","","","",""
"1445","","text","43","147021","0.0-24.0","94247567","wem/bandit_single","A61GHYNS1DFT7","gain","2","32","","","","","","","","","","","","","","","","","","","","","","","","","",""
"7556","","text","44","154582","0.0-25.0","94247567","wem/bandit_single","A61GHYNS1DFT7","gain","2","32","","","","","","","","","","","","","","","","","","","","","","","","","",""
"1866","","text","45","156452","0.0-26.0","94247567","wem/bandit_single","A61GHYNS1DFT7","gain","2","32","","","","","","","","","","","","","","","","","","","","","","","","","",""
"2321","","text","46","158780","0.0-27.0","94247567","wem/bandit_single","A61GHYNS1DFT7","gain","2","32","","","","","","","","","","","","","","","","","","","","","","","","","",""
"2217","","text","47","161002","0.0-28.0","94247567","wem/bandit_single","A61GHYNS1DFT7","gain","2","32","","","","","","","","","","","","","","","","","","","","","","","","","",""
"5341","","text","48","166347","0.0-29.0","94247567","wem/bandit_single","A61GHYNS1DFT7","gain","2","32","","","","","","","","","","","","","","","","","","","","","","","","","",""
"1341","","text","49","167692","0.0-30.0","94247567","wem/bandit_single","A61GHYNS1DFT7","gain","2","32","","","","","","","","","","","","","","","","","","","","","","","","","",""
"1361","","text","50","169058","0.0-31.0","94247567","wem/bandit_single","A61GHYNS1DFT7","gain","2","32","","","","","","","","","","","","","","","","","","","","","","","","","",""
"1381","","bandit","51","171944","0.0-32.0-0.0","94247567","wem/bandit_single","A61GHYNS1DFT7","gain","2","","72","H","0","img/none_selected.jpg","1","0","0","0.8","0","true","0","0.8","0","full_practice","0.2","0","0.6","0","0.2","0","","","","","",""
"187","","bandit","52","173887","0.0-32.0-1.0","94247567","wem/bandit_single","A61GHYNS1DFT7","gain","2","","74","J","1","","0","0","1","0.2","0","true","0","0.8","0","full_practice","0.2","0","0.6","0","0.2","0","","","","","",""
"64","","bandit","53","175712","0.0-32.0-2.0","94247567","wem/bandit_single","A61GHYNS1DFT7","gain","2","","75","K","2","","0","0","1","0.6","0","true","0","0.8","0","full_practice","0.2","0","0.6","0","0.2","0","","","","","",""
"3","","bandit","54","177473","0.0-32.0-3.0","94247567","wem/bandit_single","A61GHYNS1DFT7","gain","2","","76","L","3","","0","0","1","0.2","0","true","0","0.8","0","full_practice","0.2","0","0.6","0","0.2","0","","","","","",""
"38","","bandit","55","179270","0.0-32.0-4.0","94247567","wem/bandit_single","A61GHYNS1DFT7","gain","2","","72","H","0","img/none_selected.jpg","0","0","1","0.8","0","true","0","0.8","0","full_practice","0.2","0","0.6","0","0.2","0","","","","","",""
"184","","bandit","56","181216","0.0-32.0-5.0","94247567","wem/bandit_single","A61GHYNS1DFT7","gain","2","","74","J","1","","0","0","1","0.2","0","true","0","0.8","0","full_practice","0.2","0","0.6","0","0.2","0","","","","","",""
"408","","bandit","57","183384","0.0-32.0-6.0","94247567","wem/bandit_single","A61GHYNS1DFT7","gain","2","","75","K","2","","0","0","1","0.6","0","true","0","0.8","0","full_practice","0.2","0","0.6","0","0.2","0","","","","","",""
"119","","bandit","58","185265","0.0-32.0-7.0","94247567","wem/bandit_single","A61GHYNS1DFT7","gain","2","","76","L","3","","0","0","1","0.2","0","true","0","0.8","0","full_practice","0.2","0","0.6","0","0.2","0","","","","","",""
"19","","bandit","59","187047","0.0-32.0-8.0","94247567","wem/bandit_single","A61GHYNS1DFT7","gain","2","","72","H","0","img/none_selected.jpg","1","0","0","0.8","0","true","0","0.8","0","full_practice","0.2","0","0.6","0","0.2","0","","","","","",""
"673","","bandit","60","189479","0.0-32.0-9.0","94247567","wem/bandit_single","A61GHYNS1DFT7","gain","2","","72","H","0","img/none_selected.jpg","1","0","0","0.8","0","true","0","0.8","0","full_practice","0.2","0","0.6","0","0.2","0","","","","","",""
"650","","bandit","61","191888","0.0-32.0-10.0","94247567","wem/bandit_single","A61GHYNS1DFT7","gain","2","","72","H","0","img/none_selected.jpg","1","0","0","0.8","0","true","0","0.8","0","full_practice","0.2","0","0.6","0","0.2","0","","","","","",""
"189","","bandit","62","193839","0.0-32.0-11.0","94247567","wem/bandit_single","A61GHYNS1DFT7","gain","2","","72","H","0","img/none_selected.jpg","1","0","0","0.8","0","true","0","0.8","0","full_practice","0.2","0","0.6","0","0.2","0","","","","","",""
"174","","bandit","63","195774","0.0-32.0-12.0","94247567","wem/bandit_single","A61GHYNS1DFT7","gain","2","","72","H","0","img/none_selected.jpg","1","0","0","0.8","0","true","0","0.8","0","full_practice","0.2","0","0.6","0","0.2","0","","","","","",""
"63","","bandit","64","197596","0.0-32.0-13.0","94247567","wem/bandit_single","A61GHYNS1DFT7","gain","2","","72","H","0","img/none_selected.jpg","1","0","0","0.8","0","true","0","0.8","0","full_practice","0.2","0","0.6","0","0.2","0","","","","","",""
"457","","bandit","65","199815","0.0-32.0-14.0","94247567","wem/bandit_single","A61GHYNS1DFT7","gain","2","","72","H","0","img/none_selected.jpg","1","0","0","0.8","0","true","0","0.8","0","full_practice","0.2","0","0.6","0","0.2","0","","","","","",""
"287","","bandit","66","201862","0.0-32.0-15.0","94247567","wem/bandit_single","A61GHYNS1DFT7","gain","2","","72","H","0","img/none_selected.jpg","1","0","0","0.8","0","true","0","0.8","0","full_practice","0.2","0","0.6","0","0.2","0","","","","","",""
"280","","bandit","67","203902","0.0-32.0-16.0","94247567","wem/bandit_single","A61GHYNS1DFT7","gain","2","","72","H","0","img/none_selected.jpg","1","0","0","0.8","0","true","0","0.8","0","full_practice","0.2","0","0.6","0","0.2","0","","","","","",""
"614","","bandit","68","206277","0.0-32.0-17.0","94247567","wem/bandit_single","A61GHYNS1DFT7","gain","2","","72","H","0","img/none_selected.jpg","1","0","0","0.8","0","true","0","0.8","0","full_practice","0.2","0","0.6","0","0.2","0","","","","","",""
"370","","bandit","69","208409","0.0-32.0-18.0","94247567","wem/bandit_single","A61GHYNS1DFT7","gain","2","","72","H","0","img/none_selected.jpg","1","0","0","0.8","0","true","0","0.8","0","full_practice","0.2","0","0.6","0","0.2","0","","","","","",""
"288","","bandit","70","210463","0.0-32.0-19.0","94247567","wem/bandit_single","A61GHYNS1DFT7","gain","2","","72","H","0","img/none_selected.jpg","1","0","0","0.8","0","true","0","0.8","0","full_practice","0.2","0","0.6","0","0.2","0","","","","","",""
"1587","","text","71","212320","0.0-33.0","94247567","wem/bandit_single","A61GHYNS1DFT7","gain","2","32","","","","","","","","","","","","","","","","","","","","","","","","","",""
"6078","","text","72","219404","0.0-34.0","94247567","wem/bandit_single","A61GHYNS1DFT7","gain","2","32","","","","","","","","","","","","","","","","","","","","","","","","","",""
"2447","","text","73","221855","0.0-35.0","94247567","wem/bandit_single","A61GHYNS1DFT7","gain","2","32","","","","","","","","","","","","","","","","","","","","","","","","","",""
"1107","","text","74","222969","0.0-36.0","94247567","wem/bandit_single","A61GHYNS1DFT7","gain","2","32","","","","","","","","","","","","","","","","","","","","","","","","","",""
"1048","","text","75","224024","0.0-37.0","94247567","wem/bandit_single","A61GHYNS1DFT7","gain","2","32","","","","","","","","","","","","","","","","","","","","","","","","","",""
"772","","bandit","76","226311","0.0-38.0-0.0","94247567","wem/bandit_single","A61GHYNS1DFT7","gain","2","","72","H","0","img/none_selected.jpg","0","0","1","0.1196507759","","false","1","0.1196507759","","main_expt","0.1473353724","","0.1047922924","","0.03692567881","","","","","","",""
"365","","bandit","77","228435","0.0-39.0-0.0","94247567","wem/bandit_single","A61GHYNS1DFT7","gain","2","","72","H","0","img/none_selected.jpg","0","0","1","0.1434551849","","false","2","0.1434551849","","main_expt","0.1471364572","","0.09232691068","","0.0535834513","","","","","","",""
"95","","bandit","78","230292","0.0-40.0-0.0","94247567","wem/bandit_single","A61GHYNS1DFT7","gain","2","","74","J","1","","1","0","0","0.1792173289","","false","3","0.1966750378","","main_expt","0.1792173289","","0.07878604621","","0.06455495551","","","","","","",""
"1","","bandit","79","232051","0.0-41.0-0.0","94247567","wem/bandit_single","A61GHYNS1DFT7","gain","2","","74","J","1","","1","0","0","0.2089457512","","false","4","0.1731728381","","main_expt","0.2089457512","","0.06180226224","","0.1075220519","","","","","","",""
"779","","bandit","80","234587","0.0-42.0-0.0","94247567","wem/bandit_single","A61GHYNS1DFT7","gain","2","","74","J","1","","0","0","1","0.2627176439","","false","5","0.151671232","","main_expt","0.2627176439","","0.05657605877","","0.1459974634","","","","","","",""
"103","","bandit","81","236453","0.0-43.0-0.0","94247567","wem/bandit_single","A61GHYNS1DFT7","gain","2","","74","J","1","","0","0","1","0.2052823447","","false","6","0.2201434377","","main_expt","0.2052823447","","0.03926223851","","0.1119865757","","","","","","",""
"117","","bandit","82","238333","0.0-44.0-0.0","94247567","wem/bandit_single","A61GHYNS1DFT7","gain","2","","74","J","1","","0","0","1","0.2424381104","","false","7","0.1924323999","","main_expt","0.2424381104","","0.02952185798","","0.1135710889","","","","","","",""
"30","","bandit","83","240125","0.0-45.0-0.0","94247567","wem/bandit_single","A61GHYNS1DFT7","gain","2","","75","K","2","","1","0","0","0.01847757052","","false","8","0.187431757","","main_expt","0.2324683495","","0.01847757052","","0.148696524","","","","","","",""
"164","","bandit","84","242051","0.0-46.0-0.0","94247567","wem/bandit_single","A61GHYNS1DFT7","gain","2","","75","K","2","","0","0","1","0.02695314055","","false","9","0.197470847","","main_expt","0.2440295668","","0.02695314055","","0.1181121295","","","","","","",""
"186","","bandit","85","244003","0.0-47.0-0.0","94247567","wem/bandit_single","A61GHYNS1DFT7","gain","2","","75","K","2","","0","0","1","0.02234311218","","false","10","0.2298270047","","main_expt","0.2465422232","","0.02234311218","","0.1082266346","","","","","","",""
"109","","bandit","86","245875","0.0-48.0-0.0","94247567","wem/bandit_single","A61GHYNS1DFT7","gain","2","","75","K","2","","0","0","1","0.04960883058","","false","11","0.2124937163","","main_expt","0.1529972956","","0.04960883058","","0.1102162287","","","","","","",""
"13","","bandit","87","247653","0.0-49.0-0.0","94247567","wem/bandit_single","A61GHYNS1DFT7","gain","2","","76","L","3","","0","0","1","0.1420736562","","false","12","0.2043121782","","main_expt","0.1827224572","","0.06086541187","","0.1420736562","","","","","","",""
"131","","bandit","88","249547","0.0-50.0-0.0","94247567","wem/bandit_single","A61GHYNS1DFT7","gain","2","","76","L","3","","0","0","1","0.1582971975","","false","13","0.2122729008","","main_expt","0.1973099221","","0.06603274732","","0.1582971975","","","","","","",""
"160","","bandit","89","251466","0.0-51.0-0.0","94247567","wem/bandit_single","A61GHYNS1DFT7","gain","2","","74","J","1","","0","0","1","0.2002936143","","false","14","0.1748916548","","main_expt","0.2002936143","","0.06952645267","","0.1278364912","","","","","","",""
"198","","bandit","90","253426","0.0-52.0-0.0","94247567","wem/bandit_single","A61GHYNS1DFT7","gain","2","","74","J","1","","0","0","1","0.2100222876","","false","15","0.1598041939","","main_expt","0.2100222876","","0.06705093019","","0.1389591295","","","","","","",""
"14","","bandit","91","255206","0.0-53.0-0.0","94247567","wem/bandit_single","A61GHYNS1DFT7","gain","2","","74","J","1","","0","0","1","0.192095419","","false","16","0.1496559895","","main_expt","0.192095419","","0.08739136862","","0.1087507618","","","","","","",""
"59","","bandit","92","257027","0.0-54.0-0.0","94247567","wem/bandit_single","A61GHYNS1DFT7","gain","2","","74","J","1","","0","0","1","0.2057363858","","false","17","0.1855105105","","main_expt","0.2057363858","","0.0633177824","","0.1591778588","","","","","","",""
"99","","bandit","93","258893","0.0-55.0-0.0","94247567","wem/bandit_single","A61GHYNS1DFT7","gain","2","","75","K","2","","0","0","1","0.05969087175","","false","18","0.180786103","","main_expt","0.2142317849","","0.05969087175","","0.1612769879","","","","","","",""
"158","","bandit","94","260811","0.0-56.0-0.0","94247567","wem/bandit_single","A61GHYNS1DFT7","gain","2","","75","K","2","","0","0","1","0.08316546351","","false","19","0.1867551017","","main_expt","0.2416868574","","0.08316546351","","0.1706614454","","","","","","",""
"176","","bandit","95","262746","0.0-57.0-0.0","94247567","wem/bandit_single","A61GHYNS1DFT7","gain","2","","75","K","2","","0","0","1","0.08506169859","","false","20","0.2414580321","","main_expt","0.2556662882","","0.08506169859","","0.2173206475","","","","","","",""
"77","","bandit","96","264589","0.0-58.0-0.0","94247567","wem/bandit_single","A61GHYNS1DFT7","gain","2","","75","K","2","","1","0","0","0.08337624199","","false","21","0.2552731096","","main_expt","0.2484624222","","0.08337624199","","0.2297715145","","","","","","",""
"200","","bandit","97","266546","0.0-59.0-0.0","94247567","wem/bandit_single","A61GHYNS1DFT7","gain","2","","75","K","2","","0","0","1","0.09400888178","","false","22","0.2706059063","","main_expt","0.3180013331","","0.09400888178","","0.2893552095","","","","","","",""
"140","","bandit","98","268448","0.0-60.0-0.0","94247567","wem/bandit_single","A61GHYNS1DFT7","gain","2","","75","K","2","","0","0","1","0.08373077729","","false","23","0.2240124609","","main_expt","0.3018869565","","0.08373077729","","0.1756353462","","","","","","",""
"303","","bandit","99","270516","0.0-61.0-0.0","94247567","wem/bandit_single","A61GHYNS1DFT7","gain","2","","72","H","0","img/none_selected.jpg","1","0","0","0.2337623096","","false","24","0.2337623096","","main_expt","0.3479913718","","0.07394888686","","0.144307289","","","","","","",""
"173","","bandit","100","272449","0.0-62.0-0.0","94247567","wem/bandit_single","A61GHYNS1DFT7","gain","2","","72","H","0","img/none_selected.jpg","0","0","1","0.1992837424","","false","25","0.1992837424","","main_expt","0.3851600672","","0.1177231478","","0.1103761204","","","","","","",""
"180","","bandit","101","274386","0.0-63.0-0.0","94247567","wem/bandit_single","A61GHYNS1DFT7","gain","2","","72","H","0","img/none_selected.jpg","1","0","0","0.2273902023","","false","26","0.2273902023","","main_expt","0.3771699284","","0.1137187285","","0.09313295331","","","","","","",""
"172","","bandit","102","276313","0.0-64.0-0.0","94247567","wem/bandit_single","A61GHYNS1DFT7","gain","2","","72","H","0","img/none_selected.jpg","1","0","0","0.2020281611","","false","27","0.2020281611","","main_expt","0.3284072512","","0.1380279251","","0.07841862492","","","","","","",""
"49","","bandit","103","278120","0.0-65.0-0.0","94247567","wem/bandit_single","A61GHYNS1DFT7","gain","2","","72","H","0","img/none_selected.jpg","0","0","1","0.2121805601","","false","28","0.2121805601","","main_expt","0.3708797381","","0.1926536066","","0.0635621653","","","","","","",""
"34","","bandit","104","279914","0.0-66.0-0.0","94247567","wem/bandit_single","A61GHYNS1DFT7","gain","2","","72","H","0","img/none_selected.jpg","0","0","1","0.1986823058","","false","29","0.1986823058","","main_expt","0.3630760189","","0.1919064193","","0.04349452081","","","","","","",""
"148","","bandit","105","281817","0.0-67.0-0.0","94247567","wem/bandit_single","A61GHYNS1DFT7","gain","2","","72","H","0","img/none_selected.jpg","0","0","1","0.2674628916","","false","30","0.2674628916","","main_expt","0.3414786107","","0.1767437005","","0.06175929786","","","","","","",""
"101","","bandit","106","283683","0.0-68.0-0.0","94247567","wem/bandit_single","A61GHYNS1DFT7","gain","2","","72","H","0","img/none_selected.jpg","0","0","1","0.2862820789","","false","31","0.2862820789","","main_expt","0.3536929226","","0.2417082081","","0.06380111671","","","","","","",""
"4","","bandit","107","285448","0.0-69.0-0.0","94247567","wem/bandit_single","A61GHYNS1DFT7","gain","2","","74","J","1","","0","0","1","0.3238646006","","false","32","0.2895619367","","main_expt","0.3238646006","","0.2312742115","","0.08507033619","","","","","","",""
"157","","bandit","108","287362","0.0-70.0-0.0","94247567","wem/bandit_single","A61GHYNS1DFT7","gain","2","","75","K","2","","0","0","1","0.2247834387","","false","33","0.312502841","","main_expt","0.3018803865","","0.2247834387","","0.1242974044","","","","","","",""
"211","","bandit","109","289336","0.0-71.0-0.0","94247567","wem/bandit_single","A61GHYNS1DFT7","gain","2","","76","L","3","","0","0","1","0.158311101","","false","34","0.2830864838","","main_expt","0.2551449341","","0.1192543008","","0.158311101","","","","","","",""
"156","","bandit","110","291249","0.0-72.0-0.0","94247567","wem/bandit_single","A61GHYNS1DFT7","gain","2","","72","H","0","img/none_selected.jpg","0","0","1","0.2489219385","","false","35","0.2489219385","","main_expt","0.3200580053","","0.1336327135","","0.1293969191","","","","","","",""
"67","","bandit","111","293080","0.0-73.0-0.0","94247567","wem/bandit_single","A61GHYNS1DFT7","gain","2","","72","H","0","img/none_selected.jpg","0","0","1","0.2090346537","","false","36","0.2090346537","","main_expt","0.3241899647","","0.09851205292","","0.1800853883","","","","","","",""
"5","","bandit","112","294850","0.0-74.0-0.0","94247567","wem/bandit_single","A61GHYNS1DFT7","gain","2","","72","H","0","img/none_selected.jpg","0","0","1","0.210385238","","false","37","0.210385238","","main_expt","0.3029113802","","0.05943694951","","0.1025448258","","","","","","",""
"187","","bandit","113","296800","0.0-75.0-0.0","94247567","wem/bandit_single","A61GHYNS1DFT7","gain","2","","72","H","0","img/none_selected.jpg","0","0","1","0.162227856","","false","38","0.162227856","","main_expt","0.2958592888","","0.06217728149","","0.1604021245","","","","","","",""
"138","","bandit","114","298697","0.0-76.0-0.0","94247567","wem/bandit_single","A61GHYNS1DFT7","gain","2","","74","J","1","","0","0","1","0.2941945884","","false","39","0.1444893634","","main_expt","0.2941945884","","0.08902833973","","0.1336531769","","","","","","",""
"51","","bandit","115","300511","0.0-77.0-0.0","94247567","wem/bandit_single","A61GHYNS1DFT7","gain","2","","74","J","1","","1","0","0","0.2784490849","","false","40","0.1340169349","","main_expt","0.2784490849","","0.1098655825","","0.1356889635","","","","","","",""
"82","","bandit","116","302351","0.0-78.0-0.0","94247567","wem/bandit_single","A61GHYNS1DFT7","gain","2","","74","J","1","","0","0","1","0.2943099773","","false","41","0.1019114547","","main_expt","0.2943099773","","0.125718056","","0.1434276379","","","","","","",""
"34","","bandit","117","304151","0.0-79.0-0.0","94247567","wem/bandit_single","A61GHYNS1DFT7","gain","2","","74","J","1","","0","0","1","0.2502187242","","false","42","0.07379386716","","main_expt","0.2502187242","","0.07668278466","","0.1432973755","","","","","","",""
"156","","bandit","118","306072","0.0-80.0-0.0","94247567","wem/bandit_single","A61GHYNS1DFT7","gain","2","","74","J","1","","1","0","0","0.2691097515","","false","43","0.08186566242","","main_expt","0.2691097515","","0.08403116819","","0.1605884153","","","","","","",""
"50","","bandit","119","307888","0.0-81.0-0.0","94247567","wem/bandit_single","A61GHYNS1DFT7","gain","2","","74","J","1","","0","0","1","0.2601206974","","false","44","0.08692603594","","main_expt","0.2601206974","","0.08258467284","","0.1396132557","","","","","","",""
"103","","bandit","120","309751","0.0-82.0-0.0","94247567","wem/bandit_single","A61GHYNS1DFT7","gain","2","","74","J","1","","0","0","1","0.3222012474","","false","45","0.1212470101","","main_expt","0.3222012474","","0.07253936928","","0.2250933593","","","","","","",""
"25","","bandit","121","311534","0.0-83.0-0.0","94247567","wem/bandit_single","A61GHYNS1DFT7","gain","2","","74","J","1","","1","0","0","0.3060845752","","false","46","0.134661007","","main_expt","0.3060845752","","0.05374479905","","0.1826421925","","","","","","",""
"172","","bandit","122","313462","0.0-84.0-0.0","94247567","wem/bandit_single","A61GHYNS1DFT7","gain","2","","74","J","1","","0","0","1","0.290950603","","false","47","0.1377890551","","main_expt","0.290950603","","0.06764850751","","0.1706758886","","","","","","",""
"125","","bandit","123","315342","0.0-85.0-0.0","94247567","wem/bandit_single","A61GHYNS1DFT7","gain","2","","74","J","1","","0","0","1","0.329307254","","false","48","0.1325860966","","main_expt","0.329307254","","0.05656727153","","0.1686178854","","","","","","",""
"45","","bandit","124","317150","0.0-86.0-0.0","94247567","wem/bandit_single","A61GHYNS1DFT7","gain","2","","74","J","1","","0","0","1","0.405044281","","false","49","0.1231750139","","main_expt","0.405044281","","0.08131597157","","0.1822379713","","","","","","",""
"168","","bandit","125","319078","0.0-87.0-0.0","94247567","wem/bandit_single","A61GHYNS1DFT7","gain","2","","74","J","1","","0","0","1","0.4121919591","","false","50","0.1565964086","","main_expt","0.4121919591","","0.08274267654","","0.2513484478","","","","","","",""
"179","","bandit","126","321014","0.0-88.0-0.0","94247567","wem/bandit_single","A61GHYNS1DFT7","gain","2","","74","J","1","","0","0","1","0.4271607293","","false","51","0.1464659706","","main_expt","0.4271607293","","0.1154896937","","0.2812942615","","","","","","",""
"147","","bandit","127","322919","0.0-89.0-0.0","94247567","wem/bandit_single","A61GHYNS1DFT7","gain","2","","74","J","1","","0","0","1","0.4249516559","","false","52","0.1196909414","","main_expt","0.4249516559","","0.07649260985","","0.2224049931","","","","","","",""
"58","","bandit","128","324742","0.0-90.0-0.0","94247567","wem/bandit_single","A61GHYNS1DFT7","gain","2","","75","K","2","","0","0","1","0.06211708307","","false","53","0.1578713891","","main_expt","0.414238899","","0.06211708307","","0.2135714686","","","","","","",""
"26","","bandit","129","326526","0.0-91.0-0.0","94247567","wem/bandit_single","A61GHYNS1DFT7","gain","2","","75","K","2","","0","0","1","0.05122165179","","false","54","0.1420893662","","main_expt","0.4404827494","","0.05122165179","","0.2471494284","","","","","","",""
"137","","bandit","130","328423","0.0-92.0-0.0","94247567","wem/bandit_single","A61GHYNS1DFT7","gain","2","","75","K","2","","0","0","1","0.05779626682","","false","55","0.1255118638","","main_expt","0.4258944343","","0.05779626682","","0.26732004","","","","","","",""
"186","","bandit","131","330374","0.0-93.0-0.0","94247567","wem/bandit_single","A61GHYNS1DFT7","gain","2","","75","K","2","","0","0","1","0.06578325953","","false","56","0.1040792381","","main_expt","0.4058732664","","0.06578325953","","0.258853447","","","","","","",""
"121","","bandit","132","332263","0.0-94.0-0.0","94247567","wem/bandit_single","A61GHYNS1DFT7","gain","2","","76","L","3","","1","0","0","0.247757255","","false","57","0.1058118143","","main_expt","0.4269212616","","0.07487929626","","0.247757255","","","","","","",""
"120","","bandit","133","334142","0.0-95.0-0.0","94247567","wem/bandit_single","A61GHYNS1DFT7","gain","2","","76","L","3","","0","0","1","0.2380046022","","false","58","0.08107820888","","main_expt","0.4120073189","","0.05601765109","","0.2380046022","","","","","","",""
"152","","bandit","134","336053","0.0-96.0-0.0","94247567","wem/bandit_single","A61GHYNS1DFT7","gain","2","","76","L","3","","0","0","1","0.273239949","","false","59","0.115954585","","main_expt","0.367464959","","0.07158824907","","0.273239949","","","","","","",""
"145","","bandit","135","337958","0.0-97.0-0.0","94247567","wem/bandit_single","A61GHYNS1DFT7","gain","2","","76","L","3","","1","0","0","0.314936794","","false","60","0.190529156","","main_expt","0.3113576115","","0.1021813758","","0.314936794","","","","","","",""
"179","","bandit","136","339893","0.0-98.0-0.0","94247567","wem/bandit_single","A61GHYNS1DFT7","gain","2","","76","L","3","","0","0","1","0.3361315769","","false","61","0.2024767933","","main_expt","0.3217665369","","0.1422244628","","0.3361315769","","","","","","",""
"193","","bandit","137","341847","0.0-99.0-0.0","94247567","wem/bandit_single","A61GHYNS1DFT7","gain","2","","76","L","3","","1","0","0","0.3012470308","","false","62","0.1478811465","","main_expt","0.3396020841","","0.1543762338","","0.3012470308","","","","","","",""
"113","","bandit","138","343726","0.0-100.0-0.0","94247567","wem/bandit_single","A61GHYNS1DFT7","gain","2","","76","L","3","","0","0","1","0.3035933772","","false","63","0.1472080331","","main_expt","0.3326008901","","0.1957871903","","0.3035933772","","","","","","",""
"90","","bandit","139","345580","0.0-101.0-0.0","94247567","wem/bandit_single","A61GHYNS1DFT7","gain","2","","76","L","3","","0","0","1","0.3061864711","","false","64","0.1523556625","","main_expt","0.2759567044","","0.1998827037","","0.3061864711","","","","","","",""
"203","","bandit","140","347547","0.0-102.0-0.0","94247567","wem/bandit_single","A61GHYNS1DFT7","gain","2","","76","L","3","","0","0","1","0.2795045379","","false","65","0.1640586258","","main_expt","0.330340259","","0.2229124218","","0.2795045379","","","","","","",""
"55","","bandit","141","349367","0.0-103.0-0.0","94247567","wem/bandit_single","A61GHYNS1DFT7","gain","2","","76","L","3","","1","0","0","0.2624990872","","false","66","0.1559289375","","main_expt","0.394496842","","0.2821528041","","0.2624990872","","","","","","",""
"322","","bandit","142","351454","0.0-104.0-0.0","94247567","wem/bandit_single","A61GHYNS1DFT7","gain","2","","76","L","3","","0","0","1","0.2316809648","","false","67","0.09042099393","","main_expt","0.3780229448","","0.2228434199","","0.2316809648","","","","","","",""
"21","","bandit","143","353246","0.0-105.0-0.0","94247567","wem/bandit_single","A61GHYNS1DFT7","gain","2","","76","L","3","","0","0","1","0.2266776066","","false","68","0.08874767337","","main_expt","0.313258317","","0.2039549584","","0.2266776066","","","","","","",""
"56","","bandit","144","355066","0.0-106.0-0.0","94247567","wem/bandit_single","A61GHYNS1DFT7","gain","2","","76","L","3","","0","0","1","0.1734363374","","false","69","0.09103688118","","main_expt","0.3466590849","","0.1998164138","","0.1734363374","","","","","","",""
"149","","bandit","145","356972","0.0-107.0-0.0","94247567","wem/bandit_single","A61GHYNS1DFT7","gain","2","","76","L","3","","0","0","1","0.1469163378","","false","70","0.139461016","","main_expt","0.3389702644","","0.1936545157","","0.1469163378","","","","","","",""
"216","","bandit","146","358949","0.0-108.0-0.0","94247567","wem/bandit_single","A61GHYNS1DFT7","gain","2","","76","L","3","","0","0","1","0.1903103683","","false","71","0.1269809057","","main_expt","0.3037518088","","0.1875420319","","0.1903103683","","","","","","",""
"223","","bandit","147","360934","0.0-109.0-0.0","94247567","wem/bandit_single","A61GHYNS1DFT7","gain","2","","76","L","3","","0","0","1","0.2364630875","","false","72","0.1541032278","","main_expt","0.3007282465","","0.2275961541","","0.2364630875","","","","","","",""
"16","","bandit","148","362718","0.0-110.0-0.0","94247567","wem/bandit_single","A61GHYNS1DFT7","gain","2","","76","L","3","","0","0","1","0.2715971604","","false","73","0.1618198783","","main_expt","0.2796446257","","0.2485431464","","0.2715971604","","","","","","",""
"184","","bandit","149","364668","0.0-111.0-0.0","94247567","wem/bandit_single","A61GHYNS1DFT7","gain","2","","72","H","0","img/none_selected.jpg","0","0","1","0.1428156761","","false","74","0.1428156761","","main_expt","0.2729876577","","0.2394527842","","0.2716254876","","","","","","",""
"18","","bandit","150","366452","0.0-112.0-0.0","94247567","wem/bandit_single","A61GHYNS1DFT7","gain","2","","74","J","1","","0","0","1","0.2067723694","","false","75","0.1312504708","","main_expt","0.2067723694","","0.2074684787","","0.2998540279","","","","","","",""
"180","","bandit","151","368396","0.0-113.0-0.0","94247567","wem/bandit_single","A61GHYNS1DFT7","gain","2","","75","K","2","","0","0","1","0.178133335","","false","76","0.1002429729","","main_expt","0.2130899639","","0.178133335","","0.3195890579","","","","","","",""
"152","","bandit","152","370309","0.0-114.0-0.0","94247567","wem/bandit_single","A61GHYNS1DFT7","gain","2","","76","L","3","","0","0","1","0.2856322382","","false","77","0.07543037954","","main_expt","0.2109525889","","0.1788248706","","0.2856322382","","","","","","",""
"14","","bandit","153","372082","0.0-115.0-0.0","94247567","wem/bandit_single","A61GHYNS1DFT7","gain","2","","76","L","3","","0","0","1","0.2919105172","","false","78","0.1153668935","","main_expt","0.1884332626","","0.1530293784","","0.2919105172","","","","","","",""
"218","","bandit","154","374060","0.0-116.0-0.0","94247567","wem/bandit_single","A61GHYNS1DFT7","gain","2","","76","L","3","","0","0","1","0.2567181874","","false","79","0.07716777456","","main_expt","0.1883433777","","0.1593806387","","0.2567181874","","","","","","",""
"83","","bandit","155","375908","0.0-117.0-0.0","94247567","wem/bandit_single","A61GHYNS1DFT7","gain","2","","76","L","3","","0","0","1","0.3200023444","","false","80","0.08058819474","","main_expt","0.1998795799","","0.1428411119","","0.3200023444","","","","","","",""
"210","","bandit","156","377884","0.0-118.0-0.0","94247567","wem/bandit_single","A61GHYNS1DFT7","gain","2","","72","H","0","img/none_selected.jpg","0","0","1","0.09856946308","","false","81","0.09856946308","","main_expt","0.1651756375","","0.1982686668","","0.3117755618","","","","","","",""
"167","","bandit","157","379812","0.0-119.0-0.0","94247567","wem/bandit_single","A61GHYNS1DFT7","gain","2","","72","H","0","img/none_selected.jpg","0","0","1","0.1000946235","","false","82","0.1000946235","","main_expt","0.2235829688","","0.2291501313","","0.3379160562","","","","","","",""
"63","","bandit","158","381643","0.0-120.0-0.0","94247567","wem/bandit_single","A61GHYNS1DFT7","gain","2","","72","H","0","img/none_selected.jpg","0","0","1","0.06687408093","","false","83","0.06687408093","","main_expt","0.2456561592","","0.2259362275","","0.3620865136","","","","","","",""
"150","","bandit","159","383563","0.0-121.0-0.0","94247567","wem/bandit_single","A61GHYNS1DFT7","gain","2","","72","H","0","img/none_selected.jpg","0","0","1","0.06463964557","","false","84","0.06463964557","","main_expt","0.2790354554","","0.1733031115","","0.3904685548","","","","","","",""
"427","","bandit","160","385747","0.0-122.0-0.0","94247567","wem/bandit_single","A61GHYNS1DFT7","gain","2","","74","J","1","","0","0","1","0.2389339959","","false","85","0.09044174456","","main_expt","0.2389339959","","0.1577379057","","0.4201611698","","","","","","",""
"104","","bandit","161","387618","0.0-123.0-0.0","94247567","wem/bandit_single","A61GHYNS1DFT7","gain","2","","74","J","1","","0","0","1","0.2905830411","","false","86","0.07242924321","","main_expt","0.2905830411","","0.1646880331","","0.4544588035","","","","","","",""
"25","","bandit","162","389405","0.0-124.0-0.0","94247567","wem/bandit_single","A61GHYNS1DFT7","gain","2","","74","J","1","","1","0","0","0.3336128518","","false","87","0.06356931104","","main_expt","0.3336128518","","0.157008097","","0.4444110865","","","","","","",""
"303","","bandit","163","391475","0.0-125.0-0.0","94247567","wem/bandit_single","A61GHYNS1DFT7","gain","2","","74","J","1","","1","0","0","0.3720796031","","false","88","0.08819972964","","main_expt","0.3720796031","","0.14663069","","0.4276611285","","","","","","",""
"149","","bandit","164","393387","0.0-126.0-0.0","94247567","wem/bandit_single","A61GHYNS1DFT7","gain","2","","74","J","1","","0","0","1","0.3383028484","","false","89","0.09388884115","","main_expt","0.3383028484","","0.1510377787","","0.395063318","","","","","","",""
"251","","bandit","165","395394","0.0-127.0-0.0","94247567","wem/bandit_single","A61GHYNS1DFT7","gain","2","","74","J","1","","1","0","0","0.3550100304","","false","90","0.1265583984","","main_expt","0.3550100304","","0.1600185234","","0.3790569413","","","","","","",""
"113","","bandit","166","397267","0.0-128.0-0.0","94247567","wem/bandit_single","A61GHYNS1DFT7","gain","2","","74","J","1","","0","0","1","0.4198742783","","false","91","0.09433033469","","main_expt","0.4198742783","","0.1618321768","","0.3763017738","","","","","","",""
"116","","bandit","167","399146","0.0-129.0-0.0","94247567","wem/bandit_single","A61GHYNS1DFT7","gain","2","","74","J","1","","0","0","1","0.4522920775","","false","92","0.05111462501","","main_expt","0.4522920775","","0.1408839615","","0.3829045729","","","","","","",""
"161","","bandit","168","401066","0.0-130.0-0.0","94247567","wem/bandit_single","A61GHYNS1DFT7","gain","2","","74","J","1","","0","0","1","0.4572096334","","false","93","0.05378689714","","main_expt","0.4572096334","","0.1675332925","","0.4155552038","","","","","","",""
"170","","bandit","169","403003","0.0-131.0-0.0","94247567","wem/bandit_single","A61GHYNS1DFT7","gain","2","","74","J","1","","0","0","1","0.457248447","","false","94","0.04385487208","","main_expt","0.457248447","","0.2154783406","","0.3964247486","","","","","","",""
"185","","bandit","170","404954","0.0-132.0-0.0","94247567","wem/bandit_single","A61GHYNS1DFT7","gain","2","","74","J","1","","1","0","0","0.4284600246","","false","95","0.02374316345","","main_expt","0.4284600246","","0.2434825378","","0.4028729744","","","","","","",""
"202","","bandit","171","406914","0.0-133.0-0.0","94247567","wem/bandit_single","A61GHYNS1DFT7","gain","2","","74","J","1","","1","0","0","0.4213934208","","false","96","0.01119532444","","main_expt","0.4213934208","","0.300751002","","0.3937220057","","","","","","",""
"149","","bandit","172","408825","0.0-134.0-0.0","94247567","wem/bandit_single","A61GHYNS1DFT7","gain","2","","74","J","1","","1","0","0","0.4093218277","","false","97","0.01205949719","","main_expt","0.4093218277","","0.2390268827","","0.3951408858","","","","","","",""
"218","","bandit","173","410801","0.0-135.0-0.0","94247567","wem/bandit_single","A61GHYNS1DFT7","gain","2","","74","J","1","","0","0","1","0.4011771953","","false","98","0.02530753644","","main_expt","0.4011771953","","0.1872158766","","0.3872505806","","","","","","",""
"40","","bandit","174","412603","0.0-136.0-0.0","94247567","wem/bandit_single","A61GHYNS1DFT7","gain","2","","74","J","1","","1","0","0","0.4319140629","","false","99","0.02318317113","","main_expt","0.4319140629","","0.2281726053","","0.3237376228","","","","","","",""
"224","","bandit","175","414593","0.0-137.0-0.0","94247567","wem/bandit_single","A61GHYNS1DFT7","gain","2","","74","J","1","","1","0","0","0.4388591553","","false","100","0.01577819671","","main_expt","0.4388591553","","0.2322026393","","0.3840854176","","","","","","",""
"201","","bandit","176","416555","0.0-138.0-0.0","94247567","wem/bandit_single","A61GHYNS1DFT7","gain","2","","74","J","1","","1","0","0","0.4405661836","","false","101","0.03767304301","","main_expt","0.4405661836","","0.2675158553","","0.4043087267","","","","","","",""
"156","","bandit","177","418473","0.0-139.0-0.0","94247567","wem/bandit_single","A61GHYNS1DFT7","gain","2","","74","J","1","","0","0","1","0.4155134761","","false","102","0.03003558128","","main_expt","0.4155134761","","0.2334450153","","0.423372456","","","","","","",""
"89","","bandit","178","420330","0.0-140.0-0.0","94247567","wem/bandit_single","A61GHYNS1DFT7","gain","2","","74","J","1","","0","0","1","0.4079284656","","false","103","0.04748945294","","main_expt","0.4079284656","","0.2546104349","","0.4305794097","","","","","","",""
"234","","bandit","179","422330","0.0-141.0-0.0","94247567","wem/bandit_single","A61GHYNS1DFT7","gain","2","","74","J","1","","1","0","0","0.3827156199","","false","104","0.06674284653","","main_expt","0.3827156199","","0.2657782481","","0.4515631957","","","","","","",""
"9","","bandit","180","424104","0.0-142.0-0.0","94247567","wem/bandit_single","A61GHYNS1DFT7","gain","2","","74","J","1","","1","0","0","0.3892206975","","false","105","0.0806059128","","main_expt","0.3892206975","","0.2397797145","","0.454723383","","","","","","",""
"254","","bandit","181","426122","0.0-143.0-0.0","94247567","wem/bandit_single","A61GHYNS1DFT7","gain","2","","74","J","1","","0","0","1","0.3499671591","","false","106","0.1147522423","","main_expt","0.3499671591","","0.1744994936","","0.4487898282","","","","","","",""
"201","","bandit","182","428088","0.0-144.0-0.0","94247567","wem/bandit_single","A61GHYNS1DFT7","gain","2","","74","J","1","","0","0","1","0.3378870415","","false","107","0.1225979079","","main_expt","0.3378870415","","0.2004436591","","0.4300484018","","","","","","",""
"86","","bandit","183","429945","0.0-145.0-0.0","94247567","wem/bandit_single","A61GHYNS1DFT7","gain","2","","74","J","1","","0","0","1","0.3206855754","","false","108","0.1808232933","","main_expt","0.3206855754","","0.1781349215","","0.4056187414","","","","","","",""
"161","","bandit","184","431866","0.0-146.0-0.0","94247567","wem/bandit_single","A61GHYNS1DFT7","gain","2","","74","J","1","","0","0","1","0.3412252333","","false","109","0.2004688742","","main_expt","0.3412252333","","0.1603989886","","0.4145536126","","","","","","",""
"36","","bandit","185","433673","0.0-147.0-0.0","94247567","wem/bandit_single","A61GHYNS1DFT7","gain","2","","74","J","1","","0","0","1","0.3650365033","","false","110","0.2261403934","","main_expt","0.3650365033","","0.1300992081","","0.3897928763","","","","","","",""
"141","","bandit","186","435575","0.0-148.0-0.0","94247567","wem/bandit_single","A61GHYNS1DFT7","gain","2","","74","J","1","","1","0","0","0.341048274","","false","111","0.1612973213","","main_expt","0.341048274","","0.1740321776","","0.4150540561","","","","","","",""
"186","","bandit","187","437522","0.0-149.0-0.0","94247567","wem/bandit_single","A61GHYNS1DFT7","gain","2","","74","J","1","","0","0","1","0.3254027875","","false","112","0.1655724556","","main_expt","0.3254027875","","0.2444477537","","0.4394636757","","","","","","",""
"94","","bandit","188","439384","0.0-150.0-0.0","94247567","wem/bandit_single","A61GHYNS1DFT7","gain","2","","74","J","1","","0","0","1","0.308059901","","false","113","0.1319876284","","main_expt","0.308059901","","0.2195244909","","0.4301961846","","","","","","",""
"591","","bandit","189","441743","0.0-151.0-0.0","94247567","wem/bandit_single","A61GHYNS1DFT7","gain","2","","74","J","1","","1","0","0","0.3238695313","","false","114","0.1147934267","","main_expt","0.3238695313","","0.2719971232","","0.4497687286","","","","","","",""
"170","","bandit","190","443671","0.0-152.0-0.0","94247567","wem/bandit_single","A61GHYNS1DFT7","gain","2","","74","J","1","","0","0","1","0.3315084933","","false","115","0.1301750396","","main_expt","0.3315084933","","0.2447677414","","0.4448888627","","","","","","",""
"128","","bandit","191","445560","0.0-153.0-0.0","94247567","wem/bandit_single","A61GHYNS1DFT7","gain","2","","74","J","1","","0","0","1","0.3234657333","","false","116","0.130185029","","main_expt","0.3234657333","","0.2296513069","","0.3905844751","","","","","","",""
"178","","bandit","192","447495","0.0-154.0-0.0","94247567","wem/bandit_single","A61GHYNS1DFT7","gain","2","","74","J","1","","0","0","1","0.300593156","","false","117","0.1548944576","","main_expt","0.300593156","","0.2151266314","","0.424359093","","","","","","",""
"193","","bandit","193","449457","0.0-155.0-0.0","94247567","wem/bandit_single","A61GHYNS1DFT7","gain","2","","74","J","1","","1","0","0","0.3585138177","","false","118","0.172903741","","main_expt","0.3585138177","","0.1311834018","","0.4121010571","","","","","","",""
"119","","bandit","194","451344","0.0-156.0-0.0","94247567","wem/bandit_single","A61GHYNS1DFT7","gain","2","","74","J","1","","1","0","0","0.3062020697","","false","119","0.1707570171","","main_expt","0.3062020697","","0.1190099868","","0.4117558181","","","","","","",""
"175","","bandit","195","453280","0.0-157.0-0.0","94247567","wem/bandit_single","A61GHYNS1DFT7","gain","2","","74","J","1","","0","0","1","0.3312553157","","false","120","0.1870802187","","main_expt","0.3312553157","","0.1117686876","","0.4275669698","","","","","","",""
"111","","bandit","196","455159","0.0-158.0-0.0","94247567","wem/bandit_single","A61GHYNS1DFT7","gain","2","","74","J","1","","1","0","0","0.3892509988","","false","121","0.1870161021","","main_expt","0.3892509988","","0.1415869423","","0.4428986123","","","","","","",""
"110","","bandit","197","457038","0.0-159.0-0.0","94247567","wem/bandit_single","A61GHYNS1DFT7","gain","2","","74","J","1","","1","0","0","0.4330036483","","false","122","0.1926804843","","main_expt","0.4330036483","","0.1398412585","","0.4376246318","","","","","","",""
"17","","bandit","198","458815","0.0-160.0-0.0","94247567","wem/bandit_single","A61GHYNS1DFT7","gain","2","","74","J","1","","1","0","0","0.4555957022","","false","123","0.2057615037","","main_expt","0.4555957022","","0.1163210087","","0.4153394585","","","","","","",""
"249","","bandit","199","460831","0.0-161.0-0.0","94247567","wem/bandit_single","A61GHYNS1DFT7","gain","2","","74","J","1","","1","0","0","0.4565029776","","false","124","0.2639565913","","main_expt","0.4565029776","","0.07344578178","","0.4203389285","","","","","","",""
"19","","bandit","200","462623","0.0-162.0-0.0","94247567","wem/bandit_single","A61GHYNS1DFT7","gain","2","","74","J","1","","0","0","1","0.4511527373","","false","125","0.3672341475","","main_expt","0.4511527373","","0.08752025541","","0.3710029205","","","","","","",""
"206","","bandit","201","464598","0.0-163.0-0.0","94247567","wem/bandit_single","A61GHYNS1DFT7","gain","2","","74","J","1","","1","0","0","0.4426171603","","false","126","0.3606148775","","main_expt","0.4426171603","","0.1064058914","","0.3465273485","","","","","","",""
"25","","bandit","202","466396","0.0-164.0-0.0","94247567","wem/bandit_single","A61GHYNS1DFT7","gain","2","","74","J","1","","0","0","1","0.4259104728","","false","127","0.4079700646","","main_expt","0.4259104728","","0.1103525866","","0.4106613481","","","","","","",""
"9","","bandit","203","468175","0.0-165.0-0.0","94247567","wem/bandit_single","A61GHYNS1DFT7","gain","2","","74","J","1","","1","0","0","0.4543754413","","false","128","0.4204919645","","main_expt","0.4543754413","","0.1060480298","","0.4377707947","","","","","","",""
"118","","bandit","204","470055","0.0-166.0-0.0","94247567","wem/bandit_single","A61GHYNS1DFT7","gain","2","","74","J","1","","0","0","1","0.4587533269","","false","129","0.4040923387","","main_expt","0.4587533269","","0.1332603285","","0.4481781661","","","","","","",""
"192","","bandit","205","472014","0.0-167.0-0.0","94247567","wem/bandit_single","A61GHYNS1DFT7","gain","2","","74","J","1","","1","0","0","0.4618517855","","false","130","0.3906791758","","main_expt","0.4618517855","","0.09182468565","","0.4301237728","","","","","","",""
"113","","bandit","206","473886","0.0-168.0-0.0","94247567","wem/bandit_single","A61GHYNS1DFT7","gain","2","","74","J","1","","0","0","1","0.4622878414","","false","131","0.380553204","","main_expt","0.4622878414","","0.09388333002","","0.4457858875","","","","","","",""
"125","","bandit","207","475782","0.0-169.0-0.0","94247567","wem/bandit_single","A61GHYNS1DFT7","gain","2","","74","J","1","","0","0","1","0.4624711794","","false","132","0.4000467043","","main_expt","0.4624711794","","0.07277513685","","0.4732894157","","","","","","",""
"125","","bandit","208","477670","0.0-170.0-0.0","94247567","wem/bandit_single","A61GHYNS1DFT7","gain","2","","74","J","1","","0","0","1","0.4794526202","","false","133","0.3929100345","","main_expt","0.4794526202","","0.1108266248","","0.4607838047","","","","","","",""
"54","","bandit","209","479494","0.0-171.0-0.0","94247567","wem/bandit_single","A61GHYNS1DFT7","gain","2","","74","J","1","","1","0","0","0.481632873","","false","134","0.4009617203","","main_expt","0.481632873","","0.1466671782","","0.4663808264","","","","","","",""
"127","","bandit","210","481383","0.0-172.0-0.0","94247567","wem/bandit_single","A61GHYNS1DFT7","gain","2","","74","J","1","","0","0","1","0.4667599148","","false","135","0.3859426802","","main_expt","0.4667599148","","0.1625995743","","0.4625615306","","","","","","",""
"155","","bandit","211","483302","0.0-173.0-0.0","94247567","wem/bandit_single","A61GHYNS1DFT7","gain","2","","74","J","1","","0","0","1","0.4468402508","","false","136","0.4089350186","","main_expt","0.4468402508","","0.1555673637","","0.4629143089","","","","","","",""
"137","","bandit","212","485199","0.0-174.0-0.0","94247567","wem/bandit_single","A61GHYNS1DFT7","gain","2","","74","J","1","","0","0","1","0.4331537256","","false","137","0.4009707033","","main_expt","0.4331537256","","0.1395554881","","0.4644074349","","","","","","",""
"53","","bandit","213","487023","0.0-175.0-0.0","94247567","wem/bandit_single","A61GHYNS1DFT7","gain","2","","74","J","1","","0","0","1","0.4578477473","","false","138","0.4116224971","","main_expt","0.4578477473","","0.1387442451","","0.4741213624","","","","","","",""
"165","","bandit","214","488950","0.0-176.0-0.0","94247567","wem/bandit_single","A61GHYNS1DFT7","gain","2","","74","J","1","","1","0","0","0.464919911","","false","139","0.4129411324","","main_expt","0.464919911","","0.1693780048","","0.4736492243","","","","","","",""
"45","","bandit","215","490757","0.0-177.0-0.0","94247567","wem/bandit_single","A61GHYNS1DFT7","gain","2","","75","K","2","","1","0","0","0.1753437518","","false","140","0.4494235083","","main_expt","0.4614371154","","0.1753437518","","0.4752570035","","","","","","",""
"42","","bandit","216","492571","0.0-178.0-0.0","94247567","wem/bandit_single","A61GHYNS1DFT7","gain","2","","75","K","2","","0","0","1","0.2288512635","","false","141","0.4453484197","","main_expt","0.4747872093","","0.2288512635","","0.4857055712","","","","","","",""
"131","","bandit","217","494462","0.0-179.0-0.0","94247567","wem/bandit_single","A61GHYNS1DFT7","gain","2","","75","K","2","","0","0","1","0.2579513082","","false","142","0.4604546146","","main_expt","0.4513335087","","0.2579513082","","0.4792724089","","","","","","",""
"102","","bandit","218","496526","0.0-180.0-0.0","94247567","wem/bandit_single","A61GHYNS1DFT7","gain","2","","75","K","2","","1","0","0","0.21432658","","false","143","0.4826245684","","main_expt","0.4198830698","","0.21432658","","0.48057755","","","","","","",""
"143","","bandit","219","498429","0.0-181.0-0.0","94247567","wem/bandit_single","A61GHYNS1DFT7","gain","2","","75","K","2","","1","0","0","0.1938021535","","false","144","0.4890981767","","main_expt","0.3673231636","","0.1938021535","","0.4777600445","","","","","","",""
"176","","bandit","220","500374","0.0-182.0-0.0","94247567","wem/bandit_single","A61GHYNS1DFT7","gain","2","","75","K","2","","0","0","1","0.206497324","","false","145","0.4680822138","","main_expt","0.3772368795","","0.206497324","","0.4735071841","","","","","","",""
"116","","bandit","221","502254","0.0-183.0-0.0","94247567","wem/bandit_single","A61GHYNS1DFT7","gain","2","","75","K","2","","0","0","1","0.1857351915","","false","146","0.4660155258","","main_expt","0.3767069828","","0.1857351915","","0.4598241197","","","","","","",""
"380","","bandit","222","504397","0.0-184.0-0.0","94247567","wem/bandit_single","A61GHYNS1DFT7","gain","2","","75","K","2","","0","0","1","0.1046475439","","false","147","0.4723880167","","main_expt","0.4039806626","","0.1046475439","","0.4279993213","","","","","","",""
"215","","bandit","223","506373","0.0-185.0-0.0","94247567","wem/bandit_single","A61GHYNS1DFT7","gain","2","","75","K","2","","0","0","1","0.1098111678","","false","148","0.4692947112","","main_expt","0.4178396587","","0.1098111678","","0.4422782314","","","","","","",""
"117","","bandit","224","508260","0.0-186.0-0.0","94247567","wem/bandit_single","A61GHYNS1DFT7","gain","2","","75","K","2","","0","0","1","0.1221971929","","false","149","0.4702562614","","main_expt","0.3932004216","","0.1221971929","","0.4514785706","","","","","","",""
"145","","bandit","225","510163","0.0-187.0-0.0","94247567","wem/bandit_single","A61GHYNS1DFT7","gain","2","","76","L","3","","0","0","1","0.4189864991","","false","150","0.4714094479","","main_expt","0.4103897693","","0.1354034315","","0.4189864991","","","","","","",""
"96","","bandit","226","512020","0.0-188.0-0.0","94247567","wem/bandit_single","A61GHYNS1DFT7","gain","2","","76","L","3","","0","0","1","0.4389233528","","false","151","0.4761401221","","main_expt","0.4122179041","","0.1041822367","","0.4389233528","","","","","","",""
"91","","bandit","227","513883","0.0-189.0-0.0","94247567","wem/bandit_single","A61GHYNS1DFT7","gain","2","","76","L","3","","1","0","0","0.4244236929","","false","152","0.4697737123","","main_expt","0.3952463752","","0.09038071171","","0.4244236929","","","","","","",""
"4","","bandit","228","515653","0.0-190.0-0.0","94247567","wem/bandit_single","A61GHYNS1DFT7","gain","2","","76","L","3","","1","0","0","0.4476471014","","false","153","0.446753433","","main_expt","0.3877384472","","0.08460578514","","0.4476471014","","","","","","",""
"253","","bandit","229","517675","0.0-191.0-0.0","94247567","wem/bandit_single","A61GHYNS1DFT7","gain","2","","76","L","3","","0","0","1","0.4505336387","","false","154","0.4588815304","","main_expt","0.3551427127","","0.06957086972","","0.4505336387","","","","","","",""
"159","","bandit","230","519596","0.0-192.0-0.0","94247567","wem/bandit_single","A61GHYNS1DFT7","gain","2","","76","L","3","","0","0","1","0.466992112","","false","155","0.4483664475","","main_expt","0.3027898514","","0.07570805595","","0.466992112","","","","","","",""
"157","","bandit","231","521517","0.0-193.0-0.0","94247567","wem/bandit_single","A61GHYNS1DFT7","gain","2","","76","L","3","","1","0","0","0.4383448919","","false","156","0.4383670719","","main_expt","0.3245978035","","0.1010055374","","0.4383448919","","","","","","",""
"213","","bandit","232","523498","0.0-194.0-0.0","94247567","wem/bandit_single","A61GHYNS1DFT7","gain","2","","76","L","3","","0","0","1","0.4181306447","","false","157","0.42990192","","main_expt","0.3293821827","","0.09959580587","","0.4181306447","","","","","","",""
"213","","bandit","233","525483","0.0-195.0-0.0","94247567","wem/bandit_single","A61GHYNS1DFT7","gain","2","","76","L","3","","1","0","0","0.4322591637","","false","158","0.4112902825","","main_expt","0.3053991167","","0.09130540219","","0.4322591637","","","","","","",""
"304","","bandit","234","527562","0.0-196.0-0.0","94247567","wem/bandit_single","A61GHYNS1DFT7","gain","2","","76","L","3","","0","0","1","0.4129829621","","false","159","0.4085113589","","main_expt","0.3475565739","","0.07080299429","","0.4129829621","","","","","","",""
"199","","bandit","235","529524","0.0-197.0-0.0","94247567","wem/bandit_single","A61GHYNS1DFT7","gain","2","","76","L","3","","0","0","1","0.4094933958","","false","160","0.4079314082","","main_expt","0.327393219","","0.05017383151","","0.4094933958","","","","","","",""
"175","","bandit","236","531470","0.0-198.0-0.0","94247567","wem/bandit_single","A61GHYNS1DFT7","gain","2","","76","L","3","","0","0","1","0.404058003","","false","161","0.3631501835","","main_expt","0.303429729","","0.03820476969","","0.404058003","","","","","","",""
"222","","bandit","237","533451","0.0-199.0-0.0","94247567","wem/bandit_single","A61GHYNS1DFT7","gain","2","","76","L","3","","1","0","0","0.3846726044","","false","162","0.3470346279","","main_expt","0.3079210788","","0.02512507724","","0.3846726044","","","","","","",""
"28","","bandit","238","535251","0.0-200.0-0.0","94247567","wem/bandit_single","A61GHYNS1DFT7","gain","2","","76","L","3","","0","0","1","0.4016559577","","false","163","0.372656257","","main_expt","0.3004483846","","0.03932379445","","0.4016559577","","","","","","",""
"257","","bandit","239","537283","0.0-201.0-0.0","94247567","wem/bandit_single","A61GHYNS1DFT7","gain","2","","76","L","3","","1","0","0","0.3566256613","","false","164","0.3802753243","","main_expt","0.2886014424","","0.01829840099","","0.3566256613","","","","","","",""
"123","","bandit","240","539177","0.0-202.0-0.0","94247567","wem/bandit_single","A61GHYNS1DFT7","gain","2","","76","L","3","","1","0","0","0.3509524146","","false","165","0.3881672334","","main_expt","0.2088325088","","0.02415252971","","0.3509524146","","","","","","",""
"177","","bandit","241","541113","0.0-203.0-0.0","94247567","wem/bandit_single","A61GHYNS1DFT7","gain","2","","76","L","3","","0","0","1","0.2773632025","","false","166","0.359536632","","main_expt","0.2160195985","","0.02185778449","","0.2773632025","","","","","","",""
"80","","bandit","242","542953","0.0-204.0-0.0","94247567","wem/bandit_single","A61GHYNS1DFT7","gain","2","","76","L","3","","0","0","1","0.3022689801","","false","167","0.3693034809","","main_expt","0.1836534764","","0.02761124673","","0.3022689801","","","","","","",""
"63","","bandit","243","544777","0.0-205.0-0.0","94247567","wem/bandit_single","A61GHYNS1DFT7","gain","2","","76","L","3","","1","0","0","0.2937690027","","false","168","0.3449050916","","main_expt","0.1701024481","","0.02160611799","","0.2937690027","","","","","","",""
"107","","bandit","244","546656","0.0-206.0-0.0","94247567","wem/bandit_single","A61GHYNS1DFT7","gain","2","","76","L","3","","0","0","1","0.2488586406","","false","169","0.3515710367","","main_expt","0.1896079261","","0.02113437328","","0.2488586406","","","","","","",""
"234","","bandit","245","548649","0.0-207.0-0.0","94247567","wem/bandit_single","A61GHYNS1DFT7","gain","2","","76","L","3","","0","0","1","0.2112819205","","false","170","0.3233833909","","main_expt","0.2377789273","","0.01292956957","","0.2112819205","","","","","","",""
"461","","bandit","246","550874","0.0-208.0-0.0","94247567","wem/bandit_single","A61GHYNS1DFT7","gain","2","","76","L","3","","0","0","1","0.2217900108","","false","171","0.2468086364","","main_expt","0.2640247014","","0.01989811998","","0.2217900108","","","","","","",""
"197","","bandit","247","552835","0.0-209.0-0.0","94247567","wem/bandit_single","A61GHYNS1DFT7","gain","2","","76","L","3","","0","0","1","0.2387596097","","false","172","0.3408906282","","main_expt","0.2055846389","","0.0296351857","","0.2387596097","","","","","","",""
"197","","bandit","248","554803","0.0-210.0-0.0","94247567","wem/bandit_single","A61GHYNS1DFT7","gain","2","","76","L","3","","1","0","0","0.2602125502","","false","173","0.3252944763","","main_expt","0.2438181894","","0.03540771295","","0.2602125502","","","","","","",""
"50","","bandit","249","556627","0.0-211.0-0.0","94247567","wem/bandit_single","A61GHYNS1DFT7","gain","2","","76","L","3","","0","0","1","0.2202846771","","false","174","0.3200904142","","main_expt","0.2733147352","","0.03725130304","","0.2202846771","","","","","","",""
"225","","bandit","250","558627","0.0-212.0-0.0","94247567","wem/bandit_single","A61GHYNS1DFT7","gain","2","","76","L","3","","0","0","1","0.233285157","","false","175","0.3622659173","","main_expt","0.2767671147","","0.03242602151","","0.233285157","","","","","","",""
"218","","bandit","251","560617","0.0-213.0-0.0","94247567","wem/bandit_single","A61GHYNS1DFT7","gain","2","","76","L","3","","0","0","1","0.2264555061","","false","176","0.2937007374","","main_expt","0.2195478827","","0.04697917163","","0.2264555061","","","","","","",""
"234","","bandit","252","562630","0.0-214.0-0.0","94247567","wem/bandit_single","A61GHYNS1DFT7","gain","2","","76","L","3","","1","0","0","0.241841845","","false","177","0.2513366018","","main_expt","0.1515864758","","0.04124559051","","0.241841845","","","","","","",""
"194","","bandit","253","564584","0.0-215.0-0.0","94247567","wem/bandit_single","A61GHYNS1DFT7","gain","2","","76","L","3","","0","0","1","0.2423953475","","false","178","0.3159509921","","main_expt","0.1618037694","","0.06205026603","","0.2423953475","","","","","","",""
"1731","","bandit","254","568076","0.0-216.0-0.0","94247567","wem/bandit_single","A61GHYNS1DFT7","gain","2","","72","H","0","img/none_selected.jpg","1","0","0","0.2899582247","","false","179","0.2899582247","","main_expt","0.1653326191","","0.08412795639","","0.2523089652","","","","","","",""
"1","","bandit","255","569851","0.0-217.0-0.0","94247567","wem/bandit_single","A61GHYNS1DFT7","gain","2","","72","H","0","img/none_selected.jpg","0","0","1","0.3371390753","","false","180","0.3371390753","","main_expt","0.1751853148","","0.1304099397","","0.2223981335","","","","","","",""
"39","","bandit","256","571658","0.0-218.0-0.0","94247567","wem/bandit_single","A61GHYNS1DFT7","gain","2","","72","H","0","img/none_selected.jpg","0","0","1","0.3365963609","","false","181","0.3365963609","","main_expt","0.211978586","","0.1801801058","","0.2319473409","","","","","","",""
"152","","bandit","257","573585","0.0-219.0-0.0","94247567","wem/bandit_single","A61GHYNS1DFT7","gain","2","","72","H","0","img/none_selected.jpg","1","0","0","0.2643366398","","false","182","0.2643366398","","main_expt","0.2323199139","","0.1951504204","","0.2338578761","","","","","","",""
"135","","bandit","258","575480","0.0-220.0-0.0","94247567","wem/bandit_single","A61GHYNS1DFT7","gain","2","","72","H","0","img/none_selected.jpg","1","0","0","0.2464000872","","false","183","0.2464000872","","main_expt","0.2252803731","","0.2330781564","","0.265472663","","","","","","",""
"41","","bandit","259","577279","0.0-221.0-0.0","94247567","wem/bandit_single","A61GHYNS1DFT7","gain","2","","72","H","0","img/none_selected.jpg","0","0","1","0.3039071009","","false","184","0.3039071009","","main_expt","0.1614269484","","0.2711395555","","0.2826161147","","","","","","",""
"96","","bandit","260","579151","0.0-222.0-0.0","94247567","wem/bandit_single","A61GHYNS1DFT7","gain","2","","72","H","0","img/none_selected.jpg","0","0","1","0.3100879913","","false","185","0.3100879913","","main_expt","0.1636939604","","0.2182249031","","0.2542525597","","","","","","",""
"191","","bandit","261","581103","0.0-223.0-0.0","94247567","wem/bandit_single","A61GHYNS1DFT7","gain","2","","72","H","0","img/none_selected.jpg","0","0","1","0.28505789","","false","186","0.28505789","","main_expt","0.1744134641","","0.2609412602","","0.260460085","","","","","","",""
"1","","bandit","262","582868","0.0-224.0-0.0","94247567","wem/bandit_single","A61GHYNS1DFT7","gain","2","","72","H","0","img/none_selected.jpg","0","0","1","0.2698122055","","false","187","0.2698122055","","main_expt","0.1955069844","","0.2242136054","","0.2119714508","","","","","","",""
"26","","bandit","263","584656","0.0-225.0-0.0","94247567","wem/bandit_single","A61GHYNS1DFT7","gain","2","","72","H","0","img/none_selected.jpg","0","0","1","0.2270240414","","false","188","0.2270240414","","main_expt","0.2289740151","","0.2404864381","","0.1887053186","","","","","","",""
"114","","bandit","264","586545","0.0-226.0-0.0","94247567","wem/bandit_single","A61GHYNS1DFT7","gain","2","","72","H","0","img/none_selected.jpg","0","0","1","0.2182158859","","false","189","0.2182158859","","main_expt","0.2495887903","","0.2177927796","","0.1944753942","","","","","","",""
"183","","bandit","265","588492","0.0-227.0-0.0","94247567","wem/bandit_single","A61GHYNS1DFT7","gain","2","","74","J","1","","0","0","1","0.2815424982","","false","190","0.2445882628","","main_expt","0.2815424982","","0.2445379922","","0.2163673671","","","","","","",""
"144","","bandit","266","590400","0.0-228.0-0.0","94247567","wem/bandit_single","A61GHYNS1DFT7","gain","2","","74","J","1","","0","0","1","0.2401402076","","false","191","0.2733302752","","main_expt","0.2401402076","","0.2910265903","","0.2584180811","","","","","","",""
"158","","bandit","267","592336","0.0-229.0-0.0","94247567","wem/bandit_single","A61GHYNS1DFT7","gain","2","","74","J","1","","0","0","1","0.2510809658","","false","192","0.2776932955","","main_expt","0.2510809658","","0.3095983682","","0.2555063139","","","","","","",""
"164","","bandit","268","594268","0.0-230.0-0.0","94247567","wem/bandit_single","A61GHYNS1DFT7","gain","2","","74","J","1","","0","0","1","0.2875405407","","false","193","0.3335190616","","main_expt","0.2875405407","","0.3217156539","","0.2694863875","","","","","","",""
"173","","bandit","269","596207","0.0-231.0-0.0","94247567","wem/bandit_single","A61GHYNS1DFT7","gain","2","","74","J","1","","0","0","1","0.2183543786","","false","194","0.3308991278","","main_expt","0.2183543786","","0.278878796","","0.2894821148","","","","","","",""
"81","","bandit","270","598053","0.0-232.0-0.0","94247567","wem/bandit_single","A61GHYNS1DFT7","gain","2","","74","J","1","","0","0","1","0.2626349305","","false","195","0.3676749275","","main_expt","0.2626349305","","0.2738334973","","0.3028339589","","","","","","",""
"39","","bandit","271","599855","0.0-233.0-0.0","94247567","wem/bandit_single","A61GHYNS1DFT7","gain","2","","75","K","2","","0","0","1","0.2494818112","","false","196","0.3523241719","","main_expt","0.2046446137","","0.2494818112","","0.3051171059","","","","","","",""
"280","","bandit","272","601913","0.0-234.0-0.0","94247567","wem/bandit_single","A61GHYNS1DFT7","gain","2","","75","K","2","","0","0","1","0.2620473779","","false","197","0.3874168703","","main_expt","0.2122082762","","0.2620473779","","0.2901305303","","","","","","",""
"84","","bandit","273","603776","0.0-235.0-0.0","94247567","wem/bandit_single","A61GHYNS1DFT7","gain","2","","75","K","2","","1","0","0","0.3153682745","","false","198","0.4072223947","","main_expt","0.1962120249","","0.3153682745","","0.2403600488","","","","","","",""
"20","","bandit","274","605567","0.0-236.0-0.0","94247567","wem/bandit_single","A61GHYNS1DFT7","gain","2","","75","K","2","","1","0","0","0.2424407548","","false","199","0.4284861426","","main_expt","0.1840541487","","0.2424407548","","0.2034733728","","","","","","",""
"174","","bandit","275","607503","0.0-237.0-0.0","94247567","wem/bandit_single","A61GHYNS1DFT7","gain","2","","75","K","2","","0","0","1","0.2692586032","","false","200","0.4181746593","","main_expt","0.1575563837","","0.2692586032","","0.2193557146","","","","","","",""
"98","","bandit","276","609369","0.0-238.0-0.0","94247567","wem/bandit_single","A61GHYNS1DFT7","gain","2","","75","K","2","","1","0","0","0.2605377594","","false","201","0.4134190678","","main_expt","0.138860739","","0.2605377594","","0.2412650678","","","","","","",""
"42","","bandit","277","611192","0.0-239.0-0.0","94247567","wem/bandit_single","A61GHYNS1DFT7","gain","2","","75","K","2","","0","0","1","0.2372211354","","false","202","0.4255663607","","main_expt","0.1216759056","","0.2372211354","","0.2106041824","","","","","","",""
"169","","bandit","278","613134","0.0-240.0-0.0","94247567","wem/bandit_single","A61GHYNS1DFT7","gain","2","","75","K","2","","0","0","1","0.20896917","","false","203","0.4267176133","","main_expt","0.1085797693","","0.20896917","","0.2182463191","","","","","","",""
"14","","bandit","279","614926","0.0-241.0-0.0","94247567","wem/bandit_single","A61GHYNS1DFT7","gain","2","","75","K","2","","0","0","1","0.2277156902","","false","204","0.460819217","","main_expt","0.08750272662","","0.2277156902","","0.2060997213","","","","","","",""
"150","","bandit","280","616855","0.0-242.0-0.0","94247567","wem/bandit_single","A61GHYNS1DFT7","gain","2","","75","K","2","","0","0","1","0.2096017385","","false","205","0.4797370756","","main_expt","0.1119911725","","0.2096017385","","0.2179237498","","","","","","",""
"80","","bandit","281","618710","0.0-243.0-0.0","94247567","wem/bandit_single","A61GHYNS1DFT7","gain","2","","75","K","2","","1","0","0","0.2293009918","","false","206","0.4850202511","","main_expt","0.105166696","","0.2293009918","","0.194566176","","","","","","",""
"62","","bandit","282","620550","0.0-244.0-0.0","94247567","wem/bandit_single","A61GHYNS1DFT7","gain","2","","75","K","2","","0","0","1","0.2613461541","","false","207","0.4588339162","","main_expt","0.07428909222","","0.2613461541","","0.2540459421","","","","","","",""
"132","","bandit","283","622446","0.0-245.0-0.0","94247567","wem/bandit_single","A61GHYNS1DFT7","gain","2","","75","K","2","","0","0","1","0.2921374763","","false","208","0.4704498371","","main_expt","0.08415887516","","0.2921374763","","0.2165425212","","","","","","",""
"216","","bandit","284","624441","0.0-246.0-0.0","94247567","wem/bandit_single","A61GHYNS1DFT7","gain","2","","75","K","2","","0","0","1","0.2679345114","","false","209","0.4498430745","","main_expt","0.05558253146","","0.2679345114","","0.1808740619","","","","","","",""
"71","","bandit","285","626286","0.0-247.0-0.0","94247567","wem/bandit_single","A61GHYNS1DFT7","gain","2","","75","K","2","","1","0","0","0.2356021564","","false","210","0.4463117693","","main_expt","0.04914985493","","0.2356021564","","0.2298827717","","","","","","",""
"218","","bandit","286","628271","0.0-248.0-0.0","94247567","wem/bandit_single","A61GHYNS1DFT7","gain","2","","75","K","2","","1","0","0","0.2152320876","","false","211","0.422163821","","main_expt","0.03798033643","","0.2152320876","","0.2533880575","","","","","","",""
"111","","bandit","287","630160","0.0-249.0-0.0","94247567","wem/bandit_single","A61GHYNS1DFT7","gain","2","","75","K","2","","0","0","1","0.2216595069","","false","212","0.3852039581","","main_expt","0.03974322714","","0.2216595069","","0.2771241442","","","","","","",""
"55","","bandit","288","631990","0.0-250.0-0.0","94247567","wem/bandit_single","A61GHYNS1DFT7","gain","2","","75","K","2","","0","0","1","0.2150176613","","false","213","0.3822954745","","main_expt","0.02384455773","","0.2150176613","","0.3010302337","","","","","","",""
"20","","bandit","289","633790","0.0-251.0-0.0","94247567","wem/bandit_single","A61GHYNS1DFT7","gain","2","","75","K","2","","0","0","1","0.1772129937","","false","214","0.3608549874","","main_expt","0.03216660231","","0.1772129937","","0.3409008015","","","","","","",""
"15","","bandit","290","635580","0.0-252.0-0.0","94247567","wem/bandit_single","A61GHYNS1DFT7","gain","2","","75","K","2","","0","0","1","0.1584975441","","false","215","0.3621739951","","main_expt","0.03095464101","","0.1584975441","","0.3227810677","","","","","","",""
"112","","bandit","291","637454","0.0-253.0-0.0","94247567","wem/bandit_single","A61GHYNS1DFT7","gain","2","","75","K","2","","0","0","1","0.1256434713","","false","216","0.3733564142","","main_expt","0.04011500866","","0.1256434713","","0.3636386285","","","","","","",""
"51","","bandit","292","639285","0.0-254.0-0.0","94247567","wem/bandit_single","A61GHYNS1DFT7","gain","2","","76","L","3","","0","0","1","0.3649758886","","false","217","0.3856473275","","main_expt","0.02351309264","","0.1601534085","","0.3649758886","","","","","","",""
"102","","bandit","293","641150","0.0-255.0-0.0","94247567","wem/bandit_single","A61GHYNS1DFT7","gain","2","","76","L","3","","0","0","1","0.3641131336","","false","218","0.3645608201","","main_expt","0.01650540734","","0.1514518834","","0.3641131336","","","","","","",""
"79","","bandit","294","643005","0.0-256.0-0.0","94247567","wem/bandit_single","A61GHYNS1DFT7","gain","2","","76","L","3","","0","0","1","0.341156599","","false","219","0.3851453746","","main_expt","0.03577324375","","0.2415223947","","0.341156599","","","","","","",""
"156","","bandit","295","644925","0.0-257.0-0.0","94247567","wem/bandit_single","A61GHYNS1DFT7","gain","2","","76","L","3","","1","0","0","0.266049218","","false","220","0.4075423229","","main_expt","0.03655385126","","0.2248182851","","0.266049218","","","","","","",""
"119","","bandit","296","646823","0.0-258.0-0.0","94247567","wem/bandit_single","A61GHYNS1DFT7","gain","2","","76","L","3","","0","0","1","0.2359154628","","false","221","0.4083347012","","main_expt","0.03282050992","","0.2588925836","","0.2359154628","","","","","","",""
"211","","bandit","297","648805","0.0-259.0-0.0","94247567","wem/bandit_single","A61GHYNS1DFT7","gain","2","","76","L","3","","0","0","1","0.2640726019","","false","222","0.4083223781","","main_expt","0.02558717114","","0.2025188389","","0.2640726019","","","","","","",""
"209","","bandit","298","650797","0.0-260.0-0.0","94247567","wem/bandit_single","A61GHYNS1DFT7","gain","2","","76","L","3","","0","0","1","0.1860418506","","false","223","0.4240474742","","main_expt","0.04788205671","","0.1609755914","","0.1860418506","","","","","","",""
"167","","bandit","299","652732","0.0-261.0-0.0","94247567","wem/bandit_single","A61GHYNS1DFT7","gain","2","","76","L","3","","0","0","1","0.151875944","","false","224","0.4346876605","","main_expt","0.05498715651","","0.2316748255","","0.151875944","","","","","","",""
"194","","bandit","300","654700","0.0-262.0-0.0","94247567","wem/bandit_single","A61GHYNS1DFT7","gain","2","","72","H","0","img/none_selected.jpg","0","0","1","0.4541072866","","false","225","0.4541072866","","main_expt","0.056476577","","0.1605893144","","0.1209973656","","","","","","",""
"174","","bandit","301","656653","0.0-263.0-0.0","94247567","wem/bandit_single","A61GHYNS1DFT7","gain","2","","72","H","0","img/none_selected.jpg","1","0","0","0.4239515892","","false","226","0.4239515892","","main_expt","0.06361054401","","0.1389366963","","0.1503457952","","","","","","",""
"201","","bandit","302","658629","0.0-264.0-0.0","94247567","wem/bandit_single","A61GHYNS1DFT7","gain","2","","72","H","0","img/none_selected.jpg","0","0","1","0.4122914309","","false","227","0.4122914309","","main_expt","0.03819722012","","0.09987042713","","0.1784166707","","","","","","",""
"152","","bandit","303","660540","0.0-265.0-0.0","94247567","wem/bandit_single","A61GHYNS1DFT7","gain","2","","72","H","0","img/none_selected.jpg","0","0","1","0.4022765074","","false","228","0.4022765074","","main_expt","0.03706892342","","0.1511988136","","0.1729157366","","","","","","",""
"22","","bandit","304","662332","0.0-266.0-0.0","94247567","wem/bandit_single","A61GHYNS1DFT7","gain","2","","72","H","0","img/none_selected.jpg","1","0","0","0.3991813765","","false","229","0.3991813765","","main_expt","0.05619366589","","0.1165125066","","0.2035050609","","","","","","",""
"93","","bandit","305","664196","0.0-267.0-0.0","94247567","wem/bandit_single","A61GHYNS1DFT7","gain","2","","72","H","0","img/none_selected.jpg","0","0","1","0.3771825363","","false","230","0.3771825363","","main_expt","0.02398835026","","0.09058018373","","0.1677195288","","","","","","",""
"22","","bandit","306","665996","0.0-268.0-0.0","94247567","wem/bandit_single","A61GHYNS1DFT7","gain","2","","72","H","0","img/none_selected.jpg","0","0","1","0.4081115595","","false","231","0.4081115595","","main_expt","0.01087418165","","0.1254599363","","0.1568417205","","","","","","",""
"4","","bandit","307","667779","0.0-269.0-0.0","94247567","wem/bandit_single","A61GHYNS1DFT7","gain","2","","72","H","0","img/none_selected.jpg","0","0","1","0.4227202023","","false","232","0.4227202023","","main_expt","0.005667282796","","0.09699218641","","0.1733774055","","","","","","",""
"66","","bandit","308","669616","0.0-270.0-0.0","94247567","wem/bandit_single","A61GHYNS1DFT7","gain","2","","74","J","1","","0","0","1","0.00711790457","","false","233","0.4267606383","","main_expt","0.00711790457","","0.07122003092","","0.2318808439","","","","","","",""
"7","","bandit","309","671388","0.0-271.0-0.0","94247567","wem/bandit_single","A61GHYNS1DFT7","gain","2","","74","J","1","","0","0","1","0.01087448681","","false","234","0.4076790224","","main_expt","0.01087448681","","0.07078025717","","0.2728484722","","","","","","",""
"16","","bandit","310","673179","0.0-272.0-0.0","94247567","wem/bandit_single","A61GHYNS1DFT7","gain","2","","74","J","1","","0","0","1","0.008183852991","","false","235","0.3750136452","","main_expt","0.008183852991","","0.04546889639","","0.230842538","","","","","","",""
"18","","bandit","311","674979","0.0-273.0-0.0","94247567","wem/bandit_single","A61GHYNS1DFT7","gain","2","","74","J","1","","0","0","1","0.00957014591","","false","236","0.3579900966","","main_expt","0.00957014591","","0.07949547843","","0.2565969246","","","","","","",""
"143","","bandit","312","676899","0.0-274.0-0.0","94247567","wem/bandit_single","A61GHYNS1DFT7","gain","2","","75","K","2","","0","0","1","0.06498208703","","false","237","0.3685919787","","main_expt","0.02345003211","","0.06498208703","","0.2661079812","","","","","","",""
"91","","bandit","313","678756","0.0-275.0-0.0","94247567","wem/bandit_single","A61GHYNS1DFT7","gain","2","","75","K","2","","0","0","1","0.07283675032","","false","238","0.3220789964","","main_expt","0.02056264696","","0.07283675032","","0.3192940022","","","","","","",""
"11","","bandit","314","680549","0.0-276.0-0.0","94247567","wem/bandit_single","A61GHYNS1DFT7","gain","2","","75","K","2","","0","0","1","0.08723568047","","false","239","0.3059519391","","main_expt","0.02436326326","","0.08723568047","","0.3150738333","","","","","","",""
"102","","bandit","315","682420","0.0-277.0-0.0","94247567","wem/bandit_single","A61GHYNS1DFT7","gain","2","","75","K","2","","0","0","1","0.06404566497","","false","240","0.3168560559","","main_expt","0.0242835944","","0.06404566497","","0.3008600842","","","","","","",""
"102","","bandit","316","684298","0.0-278.0-0.0","94247567","wem/bandit_single","A61GHYNS1DFT7","gain","2","","72","H","0","img/none_selected.jpg","1","0","0","0.269391424","","false","241","0.269391424","","main_expt","0.02652021178","","0.05187051438","","0.2677087501","","","","","","",""
"117","","bandit","317","686179","0.0-279.0-0.0","94247567","wem/bandit_single","A61GHYNS1DFT7","gain","2","","72","H","0","img/none_selected.jpg","0","0","1","0.2061132751","","false","242","0.2061132751","","main_expt","0.0264543433","","0.04056120823","","0.2645585527","","","","","","",""
"167","","bandit","318","688120","0.0-280.0-0.0","94247567","wem/bandit_single","A61GHYNS1DFT7","gain","2","","72","H","0","img/none_selected.jpg","1","0","0","0.1996760118","","false","243","0.1996760118","","main_expt","0.02176476481","","0.02806248696","","0.2793098336","","","","","","",""
"8","","bandit","319","689894","0.0-281.0-0.0","94247567","wem/bandit_single","A61GHYNS1DFT7","gain","2","","72","H","0","img/none_selected.jpg","0","0","1","0.1719334629","","false","244","0.1719334629","","main_expt","0.01301534777","","0.04063524207","","0.285685864","","","","","","",""
"205","","bandit","320","691874","0.0-282.0-0.0","94247567","wem/bandit_single","A61GHYNS1DFT7","gain","2","","72","H","0","img/none_selected.jpg","1","0","0","0.2264626889","","false","245","0.2264626889","","main_expt","0.02332936253","","0.03258124644","","0.2792363563","","","","","","",""
"76","","bandit","321","693716","0.0-283.0-0.0","94247567","wem/bandit_single","A61GHYNS1DFT7","gain","2","","72","H","0","img/none_selected.jpg","0","0","1","0.2097999869","","false","246","0.2097999869","","main_expt","0.02379131239","","0.034431304","","0.2721020884","","","","","","",""
"122","","bandit","322","695618","0.0-284.0-0.0","94247567","wem/bandit_single","A61GHYNS1DFT7","gain","2","","72","H","0","img/none_selected.jpg","1","0","0","0.2190078117","","false","247","0.2190078117","","main_expt","0.02988301985","","0.0335896152","","0.2784836582","","","","","","",""
"33","","bandit","323","697418","0.0-285.0-0.0","94247567","wem/bandit_single","A61GHYNS1DFT7","gain","2","","72","H","0","img/none_selected.jpg","0","0","1","0.214739415","","false","248","0.214739415","","main_expt","0.04121629219","","0.0373608022","","0.2155360038","","","","","","",""
"124","","bandit","324","699309","0.0-286.0-0.0","94247567","wem/bandit_single","A61GHYNS1DFT7","gain","2","","72","H","0","img/none_selected.jpg","0","0","1","0.2361668487","","false","249","0.2361668487","","main_expt","0.03081548873","","0.04629433077","","0.2182269439","","","","","","",""
"228","","bandit","325","701315","0.0-287.0-0.0","94247567","wem/bandit_single","A61GHYNS1DFT7","gain","2","","72","H","0","img/none_selected.jpg","0","0","1","0.2730147117","","false","250","0.2730147117","","main_expt","0.02831669856","","0.04794370872","","0.2794373206","","","","","","",""
"35","","bandit","326","703112","0.0-288.0-0.0","94247567","wem/bandit_single","A61GHYNS1DFT7","gain","2","","72","H","0","img/none_selected.jpg","0","0","1","0.2591269664","","false","251","0.2591269664","","main_expt","0.02600870455","","0.06568157066","","0.2925698281","","","","","","",""
"69","","bandit","327","704953","0.0-289.0-0.0","94247567","wem/bandit_single","A61GHYNS1DFT7","gain","2","","72","H","0","img/none_selected.jpg","0","0","1","0.3091321407","","false","252","0.3091321407","","main_expt","0.02705961599","","0.07567030371","","0.2727886948","","","","","","",""
"154","","bandit","328","706874","0.0-290.0-0.0","94247567","wem/bandit_single","A61GHYNS1DFT7","gain","2","","72","H","0","img/none_selected.jpg","1","0","0","0.2284010385","","false","253","0.2284010385","","main_expt","0.01805963102","","0.06628052114","","0.2470803404","","","","","","",""
"186","","bandit","329","708842","0.0-291.0-0.0","94247567","wem/bandit_single","A61GHYNS1DFT7","gain","2","","72","H","0","img/none_selected.jpg","0","0","1","0.2452739286","","false","254","0.2452739286","","main_expt","0.01631706542","","0.08321976201","","0.3366881304","","","","","","",""
"190","","bandit","330","710793","0.0-292.0-0.0","94247567","wem/bandit_single","A61GHYNS1DFT7","gain","2","","72","H","0","img/none_selected.jpg","0","0","1","0.2769296881","","false","255","0.2769296881","","main_expt","0.01966147099","","0.1379446817","","0.3781216995","","","","","","",""
"203","","bandit","331","712777","0.0-293.0-0.0","94247567","wem/bandit_single","A61GHYNS1DFT7","gain","2","","72","H","0","img/none_selected.jpg","0","0","1","0.222598086","","false","256","0.222598086","","main_expt","0.02801527349","","0.1104053019","","0.3565974786","","","","","","",""
"1097","","bandit","332","715640","0.0-294.0-0.0","94247567","wem/bandit_single","A61GHYNS1DFT7","gain","2","","72","H","0","img/none_selected.jpg","0","0","1","0.2497605863","","false","257","0.2497605863","","main_expt","0.02393064904","","0.110095483","","0.3668333327","","","","","","",""
"59","","bandit","333","717463","0.0-295.0-0.0","94247567","wem/bandit_single","A61GHYNS1DFT7","gain","2","","72","H","0","img/none_selected.jpg","1","0","0","0.248028097","","false","258","0.248028097","","main_expt","0.01715644076","","0.09250214804","","0.3978392262","","","","","","",""
"54","","bandit","334","719280","0.0-296.0-0.0","94247567","wem/bandit_single","A61GHYNS1DFT7","gain","2","","72","H","0","img/none_selected.jpg","0","0","1","0.210079309","","false","259","0.210079309","","main_expt","0.01812234738","","0.1288972452","","0.3892622443","","","","","","",""
"933","","bandit","335","721976","0.0-297.0-0.0","94247567","wem/bandit_single","A61GHYNS1DFT7","gain","2","","72","H","0","img/none_selected.jpg","1","0","0","0.1785868889","","false","260","0.1785868889","","main_expt","0.01699252537","","0.127844668","","0.3787635018","","","","","","",""
"141","","bandit","336","723879","0.0-298.0-0.0","94247567","wem/bandit_single","A61GHYNS1DFT7","gain","2","","72","H","0","img/none_selected.jpg","0","0","1","0.1855690742","","false","261","0.1855690742","","main_expt","0.02027773674","","0.1408125104","","0.4151771386","","","","","","",""
"2960","","bandit","337","728608","0.0-299.0-0.0","94247567","wem/bandit_single","A61GHYNS1DFT7","gain","2","","72","H","0","img/none_selected.jpg","0","0","1","0.2454672077","","false","262","0.2454672077","","main_expt","0.008159173947","","0.1423762304","","0.4184001904","","","","","","",""
"16","","bandit","338","730391","0.0-300.0-0.0","94247567","wem/bandit_single","A61GHYNS1DFT7","gain","2","","72","H","0","img/none_selected.jpg","1","0","0","0.2423041147","","false","263","0.2423041147","","main_expt","0.00730364875","","0.1237094287","","0.4397427278","","","","","","",""
"77","","bandit","339","732247","0.0-301.0-0.0","94247567","wem/bandit_single","A61GHYNS1DFT7","gain","2","","72","H","0","img/none_selected.jpg","0","0","1","0.2771483686","","false","264","0.2771483686","","main_expt","0.008891010149","","0.1110826985","","0.4308816061","","","","","","",""
"150","","bandit","340","734160","0.0-302.0-0.0","94247567","wem/bandit_single","A61GHYNS1DFT7","gain","2","","72","H","0","img/none_selected.jpg","0","0","1","0.2066329382","","false","265","0.2066329382","","main_expt","0.009434589262","","0.09816719149","","0.4310956018","","","","","","",""
"14","","bandit","341","735947","0.0-303.0-0.0","94247567","wem/bandit_single","A61GHYNS1DFT7","gain","2","","72","H","0","img/none_selected.jpg","0","0","1","0.1954640054","","false","266","0.1954640054","","main_expt","0.009503255165","","0.1313615454","","0.4462346174","","","","","","",""
"195","","bandit","342","737919","0.0-304.0-0.0","94247567","wem/bandit_single","A61GHYNS1DFT7","gain","2","","72","H","0","img/none_selected.jpg","0","0","1","0.132533774","","false","267","0.132533774","","main_expt","0.01294763698","","0.1039649444","","0.4649068607","","","","","","",""
"44","","bandit","343","739742","0.0-305.0-0.0","94247567","wem/bandit_single","A61GHYNS1DFT7","gain","2","","72","H","0","img/none_selected.jpg","1","0","0","0.1212355483","","false","268","0.1212355483","","main_expt","0.01002763249","","0.0758663636","","0.4499385749","","","","","","",""
"141","","bandit","344","741646","0.0-306.0-0.0","94247567","wem/bandit_single","A61GHYNS1DFT7","gain","2","","72","H","0","img/none_selected.jpg","0","0","1","0.1363236216","","false","269","0.1363236216","","main_expt","0.009339874814","","0.08641939852","","0.4702815535","","","","","","",""
"183","","bandit","345","743592","0.0-307.0-0.0","94247567","wem/bandit_single","A61GHYNS1DFT7","gain","2","","72","H","0","img/none_selected.jpg","0","0","1","0.1061923246","","false","270","0.1061923246","","main_expt","0.0101894737","","0.08694739741","","0.4738293899","","","","","","",""
"155","","bandit","346","745511","0.0-308.0-0.0","94247567","wem/bandit_single","A61GHYNS1DFT7","gain","2","","72","H","0","img/none_selected.jpg","0","0","1","0.09682021381","","false","271","0.09682021381","","main_expt","0.0101062795","","0.07507278363","","0.4552130477","","","","","","",""
"115","","bandit","347","747398","0.0-309.0-0.0","94247567","wem/bandit_single","A61GHYNS1DFT7","gain","2","","72","H","0","img/none_selected.jpg","0","0","1","0.0728164368","","false","272","0.0728164368","","main_expt","0.009276773287","","0.09002305832","","0.4571227508","","","","","","",""
"172","","bandit","348","749351","0.0-310.0-0.0","94247567","wem/bandit_single","A61GHYNS1DFT7","gain","2","","72","H","0","img/none_selected.jpg","0","0","1","0.1026255411","","false","273","0.1026255411","","main_expt","0.0113492324","","0.07941117108","","0.4262778794","","","","","","",""
"242","","bandit","349","751375","0.0-311.0-0.0","94247567","wem/bandit_single","A61GHYNS1DFT7","gain","2","","72","H","0","img/none_selected.jpg","1","0","0","0.08683802548","","false","274","0.08683802548","","main_expt","0.005483919941","","0.09301171309","","0.4017895895","","","","","","",""
"24","","bandit","350","753183","0.0-312.0-0.0","94247567","wem/bandit_single","A61GHYNS1DFT7","gain","2","","72","H","0","img/none_selected.jpg","0","0","1","0.08250982893","","false","275","0.08250982893","","main_expt","0.00462874381","","0.1012072593","","0.4017548056","","","","","","",""
"170","","bandit","351","755117","0.0-313.0-0.0","94247567","wem/bandit_single","A61GHYNS1DFT7","gain","2","","72","H","0","img/none_selected.jpg","0","0","1","0.06031930624","","false","276","0.06031930624","","main_expt","0.009610611089","","0.1230964009","","0.4072561249","","","","","","",""
"182","","bandit","352","757061","0.0-314.0-0.0","94247567","wem/bandit_single","A61GHYNS1DFT7","gain","2","","72","H","0","img/none_selected.jpg","0","0","1","0.07169075363","","false","277","0.07169075363","","main_expt","0.01319252808","","0.1320105939","","0.3248287115","","","","","","",""
"121","","bandit","353","758967","0.0-315.0-0.0","94247567","wem/bandit_single","A61GHYNS1DFT7","gain","2","","72","H","0","img/none_selected.jpg","0","0","1","0.119525529","","false","278","0.119525529","","main_expt","0.008560453299","","0.100271112","","0.2954662343","","","","","","",""
"204","","bandit","354","760941","0.0-316.0-0.0","94247567","wem/bandit_single","A61GHYNS1DFT7","gain","2","","72","H","0","img/none_selected.jpg","0","0","1","0.05136608794","","false","279","0.05136608794","","main_expt","0.02270234009","","0.0752783975","","0.3430788315","","","","","","",""
"181","","bandit","355","762886","0.0-317.0-0.0","94247567","wem/bandit_single","A61GHYNS1DFT7","gain","2","","72","H","0","img/none_selected.jpg","0","0","1","0.06692305053","","false","280","0.06692305053","","main_expt","0.01842994591","","0.04609407158","","0.298888987","","","","","","",""
"148","","bandit","356","764798","0.0-318.0-0.0","94247567","wem/bandit_single","A61GHYNS1DFT7","gain","2","","72","H","0","img/none_selected.jpg","0","0","1","0.08594942048","","false","281","0.08594942048","","main_expt","0.01750385803","","0.05874754036","","0.317374049","","","","","","",""
"174","","bandit","357","766734","0.0-319.0-0.0","94247567","wem/bandit_single","A61GHYNS1DFT7","gain","2","","72","H","0","img/none_selected.jpg","0","0","1","0.08562343316","","false","282","0.08562343316","","main_expt","0.01075771148","","0.05911354127","","0.2905756231","","","","","","",""
"161","","bandit","358","768663","0.0-320.0-0.0","94247567","wem/bandit_single","A61GHYNS1DFT7","gain","2","","72","H","0","img/none_selected.jpg","0","0","1","0.06507866554","","false","283","0.06507866554","","main_expt","0.009487342711","","0.0444902615","","0.335540713","","","","","","",""
"118","","bandit","359","770558","0.0-321.0-0.0","94247567","wem/bandit_single","A61GHYNS1DFT7","gain","2","","72","H","0","img/none_selected.jpg","0","0","1","0.05738126215","","false","284","0.05738126215","","main_expt","0.01035814212","","0.03666520406","","0.3569674754","","","","","","",""
"188","","bandit","360","772508","0.0-322.0-0.0","94247567","wem/bandit_single","A61GHYNS1DFT7","gain","2","","72","H","0","img/none_selected.jpg","1","0","0","0.06337296056","","false","285","0.06337296056","","main_expt","0.01056818013","","0.02451873239","","0.4068019922","","","","","","",""
"188","","bandit","361","774463","0.0-323.0-0.0","94247567","wem/bandit_single","A61GHYNS1DFT7","gain","2","","72","H","0","img/none_selected.jpg","0","0","1","0.04649068967","","false","286","0.04649068967","","main_expt","0.007821227136","","0.02877547985","","0.432978486","","","","","","",""
"143","","bandit","362","776391","0.0-324.0-0.0","94247567","wem/bandit_single","A61GHYNS1DFT7","gain","2","","72","H","0","img/none_selected.jpg","0","0","1","0.04946639224","","false","287","0.04946639224","","main_expt","0.01039042452","","0.03331393821","","0.4213006965","","","","","","",""
"180","","bandit","363","778349","0.0-325.0-0.0","94247567","wem/bandit_single","A61GHYNS1DFT7","gain","2","","72","H","0","img/none_selected.jpg","0","0","1","0.03962947871","","false","288","0.03962947871","","main_expt","0.02141961277","","0.02363643209","","0.4094413186","","","","","","",""
"134","","bandit","364","780246","0.0-326.0-0.0","94247567","wem/bandit_single","A61GHYNS1DFT7","gain","2","","72","H","0","img/none_selected.jpg","0","0","1","0.05295486238","","false","289","0.05295486238","","main_expt","0.02062414181","","0.0366455232","","0.3731302572","","","","","","",""
"118","","bandit","365","782133","0.0-327.0-0.0","94247567","wem/bandit_single","A61GHYNS1DFT7","gain","2","","74","J","1","","0","0","1","0.01411690602","","false","290","0.06311332932","","main_expt","0.01411690602","","0.04887184979","","0.4076032329","","","","","","",""
"46","","bandit","366","783966","0.0-328.0-0.0","94247567","wem/bandit_single","A61GHYNS1DFT7","gain","2","","74","J","1","","0","0","1","0.03188260643","","false","291","0.07741633782","","main_expt","0.03188260643","","0.03783642248","","0.4134699565","","","","","","",""
"27","","bandit","367","785780","0.0-329.0-0.0","94247567","wem/bandit_single","A61GHYNS1DFT7","gain","2","","74","J","1","","0","0","1","0.03429620073","","false","292","0.09064252153","","main_expt","0.03429620073","","0.07820299584","","0.3827884258","","","","","","",""
"99","","bandit","368","787645","0.0-330.0-0.0","94247567","wem/bandit_single","A61GHYNS1DFT7","gain","2","","74","J","1","","0","0","1","0.030392347","","false","293","0.07659126906","","main_expt","0.030392347","","0.07060894185","","0.4162015812","","","","","","",""
"37","","bandit","369","789468","0.0-331.0-0.0","94247567","wem/bandit_single","A61GHYNS1DFT7","gain","2","","75","K","2","","0","0","1","0.1051632986","","false","294","0.08042624432","","main_expt","0.04782046051","","0.1051632986","","0.447674372","","","","","","",""
"12","","bandit","370","791245","0.0-332.0-0.0","94247567","wem/bandit_single","A61GHYNS1DFT7","gain","2","","75","K","2","","0","0","1","0.06624019153","","false","295","0.1216640212","","main_expt","0.06309063339","","0.06624019153","","0.4402126752","","","","","","",""
"178","","bandit","371","793213","0.0-333.0-0.0","94247567","wem/bandit_single","A61GHYNS1DFT7","gain","2","","75","K","2","","0","0","1","0.07088700909","","false","296","0.1058257345","","main_expt","0.09511663338","","0.07088700909","","0.4378891161","","","","","","",""
"173","","bandit","372","795172","0.0-334.0-0.0","94247567","wem/bandit_single","A61GHYNS1DFT7","gain","2","","75","K","2","","0","0","1","0.0529580871","","false","297","0.1101311263","","main_expt","0.07325770628","","0.0529580871","","0.468153315","","","","","","",""
