"rt","responses","trial_type","trial_index","time_elapsed","internal_node_id","subjID","study","MID","cond","drift","key_press","respCharCode","respKey","respChoiceNum","respChoice","gems","bombs","no_reward","GemPrChosen","BombPrChosen","practice","trial_counter","WinPr_0","LosePr_0","trial_label","WinPr_1","LosePr_1","WinPr_2","LosePr_2","WinPr_3","LosePr_3","Q0","Q1","Q2","gender","age","ethnicity"
"54393","{""Q0"":""AIPHJXQEDNW9L""}","survey-text","0","54397","0.0-0.0","94580299","wem/bandit_single","AIPHJXQEDNW9L","gain","6","","","","","","","","","","","","","","","","","","","","","","","","","","",""
"2303","","text","1","57711","0.0-1.0","94580299","wem/bandit_single","AIPHJXQEDNW9L","gain","6","32","","","","","","","","","","","","","","","","","","","","","","","","","",""
"3550","","text","2","61263","0.0-2.0","94580299","wem/bandit_single","AIPHJXQEDNW9L","gain","6","32","","","","","","","","","","","","","","","","","","","","","","","","","",""
"19439","","text","3","80703","0.0-3.0","94580299","wem/bandit_single","AIPHJXQEDNW9L","gain","6","32","","","","","","","","","","","","","","","","","","","","","","","","","",""
"9687","","text","4","90391","0.0-4.0","94580299","wem/bandit_single","AIPHJXQEDNW9L","gain","6","32","","","","","","","","","","","","","","","","","","","","","","","","","",""
"6840","","text","5","97231","0.0-5.0","94580299","wem/bandit_single","AIPHJXQEDNW9L","gain","6","32","","","","","","","","","","","","","","","","","","","","","","","","","",""
"5863","","text","6","103095","0.0-6.0","94580299","wem/bandit_single","AIPHJXQEDNW9L","gain","6","32","","","","","","","","","","","","","","","","","","","","","","","","","",""
"4200","","text","7","107296","0.0-7.0","94580299","wem/bandit_single","AIPHJXQEDNW9L","gain","6","32","","","","","","","","","","","","","","","","","","","","","","","","","",""
"4071","","text","8","111367","0.0-8.0","94580299","wem/bandit_single","AIPHJXQEDNW9L","gain","6","32","","","","","","","","","","","","","","","","","","","","","","","","","",""
"2575","","text","9","113943","0.0-9.0","94580299","wem/bandit_single","AIPHJXQEDNW9L","gain","6","32","","","","","","","","","","","","","","","","","","","","","","","","","",""
"3223","","text","10","117167","0.0-10.0","94580299","wem/bandit_single","AIPHJXQEDNW9L","gain","6","32","","","","","","","","","","","","","","","","","","","","","","","","","",""
"4568","","text","11","121735","0.0-11.0","94580299","wem/bandit_single","AIPHJXQEDNW9L","gain","6","32","","","","","","","","","","","","","","","","","","","","","","","","","",""
"1541","","bandit","12","124791","0.0-12.0-0.0","94580299","wem/bandit_single","AIPHJXQEDNW9L","gain","6","","74","J","0","img/none_selected_demo.jpg","0","0","1","0","0","true","0","0","0","","","","","","","","","","","","",""
"533","","bandit","13","127093","0.0-13.0-0.0","94580299","wem/bandit_single","AIPHJXQEDNW9L","gain","6","","75","K","0","img/none_selected_demo.jpg","0","0","1","0","0","true","0","0","0","","","","","","","","","","","","",""
"2873","","text","14","130224","0.0-14.0","94580299","wem/bandit_single","AIPHJXQEDNW9L","gain","6","32","","","","","","","","","","","","","","","","","","","","","","","","","",""
"1366","","text","15","131591","0.0-15.0","94580299","wem/bandit_single","AIPHJXQEDNW9L","gain","6","32","","","","","","","","","","","","","","","","","","","","","","","","","",""
"3791","","text","16","135383","0.0-16.0","94580299","wem/bandit_single","AIPHJXQEDNW9L","gain","6","32","","","","","","","","","","","","","","","","","","","","","","","","","",""
"2583","","text","17","137967","0.0-17.0","94580299","wem/bandit_single","AIPHJXQEDNW9L","gain","6","32","","","","","","","","","","","","","","","","","","","","","","","","","",""
"759","","bandit","18","140244","0.0-18.0-0.0","94580299","wem/bandit_single","AIPHJXQEDNW9L","gain","6","","74","J","0","img/none_selected_demo.jpg","0","0","1","0.8","0","true","0","0.8","0","80_20_practice","0.2","0","","","","","","","","","",""
"62","","bandit","19","142078","0.0-18.0-1.0","94580299","wem/bandit_single","AIPHJXQEDNW9L","gain","6","","74","J","0","img/none_selected_demo.jpg","1","0","0","0.8","0","true","0","0.8","0","80_20_practice","0.2","0","","","","","","","","","",""
"57","","bandit","20","143919","0.0-18.0-2.0","94580299","wem/bandit_single","AIPHJXQEDNW9L","gain","6","","74","J","0","img/none_selected_demo.jpg","1","0","0","0.8","0","true","0","0.8","0","80_20_practice","0.2","0","","","","","","","","","",""
"24","","bandit","21","145706","0.0-18.0-3.0","94580299","wem/bandit_single","AIPHJXQEDNW9L","gain","6","","74","J","0","img/none_selected_demo.jpg","1","0","0","0.8","0","true","0","0.8","0","80_20_practice","0.2","0","","","","","","","","","",""
"632","","bandit","22","148093","0.0-18.0-4.0","94580299","wem/bandit_single","AIPHJXQEDNW9L","gain","6","","74","J","0","img/none_selected_demo.jpg","1","0","0","0.8","0","true","0","0.8","0","80_20_practice","0.2","0","","","","","","","","","",""
"682","","bandit","23","150565","0.0-18.0-5.0","94580299","wem/bandit_single","AIPHJXQEDNW9L","gain","6","","74","J","0","img/none_selected_demo.jpg","0","0","1","0.8","0","true","0","0.8","0","80_20_practice","0.2","0","","","","","","","","","",""
"141","","bandit","24","152461","0.0-18.0-6.0","94580299","wem/bandit_single","AIPHJXQEDNW9L","gain","6","","75","K","1","","0","0","1","0.2","0","true","0","0.8","0","80_20_practice","0.2","0","","","","","","","","","",""
"548","","bandit","25","154795","0.0-18.0-7.0","94580299","wem/bandit_single","AIPHJXQEDNW9L","gain","6","","75","K","1","","0","0","1","0.2","0","true","0","0.8","0","80_20_practice","0.2","0","","","","","","","","","",""
"46","","bandit","26","156612","0.0-18.0-8.0","94580299","wem/bandit_single","AIPHJXQEDNW9L","gain","6","","75","K","1","","0","0","1","0.2","0","true","0","0.8","0","80_20_practice","0.2","0","","","","","","","","","",""
"134","","bandit","27","158534","0.0-18.0-9.0","94580299","wem/bandit_single","AIPHJXQEDNW9L","gain","6","","75","K","1","","0","0","1","0.2","0","true","0","0.8","0","80_20_practice","0.2","0","","","","","","","","","",""
"37","","bandit","28","160337","0.0-18.0-10.0","94580299","wem/bandit_single","AIPHJXQEDNW9L","gain","6","","75","K","1","","1","0","0","0.2","0","true","0","0.8","0","80_20_practice","0.2","0","","","","","","","","","",""
"1893","","bandit","29","164014","0.0-18.0-11.0","94580299","wem/bandit_single","AIPHJXQEDNW9L","gain","6","","74","J","0","img/none_selected_demo.jpg","1","0","0","0.8","0","true","0","0.8","0","80_20_practice","0.2","0","","","","","","","","","",""
"13","","bandit","30","165798","0.0-18.0-12.0","94580299","wem/bandit_single","AIPHJXQEDNW9L","gain","6","","74","J","0","img/none_selected_demo.jpg","1","0","0","0.8","0","true","0","0.8","0","80_20_practice","0.2","0","","","","","","","","","",""
"590","","bandit","31","168158","0.0-18.0-13.0","94580299","wem/bandit_single","AIPHJXQEDNW9L","gain","6","","74","J","0","img/none_selected_demo.jpg","1","0","0","0.8","0","true","0","0.8","0","80_20_practice","0.2","0","","","","","","","","","",""
"48","","bandit","32","170000","0.0-18.0-14.0","94580299","wem/bandit_single","AIPHJXQEDNW9L","gain","6","","74","J","0","img/none_selected_demo.jpg","1","0","0","0.8","0","true","0","0.8","0","80_20_practice","0.2","0","","","","","","","","","",""
"65","","bandit","33","171833","0.0-18.0-15.0","94580299","wem/bandit_single","AIPHJXQEDNW9L","gain","6","","74","J","0","img/none_selected_demo.jpg","1","0","0","0.8","0","true","0","0.8","0","80_20_practice","0.2","0","","","","","","","","","",""
"40","","bandit","34","173642","0.0-18.0-16.0","94580299","wem/bandit_single","AIPHJXQEDNW9L","gain","6","","74","J","0","img/none_selected_demo.jpg","1","0","0","0.8","0","true","0","0.8","0","80_20_practice","0.2","0","","","","","","","","","",""
"681","","bandit","35","176077","0.0-18.0-17.0","94580299","wem/bandit_single","AIPHJXQEDNW9L","gain","6","","74","J","0","img/none_selected_demo.jpg","1","0","0","0.8","0","true","0","0.8","0","80_20_practice","0.2","0","","","","","","","","","",""
"766","","bandit","36","178596","0.0-18.0-18.0","94580299","wem/bandit_single","AIPHJXQEDNW9L","gain","6","","74","J","0","img/none_selected_demo.jpg","1","0","0","0.8","0","true","0","0.8","0","80_20_practice","0.2","0","","","","","","","","","",""
"82","","bandit","37","180440","0.0-18.0-19.0","94580299","wem/bandit_single","AIPHJXQEDNW9L","gain","6","","74","J","0","img/none_selected_demo.jpg","1","0","0","0.8","0","true","0","0.8","0","80_20_practice","0.2","0","","","","","","","","","",""
"20293","","text","38","200999","0.0-19.0","94580299","wem/bandit_single","AIPHJXQEDNW9L","gain","6","32","","","","","","","","","","","","","","","","","","","","","","","","","",""
"4199","","bandit","39","206703","0.0-20.0-0.0","94580299","wem/bandit_single","AIPHJXQEDNW9L","gain","6","","74","J","0","img/none_selected_demo.jpg","0","0","1","0","0","true","0","0","0","","0","0","","","","","","","","","",""
"6684","","text","40","213640","0.0-21.0","94580299","wem/bandit_single","AIPHJXQEDNW9L","gain","6","32","","","","","","","","","","","","","","","","","","","","","","","","","",""
"1991","","text","41","215631","0.0-22.0","94580299","wem/bandit_single","AIPHJXQEDNW9L","gain","6","32","","","","","","","","","","","","","","","","","","","","","","","","","",""
"3726","","text","42","219359","0.0-23.0","94580299","wem/bandit_single","AIPHJXQEDNW9L","gain","6","32","","","","","","","","","","","","","","","","","","","","","","","","","",""
"2127","","text","43","221487","0.0-24.0","94580299","wem/bandit_single","AIPHJXQEDNW9L","gain","6","32","","","","","","","","","","","","","","","","","","","","","","","","","",""
"2391","","text","44","223880","0.0-25.0","94580299","wem/bandit_single","AIPHJXQEDNW9L","gain","6","32","","","","","","","","","","","","","","","","","","","","","","","","","",""
"3678","","text","45","227559","0.0-26.0","94580299","wem/bandit_single","AIPHJXQEDNW9L","gain","6","32","","","","","","","","","","","","","","","","","","","","","","","","","",""
"5695","","text","46","233255","0.0-27.0","94580299","wem/bandit_single","AIPHJXQEDNW9L","gain","6","32","","","","","","","","","","","","","","","","","","","","","","","","","",""
"5872","","text","47","239128","0.0-28.0","94580299","wem/bandit_single","AIPHJXQEDNW9L","gain","6","32","","","","","","","","","","","","","","","","","","","","","","","","","",""
"3493","","text","48","242623","0.0-29.0","94580299","wem/bandit_single","AIPHJXQEDNW9L","gain","6","32","","","","","","","","","","","","","","","","","","","","","","","","","",""
"1056","","text","49","243679","0.0-30.0","94580299","wem/bandit_single","AIPHJXQEDNW9L","gain","6","32","","","","","","","","","","","","","","","","","","","","","","","","","",""
"6215","","text","50","249895","0.0-31.0","94580299","wem/bandit_single","AIPHJXQEDNW9L","gain","6","32","","","","","","","","","","","","","","","","","","","","","","","","","",""
"478","","bandit","51","251886","0.0-32.0-0.0","94580299","wem/bandit_single","AIPHJXQEDNW9L","gain","6","","72","H","0","img/none_selected.jpg","1","0","0","0.8","0","true","0","0.8","0","full_practice","0.2","0","0.6","0","0.2","0","","","","","",""
"487","","bandit","52","254141","0.0-32.0-1.0","94580299","wem/bandit_single","AIPHJXQEDNW9L","gain","6","","72","H","0","img/none_selected.jpg","1","0","0","0.8","0","true","0","0.8","0","full_practice","0.2","0","0.6","0","0.2","0","","","","","",""
"153","","bandit","53","256075","0.0-32.0-2.0","94580299","wem/bandit_single","AIPHJXQEDNW9L","gain","6","","72","H","0","img/none_selected.jpg","1","0","0","0.8","0","true","0","0.8","0","full_practice","0.2","0","0.6","0","0.2","0","","","","","",""
"31","","bandit","54","257875","0.0-32.0-3.0","94580299","wem/bandit_single","AIPHJXQEDNW9L","gain","6","","72","H","0","img/none_selected.jpg","1","0","0","0.8","0","true","0","0.8","0","full_practice","0.2","0","0.6","0","0.2","0","","","","","",""
"48","","bandit","55","259685","0.0-32.0-4.0","94580299","wem/bandit_single","AIPHJXQEDNW9L","gain","6","","72","H","0","img/none_selected.jpg","1","0","0","0.8","0","true","0","0.8","0","full_practice","0.2","0","0.6","0","0.2","0","","","","","",""
"14","","bandit","56","261461","0.0-32.0-5.0","94580299","wem/bandit_single","AIPHJXQEDNW9L","gain","6","","72","H","0","img/none_selected.jpg","0","0","1","0.8","0","true","0","0.8","0","full_practice","0.2","0","0.6","0","0.2","0","","","","","",""
"48","","bandit","57","263280","0.0-32.0-6.0","94580299","wem/bandit_single","AIPHJXQEDNW9L","gain","6","","72","H","0","img/none_selected.jpg","1","0","0","0.8","0","true","0","0.8","0","full_practice","0.2","0","0.6","0","0.2","0","","","","","",""
"36","","bandit","58","265076","0.0-32.0-7.0","94580299","wem/bandit_single","AIPHJXQEDNW9L","gain","6","","72","H","0","img/none_selected.jpg","1","0","0","0.8","0","true","0","0.8","0","full_practice","0.2","0","0.6","0","0.2","0","","","","","",""
"30","","bandit","59","266881","0.0-32.0-8.0","94580299","wem/bandit_single","AIPHJXQEDNW9L","gain","6","","72","H","0","img/none_selected.jpg","1","0","0","0.8","0","true","0","0.8","0","full_practice","0.2","0","0.6","0","0.2","0","","","","","",""
"400","","bandit","60","269050","0.0-32.0-9.0","94580299","wem/bandit_single","AIPHJXQEDNW9L","gain","6","","72","H","0","img/none_selected.jpg","0","0","1","0.8","0","true","0","0.8","0","full_practice","0.2","0","0.6","0","0.2","0","","","","","",""
"76","","bandit","61","270906","0.0-32.0-10.0","94580299","wem/bandit_single","AIPHJXQEDNW9L","gain","6","","72","H","0","img/none_selected.jpg","1","0","0","0.8","0","true","0","0.8","0","full_practice","0.2","0","0.6","0","0.2","0","","","","","",""
"10","","bandit","62","272685","0.0-32.0-11.0","94580299","wem/bandit_single","AIPHJXQEDNW9L","gain","6","","72","H","0","img/none_selected.jpg","1","0","0","0.8","0","true","0","0.8","0","full_practice","0.2","0","0.6","0","0.2","0","","","","","",""
"79","","bandit","63","274545","0.0-32.0-12.0","94580299","wem/bandit_single","AIPHJXQEDNW9L","gain","6","","72","H","0","img/none_selected.jpg","0","0","1","0.8","0","true","0","0.8","0","full_practice","0.2","0","0.6","0","0.2","0","","","","","",""
"45","","bandit","64","276361","0.0-32.0-13.0","94580299","wem/bandit_single","AIPHJXQEDNW9L","gain","6","","72","H","0","img/none_selected.jpg","1","0","0","0.8","0","true","0","0.8","0","full_practice","0.2","0","0.6","0","0.2","0","","","","","",""
"70","","bandit","65","278205","0.0-32.0-14.0","94580299","wem/bandit_single","AIPHJXQEDNW9L","gain","6","","72","H","0","img/none_selected.jpg","1","0","0","0.8","0","true","0","0.8","0","full_practice","0.2","0","0.6","0","0.2","0","","","","","",""
"30","","bandit","66","279995","0.0-32.0-15.0","94580299","wem/bandit_single","AIPHJXQEDNW9L","gain","6","","72","H","0","img/none_selected.jpg","1","0","0","0.8","0","true","0","0.8","0","full_practice","0.2","0","0.6","0","0.2","0","","","","","",""
"55","","bandit","67","281809","0.0-32.0-16.0","94580299","wem/bandit_single","AIPHJXQEDNW9L","gain","6","","72","H","0","img/none_selected.jpg","1","0","0","0.8","0","true","0","0.8","0","full_practice","0.2","0","0.6","0","0.2","0","","","","","",""
"19","","bandit","68","283611","0.0-32.0-17.0","94580299","wem/bandit_single","AIPHJXQEDNW9L","gain","6","","72","H","0","img/none_selected.jpg","0","0","1","0.8","0","true","0","0.8","0","full_practice","0.2","0","0.6","0","0.2","0","","","","","",""
"82","","bandit","69","285453","0.0-32.0-18.0","94580299","wem/bandit_single","AIPHJXQEDNW9L","gain","6","","72","H","0","img/none_selected.jpg","0","0","1","0.8","0","true","0","0.8","0","full_practice","0.2","0","0.6","0","0.2","0","","","","","",""
"31","","bandit","70","287248","0.0-32.0-19.0","94580299","wem/bandit_single","AIPHJXQEDNW9L","gain","6","","72","H","0","img/none_selected.jpg","1","0","0","0.8","0","true","0","0.8","0","full_practice","0.2","0","0.6","0","0.2","0","","","","","",""
"2629","","text","71","290143","0.0-33.0","94580299","wem/bandit_single","AIPHJXQEDNW9L","gain","6","32","","","","","","","","","","","","","","","","","","","","","","","","","",""
"10604","","text","72","301760","0.0-34.0","94580299","wem/bandit_single","AIPHJXQEDNW9L","gain","6","32","","","","","","","","","","","","","","","","","","","","","","","","","",""
"2517","","text","73","304279","0.0-35.0","94580299","wem/bandit_single","AIPHJXQEDNW9L","gain","6","32","","","","","","","","","","","","","","","","","","","","","","","","","",""
"1542","","text","74","305823","0.0-36.0","94580299","wem/bandit_single","AIPHJXQEDNW9L","gain","6","32","","","","","","","","","","","","","","","","","","","","","","","","","",""
"3695","","text","75","309519","0.0-37.0","94580299","wem/bandit_single","AIPHJXQEDNW9L","gain","6","32","","","","","","","","","","","","","","","","","","","","","","","","","",""
"806","","bandit","76","311840","0.0-38.0-0.0","94580299","wem/bandit_single","AIPHJXQEDNW9L","gain","6","","72","H","0","img/none_selected.jpg","0","0","1","0.1940838181","","false","1","0.1940838181","","main_expt","0.1623639982","","0.1142009487","","0.3785571591","","","","","","",""
"67","","bandit","77","313671","0.0-39.0-0.0","94580299","wem/bandit_single","AIPHJXQEDNW9L","gain","6","","72","H","0","img/none_selected.jpg","0","0","1","0.2410489397","","false","2","0.2410489397","","main_expt","0.1864124343","","0.09165924831","","0.3894156921","","","","","","",""
"62","","bandit","78","315513","0.0-40.0-0.0","94580299","wem/bandit_single","AIPHJXQEDNW9L","gain","6","","72","H","0","img/none_selected.jpg","0","0","1","0.2645422736","","false","3","0.2645422736","","main_expt","0.1494323563","","0.1174954382","","0.4125386255","","","","","","",""
"16","","bandit","79","317299","0.0-41.0-0.0","94580299","wem/bandit_single","AIPHJXQEDNW9L","gain","6","","74","J","1","","0","0","1","0.1266436655","","false","4","0.1984909652","","main_expt","0.1266436655","","0.1426329369","","0.3990363537","","","","","","",""
"96","","bandit","80","319185","0.0-42.0-0.0","94580299","wem/bandit_single","AIPHJXQEDNW9L","gain","6","","74","J","1","","1","0","0","0.1476492511","","false","5","0.1239860826","","main_expt","0.1476492511","","0.1503595054","","0.454435597","","","","","","",""
"70","","bandit","81","321024","0.0-43.0-0.0","94580299","wem/bandit_single","AIPHJXQEDNW9L","gain","6","","74","J","1","","1","0","0","0.1525625276","","false","6","0.06805906468","","main_expt","0.1525625276","","0.1646450236","","0.4583077461","","","","","","",""
"91","","bandit","82","322889","0.0-44.0-0.0","94580299","wem/bandit_single","AIPHJXQEDNW9L","gain","6","","74","J","1","","0","0","1","0.1856713893","","false","7","0.05890971721","","main_expt","0.1856713893","","0.2031930874","","0.4617786505","","","","","","",""
"450","","bandit","83","325100","0.0-45.0-0.0","94580299","wem/bandit_single","AIPHJXQEDNW9L","gain","6","","74","J","1","","0","0","1","0.2108076934","","false","8","0.0832196585","","main_expt","0.2108076934","","0.181996894","","0.475168559","","","","","","",""
"37","","bandit","84","326916","0.0-46.0-0.0","94580299","wem/bandit_single","AIPHJXQEDNW9L","gain","6","","74","J","1","","0","0","1","0.1956497028","","false","9","0.1325638406","","main_expt","0.1956497028","","0.1673845292","","0.458325554","","","","","","",""
"311","","bandit","85","328993","0.0-47.0-0.0","94580299","wem/bandit_single","AIPHJXQEDNW9L","gain","6","","75","K","2","","0","0","1","0.2328473308","","false","10","0.1196898321","","main_expt","0.1582923175","","0.2328473308","","0.4316924572","","","","","","",""
"130","","bandit","86","330894","0.0-48.0-0.0","94580299","wem/bandit_single","AIPHJXQEDNW9L","gain","6","","75","K","2","","0","0","1","0.20589494","","false","11","0.1103103944","","main_expt","0.167734997","","0.20589494","","0.3756511011","","","","","","",""
"41","","bandit","87","332715","0.0-49.0-0.0","94580299","wem/bandit_single","AIPHJXQEDNW9L","gain","6","","76","L","3","","0","0","1","0.3549088727","","false","12","0.06819125589","","main_expt","0.2150601968","","0.2246944015","","0.3549088727","","","","","","",""
"177","","bandit","88","334661","0.0-50.0-0.0","94580299","wem/bandit_single","AIPHJXQEDNW9L","gain","6","","76","L","3","","1","0","0","0.3455803359","","false","13","0.07076675629","","main_expt","0.252216208","","0.2613447163","","0.3455803359","","","","","","",""
"27","","bandit","89","336447","0.0-51.0-0.0","94580299","wem/bandit_single","AIPHJXQEDNW9L","gain","6","","76","L","3","","0","0","1","0.3809937316","","false","14","0.09241451512","","main_expt","0.2184022087","","0.212655478","","0.3809937316","","","","","","",""
"12","","bandit","90","338227","0.0-52.0-0.0","94580299","wem/bandit_single","AIPHJXQEDNW9L","gain","6","","76","L","3","","1","0","0","0.3479508526","","false","15","0.07205700739","","main_expt","0.210005203","","0.1679070286","","0.3479508526","","","","","","",""
"23","","bandit","91","340009","0.0-53.0-0.0","94580299","wem/bandit_single","AIPHJXQEDNW9L","gain","6","","76","L","3","","0","0","1","0.3287514515","","false","16","0.04760190598","","main_expt","0.2402495983","","0.1774383452","","0.3287514515","","","","","","",""
"2","","bandit","92","341786","0.0-54.0-0.0","94580299","wem/bandit_single","AIPHJXQEDNW9L","gain","6","","76","L","3","","1","0","0","0.4008698656","","false","17","0.03958098904","","main_expt","0.2766196603","","0.1562672395","","0.4008698656","","","","","","",""
"6","","bandit","93","343573","0.0-55.0-0.0","94580299","wem/bandit_single","AIPHJXQEDNW9L","gain","6","","76","L","3","","0","0","1","0.3845126264","","false","18","0.03128671198","","main_expt","0.3193638145","","0.1407597156","","0.3845126264","","","","","","",""
"283","","bandit","94","345635","0.0-56.0-0.0","94580299","wem/bandit_single","AIPHJXQEDNW9L","gain","6","","76","L","3","","1","0","0","0.3979941068","","false","19","0.04453616628","","main_expt","0.2953318626","","0.1310890834","","0.3979941068","","","","","","",""
"55","","bandit","95","347444","0.0-57.0-0.0","94580299","wem/bandit_single","AIPHJXQEDNW9L","gain","6","","76","L","3","","0","0","1","0.3920029867","","false","20","0.04596917346","","main_expt","0.3007143328","","0.1317163977","","0.3920029867","","","","","","",""
"460","","bandit","96","349677","0.0-58.0-0.0","94580299","wem/bandit_single","AIPHJXQEDNW9L","gain","6","","76","L","3","","1","0","0","0.4057752261","","false","21","0.04297504417","","main_expt","0.3105995928","","0.1752537558","","0.4057752261","","","","","","",""
"84","","bandit","97","351527","0.0-59.0-0.0","94580299","wem/bandit_single","AIPHJXQEDNW9L","gain","6","","76","L","3","","0","0","1","0.4072420822","","false","22","0.04739698515","","main_expt","0.3742057862","","0.2064983175","","0.4072420822","","","","","","",""
"58","","bandit","98","353342","0.0-60.0-0.0","94580299","wem/bandit_single","AIPHJXQEDNW9L","gain","6","","76","L","3","","0","0","1","0.3798298113","","false","23","0.08003173613","","main_expt","0.3439758112","","0.216691321","","0.3798298113","","","","","","",""
"35","","bandit","99","355151","0.0-61.0-0.0","94580299","wem/bandit_single","AIPHJXQEDNW9L","gain","6","","76","L","3","","0","0","1","0.3329856024","","false","24","0.09868307827","","main_expt","0.3549138733","","0.2342773894","","0.3329856024","","","","","","",""
"28","","bandit","100","356957","0.0-62.0-0.0","94580299","wem/bandit_single","AIPHJXQEDNW9L","gain","6","","75","K","2","","0","0","1","0.2378870173","","false","25","0.07950464875","","main_expt","0.3811330683","","0.2378870173","","0.3337381726","","","","","","",""
"47","","bandit","101","358776","0.0-63.0-0.0","94580299","wem/bandit_single","AIPHJXQEDNW9L","gain","6","","75","K","2","","0","0","1","0.2555438901","","false","26","0.09697268327","","main_expt","0.3131907418","","0.2555438901","","0.3650510818","","","","","","",""
"50","","bandit","102","360589","0.0-64.0-0.0","94580299","wem/bandit_single","AIPHJXQEDNW9L","gain","6","","74","J","1","","0","0","1","0.3210571327","","false","27","0.09831328215","","main_expt","0.3210571327","","0.2487754609","","0.3930286133","","","","","","",""
"38","","bandit","103","362401","0.0-65.0-0.0","94580299","wem/bandit_single","AIPHJXQEDNW9L","gain","6","","74","J","1","","1","0","0","0.3350138966","","false","28","0.08798585883","","main_expt","0.3350138966","","0.2023297646","","0.3849328395","","","","","","",""
"54","","bandit","104","364214","0.0-66.0-0.0","94580299","wem/bandit_single","AIPHJXQEDNW9L","gain","6","","74","J","1","","0","0","1","0.3491704597","","false","29","0.1001400419","","main_expt","0.3491704597","","0.1824385616","","0.3635333449","","","","","","",""
"37","","bandit","105","366022","0.0-67.0-0.0","94580299","wem/bandit_single","AIPHJXQEDNW9L","gain","6","","74","J","1","","0","0","1","0.3515390533","","false","30","0.100360092","","main_expt","0.3515390533","","0.2108935763","","0.3870800473","","","","","","",""
"452","","bandit","106","368237","0.0-68.0-0.0","94580299","wem/bandit_single","AIPHJXQEDNW9L","gain","6","","74","J","1","","1","0","0","0.3116189274","","false","31","0.1235489826","","main_expt","0.3116189274","","0.2212072473","","0.407818568","","","","","","",""
"53","","bandit","107","370056","0.0-69.0-0.0","94580299","wem/bandit_single","AIPHJXQEDNW9L","gain","6","","74","J","1","","0","0","1","0.2923613921","","false","32","0.0999088058","","main_expt","0.2923613921","","0.2349080289","","0.4365503818","","","","","","",""
"329","","bandit","108","372160","0.0-70.0-0.0","94580299","wem/bandit_single","AIPHJXQEDNW9L","gain","6","","75","K","2","","0","0","1","0.2233211346","","false","33","0.1229353218","","main_expt","0.2833872006","","0.2233211346","","0.438397095","","","","","","",""
"33","","bandit","109","373949","0.0-71.0-0.0","94580299","wem/bandit_single","AIPHJXQEDNW9L","gain","6","","74","J","1","","0","0","1","0.251012165","","false","34","0.1174339591","","main_expt","0.251012165","","0.2328620384","","0.4225996483","","","","","","",""
"133","","bandit","110","375856","0.0-72.0-0.0","94580299","wem/bandit_single","AIPHJXQEDNW9L","gain","6","","72","H","0","img/none_selected.jpg","0","0","1","0.08922948311","","false","35","0.08922948311","","main_expt","0.2150204629","","0.2442853791","","0.3719427837","","","","","","",""
"19","","bandit","111","377653","0.0-73.0-0.0","94580299","wem/bandit_single","AIPHJXQEDNW9L","gain","6","","72","H","0","img/none_selected.jpg","0","0","1","0.1065429935","","false","36","0.1065429935","","main_expt","0.2003821391","","0.2536962779","","0.3643608465","","","","","","",""
"53","","bandit","112","379469","0.0-74.0-0.0","94580299","wem/bandit_single","AIPHJXQEDNW9L","gain","6","","72","H","0","img/none_selected.jpg","0","0","1","0.119331244","","false","37","0.119331244","","main_expt","0.1584744983","","0.1968410568","","0.3951734682","","","","","","",""
"76","","bandit","113","381320","0.0-75.0-0.0","94580299","wem/bandit_single","AIPHJXQEDNW9L","gain","6","","74","J","1","","0","0","1","0.1107345946","","false","38","0.1140529394","","main_expt","0.1107345946","","0.1903576104","","0.4106313244","","","","","","",""
"203","","bandit","114","383306","0.0-76.0-0.0","94580299","wem/bandit_single","AIPHJXQEDNW9L","gain","6","","74","J","1","","0","0","1","0.1922112034","","false","39","0.1377706652","","main_expt","0.1922112034","","0.2094560733","","0.385877281","","","","","","",""
"48","","bandit","115","385125","0.0-77.0-0.0","94580299","wem/bandit_single","AIPHJXQEDNW9L","gain","6","","76","L","3","","1","0","0","0.3814638094","","false","40","0.1686011578","","main_expt","0.202991566","","0.2157952434","","0.3814638094","","","","","","",""
"90","","bandit","116","386977","0.0-78.0-0.0","94580299","wem/bandit_single","AIPHJXQEDNW9L","gain","6","","76","L","3","","1","0","0","0.3569976603","","false","41","0.1640814413","","main_expt","0.257249123","","0.1982376225","","0.3569976603","","","","","","",""
"63","","bandit","117","388820","0.0-79.0-0.0","94580299","wem/bandit_single","AIPHJXQEDNW9L","gain","6","","76","L","3","","0","0","1","0.3254656301","","false","42","0.1444461896","","main_expt","0.3139605103","","0.1815133425","","0.3254656301","","","","","","",""
"584","","bandit","118","391179","0.0-80.0-0.0","94580299","wem/bandit_single","AIPHJXQEDNW9L","gain","6","","76","L","3","","0","0","1","0.3061667188","","false","43","0.1466097136","","main_expt","0.2859416922","","0.1804658283","","0.3061667188","","","","","","",""
"41","","bandit","119","392989","0.0-81.0-0.0","94580299","wem/bandit_single","AIPHJXQEDNW9L","gain","6","","76","L","3","","0","0","1","0.3247162798","","false","44","0.1701376127","","main_expt","0.2344477797","","0.1453808853","","0.3247162798","","","","","","",""
"368","","bandit","120","395124","0.0-82.0-0.0","94580299","wem/bandit_single","AIPHJXQEDNW9L","gain","6","","76","L","3","","1","0","0","0.3464274235","","false","45","0.2382164817","","main_expt","0.25278305","","0.1975985391","","0.3464274235","","","","","","",""
"54","","bandit","121","396945","0.0-83.0-0.0","94580299","wem/bandit_single","AIPHJXQEDNW9L","gain","6","","76","L","3","","1","0","0","0.2853596265","","false","46","0.2817064876","","main_expt","0.2447001663","","0.2099331931","","0.2853596265","","","","","","",""
"66","","bandit","122","398772","0.0-84.0-0.0","94580299","wem/bandit_single","AIPHJXQEDNW9L","gain","6","","76","L","3","","0","0","1","0.2781892211","","false","47","0.3449614965","","main_expt","0.2439886488","","0.2373708448","","0.2781892211","","","","","","",""
"419","","bandit","123","400956","0.0-85.0-0.0","94580299","wem/bandit_single","AIPHJXQEDNW9L","gain","6","","76","L","3","","0","0","1","0.2802769371","","false","48","0.2846403666","","main_expt","0.3453423138","","0.2929879582","","0.2802769371","","","","","","",""
"312","","bandit","124","403029","0.0-86.0-0.0","94580299","wem/bandit_single","AIPHJXQEDNW9L","gain","6","","76","L","3","","1","0","0","0.3162769287","","false","49","0.3292227521","","main_expt","0.3208634608","","0.2643709298","","0.3162769287","","","","","","",""
"60","","bandit","125","404845","0.0-87.0-0.0","94580299","wem/bandit_single","AIPHJXQEDNW9L","gain","6","","76","L","3","","0","0","1","0.2524095143","","false","50","0.270904054","","main_expt","0.2600740437","","0.2666646559","","0.2524095143","","","","","","",""
"70","","bandit","126","406680","0.0-88.0-0.0","94580299","wem/bandit_single","AIPHJXQEDNW9L","gain","6","","76","L","3","","1","0","0","0.2630113652","","false","51","0.2503066232","","main_expt","0.2451527442","","0.2550538978","","0.2630113652","","","","","","",""
"99","","bandit","127","408555","0.0-89.0-0.0","94580299","wem/bandit_single","AIPHJXQEDNW9L","gain","6","","76","L","3","","0","0","1","0.2707742251","","false","52","0.2405173112","","main_expt","0.1882651979","","0.3235330097","","0.2707742251","","","","","","",""
"403","","bandit","128","410738","0.0-90.0-0.0","94580299","wem/bandit_single","AIPHJXQEDNW9L","gain","6","","76","L","3","","0","0","1","0.2150274285","","false","53","0.2966352861","","main_expt","0.1930778153","","0.347433539","","0.2150274285","","","","","","",""
"67","","bandit","129","412571","0.0-91.0-0.0","94580299","wem/bandit_single","AIPHJXQEDNW9L","gain","6","","75","K","2","","0","0","1","0.3368202787","","false","54","0.2887198369","","main_expt","0.2216955806","","0.3368202787","","0.2326572497","","","","","","",""
"1","","bandit","130","414335","0.0-92.0-0.0","94580299","wem/bandit_single","AIPHJXQEDNW9L","gain","6","","75","K","2","","0","0","1","0.3503124627","","false","55","0.2801160178","","main_expt","0.2422165651","","0.3503124627","","0.2134399586","","","","","","",""
"55","","bandit","131","416161","0.0-93.0-0.0","94580299","wem/bandit_single","AIPHJXQEDNW9L","gain","6","","75","K","2","","0","0","1","0.368841946","","false","56","0.3022415889","","main_expt","0.228979269","","0.368841946","","0.2394891912","","","","","","",""
"169","","bandit","132","418085","0.0-94.0-0.0","94580299","wem/bandit_single","AIPHJXQEDNW9L","gain","6","","74","J","1","","0","0","1","0.243325051","","false","57","0.3300995428","","main_expt","0.243325051","","0.3883837061","","0.2942469327","","","","","","",""
"61","","bandit","133","419914","0.0-95.0-0.0","94580299","wem/bandit_single","AIPHJXQEDNW9L","gain","6","","74","J","1","","1","0","0","0.2326991071","","false","58","0.3393984951","","main_expt","0.2326991071","","0.4116863428","","0.369295693","","","","","","",""
"80","","bandit","134","421772","0.0-96.0-0.0","94580299","wem/bandit_single","AIPHJXQEDNW9L","gain","6","","74","J","1","","1","0","0","0.2480349675","","false","59","0.3592245678","","main_expt","0.2480349675","","0.3980375199","","0.3663837161","","","","","","",""
"26","","bandit","135","423558","0.0-97.0-0.0","94580299","wem/bandit_single","AIPHJXQEDNW9L","gain","6","","74","J","1","","1","0","0","0.2591134247","","false","60","0.3431938453","","main_expt","0.2591134247","","0.3849919156","","0.3578669063","","","","","","",""
"14","","bandit","136","425342","0.0-98.0-0.0","94580299","wem/bandit_single","AIPHJXQEDNW9L","gain","6","","74","J","1","","1","0","0","0.2828027123","","false","61","0.3622980041","","main_expt","0.2828027123","","0.3822359719","","0.3901807011","","","","","","",""
"30","","bandit","137","427134","0.0-99.0-0.0","94580299","wem/bandit_single","AIPHJXQEDNW9L","gain","6","","74","J","1","","0","0","1","0.2645717152","","false","62","0.3898917795","","main_expt","0.2645717152","","0.3356955782","","0.4199484271","","","","","","",""
"44","","bandit","138","428944","0.0-100.0-0.0","94580299","wem/bandit_single","AIPHJXQEDNW9L","gain","6","","74","J","1","","0","0","1","0.3164731366","","false","63","0.3730814422","","main_expt","0.3164731366","","0.2961333539","","0.431710707","","","","","","",""
"125","","bandit","139","430851","0.0-101.0-0.0","94580299","wem/bandit_single","AIPHJXQEDNW9L","gain","6","","74","J","1","","1","0","0","0.3549458842","","false","64","0.359514794","","main_expt","0.3549458842","","0.3332154777","","0.4302834116","","","","","","",""
"312","","bandit","140","432942","0.0-102.0-0.0","94580299","wem/bandit_single","AIPHJXQEDNW9L","gain","6","","74","J","1","","0","0","1","0.288515421","","false","65","0.3114607296","","main_expt","0.288515421","","0.35785358","","0.3985691748","","","","","","",""
"77","","bandit","141","434787","0.0-103.0-0.0","94580299","wem/bandit_single","AIPHJXQEDNW9L","gain","6","","74","J","1","","1","0","0","0.3011993237","","false","66","0.2942291023","","main_expt","0.3011993237","","0.406057841","","0.4041176093","","","","","","",""
"296","","bandit","142","436837","0.0-104.0-0.0","94580299","wem/bandit_single","AIPHJXQEDNW9L","gain","6","","74","J","1","","1","0","0","0.345072876","","false","67","0.3320533568","","main_expt","0.345072876","","0.4196038874","","0.4007812862","","","","","","",""
"85","","bandit","143","438695","0.0-105.0-0.0","94580299","wem/bandit_single","AIPHJXQEDNW9L","gain","6","","74","J","1","","1","0","0","0.3196529892","","false","68","0.3600975808","","main_expt","0.3196529892","","0.3890604874","","0.4294162969","","","","","","",""
"559","","bandit","144","441043","0.0-106.0-0.0","94580299","wem/bandit_single","AIPHJXQEDNW9L","gain","6","","74","J","1","","1","0","0","0.3649702463","","false","69","0.2872110667","","main_expt","0.3649702463","","0.4084138829","","0.3767619451","","","","","","",""
"7","","bandit","145","442812","0.0-107.0-0.0","94580299","wem/bandit_single","AIPHJXQEDNW9L","gain","6","","74","J","1","","1","0","0","0.356932825","","false","70","0.295141158","","main_expt","0.356932825","","0.3468887804","","0.3777248691","","","","","","",""
"304","","bandit","146","444886","0.0-108.0-0.0","94580299","wem/bandit_single","AIPHJXQEDNW9L","gain","6","","74","J","1","","0","0","1","0.3835678776","","false","71","0.3206647592","","main_expt","0.3835678776","","0.341524862","","0.3795242786","","","","","","",""
"44","","bandit","147","446694","0.0-109.0-0.0","94580299","wem/bandit_single","AIPHJXQEDNW9L","gain","6","","74","J","1","","1","0","0","0.4212385026","","false","72","0.3264000429","","main_expt","0.4212385026","","0.3749246652","","0.3665841139","","","","","","",""
"143","","bandit","148","448615","0.0-110.0-0.0","94580299","wem/bandit_single","AIPHJXQEDNW9L","gain","6","","74","J","1","","1","0","0","0.4261424303","","false","73","0.333972891","","main_expt","0.4261424303","","0.3871824506","","0.3651794524","","","","","","",""
"81","","bandit","149","450452","0.0-111.0-0.0","94580299","wem/bandit_single","AIPHJXQEDNW9L","gain","6","","74","J","1","","0","0","1","0.3977974162","","false","74","0.3616968722","","main_expt","0.3977974162","","0.3721906724","","0.3550305672","","","","","","",""
"432","","bandit","150","452648","0.0-112.0-0.0","94580299","wem/bandit_single","AIPHJXQEDNW9L","gain","6","","74","J","1","","0","0","1","0.4267201321","","false","75","0.3975057441","","main_expt","0.4267201321","","0.3111946895","","0.2927321298","","","","","","",""
"98","","bandit","151","454524","0.0-113.0-0.0","94580299","wem/bandit_single","AIPHJXQEDNW9L","gain","6","","74","J","1","","1","0","0","0.4263250047","","false","76","0.3807363423","","main_expt","0.4263250047","","0.3336428477","","0.2842047713","","","","","","",""
"39","","bandit","152","456325","0.0-114.0-0.0","94580299","wem/bandit_single","AIPHJXQEDNW9L","gain","6","","74","J","1","","0","0","1","0.4081139898","","false","77","0.394346207","","main_expt","0.4081139898","","0.2972108807","","0.291961298","","","","","","",""
"110","","bandit","153","458208","0.0-115.0-0.0","94580299","wem/bandit_single","AIPHJXQEDNW9L","gain","6","","74","J","1","","0","0","1","0.4081745619","","false","78","0.4130135997","","main_expt","0.4081745619","","0.3500338334","","0.2772504781","","","","","","",""
"322","","bandit","154","460290","0.0-116.0-0.0","94580299","wem/bandit_single","AIPHJXQEDNW9L","gain","6","","72","H","0","img/none_selected.jpg","1","0","0","0.388257836","","false","79","0.388257836","","main_expt","0.4210543479","","0.3382579744","","0.2910266255","","","","","","",""
"106","","bandit","155","462187","0.0-117.0-0.0","94580299","wem/bandit_single","AIPHJXQEDNW9L","gain","6","","72","H","0","img/none_selected.jpg","0","0","1","0.402189785","","false","80","0.402189785","","main_expt","0.4173400146","","0.2848378437","","0.3236474027","","","","","","",""
"43","","bandit","156","463989","0.0-118.0-0.0","94580299","wem/bandit_single","AIPHJXQEDNW9L","gain","6","","72","H","0","img/none_selected.jpg","0","0","1","0.4188164015","","false","81","0.4188164015","","main_expt","0.3876294662","","0.2824957966","","0.3171491255","","","","","","",""
"54","","bandit","157","465817","0.0-119.0-0.0","94580299","wem/bandit_single","AIPHJXQEDNW9L","gain","6","","72","H","0","img/none_selected.jpg","0","0","1","0.3923487362","","false","82","0.3923487362","","main_expt","0.3960397656","","0.2921189703","","0.3253049084","","","","","","",""
"186","","bandit","158","467766","0.0-120.0-0.0","94580299","wem/bandit_single","AIPHJXQEDNW9L","gain","6","","75","K","2","","0","0","1","0.346808059","","false","83","0.3765831671","","main_expt","0.4048972575","","0.346808059","","0.2650825447","","","","","","",""
"332","","bandit","159","469863","0.0-121.0-0.0","94580299","wem/bandit_single","AIPHJXQEDNW9L","gain","6","","75","K","2","","0","0","1","0.3142369957","","false","84","0.3744655151","","main_expt","0.4261464595","","0.3142369957","","0.2860936523","","","","","","",""
"163","","bandit","160","471817","0.0-122.0-0.0","94580299","wem/bandit_single","AIPHJXQEDNW9L","gain","6","","75","K","2","","0","0","1","0.3336664699","","false","85","0.4097897279","","main_expt","0.4252889048","","0.3336664699","","0.2965161573","","","","","","",""
"241","","bandit","161","473837","0.0-123.0-0.0","94580299","wem/bandit_single","AIPHJXQEDNW9L","gain","6","","76","L","3","","0","0","1","0.2718920201","","false","86","0.4365994201","","main_expt","0.4234238012","","0.3487181938","","0.2718920201","","","","","","",""
"62","","bandit","162","475677","0.0-124.0-0.0","94580299","wem/bandit_single","AIPHJXQEDNW9L","gain","6","","76","L","3","","1","0","0","0.2663647104","","false","87","0.4485753971","","main_expt","0.4493325849","","0.3595256023","","0.2663647104","","","","","","",""
"29","","bandit","163","477461","0.0-125.0-0.0","94580299","wem/bandit_single","AIPHJXQEDNW9L","gain","6","","76","L","3","","0","0","1","0.2505207396","","false","88","0.4682155013","","main_expt","0.4618336953","","0.3633435887","","0.2505207396","","","","","","",""
"327","","bandit","164","479554","0.0-126.0-0.0","94580299","wem/bandit_single","AIPHJXQEDNW9L","gain","6","","76","L","3","","1","0","0","0.2380326514","","false","89","0.455546077","","main_expt","0.470357169","","0.3301577903","","0.2380326514","","","","","","",""
"195","","bandit","165","481522","0.0-127.0-0.0","94580299","wem/bandit_single","AIPHJXQEDNW9L","gain","6","","76","L","3","","0","0","1","0.2825572521","","false","90","0.4648286352","","main_expt","0.4756012524","","0.2983975746","","0.2825572521","","","","","","",""
"224","","bandit","166","483522","0.0-128.0-0.0","94580299","wem/bandit_single","AIPHJXQEDNW9L","gain","6","","76","L","3","","0","0","1","0.3629334232","","false","91","0.4597569826","","main_expt","0.4661355378","","0.2708507867","","0.3629334232","","","","","","",""
"390","","bandit","167","485677","0.0-129.0-0.0","94580299","wem/bandit_single","AIPHJXQEDNW9L","gain","6","","76","L","3","","0","0","1","0.4318733099","","false","92","0.4636055165","","main_expt","0.4640816948","","0.2025174094","","0.4318733099","","","","","","",""
"257","","bandit","168","487715","0.0-130.0-0.0","94580299","wem/bandit_single","AIPHJXQEDNW9L","gain","6","","74","J","1","","0","0","1","0.4745032584","","false","93","0.4344757896","","main_expt","0.4745032584","","0.1991535532","","0.4354989634","","","","","","",""
"87","","bandit","169","489568","0.0-131.0-0.0","94580299","wem/bandit_single","AIPHJXQEDNW9L","gain","6","","74","J","1","","1","0","0","0.4713826624","","false","94","0.4540573516","","main_expt","0.4713826624","","0.2072674268","","0.4569950804","","","","","","",""
"92","","bandit","170","491444","0.0-132.0-0.0","94580299","wem/bandit_single","AIPHJXQEDNW9L","gain","6","","74","J","1","","1","0","0","0.4518091014","","false","95","0.467393544","","main_expt","0.4518091014","","0.2139910976","","0.4626037768","","","","","","",""
"82","","bandit","171","493305","0.0-133.0-0.0","94580299","wem/bandit_single","AIPHJXQEDNW9L","gain","6","","74","J","1","","1","0","0","0.4610288074","","false","96","0.4523779492","","main_expt","0.4610288074","","0.1714021876","","0.4632162831","","","","","","",""
"106","","bandit","172","495182","0.0-134.0-0.0","94580299","wem/bandit_single","AIPHJXQEDNW9L","gain","6","","74","J","1","","0","0","1","0.4610411697","","false","97","0.4734298584","","main_expt","0.4610411697","","0.1776734449","","0.4574348148","","","","","","",""
"37","","bandit","173","497003","0.0-135.0-0.0","94580299","wem/bandit_single","AIPHJXQEDNW9L","gain","6","","74","J","1","","1","0","0","0.4658458747","","false","98","0.4822123269","","main_expt","0.4658458747","","0.2143852757","","0.4551488225","","","","","","",""
"74","","bandit","174","498848","0.0-136.0-0.0","94580299","wem/bandit_single","AIPHJXQEDNW9L","gain","6","","74","J","1","","0","0","1","0.4372748216","","false","99","0.4829706494","","main_expt","0.4372748216","","0.2341872784","","0.4604873832","","","","","","",""
"437","","bandit","175","501054","0.0-137.0-0.0","94580299","wem/bandit_single","AIPHJXQEDNW9L","gain","6","","74","J","1","","0","0","1","0.4237986198","","false","100","0.4918551361","","main_expt","0.4237986198","","0.2835639283","","0.4364445071","","","","","","",""
"1946","","bandit","176","504770","0.0-138.0-0.0","94580299","wem/bandit_single","AIPHJXQEDNW9L","gain","6","","74","J","1","","1","0","0","0.4239408107","","false","101","0.4891782125","","main_expt","0.4239408107","","0.3342764243","","0.4152010141","","","","","","",""
"81","","bandit","177","506630","0.0-139.0-0.0","94580299","wem/bandit_single","AIPHJXQEDNW9L","gain","6","","74","J","1","","1","0","0","0.4482877494","","false","102","0.484620563","","main_expt","0.4482877494","","0.3693598309","","0.4463558977","","","","","","",""
"75","","bandit","178","508470","0.0-140.0-0.0","94580299","wem/bandit_single","AIPHJXQEDNW9L","gain","6","","74","J","1","","0","0","1","0.4319618448","","false","103","0.4880888492","","main_expt","0.4319618448","","0.3465782007","","0.4519222506","","","","","","",""
"189","","bandit","179","510432","0.0-141.0-0.0","94580299","wem/bandit_single","AIPHJXQEDNW9L","gain","6","","74","J","1","","1","0","0","0.3989131432","","false","104","0.4862983338","","main_expt","0.3989131432","","0.356437927","","0.44950272","","","","","","",""
"131","","bandit","180","512340","0.0-142.0-0.0","94580299","wem/bandit_single","AIPHJXQEDNW9L","gain","6","","74","J","1","","0","0","1","0.3718051273","","false","105","0.4761426531","","main_expt","0.3718051273","","0.349556789","","0.4631277203","","","","","","",""
"7","","bandit","181","514113","0.0-143.0-0.0","94580299","wem/bandit_single","AIPHJXQEDNW9L","gain","6","","74","J","1","","0","0","1","0.3820213715","","false","106","0.4724420891","","main_expt","0.3820213715","","0.3368343046","","0.4761070442","","","","","","",""
"112","","bandit","182","515991","0.0-144.0-0.0","94580299","wem/bandit_single","AIPHJXQEDNW9L","gain","6","","74","J","1","","0","0","1","0.3903902173","","false","107","0.4544285192","","main_expt","0.3903902173","","0.3492990444","","0.4574049266","","","","","","",""
"50","","bandit","183","517816","0.0-145.0-0.0","94580299","wem/bandit_single","AIPHJXQEDNW9L","gain","6","","76","L","3","","1","0","0","0.4342229458","","false","108","0.4489506099","","main_expt","0.424383047","","0.3657086014","","0.4342229458","","","","","","",""
"65","","bandit","184","519646","0.0-146.0-0.0","94580299","wem/bandit_single","AIPHJXQEDNW9L","gain","6","","76","L","3","","0","0","1","0.4437976733","","false","109","0.4357570441","","main_expt","0.3732822228","","0.3473329542","","0.4437976733","","","","","","",""
"90","","bandit","185","521501","0.0-147.0-0.0","94580299","wem/bandit_single","AIPHJXQEDNW9L","gain","6","","76","L","3","","1","0","0","0.4131704669","","false","110","0.4243789051","","main_expt","0.3545846445","","0.3937482981","","0.4131704669","","","","","","",""
"102","","bandit","186","523376","0.0-148.0-0.0","94580299","wem/bandit_single","AIPHJXQEDNW9L","gain","6","","76","L","3","","1","0","0","0.3849612216","","false","111","0.4235572131","","main_expt","0.2861948885","","0.4067223002","","0.3849612216","","","","","","",""
"162","","bandit","187","525300","0.0-149.0-0.0","94580299","wem/bandit_single","AIPHJXQEDNW9L","gain","6","","76","L","3","","1","0","0","0.4197473064","","false","112","0.4216330179","","main_expt","0.3148935151","","0.3791461054","","0.4197473064","","","","","","",""
"112","","bandit","188","527202","0.0-150.0-0.0","94580299","wem/bandit_single","AIPHJXQEDNW9L","gain","6","","76","L","3","","1","0","0","0.4477672952","","false","113","0.3981229654","","main_expt","0.310891148","","0.3697872407","","0.4477672952","","","","","","",""
"56","","bandit","189","529013","0.0-151.0-0.0","94580299","wem/bandit_single","AIPHJXQEDNW9L","gain","6","","76","L","3","","0","0","1","0.4347577032","","false","114","0.4051483532","","main_expt","0.3312817134","","0.3542284497","","0.4347577032","","","","","","",""
"24","","bandit","190","530816","0.0-152.0-0.0","94580299","wem/bandit_single","AIPHJXQEDNW9L","gain","6","","76","L","3","","0","0","1","0.4123529648","","false","115","0.3664587937","","main_expt","0.3328181623","","0.3424252445","","0.4123529648","","","","","","",""
"36","","bandit","191","532635","0.0-153.0-0.0","94580299","wem/bandit_single","AIPHJXQEDNW9L","gain","6","","76","L","3","","0","0","1","0.4374051313","","false","116","0.3815824605","","main_expt","0.282168926","","0.3364913945","","0.4374051313","","","","","","",""
"133","","bandit","192","534536","0.0-154.0-0.0","94580299","wem/bandit_single","AIPHJXQEDNW9L","gain","6","","76","L","3","","0","0","1","0.4336999329","","false","117","0.3718524962","","main_expt","0.3282440564","","0.3607093693","","0.4336999329","","","","","","",""
"88","","bandit","193","536382","0.0-155.0-0.0","94580299","wem/bandit_single","AIPHJXQEDNW9L","gain","6","","76","L","3","","0","0","1","0.4609057125","","false","118","0.3228128462","","main_expt","0.3735758205","","0.3651530194","","0.4609057125","","","","","","",""
"403","","bandit","194","538552","0.0-156.0-0.0","94580299","wem/bandit_single","AIPHJXQEDNW9L","gain","6","","74","J","1","","0","0","1","0.4085136599","","false","119","0.3303119184","","main_expt","0.4085136599","","0.391691743","","0.4644995027","","","","","","",""
"31","","bandit","195","540351","0.0-157.0-0.0","94580299","wem/bandit_single","AIPHJXQEDNW9L","gain","6","","74","J","1","","0","0","1","0.4152109264","","false","120","0.3566896217","","main_expt","0.4152109264","","0.3892352466","","0.4699288035","","","","","","",""
"44","","bandit","196","542167","0.0-158.0-0.0","94580299","wem/bandit_single","AIPHJXQEDNW9L","gain","6","","74","J","1","","1","0","0","0.4362055741","","false","121","0.3938610898","","main_expt","0.4362055741","","0.4119078466","","0.48416914","","","","","","",""
"50","","bandit","197","543986","0.0-159.0-0.0","94580299","wem/bandit_single","AIPHJXQEDNW9L","gain","6","","74","J","1","","1","0","0","0.4381361327","","false","122","0.3846692282","","main_expt","0.4381361327","","0.3864510994","","0.4744752566","","","","","","",""
"56","","bandit","198","545813","0.0-160.0-0.0","94580299","wem/bandit_single","AIPHJXQEDNW9L","gain","6","","74","J","1","","1","0","0","0.4266523018","","false","123","0.3479888462","","main_expt","0.4266523018","","0.3206095238","","0.4770694964","","","","","","",""
"1165","","bandit","199","548755","0.0-161.0-0.0","94580299","wem/bandit_single","AIPHJXQEDNW9L","gain","6","","74","J","1","","0","0","1","0.3976500929","","false","124","0.3446564944","","main_expt","0.3976500929","","0.3004639257","","0.4882663864","","","","","","",""
"263","","bandit","200","550799","0.0-162.0-0.0","94580299","wem/bandit_single","AIPHJXQEDNW9L","gain","6","","74","J","1","","0","0","1","0.4004048686","","false","125","0.3742116014","","main_expt","0.4004048686","","0.2718713493","","0.4867438878","","","","","","",""
"70","","bandit","201","552629","0.0-163.0-0.0","94580299","wem/bandit_single","AIPHJXQEDNW9L","gain","6","","76","L","3","","0","0","1","0.4859509926","","false","126","0.3522130289","","main_expt","0.3978852423","","0.312825386","","0.4859509926","","","","","","",""
"45","","bandit","202","554444","0.0-164.0-0.0","94580299","wem/bandit_single","AIPHJXQEDNW9L","gain","6","","76","L","3","","0","0","1","0.4910312391","","false","127","0.4136983804","","main_expt","0.4164913371","","0.2929193121","","0.4910312391","","","","","","",""
"0","","bandit","203","556217","0.0-165.0-0.0","94580299","wem/bandit_single","AIPHJXQEDNW9L","gain","6","","75","K","2","","0","0","1","0.3483635392","","false","128","0.3740150402","","main_expt","0.4273270633","","0.3483635392","","0.4916106826","","","","","","",""
"90","","bandit","204","558081","0.0-166.0-0.0","94580299","wem/bandit_single","AIPHJXQEDNW9L","gain","6","","75","K","2","","0","0","1","0.3180783589","","false","129","0.3561584853","","main_expt","0.4403517336","","0.3180783589","","0.4774596984","","","","","","",""
"59","","bandit","205","559914","0.0-167.0-0.0","94580299","wem/bandit_single","AIPHJXQEDNW9L","gain","6","","75","K","2","","1","0","0","0.332672873","","false","130","0.3781611856","","main_expt","0.436469863","","0.332672873","","0.4792113904","","","","","","",""
"69","","bandit","206","561753","0.0-168.0-0.0","94580299","wem/bandit_single","AIPHJXQEDNW9L","gain","6","","75","K","2","","1","0","0","0.3172252399","","false","131","0.3972118802","","main_expt","0.467157068","","0.3172252399","","0.4761250173","","","","","","",""
"112","","bandit","207","563644","0.0-169.0-0.0","94580299","wem/bandit_single","AIPHJXQEDNW9L","gain","6","","75","K","2","","0","0","1","0.2808852702","","false","132","0.3951630556","","main_expt","0.4747764211","","0.2808852702","","0.4782449011","","","","","","",""
"181","","bandit","208","565598","0.0-170.0-0.0","94580299","wem/bandit_single","AIPHJXQEDNW9L","gain","6","","75","K","2","","0","0","1","0.2846237695","","false","133","0.3918056992","","main_expt","0.4662147581","","0.2846237695","","0.4789501527","","","","","","",""
"57","","bandit","209","567446","0.0-171.0-0.0","94580299","wem/bandit_single","AIPHJXQEDNW9L","gain","6","","72","H","0","img/none_selected.jpg","1","0","0","0.395342783","","false","134","0.395342783","","main_expt","0.4711951182","","0.3115497245","","0.4821877595","","","","","","",""
"100","","bandit","210","569322","0.0-172.0-0.0","94580299","wem/bandit_single","AIPHJXQEDNW9L","gain","6","","72","H","0","img/none_selected.jpg","0","0","1","0.3867762939","","false","135","0.3867762939","","main_expt","0.4540730246","","0.3413582918","","0.4863767518","","","","","","",""
"106","","bandit","211","571204","0.0-173.0-0.0","94580299","wem/bandit_single","AIPHJXQEDNW9L","gain","6","","72","H","0","img/none_selected.jpg","0","0","1","0.3929594686","","false","136","0.3929594686","","main_expt","0.4412688847","","0.316763081","","0.4887786445","","","","","","",""
"263","","bandit","212","573229","0.0-174.0-0.0","94580299","wem/bandit_single","AIPHJXQEDNW9L","gain","6","","72","H","0","img/none_selected.jpg","0","0","1","0.3067223256","","false","137","0.3067223256","","main_expt","0.4585130214","","0.2585559296","","0.4896902137","","","","","","",""
"358","","bandit","213","575364","0.0-175.0-0.0","94580299","wem/bandit_single","AIPHJXQEDNW9L","gain","6","","74","J","1","","0","0","1","0.4413786145","","false","138","0.3444805877","","main_expt","0.4413786145","","0.2320291273","","0.4754525561","","","","","","",""
"236","","bandit","214","577375","0.0-176.0-0.0","94580299","wem/bandit_single","AIPHJXQEDNW9L","gain","6","","74","J","1","","1","0","0","0.4235974169","","false","139","0.4025185773","","main_expt","0.4235974169","","0.2705305451","","0.4525902595","","","","","","",""
"459","","bandit","215","579597","0.0-177.0-0.0","94580299","wem/bandit_single","AIPHJXQEDNW9L","gain","6","","74","J","1","","0","0","1","0.3993595144","","false","140","0.4000290511","","main_expt","0.3993595144","","0.2115164241","","0.474141966","","","","","","",""
"64","","bandit","216","581449","0.0-178.0-0.0","94580299","wem/bandit_single","AIPHJXQEDNW9L","gain","6","","74","J","1","","0","0","1","0.3845482665","","false","141","0.4052231698","","main_expt","0.3845482665","","0.2166269704","","0.4642583801","","","","","","",""
"70","","bandit","217","583281","0.0-179.0-0.0","94580299","wem/bandit_single","AIPHJXQEDNW9L","gain","6","","76","L","3","","1","0","0","0.4713728632","","false","142","0.3881257509","","main_expt","0.3636407915","","0.2477117994","","0.4713728632","","","","","","",""
"609","","bandit","218","585659","0.0-180.0-0.0","94580299","wem/bandit_single","AIPHJXQEDNW9L","gain","6","","76","L","3","","0","0","1","0.4714731714","","false","143","0.4101759482","","main_expt","0.3360879677","","0.2347168821","","0.4714731714","","","","","","",""
"337","","bandit","219","587767","0.0-181.0-0.0","94580299","wem/bandit_single","AIPHJXQEDNW9L","gain","6","","76","L","3","","0","0","1","0.4777196865","","false","144","0.4100488723","","main_expt","0.2886719504","","0.190213181","","0.4777196865","","","","","","",""
"1102","","bandit","220","590636","0.0-182.0-0.0","94580299","wem/bandit_single","AIPHJXQEDNW9L","gain","6","","76","L","3","","0","0","1","0.467438704","","false","145","0.4294240464","","main_expt","0.2607344777","","0.2873677543","","0.467438704","","","","","","",""
"318","","bandit","221","592713","0.0-183.0-0.0","94580299","wem/bandit_single","AIPHJXQEDNW9L","gain","6","","76","L","3","","0","0","1","0.4764572222","","false","146","0.4447984025","","main_expt","0.261523257","","0.3434581746","","0.4764572222","","","","","","",""
"242","","bandit","222","594737","0.0-184.0-0.0","94580299","wem/bandit_single","AIPHJXQEDNW9L","gain","6","","75","K","2","","0","0","1","0.3677167414","","false","147","0.4339083406","","main_expt","0.2768268543","","0.3677167414","","0.4670163239","","","","","","",""
"379","","bandit","223","596890","0.0-185.0-0.0","94580299","wem/bandit_single","AIPHJXQEDNW9L","gain","6","","74","J","1","","0","0","1","0.2822793125","","false","148","0.4200875786","","main_expt","0.2822793125","","0.378672096","","0.4762727371","","","","","","",""
"53","","bandit","224","598737","0.0-186.0-0.0","94580299","wem/bandit_single","AIPHJXQEDNW9L","gain","6","","72","H","0","img/none_selected.jpg","1","0","0","0.4370731276","","false","149","0.4370731276","","main_expt","0.3100291085","","0.3447579657","","0.4763998188","","","","","","",""
"187","","bandit","225","600705","0.0-187.0-0.0","94580299","wem/bandit_single","AIPHJXQEDNW9L","gain","6","","72","H","0","img/none_selected.jpg","0","0","1","0.4606741766","","false","150","0.4606741766","","main_expt","0.3473977335","","0.3225325285","","0.4534074178","","","","","","",""
"175","","bandit","226","602658","0.0-188.0-0.0","94580299","wem/bandit_single","AIPHJXQEDNW9L","gain","6","","72","H","0","img/none_selected.jpg","1","0","0","0.4831185644","","false","151","0.4831185644","","main_expt","0.3755194153","","0.2971371866","","0.4518750411","","","","","","",""
"32","","bandit","227","604454","0.0-189.0-0.0","94580299","wem/bandit_single","AIPHJXQEDNW9L","gain","6","","72","H","0","img/none_selected.jpg","0","0","1","0.489350082","","false","152","0.489350082","","main_expt","0.3931135366","","0.2436525959","","0.4724220712","","","","","","",""
"200","","bandit","228","606426","0.0-190.0-0.0","94580299","wem/bandit_single","AIPHJXQEDNW9L","gain","6","","75","K","2","","0","0","1","0.2745817176","","false","153","0.4874668037","","main_expt","0.3704791656","","0.2745817176","","0.4655138208","","","","","","",""
"25","","bandit","229","608213","0.0-191.0-0.0","94580299","wem/bandit_single","AIPHJXQEDNW9L","gain","6","","75","K","2","","1","0","0","0.2354012901","","false","154","0.4906252114","","main_expt","0.3918087328","","0.2354012901","","0.466892577","","","","","","",""
"54","","bandit","230","610032","0.0-192.0-0.0","94580299","wem/bandit_single","AIPHJXQEDNW9L","gain","6","","75","K","2","","0","0","1","0.2125693007","","false","155","0.4807331657","","main_expt","0.3629162862","","0.2125693007","","0.4696525674","","","","","","",""
"283","","bandit","231","612076","0.0-193.0-0.0","94580299","wem/bandit_single","AIPHJXQEDNW9L","gain","6","","75","K","2","","1","0","0","0.2344806361","","false","156","0.4886913858","","main_expt","0.3329402669","","0.2344806361","","0.4798639378","","","","","","",""
"60","","bandit","232","613903","0.0-194.0-0.0","94580299","wem/bandit_single","AIPHJXQEDNW9L","gain","6","","75","K","2","","0","0","1","0.1314384861","","false","157","0.4791259403","","main_expt","0.2681960896","","0.1314384861","","0.4706110477","","","","","","",""
"69","","bandit","233","615741","0.0-195.0-0.0","94580299","wem/bandit_single","AIPHJXQEDNW9L","gain","6","","75","K","2","","0","0","1","0.181857365","","false","158","0.4733263956","","main_expt","0.2540197996","","0.181857365","","0.4469873257","","","","","","",""
"62","","bandit","234","617565","0.0-196.0-0.0","94580299","wem/bandit_single","AIPHJXQEDNW9L","gain","6","","74","J","1","","1","0","0","0.2609952623","","false","159","0.4815819336","","main_expt","0.2609952623","","0.158015958","","0.4239904196","","","","","","",""
"379","","bandit","235","619705","0.0-197.0-0.0","94580299","wem/bandit_single","AIPHJXQEDNW9L","gain","6","","74","J","1","","0","0","1","0.2023108268","","false","160","0.4721468952","","main_expt","0.2023108268","","0.141078422","","0.4459131135","","","","","","",""
"21","","bandit","236","621502","0.0-198.0-0.0","94580299","wem/bandit_single","AIPHJXQEDNW9L","gain","6","","74","J","1","","0","0","1","0.2500661268","","false","161","0.4711146003","","main_expt","0.2500661268","","0.1347361735","","0.4186734055","","","","","","",""
"11","","bandit","237","623271","0.0-199.0-0.0","94580299","wem/bandit_single","AIPHJXQEDNW9L","gain","6","","74","J","1","","1","0","0","0.2540596089","","false","162","0.4712261849","","main_expt","0.2540596089","","0.09535719087","","0.3857154427","","","","","","",""
"236","","bandit","238","625284","0.0-200.0-0.0","94580299","wem/bandit_single","AIPHJXQEDNW9L","gain","6","","74","J","1","","0","0","1","0.2601053227","","false","163","0.4845321786","","main_expt","0.2601053227","","0.08326456225","","0.4174701589","","","","","","",""
"99","","bandit","239","627161","0.0-201.0-0.0","94580299","wem/bandit_single","AIPHJXQEDNW9L","gain","6","","74","J","1","","1","0","0","0.2541421927","","false","164","0.4759389929","","main_expt","0.2541421927","","0.09053498257","","0.3890878976","","","","","","",""
"155","","bandit","240","629078","0.0-202.0-0.0","94580299","wem/bandit_single","AIPHJXQEDNW9L","gain","6","","74","J","1","","0","0","1","0.2481661974","","false","165","0.4720948066","","main_expt","0.2481661974","","0.08506048778","","0.4138915172","","","","","","",""
"54","","bandit","241","630921","0.0-203.0-0.0","94580299","wem/bandit_single","AIPHJXQEDNW9L","gain","6","","74","J","1","","1","0","0","0.2774316831","","false","166","0.4785392204","","main_expt","0.2774316831","","0.1313511463","","0.3965001983","","","","","","",""
"970","","bandit","242","633657","0.0-204.0-0.0","94580299","wem/bandit_single","AIPHJXQEDNW9L","gain","6","","74","J","1","","0","0","1","0.2487678046","","false","167","0.4807372421","","main_expt","0.2487678046","","0.1176964862","","0.3565429409","","","","","","",""
"104","","bandit","243","635548","0.0-205.0-0.0","94580299","wem/bandit_single","AIPHJXQEDNW9L","gain","6","","74","J","1","","1","0","0","0.3058486258","","false","168","0.4679921472","","main_expt","0.3058486258","","0.08442850793","","0.3697134737","","","","","","",""
"244","","bandit","244","637564","0.0-206.0-0.0","94580299","wem/bandit_single","AIPHJXQEDNW9L","gain","6","","74","J","1","","1","0","0","0.3196595105","","false","169","0.4504326489","","main_expt","0.3196595105","","0.08508452716","","0.3754926497","","","","","","",""
"300","","bandit","245","639643","0.0-207.0-0.0","94580299","wem/bandit_single","AIPHJXQEDNW9L","gain","6","","74","J","1","","0","0","1","0.2675331271","","false","170","0.4575738232","","main_expt","0.2675331271","","0.06647736925","","0.3688606114","","","","","","",""
"184","","bandit","246","641610","0.0-208.0-0.0","94580299","wem/bandit_single","AIPHJXQEDNW9L","gain","6","","74","J","1","","0","0","1","0.2898788388","","false","171","0.4515033555","","main_expt","0.2898788388","","0.05048422731","","0.3548436987","","","","","","",""
"1394","","bandit","247","644769","0.0-209.0-0.0","94580299","wem/bandit_single","AIPHJXQEDNW9L","gain","6","","74","J","1","","0","0","1","0.3066863737","","false","172","0.4804896953","","main_expt","0.3066863737","","0.05782489063","","0.3789739593","","","","","","",""
"407","","bandit","248","646947","0.0-210.0-0.0","94580299","wem/bandit_single","AIPHJXQEDNW9L","gain","6","","76","L","3","","1","0","0","0.361488512","","false","173","0.4915792717","","main_expt","0.2694007619","","0.05297704283","","0.361488512","","","","","","",""
"727","","bandit","249","649430","0.0-211.0-0.0","94580299","wem/bandit_single","AIPHJXQEDNW9L","gain","6","","76","L","3","","1","0","0","0.3460135238","","false","174","0.4861742571","","main_expt","0.2754062015","","0.05353397103","","0.3460135238","","","","","","",""
"249","","bandit","250","651448","0.0-212.0-0.0","94580299","wem/bandit_single","AIPHJXQEDNW9L","gain","6","","76","L","3","","0","0","1","0.3522158256","","false","175","0.4817940596","","main_expt","0.296446081","","0.03778759003","","0.3522158256","","","","","","",""
"808","","bandit","251","654018","0.0-213.0-0.0","94580299","wem/bandit_single","AIPHJXQEDNW9L","gain","6","","76","L","3","","0","0","1","0.2998164985","","false","176","0.4757066075","","main_expt","0.3058710094","","0.02527008277","","0.2998164985","","","","","","",""
"745","","bandit","252","656518","0.0-214.0-0.0","94580299","wem/bandit_single","AIPHJXQEDNW9L","gain","6","","76","L","3","","1","0","0","0.2523084086","","false","177","0.4781570811","","main_expt","0.2349503117","","0.03305249037","","0.2523084086","","","","","","",""
"413","","bandit","253","658688","0.0-215.0-0.0","94580299","wem/bandit_single","AIPHJXQEDNW9L","gain","6","","76","L","3","","0","0","1","0.304071788","","false","178","0.4800614517","","main_expt","0.2619038699","","0.03386287722","","0.304071788","","","","","","",""
"126","","bandit","254","660609","0.0-216.0-0.0","94580299","wem/bandit_single","AIPHJXQEDNW9L","gain","6","","76","L","3","","0","0","1","0.2871062198","","false","179","0.4829502963","","main_expt","0.2830684205","","0.04065763291","","0.2871062198","","","","","","",""
"305","","bandit","255","662688","0.0-217.0-0.0","94580299","wem/bandit_single","AIPHJXQEDNW9L","gain","6","","74","J","1","","0","0","1","0.3534450431","","false","180","0.4858173281","","main_expt","0.3534450431","","0.05743716857","","0.2266659288","","","","","","",""
"398","","bandit","256","664863","0.0-218.0-0.0","94580299","wem/bandit_single","AIPHJXQEDNW9L","gain","6","","74","J","1","","1","0","0","0.3212605574","","false","181","0.4744777914","","main_expt","0.3212605574","","0.04418568229","","0.221928096","","","","","","",""
"187","","bandit","257","666842","0.0-219.0-0.0","94580299","wem/bandit_single","AIPHJXQEDNW9L","gain","6","","74","J","1","","1","0","0","0.3315430587","","false","182","0.4845259409","","main_expt","0.3315430587","","0.08176319179","","0.2300829386","","","","","","",""
"257","","bandit","258","668873","0.0-220.0-0.0","94580299","wem/bandit_single","AIPHJXQEDNW9L","gain","6","","74","J","1","","1","0","0","0.3284942609","","false","183","0.481953826","","main_expt","0.3284942609","","0.127405614","","0.236046558","","","","","","",""
"110","","bandit","259","670780","0.0-221.0-0.0","94580299","wem/bandit_single","AIPHJXQEDNW9L","gain","6","","74","J","1","","0","0","1","0.3122619856","","false","184","0.4855041368","","main_expt","0.3122619856","","0.08615736955","","0.2923178249","","","","","","",""
"227","","bandit","260","672779","0.0-222.0-0.0","94580299","wem/bandit_single","AIPHJXQEDNW9L","gain","6","","74","J","1","","1","0","0","0.2923416166","","false","185","0.4698046591","","main_expt","0.2923416166","","0.1184297318","","0.2808840613","","","","","","",""
"99","","bandit","261","674656","0.0-223.0-0.0","94580299","wem/bandit_single","AIPHJXQEDNW9L","gain","6","","74","J","1","","0","0","1","0.2743414945","","false","186","0.4595088788","","main_expt","0.2743414945","","0.1909222977","","0.2016881086","","","","","","",""
"41","","bandit","262","676462","0.0-224.0-0.0","94580299","wem/bandit_single","AIPHJXQEDNW9L","gain","6","","74","J","1","","1","0","0","0.3313242874","","false","187","0.4646501277","","main_expt","0.3313242874","","0.156943311","","0.2403842116","","","","","","",""
"248","","bandit","263","678471","0.0-225.0-0.0","94580299","wem/bandit_single","AIPHJXQEDNW9L","gain","6","","74","J","1","","0","0","1","0.3665806697","","false","188","0.4587354039","","main_expt","0.3665806697","","0.139104156","","0.2559443775","","","","","","",""
"133","","bandit","264","680391","0.0-226.0-0.0","94580299","wem/bandit_single","AIPHJXQEDNW9L","gain","6","","74","J","1","","0","0","1","0.3982105691","","false","189","0.4433819168","","main_expt","0.3982105691","","0.1984961232","","0.2450962267","","","","","","",""
"17","","bandit","265","682176","0.0-227.0-0.0","94580299","wem/bandit_single","AIPHJXQEDNW9L","gain","6","","76","L","3","","0","0","1","0.2520413598","","false","190","0.441597313","","main_expt","0.4063069195","","0.3152507924","","0.2520413598","","","","","","",""
"140","","bandit","266","684077","0.0-228.0-0.0","94580299","wem/bandit_single","AIPHJXQEDNW9L","gain","6","","76","L","3","","1","0","0","0.3069822625","","false","191","0.4447050695","","main_expt","0.4073058099","","0.34868685","","0.3069822625","","","","","","",""
"576","","bandit","267","686423","0.0-229.0-0.0","94580299","wem/bandit_single","AIPHJXQEDNW9L","gain","6","","76","L","3","","0","0","1","0.269658105","","false","192","0.3903647542","","main_expt","0.3597632315","","0.3244392246","","0.269658105","","","","","","",""
"250","","bandit","268","688453","0.0-230.0-0.0","94580299","wem/bandit_single","AIPHJXQEDNW9L","gain","6","","76","L","3","","0","0","1","0.2337652902","","false","193","0.37796371","","main_expt","0.3512918873","","0.3077199203","","0.2337652902","","","","","","",""
"2","","bandit","269","690243","0.0-231.0-0.0","94580299","wem/bandit_single","AIPHJXQEDNW9L","gain","6","","75","K","2","","0","0","1","0.3089314305","","false","194","0.4130200877","","main_expt","0.2959519196","","0.3089314305","","0.232364398","","","","","","",""
"32","","bandit","270","692044","0.0-232.0-0.0","94580299","wem/bandit_single","AIPHJXQEDNW9L","gain","6","","74","J","1","","1","0","0","0.335494982","","false","195","0.4247195967","","main_expt","0.335494982","","0.2747286701","","0.3001816851","","","","","","",""
"80","","bandit","271","693903","0.0-233.0-0.0","94580299","wem/bandit_single","AIPHJXQEDNW9L","gain","6","","74","J","1","","1","0","0","0.349715921","","false","196","0.4243543636","","main_expt","0.349715921","","0.234477082","","0.3408234979","","","","","","",""
"167","","bandit","272","695856","0.0-234.0-0.0","94580299","wem/bandit_single","AIPHJXQEDNW9L","gain","6","","74","J","1","","0","0","1","0.301359959","","false","197","0.3856928417","","main_expt","0.301359959","","0.2134381397","","0.3048500693","","","","","","",""
"785","","bandit","273","698423","0.0-235.0-0.0","94580299","wem/bandit_single","AIPHJXQEDNW9L","gain","6","","74","J","1","","0","0","1","0.2948231879","","false","198","0.3619593125","","main_expt","0.2948231879","","0.1732682886","","0.320222978","","","","","","",""
"315","","bandit","274","700530","0.0-236.0-0.0","94580299","wem/bandit_single","AIPHJXQEDNW9L","gain","6","","74","J","1","","0","0","1","0.2739130918","","false","199","0.367752629","","main_expt","0.2739130918","","0.1702760897","","0.3267381451","","","","","","",""
"703","","bandit","275","703014","0.0-237.0-0.0","94580299","wem/bandit_single","AIPHJXQEDNW9L","gain","6","","72","H","0","img/none_selected.jpg","0","0","1","0.3243939248","","false","200","0.3243939248","","main_expt","0.2519174554","","0.1149890083","","0.3471124056","","","","","","",""
"43","","bandit","276","704826","0.0-238.0-0.0","94580299","wem/bandit_single","AIPHJXQEDNW9L","gain","6","","72","H","0","img/none_selected.jpg","0","0","1","0.309205964","","false","201","0.309205964","","main_expt","0.2607800984","","0.1378425817","","0.377370495","","","","","","",""
"345","","bandit","277","706934","0.0-239.0-0.0","94580299","wem/bandit_single","AIPHJXQEDNW9L","gain","6","","76","L","3","","1","0","0","0.4118986778","","false","202","0.2762714965","","main_expt","0.2144757733","","0.1351165101","","0.4118986778","","","","","","",""
"367","","bandit","278","709073","0.0-240.0-0.0","94580299","wem/bandit_single","AIPHJXQEDNW9L","gain","6","","76","L","3","","0","0","1","0.4232074982","","false","203","0.296808735","","main_expt","0.3006883459","","0.105254576","","0.4232074982","","","","","","",""
"76","","bandit","279","710923","0.0-241.0-0.0","94580299","wem/bandit_single","AIPHJXQEDNW9L","gain","6","","76","L","3","","0","0","1","0.422672589","","false","204","0.3198559136","","main_expt","0.3059688055","","0.09939331469","","0.422672589","","","","","","",""
"176","","bandit","280","712872","0.0-242.0-0.0","94580299","wem/bandit_single","AIPHJXQEDNW9L","gain","6","","76","L","3","","1","0","0","0.4290364806","","false","205","0.3814451683","","main_expt","0.2810212056","","0.1099723927","","0.4290364806","","","","","","",""
"936","","bandit","281","715577","0.0-243.0-0.0","94580299","wem/bandit_single","AIPHJXQEDNW9L","gain","6","","76","L","3","","1","0","0","0.4412489094","","false","206","0.3836436308","","main_expt","0.2427537705","","0.1203356594","","0.4412489094","","","","","","",""
"550","","bandit","282","717903","0.0-244.0-0.0","94580299","wem/bandit_single","AIPHJXQEDNW9L","gain","6","","76","L","3","","0","0","1","0.461161346","","false","207","0.3943212714","","main_expt","0.2312113295","","0.1887874267","","0.461161346","","","","","","",""
"472","","bandit","283","720152","0.0-245.0-0.0","94580299","wem/bandit_single","AIPHJXQEDNW9L","gain","6","","76","L","3","","0","0","1","0.4749000037","","false","208","0.4100076043","","main_expt","0.2502246517","","0.1570662604","","0.4749000037","","","","","","",""
"164","","bandit","284","722078","0.0-246.0-0.0","94580299","wem/bandit_single","AIPHJXQEDNW9L","gain","6","","76","L","3","","1","0","0","0.4677638209","","false","209","0.4207901851","","main_expt","0.2378747501","","0.2050570797","","0.4677638209","","","","","","",""
"121","","bandit","285","723975","0.0-247.0-0.0","94580299","wem/bandit_single","AIPHJXQEDNW9L","gain","6","","76","L","3","","1","0","0","0.4507398287","","false","210","0.4261573075","","main_expt","0.2323826376","","0.1803355731","","0.4507398287","","","","","","",""
"86","","bandit","286","725840","0.0-248.0-0.0","94580299","wem/bandit_single","AIPHJXQEDNW9L","gain","6","","76","L","3","","1","0","0","0.4275102647","","false","211","0.3677002177","","main_expt","0.2346446126","","0.2066302241","","0.4275102647","","","","","","",""
"347","","bandit","287","727953","0.0-249.0-0.0","94580299","wem/bandit_single","AIPHJXQEDNW9L","gain","6","","76","L","3","","1","0","0","0.4147803006","","false","212","0.4030871251","","main_expt","0.2017096022","","0.2190460355","","0.4147803006","","","","","","",""
"551","","bandit","288","730284","0.0-250.0-0.0","94580299","wem/bandit_single","AIPHJXQEDNW9L","gain","6","","76","L","3","","0","0","1","0.4119553225","","false","213","0.3616850983","","main_expt","0.2149770465","","0.2433731683","","0.4119553225","","","","","","",""
"89","","bandit","289","732151","0.0-251.0-0.0","94580299","wem/bandit_single","AIPHJXQEDNW9L","gain","6","","74","J","1","","0","0","1","0.2323699387","","false","214","0.3380837625","","main_expt","0.2323699387","","0.2355486522","","0.4097086646","","","","","","",""
"63","","bandit","290","733995","0.0-252.0-0.0","94580299","wem/bandit_single","AIPHJXQEDNW9L","gain","6","","74","J","1","","0","0","1","0.1880023584","","false","215","0.3788103814","","main_expt","0.1880023584","","0.2493822419","","0.4553079268","","","","","","",""
"343","","bandit","291","736101","0.0-253.0-0.0","94580299","wem/bandit_single","AIPHJXQEDNW9L","gain","6","","76","L","3","","0","0","1","0.4360341733","","false","216","0.3844600678","","main_expt","0.2305078945","","0.2455091026","","0.4360341733","","","","","","",""
"89","","bandit","292","737978","0.0-254.0-0.0","94580299","wem/bandit_single","AIPHJXQEDNW9L","gain","6","","75","K","2","","0","0","1","0.193913996","","false","217","0.3747540642","","main_expt","0.2042922501","","0.193913996","","0.4337093526","","","","","","",""
"344","","bandit","293","740077","0.0-255.0-0.0","94580299","wem/bandit_single","AIPHJXQEDNW9L","gain","6","","72","H","0","img/none_selected.jpg","1","0","0","0.373903774","","false","218","0.373903774","","main_expt","0.1827914188","","0.2375794361","","0.4646024675","","","","","","",""
"314","","bandit","294","742166","0.0-256.0-0.0","94580299","wem/bandit_single","AIPHJXQEDNW9L","gain","6","","72","H","0","img/none_selected.jpg","1","0","0","0.3735380413","","false","219","0.3735380413","","main_expt","0.2630445196","","0.2477723709","","0.4630893692","","","","","","",""
"222","","bandit","295","744177","0.0-257.0-0.0","94580299","wem/bandit_single","AIPHJXQEDNW9L","gain","6","","72","H","0","img/none_selected.jpg","0","0","1","0.383917491","","false","220","0.383917491","","main_expt","0.311946342","","0.2543503475","","0.4683356487","","","","","","",""
"78","","bandit","296","746025","0.0-258.0-0.0","94580299","wem/bandit_single","AIPHJXQEDNW9L","gain","6","","72","H","0","img/none_selected.jpg","0","0","1","0.3479973737","","false","221","0.3479973737","","main_expt","0.2972788283","","0.2776519347","","0.4682635517","","","","","","",""
"44","","bandit","297","747853","0.0-259.0-0.0","94580299","wem/bandit_single","AIPHJXQEDNW9L","gain","6","","72","H","0","img/none_selected.jpg","0","0","1","0.3845595158","","false","222","0.3845595158","","main_expt","0.3550400804","","0.2291835432","","0.4771668828","","","","","","",""
"1707","","bandit","298","751330","0.0-260.0-0.0","94580299","wem/bandit_single","AIPHJXQEDNW9L","gain","6","","72","H","0","img/none_selected.jpg","0","0","1","0.368723436","","false","223","0.368723436","","main_expt","0.3246239653","","0.2266132179","","0.4773959318","","","","","","",""
"170","","bandit","299","753273","0.0-261.0-0.0","94580299","wem/bandit_single","AIPHJXQEDNW9L","gain","6","","74","J","1","","1","0","0","0.351266899","","false","224","0.3566991655","","main_expt","0.351266899","","0.2124948974","","0.4567335023","","","","","","",""
"168","","bandit","300","755213","0.0-262.0-0.0","94580299","wem/bandit_single","AIPHJXQEDNW9L","gain","6","","74","J","1","","0","0","1","0.3617362435","","false","225","0.3557331736","","main_expt","0.3617362435","","0.2168010387","","0.4545703871","","","","","","",""
"43","","bandit","301","757022","0.0-263.0-0.0","94580299","wem/bandit_single","AIPHJXQEDNW9L","gain","6","","76","L","3","","1","0","0","0.4563055184","","false","226","0.3620904828","","main_expt","0.3625162538","","0.2286352314","","0.4563055184","","","","","","",""
"276","","bandit","302","759070","0.0-264.0-0.0","94580299","wem/bandit_single","AIPHJXQEDNW9L","gain","6","","76","L","3","","1","0","0","0.4414344485","","false","227","0.3794330306","","main_expt","0.3638477037","","0.2349833204","","0.4414344485","","","","","","",""
"635","","bandit","303","761469","0.0-265.0-0.0","94580299","wem/bandit_single","AIPHJXQEDNW9L","gain","6","","76","L","3","","0","0","1","0.4509897562","","false","228","0.3480060926","","main_expt","0.321865515","","0.2376541641","","0.4509897562","","","","","","",""
"124","","bandit","304","763369","0.0-266.0-0.0","94580299","wem/bandit_single","AIPHJXQEDNW9L","gain","6","","76","L","3","","1","0","0","0.4355264455","","false","229","0.3197951212","","main_expt","0.2574970425","","0.2141250471","","0.4355264455","","","","","","",""
"1331","","bandit","305","766469","0.0-267.0-0.0","94580299","wem/bandit_single","AIPHJXQEDNW9L","gain","6","","76","L","3","","0","0","1","0.4393215817","","false","230","0.2360623461","","main_expt","0.3167366343","","0.1986478114","","0.4393215817","","","","","","",""
"124","","bandit","306","768376","0.0-268.0-0.0","94580299","wem/bandit_single","AIPHJXQEDNW9L","gain","6","","76","L","3","","0","0","1","0.426442838","","false","231","0.228441671","","main_expt","0.359889087","","0.1632677176","","0.426442838","","","","","","",""
"35","","bandit","307","770188","0.0-269.0-0.0","94580299","wem/bandit_single","AIPHJXQEDNW9L","gain","6","","74","J","1","","1","0","0","0.3765691143","","false","232","0.2233622879","","main_expt","0.3765691143","","0.1437929512","","0.4455015341","","","","","","",""
"1307","","bandit","308","773278","0.0-270.0-0.0","94580299","wem/bandit_single","AIPHJXQEDNW9L","gain","6","","74","J","1","","1","0","0","0.351320345","","false","233","0.1782647691","","main_expt","0.351320345","","0.2490618922","","0.4370113712","","","","","","",""
"747","","bandit","309","775793","0.0-271.0-0.0","94580299","wem/bandit_single","AIPHJXQEDNW9L","gain","6","","74","J","1","","0","0","1","0.2997083133","","false","234","0.1971530904","","main_expt","0.2997083133","","0.2811602772","","0.4228056097","","","","","","",""
"22","","bandit","310","777588","0.0-272.0-0.0","94580299","wem/bandit_single","AIPHJXQEDNW9L","gain","6","","76","L","3","","1","0","0","0.4176536857","","false","235","0.2109348075","","main_expt","0.3526624454","","0.332316849","","0.4176536857","","","","","","",""
"111","","bandit","311","779462","0.0-273.0-0.0","94580299","wem/bandit_single","AIPHJXQEDNW9L","gain","6","","76","L","3","","0","0","1","0.419442654","","false","236","0.1891579582","","main_expt","0.3050627859","","0.3059905229","","0.419442654","","","","","","",""
"1126","","bandit","312","782374","0.0-274.0-0.0","94580299","wem/bandit_single","AIPHJXQEDNW9L","gain","6","","76","L","3","","0","0","1","0.4082659589","","false","237","0.1278978542","","main_expt","0.312969263","","0.3058344165","","0.4082659589","","","","","","",""
"11","","bandit","313","784163","0.0-275.0-0.0","94580299","wem/bandit_single","AIPHJXQEDNW9L","gain","6","","74","J","1","","1","0","0","0.380225341","","false","238","0.1509653188","","main_expt","0.380225341","","0.2931512536","","0.4108407801","","","","","","",""
"401","","bandit","314","786335","0.0-276.0-0.0","94580299","wem/bandit_single","AIPHJXQEDNW9L","gain","6","","74","J","1","","1","0","0","0.3657076542","","false","239","0.1919733462","","main_expt","0.3657076542","","0.2922133777","","0.4378360478","","","","","","",""
"762","","bandit","315","788870","0.0-277.0-0.0","94580299","wem/bandit_single","AIPHJXQEDNW9L","gain","6","","74","J","1","","0","0","1","0.3815359164","","false","240","0.1751407906","","main_expt","0.3815359164","","0.3452033359","","0.4467030129","","","","","","",""
"100","","bandit","316","790759","0.0-278.0-0.0","94580299","wem/bandit_single","AIPHJXQEDNW9L","gain","6","","76","L","3","","1","0","0","0.4705393647","","false","241","0.1759125222","","main_expt","0.3251101936","","0.3682897549","","0.4705393647","","","","","","",""
"496","","bandit","317","793028","0.0-279.0-0.0","94580299","wem/bandit_single","AIPHJXQEDNW9L","gain","6","","76","L","3","","1","0","0","0.4610792938","","false","242","0.2137068054","","main_expt","0.3212185421","","0.3628947189","","0.4610792938","","","","","","",""
"95","","bandit","318","794915","0.0-280.0-0.0","94580299","wem/bandit_single","AIPHJXQEDNW9L","gain","6","","76","L","3","","1","0","0","0.4437729889","","false","243","0.2179170348","","main_expt","0.3270030252","","0.3766569032","","0.4437729889","","","","","","",""
"138","","bandit","319","796843","0.0-281.0-0.0","94580299","wem/bandit_single","AIPHJXQEDNW9L","gain","6","","76","L","3","","1","0","0","0.4199869792","","false","244","0.2426329099","","main_expt","0.309973419","","0.377991886","","0.4199869792","","","","","","",""
"55","","bandit","320","798682","0.0-282.0-0.0","94580299","wem/bandit_single","AIPHJXQEDNW9L","gain","6","","76","L","3","","1","0","0","0.4183767379","","false","245","0.2351694379","","main_expt","0.3342881273","","0.304751896","","0.4183767379","","","","","","",""
"468","","bandit","321","800922","0.0-283.0-0.0","94580299","wem/bandit_single","AIPHJXQEDNW9L","gain","6","","76","L","3","","0","0","1","0.4292136751","","false","246","0.2111663312","","main_expt","0.3149240913","","0.3348187262","","0.4292136751","","","","","","",""
"1007","","bandit","322","803704","0.0-284.0-0.0","94580299","wem/bandit_single","AIPHJXQEDNW9L","gain","6","","76","L","3","","0","0","1","0.4577956797","","false","247","0.1899020887","","main_expt","0.296458043","","0.3307987246","","0.4577956797","","","","","","",""
"267","","bandit","323","805751","0.0-285.0-0.0","94580299","wem/bandit_single","AIPHJXQEDNW9L","gain","6","","74","J","1","","0","0","1","0.3038576119","","false","248","0.2151484255","","main_expt","0.3038576119","","0.3774544282","","0.4586239927","","","","","","",""
"154","","bandit","324","807666","0.0-286.0-0.0","94580299","wem/bandit_single","AIPHJXQEDNW9L","gain","6","","74","J","1","","1","0","0","0.3383832125","","false","249","0.2454548658","","main_expt","0.3383832125","","0.3553688181","","0.4709187109","","","","","","",""
"717","","bandit","325","810167","0.0-287.0-0.0","94580299","wem/bandit_single","AIPHJXQEDNW9L","gain","6","","74","J","1","","0","0","1","0.3505221498","","false","250","0.1973527755","","main_expt","0.3505221498","","0.3209961504","","0.4742496359","","","","","","",""
"99","","bandit","326","812037","0.0-288.0-0.0","94580299","wem/bandit_single","AIPHJXQEDNW9L","gain","6","","74","J","1","","0","0","1","0.3439557404","","false","251","0.2459600056","","main_expt","0.3439557404","","0.2938420796","","0.4684276702","","","","","","",""
"69","","bandit","327","813898","0.0-289.0-0.0","94580299","wem/bandit_single","AIPHJXQEDNW9L","gain","6","","76","L","3","","0","0","1","0.465775704","","false","252","0.2361341643","","main_expt","0.3394881367","","0.2377141092","","0.465775704","","","","","","",""
"407","","bandit","328","816079","0.0-290.0-0.0","94580299","wem/bandit_single","AIPHJXQEDNW9L","gain","6","","72","H","0","img/none_selected.jpg","0","0","1","0.2263014677","","false","253","0.2263014677","","main_expt","0.3195186677","","0.28098189","","0.4739398589","","","","","","",""
"21","","bandit","329","817881","0.0-291.0-0.0","94580299","wem/bandit_single","AIPHJXQEDNW9L","gain","6","","75","K","2","","0","0","1","0.36168886","","false","254","0.2384195691","","main_expt","0.3607388593","","0.36168886","","0.4709597483","","","","","","",""
"44","","bandit","330","819712","0.0-292.0-0.0","94580299","wem/bandit_single","AIPHJXQEDNW9L","gain","6","","72","H","0","img/none_selected.jpg","0","0","1","0.2186709452","","false","255","0.2186709452","","main_expt","0.3801942793","","0.3196270919","","0.468651231","","","","","","",""
"183","","bandit","331","821665","0.0-293.0-0.0","94580299","wem/bandit_single","AIPHJXQEDNW9L","gain","6","","76","L","3","","1","0","0","0.4837462493","","false","256","0.1625458568","","main_expt","0.2987962353","","0.3201998045","","0.4837462493","","","","","","",""
"85","","bandit","332","823525","0.0-294.0-0.0","94580299","wem/bandit_single","AIPHJXQEDNW9L","gain","6","","76","L","3","","0","0","1","0.4842399178","","false","257","0.159361747","","main_expt","0.272571782","","0.3576002339","","0.4842399178","","","","","","",""
"36","","bandit","333","825340","0.0-295.0-0.0","94580299","wem/bandit_single","AIPHJXQEDNW9L","gain","6","","76","L","3","","0","0","1","0.4878873921","","false","258","0.1556255119","","main_expt","0.2593204486","","0.3715220428","","0.4878873921","","","","","","",""
"78","","bandit","334","827184","0.0-296.0-0.0","94580299","wem/bandit_single","AIPHJXQEDNW9L","gain","6","","74","J","1","","0","0","1","0.2951424317","","false","259","0.1256368346","","main_expt","0.2951424317","","0.3730860303","","0.4869160663","","","","","","",""
"89","","bandit","335","829053","0.0-297.0-0.0","94580299","wem/bandit_single","AIPHJXQEDNW9L","gain","6","","75","K","2","","0","0","1","0.3724964978","","false","260","0.1449854444","","main_expt","0.2369093976","","0.3724964978","","0.4912834456","","","","","","",""
"262","","bandit","336","831079","0.0-298.0-0.0","94580299","wem/bandit_single","AIPHJXQEDNW9L","gain","6","","72","H","0","img/none_selected.jpg","1","0","0","0.1647157085","","false","261","0.1647157085","","main_expt","0.2234433316","","0.3574286068","","0.4907072989","","","","","","",""
"413","","bandit","337","833285","0.0-299.0-0.0","94580299","wem/bandit_single","AIPHJXQEDNW9L","gain","6","","72","H","0","img/none_selected.jpg","0","0","1","0.1586541082","","false","262","0.1586541082","","main_expt","0.215626833","","0.4204463107","","0.4904114062","","","","","","",""
"100","","bandit","338","835156","0.0-300.0-0.0","94580299","wem/bandit_single","AIPHJXQEDNW9L","gain","6","","72","H","0","img/none_selected.jpg","0","0","1","0.1683870388","","false","263","0.1683870388","","main_expt","0.2227197798","","0.4244263348","","0.4900075499","","","","","","",""
"316","","bandit","339","837244","0.0-301.0-0.0","94580299","wem/bandit_single","AIPHJXQEDNW9L","gain","6","","76","L","3","","1","0","0","0.4922230388","","false","264","0.2205087037","","main_expt","0.2113558788","","0.4217668892","","0.4922230388","","","","","","",""
"243","","bandit","340","839275","0.0-302.0-0.0","94580299","wem/bandit_single","AIPHJXQEDNW9L","gain","6","","76","L","3","","0","0","1","0.4892111554","","false","265","0.1554736059","","main_expt","0.1814287308","","0.3908218086","","0.4892111554","","","","","","",""
"21","","bandit","341","841061","0.0-303.0-0.0","94580299","wem/bandit_single","AIPHJXQEDNW9L","gain","6","","74","J","1","","0","0","1","0.2579261203","","false","266","0.1556775797","","main_expt","0.2579261203","","0.350583855","","0.4894097466","","","","","","",""
"54","","bandit","342","842907","0.0-304.0-0.0","94580299","wem/bandit_single","AIPHJXQEDNW9L","gain","6","","74","J","1","","0","0","1","0.3033521226","","false","267","0.1732223335","","main_expt","0.3033521226","","0.2971845499","","0.4898547377","","","","","","",""
"85","","bandit","343","844758","0.0-305.0-0.0","94580299","wem/bandit_single","AIPHJXQEDNW9L","gain","6","","75","K","2","","0","0","1","0.3271935382","","false","268","0.1670192172","","main_expt","0.2697057224","","0.3271935382","","0.4960714099","","","","","","",""
"483","","bandit","344","847008","0.0-306.0-0.0","94580299","wem/bandit_single","AIPHJXQEDNW9L","gain","6","","76","L","3","","0","0","1","0.4951393121","","false","269","0.1666577124","","main_expt","0.3075876552","","0.2912245063","","0.4951393121","","","","","","",""
"192","","bandit","345","848958","0.0-307.0-0.0","94580299","wem/bandit_single","AIPHJXQEDNW9L","gain","6","","76","L","3","","0","0","1","0.4903783272","","false","270","0.1133531577","","main_expt","0.3437361696","","0.3007980493","","0.4903783272","","","","","","",""
"939","","bandit","346","851679","0.0-308.0-0.0","94580299","wem/bandit_single","AIPHJXQEDNW9L","gain","6","","76","L","3","","1","0","0","0.4932948231","","false","271","0.1453503833","","main_expt","0.2596534978","","0.3025875308","","0.4932948231","","","","","","",""
"242","","bandit","347","853679","0.0-309.0-0.0","94580299","wem/bandit_single","AIPHJXQEDNW9L","gain","6","","76","L","3","","1","0","0","0.4950636705","","false","272","0.1542373291","","main_expt","0.2680739133","","0.2608882705","","0.4950636705","","","","","","",""
"126","","bandit","348","855586","0.0-310.0-0.0","94580299","wem/bandit_single","AIPHJXQEDNW9L","gain","6","","76","L","3","","1","0","0","0.4866982898","","false","273","0.1312836042","","main_expt","0.2287209558","","0.2985246063","","0.4866982898","","","","","","",""
"799","","bandit","349","858174","0.0-311.0-0.0","94580299","wem/bandit_single","AIPHJXQEDNW9L","gain","6","","76","L","3","","1","0","0","0.4654226264","","false","274","0.1616535947","","main_expt","0.2659047846","","0.296104213","","0.4654226264","","","","","","",""
"747","","bandit","350","860681","0.0-312.0-0.0","94580299","wem/bandit_single","AIPHJXQEDNW9L","gain","6","","76","L","3","","1","0","0","0.4633702838","","false","275","0.163822666","","main_expt","0.2303642271","","0.2897414639","","0.4633702838","","","","","","",""
"839","","bandit","351","863300","0.0-313.0-0.0","94580299","wem/bandit_single","AIPHJXQEDNW9L","gain","6","","76","L","3","","1","0","0","0.4741710053","","false","276","0.1500588852","","main_expt","0.2631654739","","0.296822441","","0.4741710053","","","","","","",""
"213","","bandit","352","865277","0.0-314.0-0.0","94580299","wem/bandit_single","AIPHJXQEDNW9L","gain","6","","76","L","3","","0","0","1","0.4821206929","","false","277","0.1975700973","","main_expt","0.2660527836","","0.2769528726","","0.4821206929","","","","","","",""
"715","","bandit","353","867755","0.0-315.0-0.0","94580299","wem/bandit_single","AIPHJXQEDNW9L","gain","6","","76","L","3","","0","0","1","0.4704549119","","false","278","0.1355298524","","main_expt","0.2869547209","","0.3356585436","","0.4704549119","","","","","","",""
"293","","bandit","354","869833","0.0-316.0-0.0","94580299","wem/bandit_single","AIPHJXQEDNW9L","gain","6","","75","K","2","","1","0","0","0.3222384225","","false","279","0.1437345226","","main_expt","0.3594721793","","0.3222384225","","0.4749598821","","","","","","",""
"232","","bandit","355","871846","0.0-317.0-0.0","94580299","wem/bandit_single","AIPHJXQEDNW9L","gain","6","","75","K","2","","0","0","1","0.27346357","","false","280","0.126787642","","main_expt","0.3903699723","","0.27346357","","0.4385317488","","","","","","",""
"52","","bandit","356","873654","0.0-318.0-0.0","94580299","wem/bandit_single","AIPHJXQEDNW9L","gain","6","","74","J","1","","0","0","1","0.4583904318","","false","281","0.1765789866","","main_expt","0.4583904318","","0.3633072925","","0.4397970497","","","","","","",""
"99","","bandit","357","875528","0.0-319.0-0.0","94580299","wem/bandit_single","AIPHJXQEDNW9L","gain","6","","72","H","0","img/none_selected.jpg","0","0","1","0.1659157347","","false","282","0.1659157347","","main_expt","0.4689346609","","0.3269934488","","0.4485424667","","","","","","",""
"45","","bandit","358","877341","0.0-320.0-0.0","94580299","wem/bandit_single","AIPHJXQEDNW9L","gain","6","","76","L","3","","0","0","1","0.4460930912","","false","283","0.1876778028","","main_expt","0.460541741","","0.324321327","","0.4460930912","","","","","","",""
"15","","bandit","359","879140","0.0-321.0-0.0","94580299","wem/bandit_single","AIPHJXQEDNW9L","gain","6","","75","K","2","","1","0","0","0.2677217275","","false","284","0.2072959333","","main_expt","0.4485703909","","0.2677217275","","0.46041158","","","","","","",""
"6","","bandit","360","880923","0.0-322.0-0.0","94580299","wem/bandit_single","AIPHJXQEDNW9L","gain","6","","75","K","2","","0","0","1","0.2832280908","","false","285","0.2171876524","","main_expt","0.4493749552","","0.2832280908","","0.4722631388","","","","","","",""
"41","","bandit","361","882741","0.0-323.0-0.0","94580299","wem/bandit_single","AIPHJXQEDNW9L","gain","6","","75","K","2","","0","0","1","0.3338799161","","false","286","0.224404947","","main_expt","0.4223312446","","0.3338799161","","0.4710864859","","","","","","",""
"14","","bandit","362","884538","0.0-324.0-0.0","94580299","wem/bandit_single","AIPHJXQEDNW9L","gain","6","","74","J","1","","0","0","1","0.457140216","","false","287","0.2249093708","","main_expt","0.457140216","","0.3484096991","","0.4400158941","","","","","","",""
"13","","bandit","363","886320","0.0-325.0-0.0","94580299","wem/bandit_single","AIPHJXQEDNW9L","gain","6","","74","J","1","","1","0","0","0.4411377771","","false","288","0.2219747159","","main_expt","0.4411377771","","0.3215301514","","0.4036546776","","","","","","",""
"54","","bandit","364","888156","0.0-326.0-0.0","94580299","wem/bandit_single","AIPHJXQEDNW9L","gain","6","","74","J","1","","0","0","1","0.4501271696","","false","289","0.2183007497","","main_expt","0.4501271696","","0.2965974011","","0.4324218596","","","","","","",""
"52","","bandit","365","889989","0.0-327.0-0.0","94580299","wem/bandit_single","AIPHJXQEDNW9L","gain","6","","74","J","1","","1","0","0","0.4436507911","","false","290","0.2481136515","","main_expt","0.4436507911","","0.2926361454","","0.4536473803","","","","","","",""
"132","","bandit","366","891881","0.0-328.0-0.0","94580299","wem/bandit_single","AIPHJXQEDNW9L","gain","6","","74","J","1","","0","0","1","0.4381939672","","false","291","0.2972088317","","main_expt","0.4381939672","","0.243163711","","0.4634661847","","","","","","",""
"144","","bandit","367","893806","0.0-329.0-0.0","94580299","wem/bandit_single","AIPHJXQEDNW9L","gain","6","","74","J","1","","0","0","1","0.4101305143","","false","292","0.2998647236","","main_expt","0.4101305143","","0.2064952975","","0.4609966616","","","","","","",""
"60","","bandit","368","895643","0.0-330.0-0.0","94580299","wem/bandit_single","AIPHJXQEDNW9L","gain","6","","72","H","0","img/none_selected.jpg","0","0","1","0.2861810992","","false","293","0.2861810992","","main_expt","0.4297915702","","0.2099334792","","0.4648618971","","","","","","",""
"185","","bandit","369","897614","0.0-331.0-0.0","94580299","wem/bandit_single","AIPHJXQEDNW9L","gain","6","","76","L","3","","1","0","0","0.4582487824","","false","294","0.345484004","","main_expt","0.4537219743","","0.2507358833","","0.4582487824","","","","","","",""
"154","","bandit","370","899539","0.0-332.0-0.0","94580299","wem/bandit_single","AIPHJXQEDNW9L","gain","6","","76","L","3","","0","0","1","0.4482247061","","false","295","0.3251772281","","main_expt","0.4694953972","","0.2494268831","","0.4482247061","","","","","","",""
"148","","bandit","371","901453","0.0-333.0-0.0","94580299","wem/bandit_single","AIPHJXQEDNW9L","gain","6","","76","L","3","","1","0","0","0.42326912","","false","296","0.2953905587","","main_expt","0.4880383038","","0.2867080039","","0.42326912","","","","","","",""
"164","","bandit","372","903401","0.0-334.0-0.0","94580299","wem/bandit_single","AIPHJXQEDNW9L","gain","6","","76","L","3","","0","0","1","0.4151021773","","false","297","0.2717848064","","main_expt","0.4916251568","","0.2983387387","","0.4151021773","","","","","","",""
"202","","bandit","373","905366","0.0-335.0-0.0","94580299","wem/bandit_single","AIPHJXQEDNW9L","gain","6","","76","L","3","","0","0","1","0.4270228344","","false","298","0.2682571213","","main_expt","0.4921476303","","0.2982690602","","0.4270228344","","","","","","",""
"140","","bandit","374","907277","0.0-336.0-0.0","94580299","wem/bandit_single","AIPHJXQEDNW9L","gain","6","","75","K","2","","0","0","1","0.2955511463","","false","299","0.2400439073","","main_expt","0.4800884689","","0.2955511463","","0.4168509428","","","","","","",""
"36","","bandit","375","909071","0.0-337.0-0.0","94580299","wem/bandit_single","AIPHJXQEDNW9L","gain","6","","74","J","1","","0","0","1","0.4882901572","","false","300","0.2494994512","","main_expt","0.4882901572","","0.3236523504","","0.414464059","","","","","","",""
"189","","bandit","376","911040","0.0-338.0-0.0","94580299","wem/bandit_single","AIPHJXQEDNW9L","gain","6","","74","J","1","","0","0","1","0.4849478036","","false","301","0.2511279273","","main_expt","0.4849478036","","0.2926345705","","0.423631951","","","","","","",""
"1405","","bandit","377","914208","0.0-339.0-0.0","94580299","wem/bandit_single","AIPHJXQEDNW9L","gain","6","","74","J","1","","1","0","0","0.4799164125","","false","302","0.2183253448","","main_expt","0.4799164125","","0.3320174044","","0.4456639791","","","","","","",""
