"rt","responses","trial_type","trial_index","time_elapsed","internal_node_id","subjID","study","MID","cond","drift","key_press","respCharCode","respKey","respChoiceNum","respChoice","gems","bombs","no_reward","GemPrChosen","BombPrChosen","practice","trial_counter","WinPr_0","LosePr_0","trial_label","WinPr_1","LosePr_1","WinPr_2","LosePr_2","WinPr_3","LosePr_3","Q0","Q1","Q2","gender","age","ethnicity"
"8998","{""Q0"":""AOXM7IK32TST5""}","survey-text","0","9005","0.0-0.0","95138080","wem/bandit_single","AOXM7IK32TST5","gain","1","","","","","","","","","","","","","","","","","","","","","","","","","","",""
"1144","","text","1","11153","0.0-1.0","95138080","wem/bandit_single","AOXM7IK32TST5","gain","1","32","","","","","","","","","","","","","","","","","","","","","","","","","",""
"2341","","text","2","13496","0.0-2.0","95138080","wem/bandit_single","AOXM7IK32TST5","gain","1","32","","","","","","","","","","","","","","","","","","","","","","","","","",""
"7718","","text","3","21216","0.0-3.0","95138080","wem/bandit_single","AOXM7IK32TST5","gain","1","32","","","","","","","","","","","","","","","","","","","","","","","","","",""
"7819","","text","4","29037","0.0-4.0","95138080","wem/bandit_single","AOXM7IK32TST5","gain","1","32","","","","","","","","","","","","","","","","","","","","","","","","","",""
"7085","","text","5","36123","0.0-5.0","95138080","wem/bandit_single","AOXM7IK32TST5","gain","1","32","","","","","","","","","","","","","","","","","","","","","","","","","",""
"3579","","text","6","39704","0.0-6.0","95138080","wem/bandit_single","AOXM7IK32TST5","gain","1","32","","","","","","","","","","","","","","","","","","","","","","","","","",""
"2709","","text","7","42415","0.0-7.0","95138080","wem/bandit_single","AOXM7IK32TST5","gain","1","32","","","","","","","","","","","","","","","","","","","","","","","","","",""
"1628","","text","8","44044","0.0-8.0","95138080","wem/bandit_single","AOXM7IK32TST5","gain","1","32","","","","","","","","","","","","","","","","","","","","","","","","","",""
"1595","","text","9","45640","0.0-9.0","95138080","wem/bandit_single","AOXM7IK32TST5","gain","1","32","","","","","","","","","","","","","","","","","","","","","","","","","",""
"2562","","text","10","48203","0.0-10.0","95138080","wem/bandit_single","AOXM7IK32TST5","gain","1","32","","","","","","","","","","","","","","","","","","","","","","","","","",""
"2016","","text","11","50220","0.0-11.0","95138080","wem/bandit_single","AOXM7IK32TST5","gain","1","32","","","","","","","","","","","","","","","","","","","","","","","","","",""
"661","","bandit","12","52390","0.0-12.0-0.0","95138080","wem/bandit_single","AOXM7IK32TST5","gain","1","","74","J","0","img/none_selected_demo.jpg","0","0","1","0","0","true","0","0","0","","","","","","","","","","","","",""
"557","","bandit","13","54706","0.0-13.0-0.0","95138080","wem/bandit_single","AOXM7IK32TST5","gain","1","","75","K","0","img/none_selected_demo.jpg","0","0","1","0","0","true","0","0","0","","","","","","","","","","","","",""
"2044","","text","14","57003","0.0-14.0","95138080","wem/bandit_single","AOXM7IK32TST5","gain","1","32","","","","","","","","","","","","","","","","","","","","","","","","","",""
"998","","text","15","58002","0.0-15.0","95138080","wem/bandit_single","AOXM7IK32TST5","gain","1","32","","","","","","","","","","","","","","","","","","","","","","","","","",""
"1704","","text","16","59707","0.0-16.0","95138080","wem/bandit_single","AOXM7IK32TST5","gain","1","32","","","","","","","","","","","","","","","","","","","","","","","","","",""
"1557","","text","17","61265","0.0-17.0","95138080","wem/bandit_single","AOXM7IK32TST5","gain","1","32","","","","","","","","","","","","","","","","","","","","","","","","","",""
"796","","bandit","18","63566","0.0-18.0-0.0","95138080","wem/bandit_single","AOXM7IK32TST5","gain","1","","74","J","0","img/none_selected_demo.jpg","1","0","0","0.8","0","true","0","0.8","0","80_20_practice","0.2","0","","","","","","","","","",""
"26","","bandit","19","65348","0.0-18.0-1.0","95138080","wem/bandit_single","AOXM7IK32TST5","gain","1","","74","J","0","img/none_selected_demo.jpg","0","0","1","0.8","0","true","0","0.8","0","80_20_practice","0.2","0","","","","","","","","","",""
"375","","bandit","20","67485","0.0-18.0-2.0","95138080","wem/bandit_single","AOXM7IK32TST5","gain","1","","74","J","0","img/none_selected_demo.jpg","1","0","0","0.8","0","true","0","0.8","0","80_20_practice","0.2","0","","","","","","","","","",""
"36","","bandit","21","69278","0.0-18.0-3.0","95138080","wem/bandit_single","AOXM7IK32TST5","gain","1","","75","K","1","","0","0","1","0.2","0","true","0","0.8","0","80_20_practice","0.2","0","","","","","","","","","",""
"466","","bandit","22","71500","0.0-18.0-4.0","95138080","wem/bandit_single","AOXM7IK32TST5","gain","1","","75","K","1","","0","0","1","0.2","0","true","0","0.8","0","80_20_practice","0.2","0","","","","","","","","","",""
"262","","bandit","23","73519","0.0-18.0-5.0","95138080","wem/bandit_single","AOXM7IK32TST5","gain","1","","74","J","0","img/none_selected_demo.jpg","1","0","0","0.8","0","true","0","0.8","0","80_20_practice","0.2","0","","","","","","","","","",""
"7","","bandit","24","75282","0.0-18.0-6.0","95138080","wem/bandit_single","AOXM7IK32TST5","gain","1","","74","J","0","img/none_selected_demo.jpg","1","0","0","0.8","0","true","0","0.8","0","80_20_practice","0.2","0","","","","","","","","","",""
"201","","bandit","25","77240","0.0-18.0-7.0","95138080","wem/bandit_single","AOXM7IK32TST5","gain","1","","74","J","0","img/none_selected_demo.jpg","0","0","1","0.8","0","true","0","0.8","0","80_20_practice","0.2","0","","","","","","","","","",""
"137","","bandit","26","79133","0.0-18.0-8.0","95138080","wem/bandit_single","AOXM7IK32TST5","gain","1","","74","J","0","img/none_selected_demo.jpg","1","0","0","0.8","0","true","0","0.8","0","80_20_practice","0.2","0","","","","","","","","","",""
"164","","bandit","27","81052","0.0-18.0-9.0","95138080","wem/bandit_single","AOXM7IK32TST5","gain","1","","74","J","0","img/none_selected_demo.jpg","1","0","0","0.8","0","true","0","0.8","0","80_20_practice","0.2","0","","","","","","","","","",""
"230","","bandit","28","83038","0.0-18.0-10.0","95138080","wem/bandit_single","AOXM7IK32TST5","gain","1","","74","J","0","img/none_selected_demo.jpg","1","0","0","0.8","0","true","0","0.8","0","80_20_practice","0.2","0","","","","","","","","","",""
"12","","bandit","29","84806","0.0-18.0-11.0","95138080","wem/bandit_single","AOXM7IK32TST5","gain","1","","74","J","0","img/none_selected_demo.jpg","1","0","0","0.8","0","true","0","0.8","0","80_20_practice","0.2","0","","","","","","","","","",""
"143","","bandit","30","86706","0.0-18.0-12.0","95138080","wem/bandit_single","AOXM7IK32TST5","gain","1","","74","J","0","img/none_selected_demo.jpg","1","0","0","0.8","0","true","0","0.8","0","80_20_practice","0.2","0","","","","","","","","","",""
"156","","bandit","31","88620","0.0-18.0-13.0","95138080","wem/bandit_single","AOXM7IK32TST5","gain","1","","74","J","0","img/none_selected_demo.jpg","0","0","1","0.8","0","true","0","0.8","0","80_20_practice","0.2","0","","","","","","","","","",""
"57","","bandit","32","90433","0.0-18.0-14.0","95138080","wem/bandit_single","AOXM7IK32TST5","gain","1","","74","J","0","img/none_selected_demo.jpg","0","0","1","0.8","0","true","0","0.8","0","80_20_practice","0.2","0","","","","","","","","","",""
"1","","bandit","33","92190","0.0-18.0-15.0","95138080","wem/bandit_single","AOXM7IK32TST5","gain","1","","74","J","0","img/none_selected_demo.jpg","1","0","0","0.8","0","true","0","0.8","0","80_20_practice","0.2","0","","","","","","","","","",""
"125","","bandit","34","94070","0.0-18.0-16.0","95138080","wem/bandit_single","AOXM7IK32TST5","gain","1","","75","K","1","","0","0","1","0.2","0","true","0","0.8","0","80_20_practice","0.2","0","","","","","","","","","",""
"31","","bandit","35","95858","0.0-18.0-17.0","95138080","wem/bandit_single","AOXM7IK32TST5","gain","1","","75","K","1","","0","0","1","0.2","0","true","0","0.8","0","80_20_practice","0.2","0","","","","","","","","","",""
"55","","bandit","36","97669","0.0-18.0-18.0","95138080","wem/bandit_single","AOXM7IK32TST5","gain","1","","74","J","0","img/none_selected_demo.jpg","1","0","0","0.8","0","true","0","0.8","0","80_20_practice","0.2","0","","","","","","","","","",""
"187","","bandit","37","99612","0.0-18.0-19.0","95138080","wem/bandit_single","AOXM7IK32TST5","gain","1","","74","J","0","img/none_selected_demo.jpg","1","0","0","0.8","0","true","0","0.8","0","80_20_practice","0.2","0","","","","","","","","","",""
"2982","","text","38","102847","0.0-19.0","95138080","wem/bandit_single","AOXM7IK32TST5","gain","1","32","","","","","","","","","","","","","","","","","","","","","","","","","",""
"958","","bandit","39","105311","0.0-20.0-0.0","95138080","wem/bandit_single","AOXM7IK32TST5","gain","1","","74","J","0","img/none_selected_demo.jpg","0","0","1","0","0","true","0","0","0","","0","0","","","","","","","","","",""
"2361","","text","40","107926","0.0-21.0","95138080","wem/bandit_single","AOXM7IK32TST5","gain","1","32","","","","","","","","","","","","","","","","","","","","","","","","","",""
"3816","","text","41","111744","0.0-22.0","95138080","wem/bandit_single","AOXM7IK32TST5","gain","1","32","","","","","","","","","","","","","","","","","","","","","","","","","",""
"1819","","text","42","113565","0.0-23.0","95138080","wem/bandit_single","AOXM7IK32TST5","gain","1","32","","","","","","","","","","","","","","","","","","","","","","","","","",""
"1536","","text","43","115103","0.0-24.0","95138080","wem/bandit_single","AOXM7IK32TST5","gain","1","32","","","","","","","","","","","","","","","","","","","","","","","","","",""
"6104","","text","44","121209","0.0-25.0","95138080","wem/bandit_single","AOXM7IK32TST5","gain","1","32","","","","","","","","","","","","","","","","","","","","","","","","","",""
"1142","","text","45","122352","0.0-26.0","95138080","wem/bandit_single","AOXM7IK32TST5","gain","1","32","","","","","","","","","","","","","","","","","","","","","","","","","",""
"1540","","text","46","123895","0.0-27.0","95138080","wem/bandit_single","AOXM7IK32TST5","gain","1","32","","","","","","","","","","","","","","","","","","","","","","","","","",""
"4927","","text","47","128823","0.0-28.0","95138080","wem/bandit_single","AOXM7IK32TST5","gain","1","32","","","","","","","","","","","","","","","","","","","","","","","","","",""
"5625","","text","48","134451","0.0-29.0","95138080","wem/bandit_single","AOXM7IK32TST5","gain","1","32","","","","","","","","","","","","","","","","","","","","","","","","","",""
"1534","","text","49","135988","0.0-30.0","95138080","wem/bandit_single","AOXM7IK32TST5","gain","1","32","","","","","","","","","","","","","","","","","","","","","","","","","",""
"1772","","text","50","137762","0.0-31.0","95138080","wem/bandit_single","AOXM7IK32TST5","gain","1","32","","","","","","","","","","","","","","","","","","","","","","","","","",""
"494","","bandit","51","139760","0.0-32.0-0.0","95138080","wem/bandit_single","AOXM7IK32TST5","gain","1","","72","H","0","img/none_selected.jpg","1","0","0","0.8","0","true","0","0.8","0","full_practice","0.2","0","0.6","0","0.2","0","","","","","",""
"21","","bandit","52","141537","0.0-32.0-1.0","95138080","wem/bandit_single","AOXM7IK32TST5","gain","1","","74","J","1","","0","0","1","0.2","0","true","0","0.8","0","full_practice","0.2","0","0.6","0","0.2","0","","","","","",""
"163","","bandit","53","143461","0.0-32.0-2.0","95138080","wem/bandit_single","AOXM7IK32TST5","gain","1","","72","H","0","img/none_selected.jpg","1","0","0","0.8","0","true","0","0.8","0","full_practice","0.2","0","0.6","0","0.2","0","","","","","",""
"433","","bandit","54","145651","0.0-32.0-3.0","95138080","wem/bandit_single","AOXM7IK32TST5","gain","1","","72","H","0","img/none_selected.jpg","1","0","0","0.8","0","true","0","0.8","0","full_practice","0.2","0","0.6","0","0.2","0","","","","","",""
"28","","bandit","55","147435","0.0-32.0-4.0","95138080","wem/bandit_single","AOXM7IK32TST5","gain","1","","72","H","0","img/none_selected.jpg","0","0","1","0.8","0","true","0","0.8","0","full_practice","0.2","0","0.6","0","0.2","0","","","","","",""
"231","","bandit","56","149423","0.0-32.0-5.0","95138080","wem/bandit_single","AOXM7IK32TST5","gain","1","","72","H","0","img/none_selected.jpg","1","0","0","0.8","0","true","0","0.8","0","full_practice","0.2","0","0.6","0","0.2","0","","","","","",""
"370","","bandit","57","151550","0.0-32.0-6.0","95138080","wem/bandit_single","AOXM7IK32TST5","gain","1","","76","L","3","","0","0","1","0.2","0","true","0","0.8","0","full_practice","0.2","0","0.6","0","0.2","0","","","","","",""
"211","","bandit","58","153520","0.0-32.0-7.0","95138080","wem/bandit_single","AOXM7IK32TST5","gain","1","","75","K","2","","0","0","1","0.6","0","true","0","0.8","0","full_practice","0.2","0","0.6","0","0.2","0","","","","","",""
"206","","bandit","59","155484","0.0-32.0-8.0","95138080","wem/bandit_single","AOXM7IK32TST5","gain","1","","72","H","0","img/none_selected.jpg","1","0","0","0.8","0","true","0","0.8","0","full_practice","0.2","0","0.6","0","0.2","0","","","","","",""
"42","","bandit","60","157281","0.0-32.0-9.0","95138080","wem/bandit_single","AOXM7IK32TST5","gain","1","","72","H","0","img/none_selected.jpg","0","0","1","0.8","0","true","0","0.8","0","full_practice","0.2","0","0.6","0","0.2","0","","","","","",""
"71","","bandit","61","159110","0.0-32.0-10.0","95138080","wem/bandit_single","AOXM7IK32TST5","gain","1","","72","H","0","img/none_selected.jpg","1","0","0","0.8","0","true","0","0.8","0","full_practice","0.2","0","0.6","0","0.2","0","","","","","",""
"20","","bandit","62","160886","0.0-32.0-11.0","95138080","wem/bandit_single","AOXM7IK32TST5","gain","1","","72","H","0","img/none_selected.jpg","1","0","0","0.8","0","true","0","0.8","0","full_practice","0.2","0","0.6","0","0.2","0","","","","","",""
"148","","bandit","63","162791","0.0-32.0-12.0","95138080","wem/bandit_single","AOXM7IK32TST5","gain","1","","72","H","0","img/none_selected.jpg","0","0","1","0.8","0","true","0","0.8","0","full_practice","0.2","0","0.6","0","0.2","0","","","","","",""
"7","","bandit","64","164555","0.0-32.0-13.0","95138080","wem/bandit_single","AOXM7IK32TST5","gain","1","","72","H","0","img/none_selected.jpg","1","0","0","0.8","0","true","0","0.8","0","full_practice","0.2","0","0.6","0","0.2","0","","","","","",""
"147","","bandit","65","166460","0.0-32.0-14.0","95138080","wem/bandit_single","AOXM7IK32TST5","gain","1","","72","H","0","img/none_selected.jpg","1","0","0","0.8","0","true","0","0.8","0","full_practice","0.2","0","0.6","0","0.2","0","","","","","",""
"147","","bandit","66","168363","0.0-32.0-15.0","95138080","wem/bandit_single","AOXM7IK32TST5","gain","1","","72","H","0","img/none_selected.jpg","0","0","1","0.8","0","true","0","0.8","0","full_practice","0.2","0","0.6","0","0.2","0","","","","","",""
"331","","bandit","67","170452","0.0-32.0-16.0","95138080","wem/bandit_single","AOXM7IK32TST5","gain","1","","75","K","2","","0","0","1","0.6","0","true","0","0.8","0","full_practice","0.2","0","0.6","0","0.2","0","","","","","",""
"193","","bandit","68","172401","0.0-32.0-17.0","95138080","wem/bandit_single","AOXM7IK32TST5","gain","1","","76","L","3","","0","0","1","0.2","0","true","0","0.8","0","full_practice","0.2","0","0.6","0","0.2","0","","","","","",""
"165","","bandit","69","174322","0.0-32.0-18.0","95138080","wem/bandit_single","AOXM7IK32TST5","gain","1","","72","H","0","img/none_selected.jpg","1","0","0","0.8","0","true","0","0.8","0","full_practice","0.2","0","0.6","0","0.2","0","","","","","",""
"196","","bandit","70","176274","0.0-32.0-19.0","95138080","wem/bandit_single","AOXM7IK32TST5","gain","1","","72","H","0","img/none_selected.jpg","1","0","0","0.8","0","true","0","0.8","0","full_practice","0.2","0","0.6","0","0.2","0","","","","","",""
"1855","","text","71","178387","0.0-33.0","95138080","wem/bandit_single","AOXM7IK32TST5","gain","1","32","","","","","","","","","","","","","","","","","","","","","","","","","",""
"6693","","text","72","186084","0.0-34.0","95138080","wem/bandit_single","AOXM7IK32TST5","gain","1","32","","","","","","","","","","","","","","","","","","","","","","","","","",""
"5631","","text","73","191718","0.0-35.0","95138080","wem/bandit_single","AOXM7IK32TST5","gain","1","32","","","","","","","","","","","","","","","","","","","","","","","","","",""
"2727","","text","74","194448","0.0-36.0","95138080","wem/bandit_single","AOXM7IK32TST5","gain","1","32","","","","","","","","","","","","","","","","","","","","","","","","","",""
"2754","","text","75","197204","0.0-37.0","95138080","wem/bandit_single","AOXM7IK32TST5","gain","1","32","","","","","","","","","","","","","","","","","","","","","","","","","",""
"810","","bandit","76","199519","0.0-38.0-0.0","95138080","wem/bandit_single","AOXM7IK32TST5","gain","1","","72","H","0","img/none_selected.jpg","0","0","1","0.1765468105","","false","1","0.1765468105","","main_expt","0.04371116513","","0.433486002","","0.1079408374","","","","","","",""
"5","","bandit","77","201283","0.0-39.0-0.0","95138080","wem/bandit_single","AOXM7IK32TST5","gain","1","","76","L","3","","0","0","1","0.1605706499","","false","2","0.1569258514","","main_expt","0.0204546363","","0.4446307222","","0.1605706499","","","","","","",""
"15","","bandit","78","203055","0.0-40.0-0.0","95138080","wem/bandit_single","AOXM7IK32TST5","gain","1","","75","K","2","","0","0","1","0.4522438858","","false","3","0.1639246388","","main_expt","0.02109221713","","0.4522438858","","0.1829447669","","","","","","",""
"275","","bandit","79","205086","0.0-41.0-0.0","95138080","wem/bandit_single","AOXM7IK32TST5","gain","1","","74","J","1","","0","0","1","0.04448829896","","false","4","0.2130332657","","main_expt","0.04448829896","","0.4330109471","","0.1756642407","","","","","","",""
"99","","bandit","80","206942","0.0-42.0-0.0","95138080","wem/bandit_single","AOXM7IK32TST5","gain","1","","75","K","2","","0","0","1","0.4678508314","","false","5","0.1939577492","","main_expt","0.03824555068","","0.4678508314","","0.1349544936","","","","","","",""
"264","","bandit","81","208964","0.0-43.0-0.0","95138080","wem/bandit_single","AOXM7IK32TST5","gain","1","","76","L","3","","0","0","1","0.1356037804","","false","6","0.2419857306","","main_expt","0.03028715703","","0.4644602632","","0.1356037804","","","","","","",""
"289","","bandit","82","211010","0.0-44.0-0.0","95138080","wem/bandit_single","AOXM7IK32TST5","gain","1","","72","H","0","img/none_selected.jpg","1","0","0","0.2437977828","","false","7","0.2437977828","","main_expt","0.0280090558","","0.4575746565","","0.1731738011","","","","","","",""
"37","","bandit","83","212804","0.0-45.0-0.0","95138080","wem/bandit_single","AOXM7IK32TST5","gain","1","","72","H","0","img/none_selected.jpg","1","0","0","0.2910779813","","false","8","0.2910779813","","main_expt","0.01994926529","","0.4508833002","","0.1697830552","","","","","","",""
"398","","bandit","84","214958","0.0-46.0-0.0","95138080","wem/bandit_single","AOXM7IK32TST5","gain","1","","72","H","0","img/none_selected.jpg","0","0","1","0.3043628405","","false","9","0.3043628405","","main_expt","0.02255652904","","0.446295775","","0.1792782501","","","","","","",""
"215","","bandit","85","216929","0.0-47.0-0.0","95138080","wem/bandit_single","AOXM7IK32TST5","gain","1","","72","H","0","img/none_selected.jpg","0","0","1","0.3568141906","","false","10","0.3568141906","","main_expt","0.02794315976","","0.4564580261","","0.1705688187","","","","","","",""
"207","","bandit","86","218893","0.0-48.0-0.0","95138080","wem/bandit_single","AOXM7IK32TST5","gain","1","","72","H","0","img/none_selected.jpg","0","0","1","0.3439843329","","false","11","0.3439843329","","main_expt","0.02289966844","","0.4233437492","","0.1974022207","","","","","","",""
"46","","bandit","87","220696","0.0-49.0-0.0","95138080","wem/bandit_single","AOXM7IK32TST5","gain","1","","72","H","0","img/none_selected.jpg","0","0","1","0.2959247237","","false","12","0.2959247237","","main_expt","0.01510656417","","0.4129107721","","0.1753487428","","","","","","",""
"109","","bandit","88","222562","0.0-50.0-0.0","95138080","wem/bandit_single","AOXM7IK32TST5","gain","1","","76","L","3","","0","0","1","0.1858973774","","false","13","0.2711511111","","main_expt","0.01475809492","","0.4188058581","","0.1858973774","","","","","","",""
"44","","bandit","89","224367","0.0-51.0-0.0","95138080","wem/bandit_single","AOXM7IK32TST5","gain","1","","75","K","2","","1","0","0","0.4542155744","","false","14","0.2351285692","","main_expt","0.00909265887","","0.4542155744","","0.1873997244","","","","","","",""
"140","","bandit","90","226264","0.0-52.0-0.0","95138080","wem/bandit_single","AOXM7IK32TST5","gain","1","","75","K","2","","0","0","1","0.4436127815","","false","15","0.3299180318","","main_expt","0.004683339805","","0.4436127815","","0.2079034381","","","","","","",""
"4","","bandit","91","228026","0.0-53.0-0.0","95138080","wem/bandit_single","AOXM7IK32TST5","gain","1","","75","K","2","","0","0","1","0.4255220112","","false","16","0.3382291528","","main_expt","0.007493295572","","0.4255220112","","0.2116662278","","","","","","",""
"123","","bandit","92","229907","0.0-54.0-0.0","95138080","wem/bandit_single","AOXM7IK32TST5","gain","1","","75","K","2","","0","0","1","0.4221090449","","false","17","0.3890963744","","main_expt","0.009835384986","","0.4221090449","","0.2460799228","","","","","","",""
"231","","bandit","93","231895","0.0-55.0-0.0","95138080","wem/bandit_single","AOXM7IK32TST5","gain","1","","74","J","1","","0","0","1","0.01282838009","","false","18","0.3102907615","","main_expt","0.01282838009","","0.4157246332","","0.2725156425","","","","","","",""
"553","","bandit","94","234205","0.0-56.0-0.0","95138080","wem/bandit_single","AOXM7IK32TST5","gain","1","","76","L","3","","0","0","1","0.319312936","","false","19","0.2734902963","","main_expt","0.03935122736","","0.4000612909","","0.319312936","","","","","","",""
"96","","bandit","95","236059","0.0-57.0-0.0","95138080","wem/bandit_single","AOXM7IK32TST5","gain","1","","72","H","0","img/none_selected.jpg","1","0","0","0.2157414593","","false","20","0.2157414593","","main_expt","0.03712672215","","0.4116546581","","0.3449168397","","","","","","",""
"95","","bandit","96","237911","0.0-58.0-0.0","95138080","wem/bandit_single","AOXM7IK32TST5","gain","1","","72","H","0","img/none_selected.jpg","1","0","0","0.2148325275","","false","21","0.2148325275","","main_expt","0.02631596187","","0.4276829816","","0.2668327531","","","","","","",""
"62","","bandit","97","239730","0.0-59.0-0.0","95138080","wem/bandit_single","AOXM7IK32TST5","gain","1","","72","H","0","img/none_selected.jpg","1","0","0","0.1819582271","","false","22","0.1819582271","","main_expt","0.0338100911","","0.3861543943","","0.2786929748","","","","","","",""
"50","","bandit","98","241540","0.0-60.0-0.0","95138080","wem/bandit_single","AOXM7IK32TST5","gain","1","","72","H","0","img/none_selected.jpg","1","0","0","0.1776669961","","false","23","0.1776669961","","main_expt","0.06132921526","","0.3815006395","","0.2012253143","","","","","","",""
"8","","bandit","99","243305","0.0-61.0-0.0","95138080","wem/bandit_single","AOXM7IK32TST5","gain","1","","72","H","0","img/none_selected.jpg","0","0","1","0.2595803745","","false","24","0.2595803745","","main_expt","0.06546003458","","0.4063144844","","0.1363446769","","","","","","",""
"778","","bandit","100","245839","0.0-62.0-0.0","95138080","wem/bandit_single","AOXM7IK32TST5","gain","1","","72","H","0","img/none_selected.jpg","0","0","1","0.2184946748","","false","25","0.2184946748","","main_expt","0.08327489459","","0.3218764758","","0.1395957504","","","","","","",""
"154","","bandit","101","247751","0.0-63.0-0.0","95138080","wem/bandit_single","AOXM7IK32TST5","gain","1","","72","H","0","img/none_selected.jpg","0","0","1","0.2382025465","","false","26","0.2382025465","","main_expt","0.06117167893","","0.3190898414","","0.1095431569","","","","","","",""
"145","","bandit","102","249657","0.0-64.0-0.0","95138080","wem/bandit_single","AOXM7IK32TST5","gain","1","","75","K","2","","0","0","1","0.361309168","","false","27","0.2249508913","","main_expt","0.03494965278","","0.361309168","","0.1290148999","","","","","","",""
"163","","bandit","103","251577","0.0-65.0-0.0","95138080","wem/bandit_single","AOXM7IK32TST5","gain","1","","76","L","3","","0","0","1","0.09304199486","","false","28","0.2388683754","","main_expt","0.02964638986","","0.3247985582","","0.09304199486","","","","","","",""
"7","","bandit","104","253341","0.0-66.0-0.0","95138080","wem/bandit_single","AOXM7IK32TST5","gain","1","","74","J","1","","0","0","1","0.03498116837","","false","29","0.238121012","","main_expt","0.03498116837","","0.3358989687","","0.1042487788","","","","","","",""
"145","","bandit","105","255246","0.0-67.0-0.0","95138080","wem/bandit_single","AOXM7IK32TST5","gain","1","","72","H","0","img/none_selected.jpg","0","0","1","0.2995264376","","false","30","0.2995264376","","main_expt","0.04244048525","","0.3833706669","","0.1177759499","","","","","","",""
"80","","bandit","106","257084","0.0-68.0-0.0","95138080","wem/bandit_single","AOXM7IK32TST5","gain","1","","72","H","0","img/none_selected.jpg","1","0","0","0.2738636663","","false","31","0.2738636663","","main_expt","0.06152315655","","0.365606812","","0.1177925617","","","","","","",""
"75","","bandit","107","258919","0.0-69.0-0.0","95138080","wem/bandit_single","AOXM7IK32TST5","gain","1","","72","H","0","img/none_selected.jpg","0","0","1","0.3185168498","","false","32","0.3185168498","","main_expt","0.04890303061","","0.3376656117","","0.08495919706","","","","","","",""
"151","","bandit","108","260828","0.0-70.0-0.0","95138080","wem/bandit_single","AOXM7IK32TST5","gain","1","","75","K","2","","1","0","0","0.3632929272","","false","33","0.3160257618","","main_expt","0.06913310411","","0.3632929272","","0.09918690981","","","","","","",""
"42","","bandit","109","262628","0.0-71.0-0.0","95138080","wem/bandit_single","AOXM7IK32TST5","gain","1","","75","K","2","","1","0","0","0.4008603673","","false","34","0.3411570355","","main_expt","0.07311713639","","0.4008603673","","0.1267106232","","","","","","",""
"288","","bandit","110","264673","0.0-72.0-0.0","95138080","wem/bandit_single","AOXM7IK32TST5","gain","1","","75","K","2","","0","0","1","0.4024879816","","false","35","0.3190481916","","main_expt","0.08374615962","","0.4024879816","","0.1076928618","","","","","","",""
"32","","bandit","111","266462","0.0-73.0-0.0","95138080","wem/bandit_single","AOXM7IK32TST5","gain","1","","75","K","2","","1","0","0","0.3740303516","","false","36","0.3264142162","","main_expt","0.08182693844","","0.3740303516","","0.1298816773","","","","","","",""
"24","","bandit","112","268245","0.0-74.0-0.0","95138080","wem/bandit_single","AOXM7IK32TST5","gain","1","","75","K","2","","0","0","1","0.3728306432","","false","37","0.3198880486","","main_expt","0.1343371601","","0.3728306432","","0.1459487567","","","","","","",""
"234","","bandit","113","270237","0.0-75.0-0.0","95138080","wem/bandit_single","AOXM7IK32TST5","gain","1","","76","L","3","","0","0","1","0.1339045699","","false","38","0.3683112265","","main_expt","0.155986589","","0.3805434418","","0.1339045699","","","","","","",""
"200","","bandit","114","272195","0.0-76.0-0.0","95138080","wem/bandit_single","AOXM7IK32TST5","gain","1","","76","L","3","","0","0","1","0.1345127174","","false","39","0.3427238384","","main_expt","0.1477757124","","0.3969568822","","0.1345127174","","","","","","",""
"176","","bandit","115","274129","0.0-77.0-0.0","95138080","wem/bandit_single","AOXM7IK32TST5","gain","1","","74","J","1","","0","0","1","0.1673850924","","false","40","0.3218453083","","main_expt","0.1673850924","","0.3988554294","","0.1283460502","","","","","","",""
"24","","bandit","116","275911","0.0-78.0-0.0","95138080","wem/bandit_single","AOXM7IK32TST5","gain","1","","74","J","1","","0","0","1","0.1798739011","","false","41","0.3085515908","","main_expt","0.1798739011","","0.4510691137","","0.120913883","","","","","","",""
"143","","bandit","117","277812","0.0-79.0-0.0","95138080","wem/bandit_single","AOXM7IK32TST5","gain","1","","75","K","2","","0","0","1","0.4575220824","","false","42","0.3072415044","","main_expt","0.1559165864","","0.4575220824","","0.1045942129","","","","","","",""
"46","","bandit","118","279615","0.0-80.0-0.0","95138080","wem/bandit_single","AOXM7IK32TST5","gain","1","","75","K","2","","1","0","0","0.4425049573","","false","43","0.272500382","","main_expt","0.1058033922","","0.4425049573","","0.09432917568","","","","","","",""
"90","","bandit","119","281460","0.0-81.0-0.0","95138080","wem/bandit_single","AOXM7IK32TST5","gain","1","","75","K","2","","1","0","0","0.4232077065","","false","44","0.2865836788","","main_expt","0.08489334424","","0.4232077065","","0.07221407183","","","","","","",""
"220","","bandit","120","283437","0.0-82.0-0.0","95138080","wem/bandit_single","AOXM7IK32TST5","gain","1","","75","K","2","","1","0","0","0.4098430077","","false","45","0.2991622886","","main_expt","0.05905190464","","0.4098430077","","0.05666738762","","","","","","",""
"179","","bandit","121","285373","0.0-83.0-0.0","95138080","wem/bandit_single","AOXM7IK32TST5","gain","1","","75","K","2","","0","0","1","0.4038708701","","false","46","0.2531917612","","main_expt","0.06331323714","","0.4038708701","","0.03432969329","","","","","","",""
"97","","bandit","122","287228","0.0-84.0-0.0","95138080","wem/bandit_single","AOXM7IK32TST5","gain","1","","75","K","2","","0","0","1","0.4162646915","","false","47","0.174020607","","main_expt","0.05657329797","","0.4162646915","","0.03955917442","","","","","","",""
"9","","bandit","123","288995","0.0-85.0-0.0","95138080","wem/bandit_single","AOXM7IK32TST5","gain","1","","75","K","2","","1","0","0","0.4188900116","","false","48","0.1890064997","","main_expt","0.04718629669","","0.4188900116","","0.02792503423","","","","","","",""
"142","","bandit","124","290897","0.0-86.0-0.0","95138080","wem/bandit_single","AOXM7IK32TST5","gain","1","","75","K","2","","0","0","1","0.4566014176","","false","49","0.218442061","","main_expt","0.03289244517","","0.4566014176","","0.03726959289","","","","","","",""
"11","","bandit","125","292666","0.0-87.0-0.0","95138080","wem/bandit_single","AOXM7IK32TST5","gain","1","","75","K","2","","0","0","1","0.4447058567","","false","50","0.1635183119","","main_expt","0.03266450512","","0.4447058567","","0.03358305353","","","","","","",""
"124","","bandit","126","294548","0.0-88.0-0.0","95138080","wem/bandit_single","AOXM7IK32TST5","gain","1","","75","K","2","","1","0","0","0.4304926469","","false","51","0.1366577914","","main_expt","0.03026904774","","0.4304926469","","0.03344521258","","","","","","",""
"259","","bandit","127","296566","0.0-89.0-0.0","95138080","wem/bandit_single","AOXM7IK32TST5","gain","1","","75","K","2","","0","0","1","0.4221781581","","false","52","0.1797398031","","main_expt","0.03251993274","","0.4221781581","","0.04269272659","","","","","","",""
"24","","bandit","128","298347","0.0-90.0-0.0","95138080","wem/bandit_single","AOXM7IK32TST5","gain","1","","75","K","2","","0","0","1","0.3687481665","","false","53","0.2893410322","","main_expt","0.03960602941","","0.3687481665","","0.023815337","","","","","","",""
"1","","bandit","129","300106","0.0-91.0-0.0","95138080","wem/bandit_single","AOXM7IK32TST5","gain","1","","75","K","2","","1","0","0","0.3458934235","","false","54","0.2985665456","","main_expt","0.05707063203","","0.3458934235","","0.02455785224","","","","","","",""
"11","","bandit","130","301876","0.0-92.0-0.0","95138080","wem/bandit_single","AOXM7IK32TST5","gain","1","","75","K","2","","0","0","1","0.4042580408","","false","55","0.3336948264","","main_expt","0.04044117434","","0.4042580408","","0.03998391886","","","","","","",""
"402","","bandit","131","304039","0.0-93.0-0.0","95138080","wem/bandit_single","AOXM7IK32TST5","gain","1","","75","K","2","","0","0","1","0.4471112694","","false","56","0.282194417","","main_expt","0.05627119328","","0.4471112694","","0.06538112884","","","","","","",""
"130","","bandit","132","305929","0.0-94.0-0.0","95138080","wem/bandit_single","AOXM7IK32TST5","gain","1","","76","L","3","","0","0","1","0.08662171517","","false","57","0.3239389597","","main_expt","0.06172895681","","0.4640351361","","0.08662171517","","","","","","",""
"118","","bandit","133","307806","0.0-95.0-0.0","95138080","wem/bandit_single","AOXM7IK32TST5","gain","1","","74","J","1","","0","0","1","0.0708730922","","false","58","0.3114288274","","main_expt","0.0708730922","","0.4654795878","","0.08191290536","","","","","","",""
"70","","bandit","134","309634","0.0-96.0-0.0","95138080","wem/bandit_single","AOXM7IK32TST5","gain","1","","72","H","0","img/none_selected.jpg","0","0","1","0.3090129124","","false","59","0.3090129124","","main_expt","0.06307994893","","0.477644797","","0.06359390603","","","","","","",""
"146","","bandit","135","311539","0.0-97.0-0.0","95138080","wem/bandit_single","AOXM7IK32TST5","gain","1","","75","K","2","","0","0","1","0.4637057102","","false","60","0.3273240357","","main_expt","0.06865221942","","0.4637057102","","0.1113565871","","","","","","",""
"86","","bandit","136","313383","0.0-98.0-0.0","95138080","wem/bandit_single","AOXM7IK32TST5","gain","1","","75","K","2","","0","0","1","0.4575353452","","false","61","0.333760802","","main_expt","0.04710261487","","0.4575353452","","0.1224908949","","","","","","",""
"35","","bandit","137","315176","0.0-99.0-0.0","95138080","wem/bandit_single","AOXM7IK32TST5","gain","1","","75","K","2","","0","0","1","0.4511824808","","false","62","0.3721083552","","main_expt","0.04180279512","","0.4511824808","","0.1011510181","","","","","","",""
"151","","bandit","138","317085","0.0-100.0-0.0","95138080","wem/bandit_single","AOXM7IK32TST5","gain","1","","76","L","3","","0","0","1","0.1241823521","","false","63","0.3366911892","","main_expt","0.04669584184","","0.4522744543","","0.1241823521","","","","","","",""
"24","","bandit","139","318868","0.0-101.0-0.0","95138080","wem/bandit_single","AOXM7IK32TST5","gain","1","","76","L","3","","0","0","1","0.1277445844","","false","64","0.352845708","","main_expt","0.04699929359","","0.4534383651","","0.1277445844","","","","","","",""
"13","","bandit","140","320640","0.0-102.0-0.0","95138080","wem/bandit_single","AOXM7IK32TST5","gain","1","","74","J","1","","0","0","1","0.06422912444","","false","65","0.3797865956","","main_expt","0.06422912444","","0.4578128414","","0.1594820305","","","","","","",""
"141","","bandit","141","322539","0.0-103.0-0.0","95138080","wem/bandit_single","AOXM7IK32TST5","gain","1","","74","J","1","","0","0","1","0.09107067683","","false","66","0.3776123686","","main_expt","0.09107067683","","0.4675149648","","0.1902728197","","","","","","",""
"188","","bandit","142","324486","0.0-104.0-0.0","95138080","wem/bandit_single","AOXM7IK32TST5","gain","1","","72","H","0","img/none_selected.jpg","0","0","1","0.3520302909","","false","67","0.3520302909","","main_expt","0.1295134299","","0.4801185054","","0.1915604568","","","","","","",""
"104","","bandit","143","326349","0.0-105.0-0.0","95138080","wem/bandit_single","AOXM7IK32TST5","gain","1","","72","H","0","img/none_selected.jpg","0","0","1","0.3563070861","","false","68","0.3563070861","","main_expt","0.1501953896","","0.4853911876","","0.2292904293","","","","","","",""
"94","","bandit","144","328202","0.0-106.0-0.0","95138080","wem/bandit_single","AOXM7IK32TST5","gain","1","","75","K","2","","1","0","0","0.45952887","","false","69","0.3773129781","","main_expt","0.2120393587","","0.45952887","","0.2982444272","","","","","","",""
"48","","bandit","145","330008","0.0-107.0-0.0","95138080","wem/bandit_single","AOXM7IK32TST5","gain","1","","75","K","2","","0","0","1","0.4519788387","","false","70","0.3620092878","","main_expt","0.2046372205","","0.4519788387","","0.2038928517","","","","","","",""
"42","","bandit","146","331808","0.0-108.0-0.0","95138080","wem/bandit_single","AOXM7IK32TST5","gain","1","","75","K","2","","1","0","0","0.4644284496","","false","71","0.3689610789","","main_expt","0.1711657315","","0.4644284496","","0.2470144531","","","","","","",""
"169","","bandit","147","333735","0.0-109.0-0.0","95138080","wem/bandit_single","AOXM7IK32TST5","gain","1","","75","K","2","","1","0","0","0.4275080271","","false","72","0.335535794","","main_expt","0.1804367846","","0.4275080271","","0.2339224101","","","","","","",""
"189","","bandit","148","335684","0.0-110.0-0.0","95138080","wem/bandit_single","AOXM7IK32TST5","gain","1","","75","K","2","","1","0","0","0.4333248441","","false","73","0.3669127126","","main_expt","0.1582310148","","0.4333248441","","0.198403553","","","","","","",""
"21","","bandit","149","337463","0.0-111.0-0.0","95138080","wem/bandit_single","AOXM7IK32TST5","gain","1","","75","K","2","","1","0","0","0.4272577829","","false","74","0.3360165716","","main_expt","0.1300952354","","0.4272577829","","0.2162510441","","","","","","",""
"191","","bandit","150","339413","0.0-112.0-0.0","95138080","wem/bandit_single","AOXM7IK32TST5","gain","1","","75","K","2","","0","0","1","0.353629049","","false","75","0.3379177146","","main_expt","0.1414689969","","0.353629049","","0.2467290531","","","","","","",""
"201","","bandit","151","341373","0.0-113.0-0.0","95138080","wem/bandit_single","AOXM7IK32TST5","gain","1","","75","K","2","","1","0","0","0.3526453175","","false","76","0.3489784935","","main_expt","0.1315789974","","0.3526453175","","0.2199510863","","","","","","",""
"0","","bandit","152","343132","0.0-114.0-0.0","95138080","wem/bandit_single","AOXM7IK32TST5","gain","1","","75","K","2","","1","0","0","0.397337216","","false","77","0.2843927136","","main_expt","0.1054244057","","0.397337216","","0.1600424727","","","","","","",""
"14","","bandit","153","344902","0.0-115.0-0.0","95138080","wem/bandit_single","AOXM7IK32TST5","gain","1","","75","K","2","","1","0","0","0.3747850168","","false","78","0.2585585406","","main_expt","0.1028875903","","0.3747850168","","0.1366877547","","","","","","",""
"250","","bandit","154","346912","0.0-116.0-0.0","95138080","wem/bandit_single","AOXM7IK32TST5","gain","1","","75","K","2","","1","0","0","0.3500135026","","false","79","0.2211992803","","main_expt","0.1010795136","","0.3500135026","","0.1608027171","","","","","","",""
"5","","bandit","155","348674","0.0-117.0-0.0","95138080","wem/bandit_single","AOXM7IK32TST5","gain","1","","75","K","2","","0","0","1","0.3362224365","","false","80","0.1670678668","","main_expt","0.09661145037","","0.3362224365","","0.2004121585","","","","","","",""
"603","","bandit","156","351033","0.0-118.0-0.0","95138080","wem/bandit_single","AOXM7IK32TST5","gain","1","","75","K","2","","0","0","1","0.3626400229","","false","81","0.1536487801","","main_expt","0.06079528701","","0.3626400229","","0.2100463009","","","","","","",""
"157","","bandit","157","352949","0.0-119.0-0.0","95138080","wem/bandit_single","AOXM7IK32TST5","gain","1","","75","K","2","","0","0","1","0.3433004166","","false","82","0.164055667","","main_expt","0.0561923849","","0.3433004166","","0.2313995655","","","","","","",""
"77","","bandit","158","354784","0.0-120.0-0.0","95138080","wem/bandit_single","AOXM7IK32TST5","gain","1","","75","K","2","","0","0","1","0.3564809269","","false","83","0.1795096781","","main_expt","0.05471979201","","0.3564809269","","0.1805974068","","","","","","",""
"141","","bandit","159","356684","0.0-121.0-0.0","95138080","wem/bandit_single","AOXM7IK32TST5","gain","1","","74","J","1","","0","0","1","0.04961315052","","false","84","0.1568762326","","main_expt","0.04961315052","","0.3403656385","","0.1351257884","","","","","","",""
"41","","bandit","160","358483","0.0-122.0-0.0","95138080","wem/bandit_single","AOXM7IK32TST5","gain","1","","74","J","1","","0","0","1","0.05195310968","","false","85","0.1857208284","","main_expt","0.05195310968","","0.3009252634","","0.1372280885","","","","","","",""
"109","","bandit","161","360351","0.0-123.0-0.0","95138080","wem/bandit_single","AOXM7IK32TST5","gain","1","","76","L","3","","1","0","0","0.1685840628","","false","86","0.2180329602","","main_expt","0.05385113756","","0.3067316121","","0.1685840628","","","","","","",""
"53","","bandit","162","362162","0.0-124.0-0.0","95138080","wem/bandit_single","AOXM7IK32TST5","gain","1","","76","L","3","","0","0","1","0.1654340797","","false","87","0.1893737279","","main_expt","0.08202519069","","0.3073916088","","0.1654340797","","","","","","",""
"157","","bandit","163","364078","0.0-125.0-0.0","95138080","wem/bandit_single","AOXM7IK32TST5","gain","1","","76","L","3","","0","0","1","0.1870328522","","false","88","0.2309201776","","main_expt","0.04873944257","","0.301504441","","0.1870328522","","","","","","",""
"26","","bandit","164","365864","0.0-126.0-0.0","95138080","wem/bandit_single","AOXM7IK32TST5","gain","1","","76","L","3","","0","0","1","0.1786415591","","false","89","0.2368651839","","main_expt","0.05553778571","","0.3324072184","","0.1786415591","","","","","","",""
"27","","bandit","165","367646","0.0-127.0-0.0","95138080","wem/bandit_single","AOXM7IK32TST5","gain","1","","72","H","0","img/none_selected.jpg","0","0","1","0.2459093935","","false","90","0.2459093935","","main_expt","0.04980790846","","0.3245139686","","0.2293974223","","","","","","",""
"34","","bandit","166","369439","0.0-128.0-0.0","95138080","wem/bandit_single","AOXM7IK32TST5","gain","1","","72","H","0","img/none_selected.jpg","1","0","0","0.2371609774","","false","91","0.2371609774","","main_expt","0.05804880768","","0.3310751299","","0.2407797963","","","","","","",""
"48","","bandit","167","371245","0.0-129.0-0.0","95138080","wem/bandit_single","AOXM7IK32TST5","gain","1","","72","H","0","img/none_selected.jpg","1","0","0","0.260478489","","false","92","0.260478489","","main_expt","0.0614883172","","0.3717444616","","0.2337544695","","","","","","",""
"208","","bandit","168","373211","0.0-130.0-0.0","95138080","wem/bandit_single","AOXM7IK32TST5","gain","1","","72","H","0","img/none_selected.jpg","1","0","0","0.2595992258","","false","93","0.2595992258","","main_expt","0.0764333552","","0.3846532122","","0.2589688886","","","","","","",""
"151","","bandit","169","375121","0.0-131.0-0.0","95138080","wem/bandit_single","AOXM7IK32TST5","gain","1","","72","H","0","img/none_selected.jpg","0","0","1","0.206568391","","false","94","0.206568391","","main_expt","0.1280824273","","0.4017211595","","0.2699529923","","","","","","",""
"32","","bandit","170","376911","0.0-132.0-0.0","95138080","wem/bandit_single","AOXM7IK32TST5","gain","1","","72","H","0","img/none_selected.jpg","0","0","1","0.1846794781","","false","95","0.1846794781","","main_expt","0.1191245721","","0.3736639641","","0.2626559999","","","","","","",""
"128","","bandit","171","378798","0.0-133.0-0.0","95138080","wem/bandit_single","AOXM7IK32TST5","gain","1","","72","H","0","img/none_selected.jpg","0","0","1","0.2484851932","","false","96","0.2484851932","","main_expt","0.08526153109","","0.3220453652","","0.2196428224","","","","","","",""
"151","","bandit","172","380708","0.0-134.0-0.0","95138080","wem/bandit_single","AOXM7IK32TST5","gain","1","","72","H","0","img/none_selected.jpg","1","0","0","0.198145661","","false","97","0.198145661","","main_expt","0.0775518538","","0.2964534367","","0.1922289922","","","","","","",""
"121","","bandit","173","382589","0.0-135.0-0.0","95138080","wem/bandit_single","AOXM7IK32TST5","gain","1","","72","H","0","img/none_selected.jpg","0","0","1","0.1738253929","","false","98","0.1738253929","","main_expt","0.08824897118","","0.3388366936","","0.2328023708","","","","","","",""
"36","","bandit","174","384384","0.0-136.0-0.0","95138080","wem/bandit_single","AOXM7IK32TST5","gain","1","","72","H","0","img/none_selected.jpg","0","0","1","0.1261523865","","false","99","0.1261523865","","main_expt","0.08912321317","","0.4233536788","","0.2606341713","","","","","","",""
"99","","bandit","175","386241","0.0-137.0-0.0","95138080","wem/bandit_single","AOXM7IK32TST5","gain","1","","75","K","2","","0","0","1","0.3799029244","","false","100","0.1368684177","","main_expt","0.1217067293","","0.3799029244","","0.310387162","","","","","","",""
"495","","bandit","176","388497","0.0-138.0-0.0","95138080","wem/bandit_single","AOXM7IK32TST5","gain","1","","76","L","3","","0","0","1","0.3802628165","","false","101","0.1262970555","","main_expt","0.08537200695","","0.3644029447","","0.3802628165","","","","","","",""
"188","","bandit","177","390443","0.0-139.0-0.0","95138080","wem/bandit_single","AOXM7IK32TST5","gain","1","","76","L","3","","0","0","1","0.4133848668","","false","102","0.1022564356","","main_expt","0.09606980913","","0.3414838768","","0.4133848668","","","","","","",""
"25","","bandit","178","392225","0.0-140.0-0.0","95138080","wem/bandit_single","AOXM7IK32TST5","gain","1","","72","H","0","img/none_selected.jpg","0","0","1","0.07046703442","","false","103","0.07046703442","","main_expt","0.09968925047","","0.3691073091","","0.4352089555","","","","","","",""
"122","","bandit","179","394107","0.0-141.0-0.0","95138080","wem/bandit_single","AOXM7IK32TST5","gain","1","","76","L","3","","0","0","1","0.4248252031","","false","104","0.08582175226","","main_expt","0.1070137741","","0.3386210986","","0.4248252031","","","","","","",""
"86","","bandit","180","395953","0.0-142.0-0.0","95138080","wem/bandit_single","AOXM7IK32TST5","gain","1","","75","K","2","","0","0","1","0.3517858304","","false","105","0.08910626196","","main_expt","0.1086060941","","0.3517858304","","0.4382512542","","","","","","",""
"122","","bandit","181","397836","0.0-143.0-0.0","95138080","wem/bandit_single","AOXM7IK32TST5","gain","1","","74","J","1","","0","0","1","0.1006724549","","false","106","0.09380004764","","main_expt","0.1006724549","","0.4016578568","","0.4551412652","","","","","","",""
"67","","bandit","182","399663","0.0-144.0-0.0","95138080","wem/bandit_single","AOXM7IK32TST5","gain","1","","72","H","0","img/none_selected.jpg","0","0","1","0.08916311959","","false","107","0.08916311959","","main_expt","0.07769839914","","0.3951748439","","0.4481373055","","","","","","",""
"163","","bandit","183","401583","0.0-145.0-0.0","95138080","wem/bandit_single","AOXM7IK32TST5","gain","1","","76","L","3","","0","0","1","0.4611843773","","false","108","0.1635033392","","main_expt","0.09470950607","","0.3933810371","","0.4611843773","","","","","","",""
"190","","bandit","184","403533","0.0-146.0-0.0","95138080","wem/bandit_single","AOXM7IK32TST5","gain","1","","72","H","0","img/none_selected.jpg","0","0","1","0.1923408453","","false","109","0.1923408453","","main_expt","0.1117426234","","0.3961603237","","0.416280782","","","","","","",""
"26","","bandit","185","405318","0.0-147.0-0.0","95138080","wem/bandit_single","AOXM7IK32TST5","gain","1","","75","K","2","","0","0","1","0.3933476799","","false","110","0.1668397223","","main_expt","0.1190643529","","0.3933476799","","0.3959176693","","","","","","",""
"177","","bandit","186","407252","0.0-148.0-0.0","95138080","wem/bandit_single","AOXM7IK32TST5","gain","1","","76","L","3","","0","0","1","0.3881072513","","false","111","0.1254506171","","main_expt","0.1605091549","","0.3953313537","","0.3881072513","","","","","","",""
"161","","bandit","187","409172","0.0-149.0-0.0","95138080","wem/bandit_single","AOXM7IK32TST5","gain","1","","76","L","3","","1","0","0","0.3430735849","","false","112","0.1596839241","","main_expt","0.1531505469","","0.3398422341","","0.3430735849","","","","","","",""
"53","","bandit","188","410985","0.0-150.0-0.0","95138080","wem/bandit_single","AOXM7IK32TST5","gain","1","","76","L","3","","1","0","0","0.3036143476","","false","113","0.1986187203","","main_expt","0.1796188848","","0.375538402","","0.3036143476","","","","","","",""
"35","","bandit","189","412780","0.0-151.0-0.0","95138080","wem/bandit_single","AOXM7IK32TST5","gain","1","","76","L","3","","1","0","0","0.3581708668","","false","114","0.2334514198","","main_expt","0.1820080726","","0.3629483147","","0.3581708668","","","","","","",""
"43","","bandit","190","414583","0.0-152.0-0.0","95138080","wem/bandit_single","AOXM7IK32TST5","gain","1","","76","L","3","","1","0","0","0.2948471219","","false","115","0.1892672839","","main_expt","0.2050936175","","0.2969550108","","0.2948471219","","","","","","",""
"53","","bandit","191","416397","0.0-153.0-0.0","95138080","wem/bandit_single","AOXM7IK32TST5","gain","1","","76","L","3","","0","0","1","0.2711132382","","false","116","0.1507180646","","main_expt","0.2071503316","","0.260261953","","0.2711132382","","","","","","",""
"59","","bandit","192","418215","0.0-154.0-0.0","95138080","wem/bandit_single","AOXM7IK32TST5","gain","1","","76","L","3","","1","0","0","0.3124997295","","false","117","0.1830546279","","main_expt","0.2359882763","","0.2626326191","","0.3124997295","","","","","","",""
"45","","bandit","193","420019","0.0-155.0-0.0","95138080","wem/bandit_single","AOXM7IK32TST5","gain","1","","76","L","3","","0","0","1","0.3888019654","","false","118","0.1415506149","","main_expt","0.2388261631","","0.2933310536","","0.3888019654","","","","","","",""
"157","","bandit","194","421934","0.0-156.0-0.0","95138080","wem/bandit_single","AOXM7IK32TST5","gain","1","","76","L","3","","0","0","1","0.3695751837","","false","119","0.1814909568","","main_expt","0.2470137322","","0.2469992957","","0.3695751837","","","","","","",""
"538","","bandit","195","424231","0.0-157.0-0.0","95138080","wem/bandit_single","AOXM7IK32TST5","gain","1","","76","L","3","","1","0","0","0.3471196364","","false","120","0.1900691043","","main_expt","0.209676098","","0.2186909282","","0.3471196364","","","","","","",""
"367","","bandit","196","426357","0.0-158.0-0.0","95138080","wem/bandit_single","AOXM7IK32TST5","gain","1","","76","L","3","","0","0","1","0.3164400491","","false","121","0.2002257321","","main_expt","0.2058519679","","0.1915374776","","0.3164400491","","","","","","",""
"457","","bandit","197","428576","0.0-159.0-0.0","95138080","wem/bandit_single","AOXM7IK32TST5","gain","1","","76","L","3","","1","0","0","0.3565888941","","false","122","0.2000360786","","main_expt","0.1409467191","","0.1666700693","","0.3565888941","","","","","","",""
"546","","bandit","198","430882","0.0-160.0-0.0","95138080","wem/bandit_single","AOXM7IK32TST5","gain","1","","76","L","3","","0","0","1","0.3293983066","","false","123","0.1656706666","","main_expt","0.08785727187","","0.1779758636","","0.3293983066","","","","","","",""
"287","","bandit","199","432929","0.0-161.0-0.0","95138080","wem/bandit_single","AOXM7IK32TST5","gain","1","","76","L","3","","0","0","1","0.3202360925","","false","124","0.2433115295","","main_expt","0.1153756664","","0.2483730269","","0.3202360925","","","","","","",""
"106","","bandit","200","434795","0.0-162.0-0.0","95138080","wem/bandit_single","AOXM7IK32TST5","gain","1","","76","L","3","","1","0","0","0.3478690395","","false","125","0.1810024247","","main_expt","0.1211147435","","0.2274485556","","0.3478690395","","","","","","",""
"71","","bandit","201","436625","0.0-163.0-0.0","95138080","wem/bandit_single","AOXM7IK32TST5","gain","1","","76","L","3","","0","0","1","0.3312811416","","false","126","0.2138299762","","main_expt","0.1434737457","","0.2506805994","","0.3312811416","","","","","","",""
"479","","bandit","202","438863","0.0-164.0-0.0","95138080","wem/bandit_single","AOXM7IK32TST5","gain","1","","76","L","3","","0","0","1","0.2641060438","","false","127","0.1993304114","","main_expt","0.1970801631","","0.2520497492","","0.2641060438","","","","","","",""
"387","","bandit","203","441010","0.0-165.0-0.0","95138080","wem/bandit_single","AOXM7IK32TST5","gain","1","","76","L","3","","0","0","1","0.2239657692","","false","128","0.2602773644","","main_expt","0.2891253811","","0.1948091286","","0.2239657692","","","","","","",""
"151","","bandit","204","442920","0.0-166.0-0.0","95138080","wem/bandit_single","AOXM7IK32TST5","gain","1","","76","L","3","","0","0","1","0.2243581634","","false","129","0.2960784606","","main_expt","0.2389970352","","0.1749799719","","0.2243581634","","","","","","",""
"77","","bandit","205","444754","0.0-167.0-0.0","95138080","wem/bandit_single","AOXM7IK32TST5","gain","1","","76","L","3","","0","0","1","0.2215765871","","false","130","0.2720271615","","main_expt","0.2613596901","","0.1950546205","","0.2215765871","","","","","","",""
"102","","bandit","206","446616","0.0-168.0-0.0","95138080","wem/bandit_single","AOXM7IK32TST5","gain","1","","74","J","1","","1","0","0","0.2254289723","","false","131","0.2403459828","","main_expt","0.2254289723","","0.2501377387","","0.1796651873","","","","","","",""
"154","","bandit","207","448529","0.0-169.0-0.0","95138080","wem/bandit_single","AOXM7IK32TST5","gain","1","","74","J","1","","0","0","1","0.2759434303","","false","132","0.2261584059","","main_expt","0.2759434303","","0.2275015869","","0.1946412172","","","","","","",""
"225","","bandit","208","450516","0.0-170.0-0.0","95138080","wem/bandit_single","AOXM7IK32TST5","gain","1","","74","J","1","","0","0","1","0.3153186182","","false","133","0.225512635","","main_expt","0.3153186182","","0.1961271051","","0.2390261597","","","","","","",""
"201","","bandit","209","452476","0.0-171.0-0.0","95138080","wem/bandit_single","AOXM7IK32TST5","gain","1","","74","J","1","","1","0","0","0.2950667763","","false","134","0.2119287539","","main_expt","0.2950667763","","0.2508816485","","0.227958871","","","","","","",""
"188","","bandit","210","454423","0.0-172.0-0.0","95138080","wem/bandit_single","AOXM7IK32TST5","gain","1","","74","J","1","","0","0","1","0.3307223606","","false","135","0.1980603764","","main_expt","0.3307223606","","0.3394706536","","0.2312014448","","","","","","",""
"56","","bandit","211","456239","0.0-173.0-0.0","95138080","wem/bandit_single","AOXM7IK32TST5","gain","1","","74","J","1","","0","0","1","0.3298223854","","false","136","0.2325476757","","main_expt","0.3298223854","","0.2837829406","","0.27599984","","","","","","",""
"29","","bandit","212","458029","0.0-174.0-0.0","95138080","wem/bandit_single","AOXM7IK32TST5","gain","1","","74","J","1","","1","0","0","0.3330531331","","false","137","0.2334264213","","main_expt","0.3330531331","","0.3024244849","","0.2313694212","","","","","","",""
"121","","bandit","213","459911","0.0-175.0-0.0","95138080","wem/bandit_single","AOXM7IK32TST5","gain","1","","74","J","1","","0","0","1","0.292929501","","false","138","0.3107735177","","main_expt","0.292929501","","0.3473265679","","0.1816115857","","","","","","",""
"100","","bandit","214","461772","0.0-176.0-0.0","95138080","wem/bandit_single","AOXM7IK32TST5","gain","1","","74","J","1","","0","0","1","0.2849421758","","false","139","0.3374098654","","main_expt","0.2849421758","","0.2828336224","","0.1658496667","","","","","","",""
"52","","bandit","215","463581","0.0-177.0-0.0","95138080","wem/bandit_single","AOXM7IK32TST5","gain","1","","74","J","1","","1","0","0","0.3149573531","","false","140","0.3401298673","","main_expt","0.3149573531","","0.3238397914","","0.1644365985","","","","","","",""
"99","","bandit","216","465441","0.0-178.0-0.0","95138080","wem/bandit_single","AOXM7IK32TST5","gain","1","","74","J","1","","0","0","1","0.2937847178","","false","141","0.363539884","","main_expt","0.2937847178","","0.3490905252","","0.16055167","","","","","","",""
"108","","bandit","217","467311","0.0-179.0-0.0","95138080","wem/bandit_single","AOXM7IK32TST5","gain","1","","72","H","0","img/none_selected.jpg","0","0","1","0.3207651517","","false","142","0.3207651517","","main_expt","0.2695919138","","0.337853111","","0.1426499966","","","","","","",""
"121","","bandit","218","469193","0.0-180.0-0.0","95138080","wem/bandit_single","AOXM7IK32TST5","gain","1","","75","K","2","","1","0","0","0.3475703167","","false","143","0.2976941359","","main_expt","0.206179854","","0.3475703167","","0.1133276474","","","","","","",""
"172","","bandit","219","471125","0.0-181.0-0.0","95138080","wem/bandit_single","AOXM7IK32TST5","gain","1","","75","K","2","","0","0","1","0.3809945211","","false","144","0.2405576463","","main_expt","0.2123329462","","0.3809945211","","0.1351054788","","","","","","",""
"77","","bandit","220","472961","0.0-182.0-0.0","95138080","wem/bandit_single","AOXM7IK32TST5","gain","1","","75","K","2","","0","0","1","0.3842622547","","false","145","0.2513929943","","main_expt","0.2144195617","","0.3842622547","","0.1703546958","","","","","","",""
"52","","bandit","221","474774","0.0-183.0-0.0","95138080","wem/bandit_single","AOXM7IK32TST5","gain","1","","75","K","2","","1","0","0","0.4068715463","","false","146","0.2665850657","","main_expt","0.2264269311","","0.4068715463","","0.1382352341","","","","","","",""
"15","","bandit","222","476551","0.0-184.0-0.0","95138080","wem/bandit_single","AOXM7IK32TST5","gain","1","","75","K","2","","0","0","1","0.3690267696","","false","147","0.2742171136","","main_expt","0.2458089499","","0.3690267696","","0.1111211324","","","","","","",""
"205","","bandit","223","478517","0.0-185.0-0.0","95138080","wem/bandit_single","AOXM7IK32TST5","gain","1","","75","K","2","","1","0","0","0.3999465919","","false","148","0.2504516377","","main_expt","0.2581131455","","0.3999465919","","0.1046256567","","","","","","",""
"78","","bandit","224","480355","0.0-186.0-0.0","95138080","wem/bandit_single","AOXM7IK32TST5","gain","1","","75","K","2","","1","0","0","0.3823047489","","false","149","0.2749888299","","main_expt","0.2055420423","","0.3823047489","","0.09450025474","","","","","","",""
"254","","bandit","225","482369","0.0-187.0-0.0","95138080","wem/bandit_single","AOXM7IK32TST5","gain","1","","75","K","2","","1","0","0","0.3970301866","","false","150","0.2199302859","","main_expt","0.2196547661","","0.3970301866","","0.08682851814","","","","","","",""
"204","","bandit","226","484333","0.0-188.0-0.0","95138080","wem/bandit_single","AOXM7IK32TST5","gain","1","","75","K","2","","1","0","0","0.4141828336","","false","151","0.228921305","","main_expt","0.2311854424","","0.4141828336","","0.0775356828","","","","","","",""
"26","","bandit","227","486120","0.0-189.0-0.0","95138080","wem/bandit_single","AOXM7IK32TST5","gain","1","","75","K","2","","0","0","1","0.4233092002","","false","152","0.1858313389","","main_expt","0.2692750042","","0.4233092002","","0.08719832593","","","","","","",""
"849","","bandit","228","488728","0.0-190.0-0.0","95138080","wem/bandit_single","AOXM7IK32TST5","gain","1","","75","K","2","","0","0","1","0.3961827626","","false","153","0.2253380596","","main_expt","0.3209664266","","0.3961827626","","0.06950392785","","","","","","",""
"114","","bandit","229","490602","0.0-191.0-0.0","95138080","wem/bandit_single","AOXM7IK32TST5","gain","1","","74","J","1","","1","0","0","0.2633096479","","false","154","0.1787374968","","main_expt","0.2633096479","","0.4023640633","","0.09734883616","","","","","","",""
"488","","bandit","230","492851","0.0-192.0-0.0","95138080","wem/bandit_single","AOXM7IK32TST5","gain","1","","74","J","1","","1","0","0","0.2611493198","","false","155","0.1026625787","","main_expt","0.2611493198","","0.3927422998","","0.1078867986","","","","","","",""
"447","","bandit","231","495059","0.0-193.0-0.0","95138080","wem/bandit_single","AOXM7IK32TST5","gain","1","","74","J","1","","1","0","0","0.2556392324","","false","156","0.1201393653","","main_expt","0.2556392324","","0.3696188161","","0.09294383108","","","","","","",""
"260","","bandit","232","497078","0.0-194.0-0.0","95138080","wem/bandit_single","AOXM7IK32TST5","gain","1","","74","J","1","","0","0","1","0.2237912435","","false","157","0.1601810659","","main_expt","0.2237912435","","0.3562863837","","0.1344904143","","","","","","",""
"159","","bandit","233","498998","0.0-195.0-0.0","95138080","wem/bandit_single","AOXM7IK32TST5","gain","1","","76","L","3","","0","0","1","0.1682501471","","false","158","0.2178666355","","main_expt","0.2269937079","","0.3891013447","","0.1682501471","","","","","","",""
"472","","bandit","234","501230","0.0-196.0-0.0","95138080","wem/bandit_single","AOXM7IK32TST5","gain","1","","74","J","1","","0","0","1","0.2244600926","","false","159","0.2088119712","","main_expt","0.2244600926","","0.3771509201","","0.1859978291","","","","","","",""
"43","","bandit","235","503034","0.0-197.0-0.0","95138080","wem/bandit_single","AOXM7IK32TST5","gain","1","","72","H","0","img/none_selected.jpg","1","0","0","0.2853399033","","false","160","0.2853399033","","main_expt","0.231654425","","0.3677966378","","0.1169857497","","","","","","",""
"41","","bandit","236","504838","0.0-198.0-0.0","95138080","wem/bandit_single","AOXM7IK32TST5","gain","1","","72","H","0","img/none_selected.jpg","1","0","0","0.2755093387","","false","161","0.2755093387","","main_expt","0.2415747561","","0.3691576932","","0.1131976547","","","","","","",""
"215","","bandit","237","506814","0.0-199.0-0.0","95138080","wem/bandit_single","AOXM7IK32TST5","gain","1","","72","H","0","img/none_selected.jpg","0","0","1","0.2706635439","","false","162","0.2706635439","","main_expt","0.1807921844","","0.3102253273","","0.1560378341","","","","","","",""
"11","","bandit","238","508586","0.0-200.0-0.0","95138080","wem/bandit_single","AOXM7IK32TST5","gain","1","","72","H","0","img/none_selected.jpg","1","0","0","0.2856851073","","false","163","0.2856851073","","main_expt","0.1986212186","","0.3361037566","","0.1200759877","","","","","","",""
"386","","bandit","239","510732","0.0-201.0-0.0","95138080","wem/bandit_single","AOXM7IK32TST5","gain","1","","72","H","0","img/none_selected.jpg","0","0","1","0.3188827228","","false","164","0.3188827228","","main_expt","0.1799022971","","0.3097300036","","0.1198838954","","","","","","",""
"169","","bandit","240","512661","0.0-202.0-0.0","95138080","wem/bandit_single","AOXM7IK32TST5","gain","1","","72","H","0","img/none_selected.jpg","0","0","1","0.3258940933","","false","165","0.3258940933","","main_expt","0.2610149466","","0.3234169084","","0.1397308529","","","","","","",""
"76","","bandit","241","514499","0.0-203.0-0.0","95138080","wem/bandit_single","AOXM7IK32TST5","gain","1","","72","H","0","img/none_selected.jpg","1","0","0","0.3525092479","","false","166","0.3525092479","","main_expt","0.2673729835","","0.3201458278","","0.1506282743","","","","","","",""
"805","","bandit","242","517065","0.0-204.0-0.0","95138080","wem/bandit_single","AOXM7IK32TST5","gain","1","","72","H","0","img/none_selected.jpg","0","0","1","0.3919017073","","false","167","0.3919017073","","main_expt","0.169486101","","0.366643239","","0.1407574557","","","","","","",""
"250","","bandit","243","519075","0.0-205.0-0.0","95138080","wem/bandit_single","AOXM7IK32TST5","gain","1","","72","H","0","img/none_selected.jpg","1","0","0","0.3855955566","","false","168","0.3855955566","","main_expt","0.1997030364","","0.3877512758","","0.1217255528","","","","","","",""
"76","","bandit","244","520913","0.0-206.0-0.0","95138080","wem/bandit_single","AOXM7IK32TST5","gain","1","","72","H","0","img/none_selected.jpg","0","0","1","0.3882436634","","false","169","0.3882436634","","main_expt","0.2391799942","","0.3733196812","","0.118108524","","","","","","",""
"16","","bandit","245","522691","0.0-207.0-0.0","95138080","wem/bandit_single","AOXM7IK32TST5","gain","1","","74","J","1","","1","0","0","0.2239577552","","false","170","0.4096789578","","main_expt","0.2239577552","","0.3616719183","","0.0750780909","","","","","","",""
"14","","bandit","246","524465","0.0-208.0-0.0","95138080","wem/bandit_single","AOXM7IK32TST5","gain","1","","74","J","1","","1","0","0","0.2175962327","","false","171","0.4326257363","","main_expt","0.2175962327","","0.3222484871","","0.07048665386","","","","","","",""
"32","","bandit","247","526258","0.0-209.0-0.0","95138080","wem/bandit_single","AOXM7IK32TST5","gain","1","","74","J","1","","0","0","1","0.2061205584","","false","172","0.4381189537","","main_expt","0.2061205584","","0.2849842628","","0.09439478605","","","","","","",""
"191","","bandit","248","528210","0.0-210.0-0.0","95138080","wem/bandit_single","AOXM7IK32TST5","gain","1","","75","K","2","","0","0","1","0.2896949147","","false","173","0.3823577146","","main_expt","0.1787022686","","0.2896949147","","0.05932603211","","","","","","",""
"86","","bandit","249","530058","0.0-211.0-0.0","95138080","wem/bandit_single","AOXM7IK32TST5","gain","1","","74","J","1","","0","0","1","0.1782801474","","false","174","0.4155511425","","main_expt","0.1782801474","","0.260829927","","0.1019229976","","","","","","",""
"26","","bandit","250","531846","0.0-212.0-0.0","95138080","wem/bandit_single","AOXM7IK32TST5","gain","1","","76","L","3","","0","0","1","0.1270031357","","false","175","0.4391025654","","main_expt","0.1723114597","","0.1608433896","","0.1270031357","","","","","","",""
"252","","bandit","251","533859","0.0-213.0-0.0","95138080","wem/bandit_single","AOXM7IK32TST5","gain","1","","74","J","1","","0","0","1","0.1714247165","","false","176","0.4654332747","","main_expt","0.1714247165","","0.1924323662","","0.1519507126","","","","","","",""
"27","","bandit","252","535646","0.0-214.0-0.0","95138080","wem/bandit_single","AOXM7IK32TST5","gain","1","","75","K","2","","1","0","0","0.1942299772","","false","177","0.4862166952","","main_expt","0.2003569552","","0.1942299772","","0.2645819263","","","","","","",""
"150","","bandit","253","537561","0.0-215.0-0.0","95138080","wem/bandit_single","AOXM7IK32TST5","gain","1","","75","K","2","","1","0","0","0.2266891382","","false","178","0.4878504479","","main_expt","0.1848954505","","0.2266891382","","0.2497033982","","","","","","",""
"18","","bandit","254","539339","0.0-216.0-0.0","95138080","wem/bandit_single","AOXM7IK32TST5","gain","1","","75","K","2","","1","0","0","0.193755509","","false","179","0.4925433574","","main_expt","0.120488448","","0.193755509","","0.2464833147","","","","","","",""
"25","","bandit","255","541125","0.0-217.0-0.0","95138080","wem/bandit_single","AOXM7IK32TST5","gain","1","","75","K","2","","0","0","1","0.2143300014","","false","180","0.4863546804","","main_expt","0.09518531587","","0.2143300014","","0.191435525","","","","","","",""
"453","","bandit","256","543338","0.0-218.0-0.0","95138080","wem/bandit_single","AOXM7IK32TST5","gain","1","","75","K","2","","0","0","1","0.1996101457","","false","181","0.4898831258","","main_expt","0.1110105533","","0.1996101457","","0.2095150634","","","","","","",""
"410","","bandit","257","545509","0.0-219.0-0.0","95138080","wem/bandit_single","AOXM7IK32TST5","gain","1","","75","K","2","","0","0","1","0.220362663","","false","182","0.4702328405","","main_expt","0.1321710188","","0.220362663","","0.2238619417","","","","","","",""
"83","","bandit","258","547352","0.0-220.0-0.0","95138080","wem/bandit_single","AOXM7IK32TST5","gain","1","","74","J","1","","0","0","1","0.07205074818","","false","183","0.4443650637","","main_expt","0.07205074818","","0.2087999581","","0.172430875","","","","","","",""
"230","","bandit","259","549344","0.0-221.0-0.0","95138080","wem/bandit_single","AOXM7IK32TST5","gain","1","","76","L","3","","0","0","1","0.1537152065","","false","184","0.4395551327","","main_expt","0.08140980564","","0.2693368533","","0.1537152065","","","","","","",""
"116","","bandit","260","551220","0.0-222.0-0.0","95138080","wem/bandit_single","AOXM7IK32TST5","gain","1","","72","H","0","img/none_selected.jpg","1","0","0","0.427498872","","false","185","0.427498872","","main_expt","0.07005875891","","0.3177788722","","0.1089078126","","","","","","",""
"157","","bandit","261","553139","0.0-223.0-0.0","95138080","wem/bandit_single","AOXM7IK32TST5","gain","1","","72","H","0","img/none_selected.jpg","1","0","0","0.4126395781","","false","186","0.4126395781","","main_expt","0.04712836877","","0.3093747324","","0.1150542287","","","","","","",""
"23","","bandit","262","554924","0.0-224.0-0.0","95138080","wem/bandit_single","AOXM7IK32TST5","gain","1","","72","H","0","img/none_selected.jpg","0","0","1","0.4059631444","","false","187","0.4059631444","","main_expt","0.07097221374","","0.3361469263","","0.07877539194","","","","","","",""
"43","","bandit","263","556729","0.0-225.0-0.0","95138080","wem/bandit_single","AOXM7IK32TST5","gain","1","","72","H","0","img/none_selected.jpg","0","0","1","0.4007853126","","false","188","0.4007853126","","main_expt","0.04255461481","","0.3096611705","","0.06234325246","","","","","","",""
"157","","bandit","264","558646","0.0-226.0-0.0","95138080","wem/bandit_single","AOXM7IK32TST5","gain","1","","72","H","0","img/none_selected.jpg","0","0","1","0.4208201059","","false","189","0.4208201059","","main_expt","0.03834091028","","0.298651231","","0.07748383332","","","","","","",""
"100","","bandit","265","560507","0.0-227.0-0.0","95138080","wem/bandit_single","AOXM7IK32TST5","gain","1","","75","K","2","","0","0","1","0.3361123746","","false","190","0.4249824956","","main_expt","0.03101500858","","0.3361123746","","0.08864116925","","","","","","",""
"15","","bandit","266","562283","0.0-228.0-0.0","95138080","wem/bandit_single","AOXM7IK32TST5","gain","1","","74","J","1","","0","0","1","0.05137759752","","false","191","0.4519194686","","main_expt","0.05137759752","","0.3529126189","","0.1114019665","","","","","","",""
"11","","bandit","267","564055","0.0-229.0-0.0","95138080","wem/bandit_single","AOXM7IK32TST5","gain","1","","76","L","3","","1","0","0","0.0944181321","","false","192","0.449072141","","main_expt","0.05101019331","","0.3806900048","","0.0944181321","","","","","","",""
"396","","bandit","268","566212","0.0-230.0-0.0","95138080","wem/bandit_single","AOXM7IK32TST5","gain","1","","76","L","3","","1","0","0","0.09015445577","","false","193","0.4069092802","","main_expt","0.0408087357","","0.3191299148","","0.09015445577","","","","","","",""
"113","","bandit","269","568087","0.0-231.0-0.0","95138080","wem/bandit_single","AOXM7IK32TST5","gain","1","","76","L","3","","0","0","1","0.09569888082","","false","194","0.399300076","","main_expt","0.04787233925","","0.3350705725","","0.09569888082","","","","","","",""
"36","","bandit","270","569884","0.0-232.0-0.0","95138080","wem/bandit_single","AOXM7IK32TST5","gain","1","","76","L","3","","0","0","1","0.1521563302","","false","195","0.4028519225","","main_expt","0.07297342555","","0.3579412151","","0.1521563302","","","","","","",""
"124","","bandit","271","571771","0.0-233.0-0.0","95138080","wem/bandit_single","AOXM7IK32TST5","gain","1","","76","L","3","","0","0","1","0.1612876033","","false","196","0.3708283831","","main_expt","0.1090796252","","0.4135102269","","0.1612876033","","","","","","",""
"213","","bandit","272","573746","0.0-234.0-0.0","95138080","wem/bandit_single","AOXM7IK32TST5","gain","1","","76","L","3","","1","0","0","0.1818980103","","false","197","0.3992028251","","main_expt","0.1141593934","","0.4368922102","","0.1818980103","","","","","","",""
"50","","bandit","273","575558","0.0-235.0-0.0","95138080","wem/bandit_single","AOXM7IK32TST5","gain","1","","76","L","3","","1","0","0","0.1426991491","","false","198","0.3662313723","","main_expt","0.1247063377","","0.4329908538","","0.1426991491","","","","","","",""
"391","","bandit","274","577710","0.0-236.0-0.0","95138080","wem/bandit_single","AOXM7IK32TST5","gain","1","","76","L","3","","0","0","1","0.1339470975","","false","199","0.3667285709","","main_expt","0.1324590526","","0.4458308372","","0.1339470975","","","","","","",""
"180","","bandit","275","579652","0.0-237.0-0.0","95138080","wem/bandit_single","AOXM7IK32TST5","gain","1","","76","L","3","","0","0","1","0.1615481579","","false","200","0.365396467","","main_expt","0.1062358191","","0.4535445428","","0.1615481579","","","","","","",""
"74","","bandit","276","581491","0.0-238.0-0.0","95138080","wem/bandit_single","AOXM7IK32TST5","gain","1","","76","L","3","","1","0","0","0.1889616495","","false","201","0.3413602931","","main_expt","0.1027729413","","0.4258040833","","0.1889616495","","","","","","",""
"215","","bandit","277","583468","0.0-239.0-0.0","95138080","wem/bandit_single","AOXM7IK32TST5","gain","1","","76","L","3","","0","0","1","0.2043886565","","false","202","0.3655369163","","main_expt","0.09207086273","","0.413157784","","0.2043886565","","","","","","",""
"113","","bandit","278","585343","0.0-240.0-0.0","95138080","wem/bandit_single","AOXM7IK32TST5","gain","1","","75","K","2","","0","0","1","0.358983575","","false","203","0.3301706169","","main_expt","0.1409949376","","0.358983575","","0.2274570119","","","","","","",""
"33","","bandit","279","587139","0.0-241.0-0.0","95138080","wem/bandit_single","AOXM7IK32TST5","gain","1","","74","J","1","","0","0","1","0.2067441942","","false","204","0.3305557625","","main_expt","0.2067441942","","0.3354839288","","0.1795680912","","","","","","",""
"75","","bandit","280","588971","0.0-242.0-0.0","95138080","wem/bandit_single","AOXM7IK32TST5","gain","1","","72","H","0","img/none_selected.jpg","0","0","1","0.3332543728","","false","205","0.3332543728","","main_expt","0.2171549514","","0.3814446138","","0.1823506393","","","","","","",""
"101","","bandit","281","590835","0.0-243.0-0.0","95138080","wem/bandit_single","AOXM7IK32TST5","gain","1","","76","L","3","","0","0","1","0.1401809595","","false","206","0.270761893","","main_expt","0.1399251859","","0.4069937863","","0.1401809595","","","","","","",""
"206","","bandit","282","592798","0.0-244.0-0.0","95138080","wem/bandit_single","AOXM7IK32TST5","gain","1","","76","L","3","","1","0","0","0.1651993972","","false","207","0.2595670132","","main_expt","0.1700254018","","0.4261201247","","0.1651993972","","","","","","",""
"81","","bandit","283","594641","0.0-245.0-0.0","95138080","wem/bandit_single","AOXM7IK32TST5","gain","1","","76","L","3","","0","0","1","0.1803987852","","false","208","0.2772442529","","main_expt","0.1831619311","","0.4105702951","","0.1803987852","","","","","","",""
"162","","bandit","284","596562","0.0-246.0-0.0","95138080","wem/bandit_single","AOXM7IK32TST5","gain","1","","76","L","3","","0","0","1","0.1470434113","","false","209","0.2654441326","","main_expt","0.151215806","","0.402481318","","0.1470434113","","","","","","",""
"226","","bandit","285","598550","0.0-247.0-0.0","95138080","wem/bandit_single","AOXM7IK32TST5","gain","1","","76","L","3","","0","0","1","0.1375860563","","false","210","0.2475709295","","main_expt","0.1841878728","","0.4378094136","","0.1375860563","","","","","","",""
"56","","bandit","286","600368","0.0-248.0-0.0","95138080","wem/bandit_single","AOXM7IK32TST5","gain","1","","75","K","2","","0","0","1","0.4174257438","","false","211","0.1836637302","","main_expt","0.190591144","","0.4174257438","","0.1181257803","","","","","","",""
"74","","bandit","287","602204","0.0-249.0-0.0","95138080","wem/bandit_single","AOXM7IK32TST5","gain","1","","74","J","1","","0","0","1","0.2024219406","","false","212","0.2018671691","","main_expt","0.2024219406","","0.4235695044","","0.1284194295","","","","","","",""
"21","","bandit","288","603987","0.0-250.0-0.0","95138080","wem/bandit_single","AOXM7IK32TST5","gain","1","","72","H","0","img/none_selected.jpg","0","0","1","0.1807811906","","false","213","0.1807811906","","main_expt","0.1985525674","","0.4112054282","","0.1088774305","","","","","","",""
"121","","bandit","289","605871","0.0-251.0-0.0","95138080","wem/bandit_single","AOXM7IK32TST5","gain","1","","76","L","3","","0","0","1","0.07230623063","","false","214","0.2432807767","","main_expt","0.1940352924","","0.3986702209","","0.07230623063","","","","","","",""
"195","","bandit","290","607828","0.0-252.0-0.0","95138080","wem/bandit_single","AOXM7IK32TST5","gain","1","","76","L","3","","0","0","1","0.07963887701","","false","215","0.2167976264","","main_expt","0.1155678072","","0.4379561577","","0.07963887701","","","","","","",""
"58","","bandit","291","609647","0.0-253.0-0.0","95138080","wem/bandit_single","AOXM7IK32TST5","gain","1","","76","L","3","","0","0","1","0.0792987172","","false","216","0.2963745884","","main_expt","0.08288275022","","0.425003275","","0.0792987172","","","","","","",""
"144","","bandit","292","611552","0.0-254.0-0.0","95138080","wem/bandit_single","AOXM7IK32TST5","gain","1","","74","J","1","","0","0","1","0.1108164962","","false","217","0.2704200786","","main_expt","0.1108164962","","0.4398514333","","0.07576557353","","","","","","",""
"75","","bandit","293","613389","0.0-255.0-0.0","95138080","wem/bandit_single","AOXM7IK32TST5","gain","1","","72","H","0","img/none_selected.jpg","0","0","1","0.2057322541","","false","218","0.2057322541","","main_expt","0.1166222362","","0.4307107256","","0.05946619603","","","","","","",""
"109","","bandit","294","615260","0.0-256.0-0.0","95138080","wem/bandit_single","AOXM7IK32TST5","gain","1","","75","K","2","","1","0","0","0.4236121262","","false","219","0.2143414454","","main_expt","0.1441412427","","0.4236121262","","0.07419684477","","","","","","",""
"453","","bandit","295","617477","0.0-257.0-0.0","95138080","wem/bandit_single","AOXM7IK32TST5","gain","1","","75","K","2","","0","0","1","0.4020148519","","false","220","0.1630835619","","main_expt","0.1460318591","","0.4020148519","","0.09297922461","","","","","","",""
"463","","bandit","296","619702","0.0-258.0-0.0","95138080","wem/bandit_single","AOXM7IK32TST5","gain","1","","75","K","2","","1","0","0","0.4073181559","","false","221","0.1536312793","","main_expt","0.1068666799","","0.4073181559","","0.1429286242","","","","","","",""
"170","","bandit","297","621635","0.0-259.0-0.0","95138080","wem/bandit_single","AOXM7IK32TST5","gain","1","","75","K","2","","0","0","1","0.3651123295","","false","222","0.2214617817","","main_expt","0.1101844092","","0.3651123295","","0.1708286753","","","","","","",""
"194","","bandit","298","623589","0.0-260.0-0.0","95138080","wem/bandit_single","AOXM7IK32TST5","gain","1","","75","K","2","","0","0","1","0.3836441325","","false","223","0.2273662723","","main_expt","0.0707480467","","0.3836441325","","0.1461267001","","","","","","",""
"180","","bandit","299","625532","0.0-261.0-0.0","95138080","wem/bandit_single","AOXM7IK32TST5","gain","1","","76","L","3","","0","0","1","0.144808321","","false","224","0.1894352557","","main_expt","0.06117493494","","0.3982756155","","0.144808321","","","","","","",""
"21","","bandit","300","627314","0.0-262.0-0.0","95138080","wem/bandit_single","AOXM7IK32TST5","gain","1","","74","J","1","","0","0","1","0.0615688762","","false","225","0.1292085382","","main_expt","0.0615688762","","0.3942448394","","0.1890777341","","","","","","",""
"116","","bandit","301","629192","0.0-263.0-0.0","95138080","wem/bandit_single","AOXM7IK32TST5","gain","1","","72","H","0","img/none_selected.jpg","1","0","0","0.1530858041","","false","226","0.1530858041","","main_expt","0.05052633559","","0.4169515918","","0.1442837472","","","","","","",""
"79","","bandit","302","631033","0.0-264.0-0.0","95138080","wem/bandit_single","AOXM7IK32TST5","gain","1","","72","H","0","img/none_selected.jpg","0","0","1","0.1593334253","","false","227","0.1593334253","","main_expt","0.05726050712","","0.4204191544","","0.1425852804","","","","","","",""
"48","","bandit","303","632845","0.0-265.0-0.0","95138080","wem/bandit_single","AOXM7IK32TST5","gain","1","","72","H","0","img/none_selected.jpg","0","0","1","0.1247523642","","false","228","0.1247523642","","main_expt","0.0758768547","","0.4091886","","0.1116716659","","","","","","",""
"21","","bandit","304","634628","0.0-266.0-0.0","95138080","wem/bandit_single","AOXM7IK32TST5","gain","1","","75","K","2","","0","0","1","0.407276644","","false","229","0.1463700977","","main_expt","0.07022353505","","0.407276644","","0.1206121499","","","","","","",""
"44","","bandit","305","636433","0.0-267.0-0.0","95138080","wem/bandit_single","AOXM7IK32TST5","gain","1","","75","K","2","","0","0","1","0.4254558538","","false","230","0.1402324221","","main_expt","0.06577032649","","0.4254558538","","0.1168532629","","","","","","",""
"1","","bandit","306","638197","0.0-268.0-0.0","95138080","wem/bandit_single","AOXM7IK32TST5","gain","1","","75","K","2","","1","0","0","0.4259586803","","false","231","0.1914784592","","main_expt","0.06313303242","","0.4259586803","","0.0916199044","","","","","","",""
"146","","bandit","307","640104","0.0-269.0-0.0","95138080","wem/bandit_single","AOXM7IK32TST5","gain","1","","75","K","2","","0","0","1","0.4429649496","","false","232","0.1507361932","","main_expt","0.05490827263","","0.4429649496","","0.09573807812","","","","","","",""
"139","","bandit","308","642005","0.0-270.0-0.0","95138080","wem/bandit_single","AOXM7IK32TST5","gain","1","","72","H","0","img/none_selected.jpg","0","0","1","0.1902650793","","false","233","0.1902650793","","main_expt","0.04200611561","","0.4456598826","","0.1246926578","","","","","","",""
"343","","bandit","309","644110","0.0-271.0-0.0","95138080","wem/bandit_single","AOXM7IK32TST5","gain","1","","75","K","2","","1","0","0","0.4504169918","","false","234","0.2663902881","","main_expt","0.0550058871","","0.4504169918","","0.122457211","","","","","","",""
"257","","bandit","310","646130","0.0-272.0-0.0","95138080","wem/bandit_single","AOXM7IK32TST5","gain","1","","75","K","2","","1","0","0","0.4255816076","","false","235","0.257874652","","main_expt","0.06273227262","","0.4255816076","","0.1561374187","","","","","","",""
"222","","bandit","311","648110","0.0-273.0-0.0","95138080","wem/bandit_single","AOXM7IK32TST5","gain","1","","75","K","2","","0","0","1","0.4262424011","","false","236","0.2134416149","","main_expt","0.09869136657","","0.4262424011","","0.1726763947","","","","","","",""
"206","","bandit","312","650078","0.0-274.0-0.0","95138080","wem/bandit_single","AOXM7IK32TST5","gain","1","","75","K","2","","0","0","1","0.4314914545","","false","237","0.1655180868","","main_expt","0.06464195797","","0.4314914545","","0.163453789","","","","","","",""
"184","","bandit","313","652021","0.0-275.0-0.0","95138080","wem/bandit_single","AOXM7IK32TST5","gain","1","","75","K","2","","0","0","1","0.4580147213","","false","238","0.1528926348","","main_expt","0.1092425733","","0.4580147213","","0.1511244057","","","","","","",""
"25","","bandit","314","653808","0.0-276.0-0.0","95138080","wem/bandit_single","AOXM7IK32TST5","gain","1","","72","H","0","img/none_selected.jpg","0","0","1","0.1594670864","","false","239","0.1594670864","","main_expt","0.08920017271","","0.4437162142","","0.1170855371","","","","","","",""
"127","","bandit","315","655698","0.0-277.0-0.0","95138080","wem/bandit_single","AOXM7IK32TST5","gain","1","","74","J","1","","1","0","0","0.138477068","","false","240","0.104293197","","main_expt","0.138477068","","0.4423909474","","0.1281478965","","","","","","",""
"84","","bandit","316","657544","0.0-278.0-0.0","95138080","wem/bandit_single","AOXM7IK32TST5","gain","1","","74","J","1","","0","0","1","0.1249513709","","false","241","0.07968297136","","main_expt","0.1249513709","","0.4542424264","","0.1579661802","","","","","","",""
"102","","bandit","317","659407","0.0-279.0-0.0","95138080","wem/bandit_single","AOXM7IK32TST5","gain","1","","74","J","1","","0","0","1","0.09754639251","","false","242","0.07079416442","","main_expt","0.09754639251","","0.4659063812","","0.1345462726","","","","","","",""
"92","","bandit","318","661263","0.0-280.0-0.0","95138080","wem/bandit_single","AOXM7IK32TST5","gain","1","","74","J","1","","0","0","1","0.1223474156","","false","243","0.08709770617","","main_expt","0.1223474156","","0.4702771719","","0.1793426478","","","","","","",""
"71","","bandit","319","663097","0.0-281.0-0.0","95138080","wem/bandit_single","AOXM7IK32TST5","gain","1","","76","L","3","","0","0","1","0.1623289848","","false","244","0.08252109256","","main_expt","0.1004902073","","0.4678480784","","0.1623289848","","","","","","",""
"33","","bandit","320","664889","0.0-282.0-0.0","95138080","wem/bandit_single","AOXM7IK32TST5","gain","1","","75","K","2","","0","0","1","0.4608336118","","false","245","0.07130924754","","main_expt","0.09372717231","","0.4608336118","","0.1638267454","","","","","","",""
"28","","bandit","321","666679","0.0-283.0-0.0","95138080","wem/bandit_single","AOXM7IK32TST5","gain","1","","75","K","2","","1","0","0","0.4455928316","","false","246","0.06886742221","","main_expt","0.1004977064","","0.4455928316","","0.1794660524","","","","","","",""
"18","","bandit","322","668459","0.0-284.0-0.0","95138080","wem/bandit_single","AOXM7IK32TST5","gain","1","","75","K","2","","1","0","0","0.4322927154","","false","247","0.064138504","","main_expt","0.09336015453","","0.4322927154","","0.1751092572","","","","","","",""
"11","","bandit","323","670233","0.0-285.0-0.0","95138080","wem/bandit_single","AOXM7IK32TST5","gain","1","","75","K","2","","1","0","0","0.4293825987","","false","248","0.05051083443","","main_expt","0.09552903486","","0.4293825987","","0.188480637","","","","","","",""
"305","","bandit","324","672301","0.0-286.0-0.0","95138080","wem/bandit_single","AOXM7IK32TST5","gain","1","","75","K","2","","1","0","0","0.4338924945","","false","249","0.05514480776","","main_expt","0.1087111068","","0.4338924945","","0.1718025207","","","","","","",""
"231","","bandit","325","674294","0.0-287.0-0.0","95138080","wem/bandit_single","AOXM7IK32TST5","gain","1","","75","K","2","","0","0","1","0.4356531551","","false","250","0.02780796002","","main_expt","0.08296073337","","0.4356531551","","0.1377417152","","","","","","",""
"293","","bandit","326","676349","0.0-288.0-0.0","95138080","wem/bandit_single","AOXM7IK32TST5","gain","1","","75","K","2","","0","0","1","0.4561881598","","false","251","0.02786711831","","main_expt","0.08988728922","","0.4561881598","","0.1623098307","","","","","","",""
"19","","bandit","327","678133","0.0-289.0-0.0","95138080","wem/bandit_single","AOXM7IK32TST5","gain","1","","75","K","2","","1","0","0","0.4517263236","","false","252","0.03881205422","","main_expt","0.07043490844","","0.4517263236","","0.1702242208","","","","","","",""
"156","","bandit","328","680053","0.0-290.0-0.0","95138080","wem/bandit_single","AOXM7IK32TST5","gain","1","","75","K","2","","1","0","0","0.4280730872","","false","253","0.03211176865","","main_expt","0.06648959932","","0.4280730872","","0.1571297736","","","","","","",""
"148","","bandit","329","681959","0.0-291.0-0.0","95138080","wem/bandit_single","AOXM7IK32TST5","gain","1","","75","K","2","","0","0","1","0.3976691957","","false","254","0.02501863174","","main_expt","0.04750248463","","0.3976691957","","0.1311762281","","","","","","",""
"43","","bandit","330","683765","0.0-292.0-0.0","95138080","wem/bandit_single","AOXM7IK32TST5","gain","1","","72","H","0","img/none_selected.jpg","0","0","1","0.03845468041","","false","255","0.03845468041","","main_expt","0.0685067328","","0.3920211634","","0.1262313745","","","","","","",""
"159","","bandit","331","685686","0.0-293.0-0.0","95138080","wem/bandit_single","AOXM7IK32TST5","gain","1","","74","J","1","","0","0","1","0.06106940649","","false","256","0.03093107714","","main_expt","0.06106940649","","0.3802568344","","0.08888936201","","","","","","",""
"56","","bandit","332","687505","0.0-294.0-0.0","95138080","wem/bandit_single","AOXM7IK32TST5","gain","1","","76","L","3","","0","0","1","0.1016624202","","false","257","0.02284381284","","main_expt","0.03925251802","","0.4153547565","","0.1016624202","","","","","","",""
"187","","bandit","333","689455","0.0-295.0-0.0","95138080","wem/bandit_single","AOXM7IK32TST5","gain","1","","75","K","2","","0","0","1","0.412770775","","false","258","0.01195927332","","main_expt","0.07528758783","","0.412770775","","0.1201960749","","","","","","",""
"166","","bandit","334","691383","0.0-296.0-0.0","95138080","wem/bandit_single","AOXM7IK32TST5","gain","1","","75","K","2","","1","0","0","0.4364469878","","false","259","0.009837890866","","main_expt","0.06168900656","","0.4364469878","","0.09869940493","","","","","","",""
"163","","bandit","335","693308","0.0-297.0-0.0","95138080","wem/bandit_single","AOXM7IK32TST5","gain","1","","75","K","2","","0","0","1","0.4143686848","","false","260","0.01652501309","","main_expt","0.05358732337","","0.4143686848","","0.140367269","","","","","","",""
"103","","bandit","336","695177","0.0-298.0-0.0","95138080","wem/bandit_single","AOXM7IK32TST5","gain","1","","75","K","2","","1","0","0","0.3932103286","","false","261","0.0246934762","","main_expt","0.05974294151","","0.3932103286","","0.107121031","","","","","","",""
"212","","bandit","337","697150","0.0-299.0-0.0","95138080","wem/bandit_single","AOXM7IK32TST5","gain","1","","75","K","2","","1","0","0","0.4299042069","","false","262","0.02217338967","","main_expt","0.0656558392","","0.4299042069","","0.142880744","","","","","","",""
"66","","bandit","338","698974","0.0-300.0-0.0","95138080","wem/bandit_single","AOXM7IK32TST5","gain","1","","75","K","2","","1","0","0","0.3864913748","","false","263","0.02538488248","","main_expt","0.08006927963","","0.3864913748","","0.1398656543","","","","","","",""
"121","","bandit","339","700858","0.0-301.0-0.0","95138080","wem/bandit_single","AOXM7IK32TST5","gain","1","","75","K","2","","0","0","1","0.3721946297","","false","264","0.03542132602","","main_expt","0.07803510261","","0.3721946297","","0.185630342","","","","","","",""
"155","","bandit","340","702775","0.0-302.0-0.0","95138080","wem/bandit_single","AOXM7IK32TST5","gain","1","","75","K","2","","0","0","1","0.3326379545","","false","265","0.03052618628","","main_expt","0.08917846028","","0.3326379545","","0.1483619715","","","","","","",""
"202","","bandit","341","704736","0.0-303.0-0.0","95138080","wem/bandit_single","AOXM7IK32TST5","gain","1","","75","K","2","","1","0","0","0.3337002386","","false","266","0.02388326919","","main_expt","0.1562168236","","0.3337002386","","0.1677753502","","","","","","",""
"358","","bandit","342","706857","0.0-304.0-0.0","95138080","wem/bandit_single","AOXM7IK32TST5","gain","1","","75","K","2","","0","0","1","0.3044940876","","false","267","0.01496915784","","main_expt","0.1873085091","","0.3044940876","","0.1748953786","","","","","","",""
"131","","bandit","343","708750","0.0-305.0-0.0","95138080","wem/bandit_single","AOXM7IK32TST5","gain","1","","75","K","2","","1","0","0","0.2966269971","","false","268","0.01735494223","","main_expt","0.1850807086","","0.2966269971","","0.152215306","","","","","","",""
"148","","bandit","344","710662","0.0-306.0-0.0","95138080","wem/bandit_single","AOXM7IK32TST5","gain","1","","75","K","2","","0","0","1","0.2617435325","","false","269","0.01365938384","","main_expt","0.1461958128","","0.2617435325","","0.1420691147","","","","","","",""
"22","","bandit","345","712448","0.0-307.0-0.0","95138080","wem/bandit_single","AOXM7IK32TST5","gain","1","","75","K","2","","0","0","1","0.2599280147","","false","270","0.01871615964","","main_expt","0.1348565207","","0.2599280147","","0.1338049101","","","","","","",""
"16","","bandit","346","714226","0.0-308.0-0.0","95138080","wem/bandit_single","AOXM7IK32TST5","gain","1","","75","K","2","","0","0","1","0.2499936179","","false","271","0.01663887187","","main_expt","0.1588166083","","0.2499936179","","0.1178923734","","","","","","",""
"155","","bandit","347","716144","0.0-309.0-0.0","95138080","wem/bandit_single","AOXM7IK32TST5","gain","1","","75","K","2","","0","0","1","0.2703142459","","false","272","0.01973971225","","main_expt","0.1288650497","","0.2703142459","","0.1436833609","","","","","","",""
"216","","bandit","348","718125","0.0-310.0-0.0","95138080","wem/bandit_single","AOXM7IK32TST5","gain","1","","74","J","1","","0","0","1","0.1414039315","","false","273","0.01954424634","","main_expt","0.1414039315","","0.2835249431","","0.1917782062","","","","","","",""
"63","","bandit","349","719950","0.0-311.0-0.0","95138080","wem/bandit_single","AOXM7IK32TST5","gain","1","","76","L","3","","0","0","1","0.1657285368","","false","274","0.008862655739","","main_expt","0.1132613661","","0.2906451875","","0.1657285368","","","","","","",""
"166","","bandit","350","721879","0.0-312.0-0.0","95138080","wem/bandit_single","AOXM7IK32TST5","gain","1","","72","H","0","img/none_selected.jpg","0","0","1","0.0094605031","","false","275","0.0094605031","","main_expt","0.1396690899","","0.2670480505","","0.1420329436","","","","","","",""
"73","","bandit","351","723716","0.0-313.0-0.0","95138080","wem/bandit_single","AOXM7IK32TST5","gain","1","","72","H","0","img/none_selected.jpg","0","0","1","0.01191149084","","false","276","0.01191149084","","main_expt","0.1109816737","","0.2358592403","","0.1369756733","","","","","","",""
"1","","bandit","352","725475","0.0-314.0-0.0","95138080","wem/bandit_single","AOXM7IK32TST5","gain","1","","76","L","3","","0","0","1","0.1781068979","","false","277","0.00904810236","","main_expt","0.08046464388","","0.1877967456","","0.1781068979","","","","","","",""
"14","","bandit","353","727252","0.0-315.0-0.0","95138080","wem/bandit_single","AOXM7IK32TST5","gain","1","","74","J","1","","0","0","1","0.07407019324","","false","278","0.007795284796","","main_expt","0.07407019324","","0.1537245983","","0.248352092","","","","","","",""
"110","","bandit","354","729126","0.0-316.0-0.0","95138080","wem/bandit_single","AOXM7IK32TST5","gain","1","","75","K","2","","0","0","1","0.1662011111","","false","279","0.01747653863","","main_expt","0.06478755197","","0.1662011111","","0.263219496","","","","","","",""
"81","","bandit","355","730971","0.0-317.0-0.0","95138080","wem/bandit_single","AOXM7IK32TST5","gain","1","","75","K","2","","0","0","1","0.1622625537","","false","280","0.02326096521","","main_expt","0.04895059186","","0.1622625537","","0.210776847","","","","","","",""
"164","","bandit","356","732897","0.0-318.0-0.0","95138080","wem/bandit_single","AOXM7IK32TST5","gain","1","","76","L","3","","0","0","1","0.1901401854","","false","281","0.03290281633","","main_expt","0.04598133094","","0.2160365104","","0.1901401854","","","","","","",""
"179","","bandit","357","734840","0.0-319.0-0.0","95138080","wem/bandit_single","AOXM7IK32TST5","gain","1","","72","H","0","img/none_selected.jpg","0","0","1","0.03647511751","","false","282","0.03647511751","","main_expt","0.0454431083","","0.2031844556","","0.1692674388","","","","","","",""
"62","","bandit","358","736667","0.0-320.0-0.0","95138080","wem/bandit_single","AOXM7IK32TST5","gain","1","","74","J","1","","0","0","1","0.0377119091","","false","283","0.0381479171","","main_expt","0.0377119091","","0.236778666","","0.1697823826","","","","","","",""
"27","","bandit","359","738457","0.0-321.0-0.0","95138080","wem/bandit_single","AOXM7IK32TST5","gain","1","","74","J","1","","0","0","1","0.0346676025","","false","284","0.04237273713","","main_expt","0.0346676025","","0.2082896542","","0.1647860582","","","","","","",""
"174","","bandit","360","740397","0.0-322.0-0.0","95138080","wem/bandit_single","AOXM7IK32TST5","gain","1","","72","H","0","img/none_selected.jpg","0","0","1","0.08736605616","","false","285","0.08736605616","","main_expt","0.03394591187","","0.1682052712","","0.2346467376","","","","","","",""
"120","","bandit","361","742281","0.0-323.0-0.0","95138080","wem/bandit_single","AOXM7IK32TST5","gain","1","","76","L","3","","1","0","0","0.1651037306","","false","286","0.149418319","","main_expt","0.03437308726","","0.1287852917","","0.1651037306","","","","","","",""
"17","","bandit","362","744062","0.0-324.0-0.0","95138080","wem/bandit_single","AOXM7IK32TST5","gain","1","","76","L","3","","0","0","1","0.113933185","","false","287","0.2149685411","","main_expt","0.043905831","","0.0739145169","","0.113933185","","","","","","",""
"213","","bandit","363","746040","0.0-325.0-0.0","95138080","wem/bandit_single","AOXM7IK32TST5","gain","1","","76","L","3","","0","0","1","0.08260993421","","false","288","0.181398065","","main_expt","0.02064047927","","0.08295252225","","0.08260993421","","","","","","",""
"25","","bandit","364","747830","0.0-326.0-0.0","95138080","wem/bandit_single","AOXM7IK32TST5","gain","1","","76","L","3","","0","0","1","0.07260323305","","false","289","0.1523032639","","main_expt","0.0250169619","","0.0479508895","","0.07260323305","","","","","","",""
"42","","bandit","365","749635","0.0-327.0-0.0","95138080","wem/bandit_single","AOXM7IK32TST5","gain","1","","75","K","2","","0","0","1","0.05498143303","","false","290","0.1404761367","","main_expt","0.04785043425","","0.05498143303","","0.06306400378","","","","","","",""
"58","","bandit","366","751457","0.0-328.0-0.0","95138080","wem/bandit_single","AOXM7IK32TST5","gain","1","","74","J","1","","0","0","1","0.05997729544","","false","291","0.1639955189","","main_expt","0.05997729544","","0.06238518006","","0.06173149747","","","","","","",""
"61","","bandit","367","753282","0.0-329.0-0.0","95138080","wem/bandit_single","AOXM7IK32TST5","gain","1","","72","H","0","img/none_selected.jpg","0","0","1","0.1365824739","","false","292","0.1365824739","","main_expt","0.08013724224","","0.06246846358","","0.049421281","","","","","","",""
"72","","bandit","368","755119","0.0-330.0-0.0","95138080","wem/bandit_single","AOXM7IK32TST5","gain","1","","76","L","3","","0","0","1","0.04661139695","","false","293","0.2190436779","","main_expt","0.08257915178","","0.0635142122","","0.04661139695","","","","","","",""
"9","","bandit","369","756894","0.0-331.0-0.0","95138080","wem/bandit_single","AOXM7IK32TST5","gain","1","","76","L","3","","0","0","1","0.05266196286","","false","294","0.2961987497","","main_expt","0.07979116831","","0.1078883856","","0.05266196286","","","","","","",""
"183","","bandit","370","758839","0.0-332.0-0.0","95138080","wem/bandit_single","AOXM7IK32TST5","gain","1","","74","J","1","","0","0","1","0.1168190604","","false","295","0.3422413176","","main_expt","0.1168190604","","0.1065048767","","0.0541153793","","","","","","",""
"103","","bandit","371","760707","0.0-333.0-0.0","95138080","wem/bandit_single","AOXM7IK32TST5","gain","1","","72","H","0","img/none_selected.jpg","0","0","1","0.3023757447","","false","296","0.3023757447","","main_expt","0.1280513587","","0.1528862056","","0.03514166697","","","","","","",""
"55","","bandit","372","762527","0.0-334.0-0.0","95138080","wem/bandit_single","AOXM7IK32TST5","gain","1","","75","K","2","","0","0","1","0.1655716118","","false","297","0.3744966898","","main_expt","0.1545711336","","0.1655716118","","0.0293008482","","","","","","",""
"59","","bandit","373","764348","0.0-335.0-0.0","95138080","wem/bandit_single","AOXM7IK32TST5","gain","1","","74","J","1","","0","0","1","0.1485956324","","false","298","0.3702548021","","main_expt","0.1485956324","","0.1725180782","","0.03311380314","","","","","","",""
"106","","bandit","374","766218","0.0-336.0-0.0","95138080","wem/bandit_single","AOXM7IK32TST5","gain","1","","72","H","0","img/none_selected.jpg","1","0","0","0.3675060033","","false","299","0.3675060033","","main_expt","0.1680902507","","0.1569797065","","0.02365994183","","","","","","",""
