"rt","responses","trial_type","trial_index","time_elapsed","internal_node_id","subjID","study","MID","cond","drift","key_press","respCharCode","respKey","respChoiceNum","respChoice","gems","bombs","no_reward","GemPrChosen","BombPrChosen","practice","trial_counter","WinPr_0","LosePr_0","trial_label","WinPr_1","LosePr_1","WinPr_2","LosePr_2","WinPr_3","LosePr_3","Q0","Q1","Q2","gender","age","ethnicity"
"44274","{""Q0"":""A2RTJ6BDY0DZVZ""}","survey-text","0","44285","0.0-0.0","96047174","wem/bandit_single","A2RTJ6BDY0DZVZ","pain","8","","","","","","","","","","","","","","","","","","","","","","","","","","",""
"4820","","text","1","50114","0.0-1.0","96047174","wem/bandit_single","A2RTJ6BDY0DZVZ","pain","8","32","","","","","","","","","","","","","","","","","","","","","","","","","",""
"6868","","text","2","56989","0.0-2.0","96047174","wem/bandit_single","A2RTJ6BDY0DZVZ","pain","8","32","","","","","","","","","","","","","","","","","","","","","","","","","",""
"26981","","text","3","83974","0.0-3.0","96047174","wem/bandit_single","A2RTJ6BDY0DZVZ","pain","8","32","","","","","","","","","","","","","","","","","","","","","","","","","",""
"13118","","text","4","97094","0.0-4.0","96047174","wem/bandit_single","A2RTJ6BDY0DZVZ","pain","8","32","","","","","","","","","","","","","","","","","","","","","","","","","",""
"17259","","text","5","114356","0.0-5.0","96047174","wem/bandit_single","A2RTJ6BDY0DZVZ","pain","8","32","","","","","","","","","","","","","","","","","","","","","","","","","",""
"8367","","text","6","122726","0.0-6.0","96047174","wem/bandit_single","A2RTJ6BDY0DZVZ","pain","8","32","","","","","","","","","","","","","","","","","","","","","","","","","",""
"5757","","text","7","128487","0.0-7.0","96047174","wem/bandit_single","A2RTJ6BDY0DZVZ","pain","8","32","","","","","","","","","","","","","","","","","","","","","","","","","",""
"5844","","text","8","134333","0.0-8.0","96047174","wem/bandit_single","A2RTJ6BDY0DZVZ","pain","8","32","","","","","","","","","","","","","","","","","","","","","","","","","",""
"2081","","text","9","136416","0.0-9.0","96047174","wem/bandit_single","A2RTJ6BDY0DZVZ","pain","8","32","","","","","","","","","","","","","","","","","","","","","","","","","",""
"2432","","text","10","138851","0.0-10.0","96047174","wem/bandit_single","A2RTJ6BDY0DZVZ","pain","8","32","","","","","","","","","","","","","","","","","","","","","","","","","",""
"4828","","text","11","143682","0.0-11.0","96047174","wem/bandit_single","A2RTJ6BDY0DZVZ","pain","8","32","","","","","","","","","","","","","","","","","","","","","","","","","",""
"1351","","bandit","12","146549","0.0-12.0-0.0","96047174","wem/bandit_single","A2RTJ6BDY0DZVZ","pain","8","","74","J","0","img/none_selected_demo.jpg","0","0","1","0","0","true","0","0","0","","","","","","","","","","","","",""
"1226","","bandit","13","149538","0.0-13.0-0.0","96047174","wem/bandit_single","A2RTJ6BDY0DZVZ","pain","8","","75","K","0","img/none_selected_demo.jpg","0","0","1","0","0","true","0","0","0","","","","","","","","","","","","",""
"4182","","text","14","153974","0.0-14.0","96047174","wem/bandit_single","A2RTJ6BDY0DZVZ","pain","8","32","","","","","","","","","","","","","","","","","","","","","","","","","",""
"2298","","text","15","156274","0.0-15.0","96047174","wem/bandit_single","A2RTJ6BDY0DZVZ","pain","8","32","","","","","","","","","","","","","","","","","","","","","","","","","",""
"4593","","text","16","160871","0.0-16.0","96047174","wem/bandit_single","A2RTJ6BDY0DZVZ","pain","8","32","","","","","","","","","","","","","","","","","","","","","","","","","",""
"7541","","text","17","168414","0.0-17.0","96047174","wem/bandit_single","A2RTJ6BDY0DZVZ","pain","8","32","","","","","","","","","","","","","","","","","","","","","","","","","",""
"2197","","bandit","18","172121","0.0-18.0-0.0","96047174","wem/bandit_single","A2RTJ6BDY0DZVZ","pain","8","","75","K","1","","0","0","1","0","0.2","true","0","0","0.8","80_20_practice","0","0.2","","","","","","","","","",""
"4355","","bandit","19","178233","0.0-18.0-1.0","96047174","wem/bandit_single","A2RTJ6BDY0DZVZ","pain","8","","74","J","0","img/none_selected_demo.jpg","0","1","0","0","0.8","true","0","0","0.8","80_20_practice","0","0.2","","","","","","","","","",""
"3591","","bandit","20","183587","0.0-18.0-2.0","96047174","wem/bandit_single","A2RTJ6BDY0DZVZ","pain","8","","75","K","1","","0","0","1","0","0.2","true","0","0","0.8","80_20_practice","0","0.2","","","","","","","","","",""
"807","","bandit","21","186153","0.0-18.0-3.0","96047174","wem/bandit_single","A2RTJ6BDY0DZVZ","pain","8","","75","K","1","","0","1","0","0","0.2","true","0","0","0.8","80_20_practice","0","0.2","","","","","","","","","",""
"916","","bandit","22","188828","0.0-18.0-4.0","96047174","wem/bandit_single","A2RTJ6BDY0DZVZ","pain","8","","75","K","1","","0","0","1","0","0.2","true","0","0","0.8","80_20_practice","0","0.2","","","","","","","","","",""
"1588","","bandit","23","192175","0.0-18.0-5.0","96047174","wem/bandit_single","A2RTJ6BDY0DZVZ","pain","8","","75","K","1","","0","0","1","0","0.2","true","0","0","0.8","80_20_practice","0","0.2","","","","","","","","","",""
"141","","bandit","24","194076","0.0-18.0-6.0","96047174","wem/bandit_single","A2RTJ6BDY0DZVZ","pain","8","","75","K","1","","0","0","1","0","0.2","true","0","0","0.8","80_20_practice","0","0.2","","","","","","","","","",""
"227","","bandit","25","196063","0.0-18.0-7.0","96047174","wem/bandit_single","A2RTJ6BDY0DZVZ","pain","8","","74","J","0","img/none_selected_demo.jpg","0","1","0","0","0.8","true","0","0","0.8","80_20_practice","0","0.2","","","","","","","","","",""
"1738","","bandit","26","199561","0.0-18.0-8.0","96047174","wem/bandit_single","A2RTJ6BDY0DZVZ","pain","8","","74","J","0","img/none_selected_demo.jpg","0","1","0","0","0.8","true","0","0","0.8","80_20_practice","0","0.2","","","","","","","","","",""
"2705","","bandit","27","204025","0.0-18.0-9.0","96047174","wem/bandit_single","A2RTJ6BDY0DZVZ","pain","8","","74","J","0","img/none_selected_demo.jpg","0","1","0","0","0.8","true","0","0","0.8","80_20_practice","0","0.2","","","","","","","","","",""
"369","","bandit","28","206153","0.0-18.0-10.0","96047174","wem/bandit_single","A2RTJ6BDY0DZVZ","pain","8","","74","J","0","img/none_selected_demo.jpg","0","1","0","0","0.8","true","0","0","0.8","80_20_practice","0","0.2","","","","","","","","","",""
"344","","bandit","29","208258","0.0-18.0-11.0","96047174","wem/bandit_single","A2RTJ6BDY0DZVZ","pain","8","","74","J","0","img/none_selected_demo.jpg","0","1","0","0","0.8","true","0","0","0.8","80_20_practice","0","0.2","","","","","","","","","",""
"644","","bandit","30","210663","0.0-18.0-12.0","96047174","wem/bandit_single","A2RTJ6BDY0DZVZ","pain","8","","74","J","0","img/none_selected_demo.jpg","0","1","0","0","0.8","true","0","0","0.8","80_20_practice","0","0.2","","","","","","","","","",""
"369","","bandit","31","212799","0.0-18.0-13.0","96047174","wem/bandit_single","A2RTJ6BDY0DZVZ","pain","8","","74","J","0","img/none_selected_demo.jpg","0","1","0","0","0.8","true","0","0","0.8","80_20_practice","0","0.2","","","","","","","","","",""
"240","","bandit","32","214800","0.0-18.0-14.0","96047174","wem/bandit_single","A2RTJ6BDY0DZVZ","pain","8","","74","J","0","img/none_selected_demo.jpg","0","1","0","0","0.8","true","0","0","0.8","80_20_practice","0","0.2","","","","","","","","","",""
"65","","bandit","33","216625","0.0-18.0-15.0","96047174","wem/bandit_single","A2RTJ6BDY0DZVZ","pain","8","","74","J","0","img/none_selected_demo.jpg","0","1","0","0","0.8","true","0","0","0.8","80_20_practice","0","0.2","","","","","","","","","",""
"53","","bandit","34","218440","0.0-18.0-16.0","96047174","wem/bandit_single","A2RTJ6BDY0DZVZ","pain","8","","74","J","0","img/none_selected_demo.jpg","0","1","0","0","0.8","true","0","0","0.8","80_20_practice","0","0.2","","","","","","","","","",""
"89","","bandit","35","220292","0.0-18.0-17.0","96047174","wem/bandit_single","A2RTJ6BDY0DZVZ","pain","8","","74","J","0","img/none_selected_demo.jpg","0","1","0","0","0.8","true","0","0","0.8","80_20_practice","0","0.2","","","","","","","","","",""
"1245","","bandit","36","223296","0.0-18.0-18.0","96047174","wem/bandit_single","A2RTJ6BDY0DZVZ","pain","8","","74","J","0","img/none_selected_demo.jpg","0","1","0","0","0.8","true","0","0","0.8","80_20_practice","0","0.2","","","","","","","","","",""
"61","","bandit","37","225115","0.0-18.0-19.0","96047174","wem/bandit_single","A2RTJ6BDY0DZVZ","pain","8","","74","J","0","img/none_selected_demo.jpg","0","0","1","0","0.8","true","0","0","0.8","80_20_practice","0","0.2","","","","","","","","","",""
"5061","","text","38","230432","0.0-19.0","96047174","wem/bandit_single","A2RTJ6BDY0DZVZ","pain","8","32","","","","","","","","","","","","","","","","","","","","","","","","","",""
"3416","","bandit","39","235358","0.0-20.0-0.0","96047174","wem/bandit_single","A2RTJ6BDY0DZVZ","pain","8","","74","J","0","img/none_selected_demo.jpg","0","0","1","0","0","true","0","0","0","","0","0","","","","","","","","","",""
"11383","","text","40","246997","0.0-21.0","96047174","wem/bandit_single","A2RTJ6BDY0DZVZ","pain","8","32","","","","","","","","","","","","","","","","","","","","","","","","","",""
"11995","","text","41","258995","0.0-22.0","96047174","wem/bandit_single","A2RTJ6BDY0DZVZ","pain","8","32","","","","","","","","","","","","","","","","","","","","","","","","","",""
"2189","","text","42","261187","0.0-23.0","96047174","wem/bandit_single","A2RTJ6BDY0DZVZ","pain","8","32","","","","","","","","","","","","","","","","","","","","","","","","","",""
"4923","","text","43","266114","0.0-24.0","96047174","wem/bandit_single","A2RTJ6BDY0DZVZ","pain","8","32","","","","","","","","","","","","","","","","","","","","","","","","","",""
"13097","","text","44","279216","0.0-25.0","96047174","wem/bandit_single","A2RTJ6BDY0DZVZ","pain","8","32","","","","","","","","","","","","","","","","","","","","","","","","","",""
"3864","","text","45","283085","0.0-26.0","96047174","wem/bandit_single","A2RTJ6BDY0DZVZ","pain","8","32","","","","","","","","","","","","","","","","","","","","","","","","","",""
"3531","","text","46","286619","0.0-27.0","96047174","wem/bandit_single","A2RTJ6BDY0DZVZ","pain","8","32","","","","","","","","","","","","","","","","","","","","","","","","","",""
"4296","","text","47","290919","0.0-28.0","96047174","wem/bandit_single","A2RTJ6BDY0DZVZ","pain","8","32","","","","","","","","","","","","","","","","","","","","","","","","","",""
"7019","","text","48","297943","0.0-29.0","96047174","wem/bandit_single","A2RTJ6BDY0DZVZ","pain","8","32","","","","","","","","","","","","","","","","","","","","","","","","","",""
"1833","","text","49","299782","0.0-30.0","96047174","wem/bandit_single","A2RTJ6BDY0DZVZ","pain","8","32","","","","","","","","","","","","","","","","","","","","","","","","","",""
"3290","","text","50","303075","0.0-31.0","96047174","wem/bandit_single","A2RTJ6BDY0DZVZ","pain","8","32","","","","","","","","","","","","","","","","","","","","","","","","","",""
"2868","","bandit","51","307451","0.0-32.0-0.0","96047174","wem/bandit_single","A2RTJ6BDY0DZVZ","pain","8","","72","H","0","img/none_selected.jpg","0","1","0","0","0.8","true","0","0","0.8","full_practice","0","0.2","0","0.6","0","0.2","","","","","",""
"1464","","bandit","52","310676","0.0-32.0-1.0","96047174","wem/bandit_single","A2RTJ6BDY0DZVZ","pain","8","","72","H","0","img/none_selected.jpg","0","1","0","0","0.8","true","0","0","0.8","full_practice","0","0.2","0","0.6","0","0.2","","","","","",""
"1206","","bandit","53","313643","0.0-32.0-2.0","96047174","wem/bandit_single","A2RTJ6BDY0DZVZ","pain","8","","72","H","0","img/none_selected.jpg","0","1","0","0","0.8","true","0","0","0.8","full_practice","0","0.2","0","0.6","0","0.2","","","","","",""
"547","","bandit","54","315953","0.0-32.0-3.0","96047174","wem/bandit_single","A2RTJ6BDY0DZVZ","pain","8","","72","H","0","img/none_selected.jpg","0","1","0","0","0.8","true","0","0","0.8","full_practice","0","0.2","0","0.6","0","0.2","","","","","",""
"345","","bandit","55","318063","0.0-32.0-4.0","96047174","wem/bandit_single","A2RTJ6BDY0DZVZ","pain","8","","72","H","0","img/none_selected.jpg","0","1","0","0","0.8","true","0","0","0.8","full_practice","0","0.2","0","0.6","0","0.2","","","","","",""
"490","","bandit","56","320314","0.0-32.0-5.0","96047174","wem/bandit_single","A2RTJ6BDY0DZVZ","pain","8","","72","H","0","img/none_selected.jpg","0","1","0","0","0.8","true","0","0","0.8","full_practice","0","0.2","0","0.6","0","0.2","","","","","",""
"435","","bandit","57","322509","0.0-32.0-6.0","96047174","wem/bandit_single","A2RTJ6BDY0DZVZ","pain","8","","72","H","0","img/none_selected.jpg","0","1","0","0","0.8","true","0","0","0.8","full_practice","0","0.2","0","0.6","0","0.2","","","","","",""
"720","","bandit","58","324991","0.0-32.0-7.0","96047174","wem/bandit_single","A2RTJ6BDY0DZVZ","pain","8","","72","H","0","img/none_selected.jpg","0","1","0","0","0.8","true","0","0","0.8","full_practice","0","0.2","0","0.6","0","0.2","","","","","",""
"358","","bandit","59","327110","0.0-32.0-8.0","96047174","wem/bandit_single","A2RTJ6BDY0DZVZ","pain","8","","72","H","0","img/none_selected.jpg","0","0","1","0","0.8","true","0","0","0.8","full_practice","0","0.2","0","0.6","0","0.2","","","","","",""
"218","","bandit","60","329088","0.0-32.0-9.0","96047174","wem/bandit_single","A2RTJ6BDY0DZVZ","pain","8","","72","H","0","img/none_selected.jpg","0","1","0","0","0.8","true","0","0","0.8","full_practice","0","0.2","0","0.6","0","0.2","","","","","",""
"315","","bandit","61","331162","0.0-32.0-10.0","96047174","wem/bandit_single","A2RTJ6BDY0DZVZ","pain","8","","75","K","2","","0","1","0","0","0.6","true","0","0","0.8","full_practice","0","0.2","0","0.6","0","0.2","","","","","",""
"109","","bandit","62","333034","0.0-32.0-11.0","96047174","wem/bandit_single","A2RTJ6BDY0DZVZ","pain","8","","75","K","2","","0","1","0","0","0.6","true","0","0","0.8","full_practice","0","0.2","0","0.6","0","0.2","","","","","",""
"97","","bandit","63","334895","0.0-32.0-12.0","96047174","wem/bandit_single","A2RTJ6BDY0DZVZ","pain","8","","75","K","2","","0","0","1","0","0.6","true","0","0","0.8","full_practice","0","0.2","0","0.6","0","0.2","","","","","",""
"86","","bandit","64","336743","0.0-32.0-13.0","96047174","wem/bandit_single","A2RTJ6BDY0DZVZ","pain","8","","75","K","2","","0","1","0","0","0.6","true","0","0","0.8","full_practice","0","0.2","0","0.6","0","0.2","","","","","",""
"230","","bandit","65","338736","0.0-32.0-14.0","96047174","wem/bandit_single","A2RTJ6BDY0DZVZ","pain","8","","75","K","2","","0","0","1","0","0.6","true","0","0","0.8","full_practice","0","0.2","0","0.6","0","0.2","","","","","",""
"1615","","bandit","66","342115","0.0-32.0-15.0","96047174","wem/bandit_single","A2RTJ6BDY0DZVZ","pain","8","","75","K","2","","0","1","0","0","0.6","true","0","0","0.8","full_practice","0","0.2","0","0.6","0","0.2","","","","","",""
"101","","bandit","67","343975","0.0-32.0-16.0","96047174","wem/bandit_single","A2RTJ6BDY0DZVZ","pain","8","","75","K","2","","0","0","1","0","0.6","true","0","0","0.8","full_practice","0","0.2","0","0.6","0","0.2","","","","","",""
"135","","bandit","68","345870","0.0-32.0-17.0","96047174","wem/bandit_single","A2RTJ6BDY0DZVZ","pain","8","","72","H","0","img/none_selected.jpg","0","1","0","0","0.8","true","0","0","0.8","full_practice","0","0.2","0","0.6","0","0.2","","","","","",""
"333","","bandit","69","347964","0.0-32.0-18.0","96047174","wem/bandit_single","A2RTJ6BDY0DZVZ","pain","8","","72","H","0","img/none_selected.jpg","0","1","0","0","0.8","true","0","0","0.8","full_practice","0","0.2","0","0.6","0","0.2","","","","","",""
"98","","bandit","70","349828","0.0-32.0-19.0","96047174","wem/bandit_single","A2RTJ6BDY0DZVZ","pain","8","","72","H","0","img/none_selected.jpg","0","1","0","0","0.8","true","0","0","0.8","full_practice","0","0.2","0","0.6","0","0.2","","","","","",""
"2342","","text","71","352435","0.0-33.0","96047174","wem/bandit_single","A2RTJ6BDY0DZVZ","pain","8","32","","","","","","","","","","","","","","","","","","","","","","","","","",""
"15478","","text","72","368920","0.0-34.0","96047174","wem/bandit_single","A2RTJ6BDY0DZVZ","pain","8","32","","","","","","","","","","","","","","","","","","","","","","","","","",""
"6993","","text","73","375917","0.0-35.0","96047174","wem/bandit_single","A2RTJ6BDY0DZVZ","pain","8","32","","","","","","","","","","","","","","","","","","","","","","","","","",""
"6518","","text","74","382441","0.0-36.0","96047174","wem/bandit_single","A2RTJ6BDY0DZVZ","pain","8","32","","","","","","","","","","","","","","","","","","","","","","","","","",""
"6882","","text","75","389328","0.0-37.0","96047174","wem/bandit_single","A2RTJ6BDY0DZVZ","pain","8","32","","","","","","","","","","","","","","","","","","","","","","","","","",""
"1979","","bandit","76","392818","0.0-38.0-0.0","96047174","wem/bandit_single","A2RTJ6BDY0DZVZ","pain","8","","76","L","3","","0","0","1","","0.4519399214","false","1","","0.461186604","main_expt","","0.2895646149","","0.2726752288","","0.4519399214","","","","","",""
"395","","bandit","77","394971","0.0-39.0-0.0","96047174","wem/bandit_single","A2RTJ6BDY0DZVZ","pain","8","","75","K","2","","0","1","0","","0.2373300031","false","2","","0.4745384616","main_expt","","0.3162770887","","0.2373300031","","0.4414774062","","","","","",""
"87","","bandit","78","396822","0.0-40.0-0.0","96047174","wem/bandit_single","A2RTJ6BDY0DZVZ","pain","8","","75","K","2","","0","0","1","","0.2268539811","false","3","","0.476270309","main_expt","","0.3445892231","","0.2268539811","","0.4248782664","","","","","",""
"107","","bandit","79","398692","0.0-41.0-0.0","96047174","wem/bandit_single","A2RTJ6BDY0DZVZ","pain","8","","75","K","2","","0","0","1","","0.2312911009","false","4","","0.4750198572","main_expt","","0.318720175","","0.2312911009","","0.3797460064","","","","","",""
"188","","bandit","80","400644","0.0-42.0-0.0","96047174","wem/bandit_single","A2RTJ6BDY0DZVZ","pain","8","","74","J","1","","0","0","1","","0.2768356494","false","5","","0.4711191004","main_expt","","0.2768356494","","0.1875260819","","0.3747955817","","","","","",""
"47","","bandit","81","402458","0.0-43.0-0.0","96047174","wem/bandit_single","A2RTJ6BDY0DZVZ","pain","8","","74","J","1","","0","0","1","","0.2660169375","false","6","","0.4561500297","main_expt","","0.2660169375","","0.190272436","","0.3434652127","","","","","",""
"82","","bandit","82","404303","0.0-44.0-0.0","96047174","wem/bandit_single","A2RTJ6BDY0DZVZ","pain","8","","72","H","0","img/none_selected.jpg","0","1","0","","0.4549462182","false","7","","0.4549462182","main_expt","","0.3364590491","","0.1912500229","","0.3450192323","","","","","",""
"256","","bandit","83","406322","0.0-45.0-0.0","96047174","wem/bandit_single","A2RTJ6BDY0DZVZ","pain","8","","72","H","0","img/none_selected.jpg","0","0","1","","0.4738433377","false","8","","0.4738433377","main_expt","","0.2814314702","","0.2317086102","","0.3319287687","","","","","",""
"91","","bandit","84","408178","0.0-46.0-0.0","96047174","wem/bandit_single","A2RTJ6BDY0DZVZ","pain","8","","72","H","0","img/none_selected.jpg","0","0","1","","0.4719526371","false","9","","0.4719526371","main_expt","","0.172204453","","0.2732709622","","0.3592879842","","","","","",""
"85","","bandit","85","410028","0.0-47.0-0.0","96047174","wem/bandit_single","A2RTJ6BDY0DZVZ","pain","8","","72","H","0","img/none_selected.jpg","0","0","1","","0.4102917743","false","10","","0.4102917743","main_expt","","0.1714760066","","0.2369361721","","0.4119036765","","","","","",""
"180","","bandit","86","411972","0.0-48.0-0.0","96047174","wem/bandit_single","A2RTJ6BDY0DZVZ","pain","8","","76","L","3","","0","1","0","","0.440335537","false","11","","0.4247485268","main_expt","","0.1477319919","","0.2428480584","","0.440335537","","","","","",""
"234","","bandit","87","413970","0.0-49.0-0.0","96047174","wem/bandit_single","A2RTJ6BDY0DZVZ","pain","8","","76","L","3","","0","0","1","","0.4198069009","false","12","","0.3805001106","main_expt","","0.1195530135","","0.3127978045","","0.4198069009","","","","","",""
"168","","bandit","88","415905","0.0-50.0-0.0","96047174","wem/bandit_single","A2RTJ6BDY0DZVZ","pain","8","","76","L","3","","0","0","1","","0.4095272681","false","13","","0.3922463094","main_expt","","0.1097065617","","0.3411181312","","0.4095272681","","","","","",""
"212","","bandit","89","417880","0.0-51.0-0.0","96047174","wem/bandit_single","A2RTJ6BDY0DZVZ","pain","8","","76","L","3","","0","1","0","","0.4393311008","false","14","","0.3385893542","main_expt","","0.1146709003","","0.3547490374","","0.4393311008","","","","","",""
"226","","bandit","90","419869","0.0-52.0-0.0","96047174","wem/bandit_single","A2RTJ6BDY0DZVZ","pain","8","","76","L","3","","0","1","0","","0.4232641195","false","15","","0.2580729479","main_expt","","0.105598426","","0.3447780093","","0.4232641195","","","","","",""
"173","","bandit","91","421806","0.0-53.0-0.0","96047174","wem/bandit_single","A2RTJ6BDY0DZVZ","pain","8","","76","L","3","","0","1","0","","0.408879381","false","16","","0.3126944558","main_expt","","0.1085338479","","0.3451486401","","0.408879381","","","","","",""
"83","","bandit","92","423654","0.0-54.0-0.0","96047174","wem/bandit_single","A2RTJ6BDY0DZVZ","pain","8","","76","L","3","","0","0","1","","0.376774317","false","17","","0.3693960878","main_expt","","0.1267686316","","0.3788599072","","0.376774317","","","","","",""
"112","","bandit","93","425536","0.0-55.0-0.0","96047174","wem/bandit_single","A2RTJ6BDY0DZVZ","pain","8","","76","L","3","","0","1","0","","0.4245824949","false","18","","0.3881723811","main_expt","","0.2161611973","","0.3977159439","","0.4245824949","","","","","",""
"119","","bandit","94","427419","0.0-56.0-0.0","96047174","wem/bandit_single","A2RTJ6BDY0DZVZ","pain","8","","76","L","3","","0","0","1","","0.4391895307","false","19","","0.3762380044","main_expt","","0.2028493804","","0.3885232362","","0.4391895307","","","","","",""
"84","","bandit","95","429267","0.0-57.0-0.0","96047174","wem/bandit_single","A2RTJ6BDY0DZVZ","pain","8","","76","L","3","","0","0","1","","0.4621127774","false","20","","0.3842023068","main_expt","","0.2258994585","","0.3985462001","","0.4621127774","","","","","",""
"99","","bandit","96","431127","0.0-58.0-0.0","96047174","wem/bandit_single","A2RTJ6BDY0DZVZ","pain","8","","76","L","3","","0","0","1","","0.4621164646","false","21","","0.3509270449","main_expt","","0.1591174119","","0.349749023","","0.4621164646","","","","","",""
"114","","bandit","97","433000","0.0-59.0-0.0","96047174","wem/bandit_single","A2RTJ6BDY0DZVZ","pain","8","","76","L","3","","0","0","1","","0.4347396303","false","22","","0.3777441782","main_expt","","0.1526874152","","0.3437713834","","0.4347396303","","","","","",""
"109","","bandit","98","434875","0.0-60.0-0.0","96047174","wem/bandit_single","A2RTJ6BDY0DZVZ","pain","8","","75","K","2","","0","1","0","","0.3608333873","false","23","","0.3799964268","main_expt","","0.1461335862","","0.3608333873","","0.43496863","","","","","",""
"276","","bandit","99","436912","0.0-61.0-0.0","96047174","wem/bandit_single","A2RTJ6BDY0DZVZ","pain","8","","75","K","2","","0","0","1","","0.3832767268","false","24","","0.4097073291","main_expt","","0.194032511","","0.3832767268","","0.43684491","","","","","",""
"147","","bandit","100","438825","0.0-62.0-0.0","96047174","wem/bandit_single","A2RTJ6BDY0DZVZ","pain","8","","75","K","2","","0","0","1","","0.3839685871","false","25","","0.4196977393","main_expt","","0.1913779305","","0.3839685871","","0.3785768995","","","","","",""
"174","","bandit","101","440762","0.0-63.0-0.0","96047174","wem/bandit_single","A2RTJ6BDY0DZVZ","pain","8","","74","J","1","","0","1","0","","0.2830828826","false","26","","0.3798545817","main_expt","","0.2830828826","","0.3871157951","","0.3754964585","","","","","",""
"162","","bandit","102","442690","0.0-64.0-0.0","96047174","wem/bandit_single","A2RTJ6BDY0DZVZ","pain","8","","74","J","1","","0","0","1","","0.3268824087","false","27","","0.3531061786","main_expt","","0.3268824087","","0.4093540125","","0.3964499655","","","","","",""
"63","","bandit","103","444519","0.0-65.0-0.0","96047174","wem/bandit_single","A2RTJ6BDY0DZVZ","pain","8","","74","J","1","","0","0","1","","0.3092871108","false","28","","0.3327392046","main_expt","","0.3092871108","","0.3781829904","","0.4243602908","","","","","",""
"49","","bandit","104","446332","0.0-66.0-0.0","96047174","wem/bandit_single","A2RTJ6BDY0DZVZ","pain","8","","74","J","1","","0","1","0","","0.299803321","false","29","","0.2799969064","main_expt","","0.299803321","","0.3633234486","","0.4296462108","","","","","",""
"282","","bandit","105","448378","0.0-67.0-0.0","96047174","wem/bandit_single","A2RTJ6BDY0DZVZ","pain","8","","74","J","1","","0","0","1","","0.3318792252","false","30","","0.225268033","main_expt","","0.3318792252","","0.395486831","","0.4442153724","","","","","",""
"105","","bandit","106","450248","0.0-68.0-0.0","96047174","wem/bandit_single","A2RTJ6BDY0DZVZ","pain","8","","74","J","1","","0","1","0","","0.3274080626","false","31","","0.2195205817","main_expt","","0.3274080626","","0.353932484","","0.4425075274","","","","","",""
"171","","bandit","107","452184","0.0-69.0-0.0","96047174","wem/bandit_single","A2RTJ6BDY0DZVZ","pain","8","","74","J","1","","0","0","1","","0.3233555863","false","32","","0.2569702332","main_expt","","0.3233555863","","0.3902442546","","0.4038806219","","","","","",""
"64","","bandit","108","454013","0.0-70.0-0.0","96047174","wem/bandit_single","A2RTJ6BDY0DZVZ","pain","8","","74","J","1","","0","0","1","","0.3836123675","false","33","","0.2914027765","main_expt","","0.3836123675","","0.3727342875","","0.4283701542","","","","","",""
"150","","bandit","109","455933","0.0-71.0-0.0","96047174","wem/bandit_single","A2RTJ6BDY0DZVZ","pain","8","","74","J","1","","0","1","0","","0.4200589335","false","34","","0.2667004126","main_expt","","0.4200589335","","0.3940120807","","0.4332078231","","","","","",""
"453","","bandit","110","458150","0.0-72.0-0.0","96047174","wem/bandit_single","A2RTJ6BDY0DZVZ","pain","8","","74","J","1","","0","0","1","","0.4280145355","false","35","","0.3112773703","main_expt","","0.4280145355","","0.3682756201","","0.3861361583","","","","","",""
"106","","bandit","111","460019","0.0-73.0-0.0","96047174","wem/bandit_single","A2RTJ6BDY0DZVZ","pain","8","","74","J","1","","0","0","1","","0.3696194815","false","36","","0.3158013471","main_expt","","0.3696194815","","0.4136743311","","0.3176889815","","","","","",""
"55","","bandit","112","461839","0.0-74.0-0.0","96047174","wem/bandit_single","A2RTJ6BDY0DZVZ","pain","8","","74","J","1","","0","0","1","","0.3567242832","false","37","","0.3348696363","main_expt","","0.3567242832","","0.449594317","","0.3333355096","","","","","",""
"102","","bandit","113","463710","0.0-75.0-0.0","96047174","wem/bandit_single","A2RTJ6BDY0DZVZ","pain","8","","74","J","1","","0","1","0","","0.3139752797","false","38","","0.2967031697","main_expt","","0.3139752797","","0.4427192246","","0.3613286773","","","","","",""
"136","","bandit","114","465613","0.0-76.0-0.0","96047174","wem/bandit_single","A2RTJ6BDY0DZVZ","pain","8","","74","J","1","","0","0","1","","0.2884672813","false","39","","0.2816090282","main_expt","","0.2884672813","","0.4375360897","","0.3354588101","","","","","",""
"60","","bandit","115","467438","0.0-77.0-0.0","96047174","wem/bandit_single","A2RTJ6BDY0DZVZ","pain","8","","74","J","1","","0","1","0","","0.3253538103","false","40","","0.2900329111","main_expt","","0.3253538103","","0.452648821","","0.4044898685","","","","","",""
"210","","bandit","116","469414","0.0-78.0-0.0","96047174","wem/bandit_single","A2RTJ6BDY0DZVZ","pain","8","","74","J","1","","0","0","1","","0.2782289032","false","41","","0.3160732104","main_expt","","0.2782289032","","0.4689255384","","0.3615903795","","","","","",""
"130","","bandit","117","471309","0.0-79.0-0.0","96047174","wem/bandit_single","A2RTJ6BDY0DZVZ","pain","8","","72","H","0","img/none_selected.jpg","0","1","0","","0.370849222","false","42","","0.370849222","main_expt","","0.2378060085","","0.470096522","","0.3239257876","","","","","",""
"234","","bandit","118","473311","0.0-80.0-0.0","96047174","wem/bandit_single","A2RTJ6BDY0DZVZ","pain","8","","72","H","0","img/none_selected.jpg","0","0","1","","0.385301305","false","43","","0.385301305","main_expt","","0.2250536993","","0.4349244256","","0.2907144625","","","","","",""
"234","","bandit","119","475310","0.0-81.0-0.0","96047174","wem/bandit_single","A2RTJ6BDY0DZVZ","pain","8","","72","H","0","img/none_selected.jpg","0","1","0","","0.416838688","false","44","","0.416838688","main_expt","","0.2132249492","","0.4316966947","","0.2937558929","","","","","",""
"326","","bandit","120","477402","0.0-82.0-0.0","96047174","wem/bandit_single","A2RTJ6BDY0DZVZ","pain","8","","72","H","0","img/none_selected.jpg","0","1","0","","0.3927526088","false","45","","0.3927526088","main_expt","","0.2669052982","","0.4526201082","","0.3667346614","","","","","",""
"195","","bandit","121","479362","0.0-83.0-0.0","96047174","wem/bandit_single","A2RTJ6BDY0DZVZ","pain","8","","72","H","0","img/none_selected.jpg","0","1","0","","0.3789336214","false","46","","0.3789336214","main_expt","","0.259601005","","0.4696962879","","0.4084803937","","","","","",""
"233","","bandit","122","481358","0.0-84.0-0.0","96047174","wem/bandit_single","A2RTJ6BDY0DZVZ","pain","8","","72","H","0","img/none_selected.jpg","0","1","0","","0.3994803113","false","47","","0.3994803113","main_expt","","0.2442503122","","0.4591824552","","0.3956447052","","","","","",""
"133","","bandit","123","483259","0.0-85.0-0.0","96047174","wem/bandit_single","A2RTJ6BDY0DZVZ","pain","8","","72","H","0","img/none_selected.jpg","0","0","1","","0.3570668153","false","48","","0.3570668153","main_expt","","0.2427668164","","0.4548607847","","0.3859230678","","","","","",""
"105","","bandit","124","485128","0.0-86.0-0.0","96047174","wem/bandit_single","A2RTJ6BDY0DZVZ","pain","8","","72","H","0","img/none_selected.jpg","0","0","1","","0.3500417472","false","49","","0.3500417472","main_expt","","0.218731525","","0.4625410341","","0.394993817","","","","","",""
"1135","","bandit","125","488028","0.0-87.0-0.0","96047174","wem/bandit_single","A2RTJ6BDY0DZVZ","pain","8","","75","K","2","","0","1","0","","0.4620574215","false","50","","0.3110114061","main_expt","","0.2187604329","","0.4620574215","","0.4358915385","","","","","",""
"181","","bandit","126","489981","0.0-88.0-0.0","96047174","wem/bandit_single","A2RTJ6BDY0DZVZ","pain","8","","75","K","2","","0","1","0","","0.4573118055","false","51","","0.3165374422","main_expt","","0.2764450854","","0.4573118055","","0.4437026926","","","","","",""
"207","","bandit","127","491954","0.0-89.0-0.0","96047174","wem/bandit_single","A2RTJ6BDY0DZVZ","pain","8","","75","K","2","","0","1","0","","0.4577170033","false","52","","0.3212783944","main_expt","","0.2735561336","","0.4577170033","","0.4357441266","","","","","",""
"174","","bandit","128","493893","0.0-90.0-0.0","96047174","wem/bandit_single","A2RTJ6BDY0DZVZ","pain","8","","75","K","2","","0","0","1","","0.4599667981","false","53","","0.3079714244","main_expt","","0.2558353256","","0.4599667981","","0.3926545571","","","","","",""
"94","","bandit","129","495753","0.0-91.0-0.0","96047174","wem/bandit_single","A2RTJ6BDY0DZVZ","pain","8","","75","K","2","","0","0","1","","0.4598989899","false","54","","0.3538619638","main_expt","","0.2856473895","","0.4598989899","","0.3841940555","","","","","",""
"64","","bandit","130","497583","0.0-92.0-0.0","96047174","wem/bandit_single","A2RTJ6BDY0DZVZ","pain","8","","75","K","2","","0","1","0","","0.4371040197","false","55","","0.3390258849","main_expt","","0.3110799389","","0.4371040197","","0.3733442546","","","","","",""
"191","","bandit","131","499542","0.0-93.0-0.0","96047174","wem/bandit_single","A2RTJ6BDY0DZVZ","pain","8","","75","K","2","","0","0","1","","0.3889704242","false","56","","0.3282580673","main_expt","","0.2862995849","","0.3889704242","","0.3500738246","","","","","",""
"100","","bandit","132","501410","0.0-94.0-0.0","96047174","wem/bandit_single","A2RTJ6BDY0DZVZ","pain","8","","75","K","2","","0","0","1","","0.4089883961","false","57","","0.3014999451","main_expt","","0.3029349154","","0.4089883961","","0.3265916347","","","","","",""
"112","","bandit","133","503289","0.0-95.0-0.0","96047174","wem/bandit_single","A2RTJ6BDY0DZVZ","pain","8","","76","L","3","","0","0","1","","0.3203483638","false","58","","0.2895525025","main_expt","","0.282602966","","0.3682078294","","0.3203483638","","","","","",""
"43","","bandit","134","505098","0.0-96.0-0.0","96047174","wem/bandit_single","A2RTJ6BDY0DZVZ","pain","8","","76","L","3","","0","0","1","","0.258324817","false","59","","0.2538740387","main_expt","","0.3271218703","","0.426053772","","0.258324817","","","","","",""
"117","","bandit","135","506984","0.0-97.0-0.0","96047174","wem/bandit_single","A2RTJ6BDY0DZVZ","pain","8","","76","L","3","","0","0","1","","0.2527557167","false","60","","0.2509640494","main_expt","","0.2978757068","","0.4175969639","","0.2527557167","","","","","",""
"100","","bandit","136","508850","0.0-98.0-0.0","96047174","wem/bandit_single","A2RTJ6BDY0DZVZ","pain","8","","76","L","3","","0","0","1","","0.2925705146","false","61","","0.1930295055","main_expt","","0.1922553384","","0.4124946444","","0.2925705146","","","","","",""
"69","","bandit","137","510686","0.0-99.0-0.0","96047174","wem/bandit_single","A2RTJ6BDY0DZVZ","pain","8","","74","J","1","","0","0","1","","0.1408400783","false","62","","0.1259826115","main_expt","","0.1408400783","","0.4077217862","","0.310648962","","","","","",""
"73","","bandit","138","512524","0.0-100.0-0.0","96047174","wem/bandit_single","A2RTJ6BDY0DZVZ","pain","8","","74","J","1","","0","0","1","","0.1779610645","false","63","","0.1388804293","main_expt","","0.1779610645","","0.4258821936","","0.3175489896","","","","","",""
"76","","bandit","139","514360","0.0-101.0-0.0","96047174","wem/bandit_single","A2RTJ6BDY0DZVZ","pain","8","","74","J","1","","0","1","0","","0.1733040919","false","64","","0.1412297375","main_expt","","0.1733040919","","0.4314195329","","0.2756852574","","","","","",""
"257","","bandit","140","516384","0.0-102.0-0.0","96047174","wem/bandit_single","A2RTJ6BDY0DZVZ","pain","8","","74","J","1","","0","0","1","","0.1669650696","false","65","","0.07856201072","main_expt","","0.1669650696","","0.4174082156","","0.2798966648","","","","","",""
"157","","bandit","141","518305","0.0-103.0-0.0","96047174","wem/bandit_single","A2RTJ6BDY0DZVZ","pain","8","","74","J","1","","0","1","0","","0.1439674443","false","66","","0.04493535693","main_expt","","0.1439674443","","0.4396479182","","0.2440426105","","","","","",""
"296","","bandit","142","520368","0.0-104.0-0.0","96047174","wem/bandit_single","A2RTJ6BDY0DZVZ","pain","8","","74","J","1","","0","0","1","","0.1892066175","false","67","","0.06268984171","main_expt","","0.1892066175","","0.4080198752","","0.2630461485","","","","","",""
"31","","bandit","143","522166","0.0-105.0-0.0","96047174","wem/bandit_single","A2RTJ6BDY0DZVZ","pain","8","","75","K","2","","0","0","1","","0.4137299856","false","68","","0.0976634122","main_expt","","0.1994174399","","0.4137299856","","0.2456224984","","","","","",""
"123","","bandit","144","524056","0.0-106.0-0.0","96047174","wem/bandit_single","A2RTJ6BDY0DZVZ","pain","8","","75","K","2","","0","1","0","","0.3938947582","false","69","","0.1303859095","main_expt","","0.1624567358","","0.3938947582","","0.328759159","","","","","",""
"169","","bandit","145","525996","0.0-107.0-0.0","96047174","wem/bandit_single","A2RTJ6BDY0DZVZ","pain","8","","75","K","2","","0","0","1","","0.3876621225","false","70","","0.09159795462","main_expt","","0.203142037","","0.3876621225","","0.3063762308","","","","","",""
"59","","bandit","146","527821","0.0-108.0-0.0","96047174","wem/bandit_single","A2RTJ6BDY0DZVZ","pain","8","","75","K","2","","0","1","0","","0.3788053019","false","71","","0.07422050438","main_expt","","0.218187973","","0.3788053019","","0.3509026903","","","","","",""
"157","","bandit","147","529742","0.0-109.0-0.0","96047174","wem/bandit_single","A2RTJ6BDY0DZVZ","pain","8","","75","K","2","","0","0","1","","0.3632611749","false","72","","0.05420033029","main_expt","","0.2357875668","","0.3632611749","","0.3695940198","","","","","",""
"1459","","bandit","148","532962","0.0-110.0-0.0","96047174","wem/bandit_single","A2RTJ6BDY0DZVZ","pain","8","","75","K","2","","0","1","0","","0.3121818875","false","73","","0.04794676006","main_expt","","0.1951490082","","0.3121818875","","0.3532210052","","","","","",""
"267","","bandit","149","534995","0.0-111.0-0.0","96047174","wem/bandit_single","A2RTJ6BDY0DZVZ","pain","8","","75","K","2","","0","0","1","","0.3385624816","false","74","","0.03645121522","main_expt","","0.208621177","","0.3385624816","","0.3780170277","","","","","",""
"123","","bandit","150","536885","0.0-112.0-0.0","96047174","wem/bandit_single","A2RTJ6BDY0DZVZ","pain","8","","75","K","2","","0","1","0","","0.3393964734","false","75","","0.04346784694","main_expt","","0.2016482668","","0.3393964734","","0.3141643986","","","","","",""
"304","","bandit","151","538955","0.0-113.0-0.0","96047174","wem/bandit_single","A2RTJ6BDY0DZVZ","pain","8","","75","K","2","","0","0","1","","0.3489067358","false","76","","0.05697420644","main_expt","","0.2495615647","","0.3489067358","","0.3520496016","","","","","",""
"98","","bandit","152","540818","0.0-114.0-0.0","96047174","wem/bandit_single","A2RTJ6BDY0DZVZ","pain","8","","75","K","2","","0","0","1","","0.3502211764","false","77","","0.05831686642","main_expt","","0.2225386599","","0.3502211764","","0.2628688268","","","","","",""
"87","","bandit","153","542671","0.0-115.0-0.0","96047174","wem/bandit_single","A2RTJ6BDY0DZVZ","pain","8","","75","K","2","","0","0","1","","0.2979424841","false","78","","0.0396837938","main_expt","","0.2525784454","","0.2979424841","","0.2856335909","","","","","",""
"170","","bandit","154","544609","0.0-116.0-0.0","96047174","wem/bandit_single","A2RTJ6BDY0DZVZ","pain","8","","72","H","0","img/none_selected.jpg","0","0","1","","0.03651397352","false","79","","0.03651397352","main_expt","","0.2691825077","","0.2779986596","","0.3052483479","","","","","",""
"90","","bandit","155","546467","0.0-117.0-0.0","96047174","wem/bandit_single","A2RTJ6BDY0DZVZ","pain","8","","72","H","0","img/none_selected.jpg","0","0","1","","0.0570793957","false","80","","0.0570793957","main_expt","","0.2749696362","","0.2681941829","","0.2809417262","","","","","",""
"97","","bandit","156","548330","0.0-118.0-0.0","96047174","wem/bandit_single","A2RTJ6BDY0DZVZ","pain","8","","72","H","0","img/none_selected.jpg","0","0","1","","0.05597964966","false","81","","0.05597964966","main_expt","","0.291945729","","0.2536714586","","0.2639407754","","","","","",""
"238","","bandit","157","550335","0.0-119.0-0.0","96047174","wem/bandit_single","A2RTJ6BDY0DZVZ","pain","8","","76","L","3","","0","0","1","","0.3352417475","false","82","","0.0589745046","main_expt","","0.2804178179","","0.1904528106","","0.3352417475","","","","","",""
"113","","bandit","158","552215","0.0-120.0-0.0","96047174","wem/bandit_single","A2RTJ6BDY0DZVZ","pain","8","","76","L","3","","0","1","0","","0.3246721101","false","83","","0.04461225985","main_expt","","0.2253075454","","0.2497062266","","0.3246721101","","","","","",""
"379","","bandit","159","554361","0.0-121.0-0.0","96047174","wem/bandit_single","A2RTJ6BDY0DZVZ","pain","8","","76","L","3","","0","0","1","","0.3082112656","false","84","","0.04600221485","main_expt","","0.2475548924","","0.2960017758","","0.3082112656","","","","","",""
"135","","bandit","160","556263","0.0-122.0-0.0","96047174","wem/bandit_single","A2RTJ6BDY0DZVZ","pain","8","","76","L","3","","0","0","1","","0.2733186338","false","85","","0.04782026086","main_expt","","0.2443994903","","0.2677312645","","0.2733186338","","","","","",""
"144","","bandit","161","558175","0.0-123.0-0.0","96047174","wem/bandit_single","A2RTJ6BDY0DZVZ","pain","8","","76","L","3","","0","0","1","","0.2595222796","false","86","","0.05551660222","main_expt","","0.2112262296","","0.2764415163","","0.2595222796","","","","","",""
"296","","bandit","162","560230","0.0-124.0-0.0","96047174","wem/bandit_single","A2RTJ6BDY0DZVZ","pain","8","","74","J","1","","0","1","0","","0.2188998383","false","87","","0.04708869331","main_expt","","0.2188998383","","0.324022149","","0.2256999028","","","","","",""
"188","","bandit","163","562192","0.0-125.0-0.0","96047174","wem/bandit_single","A2RTJ6BDY0DZVZ","pain","8","","74","J","1","","0","0","1","","0.2197891412","false","88","","0.02844544313","main_expt","","0.2197891412","","0.3109963835","","0.1990670624","","","","","",""
"113","","bandit","164","564078","0.0-126.0-0.0","96047174","wem/bandit_single","A2RTJ6BDY0DZVZ","pain","8","","74","J","1","","0","0","1","","0.1264972534","false","89","","0.02947982339","main_expt","","0.1264972534","","0.324941543","","0.2125628639","","","","","",""
"226","","bandit","165","566068","0.0-127.0-0.0","96047174","wem/bandit_single","A2RTJ6BDY0DZVZ","pain","8","","74","J","1","","0","0","1","","0.09492746395","false","90","","0.01544371513","main_expt","","0.09492746395","","0.3309337967","","0.2335475446","","","","","",""
"127","","bandit","166","567959","0.0-128.0-0.0","96047174","wem/bandit_single","A2RTJ6BDY0DZVZ","pain","8","","74","J","1","","0","0","1","","0.0779798764","false","91","","0.02662688154","main_expt","","0.0779798764","","0.2419508287","","0.2803997126","","","","","",""
"65","","bandit","167","569792","0.0-129.0-0.0","96047174","wem/bandit_single","A2RTJ6BDY0DZVZ","pain","8","","74","J","1","","0","0","1","","0.1178574791","false","92","","0.03471523835","main_expt","","0.1178574791","","0.2040869203","","0.2771315147","","","","","",""
"165","","bandit","168","571728","0.0-130.0-0.0","96047174","wem/bandit_single","A2RTJ6BDY0DZVZ","pain","8","","75","K","2","","0","0","1","","0.1936143615","false","93","","0.0252433293","main_expt","","0.1199697814","","0.1936143615","","0.3069544445","","","","","",""
"64","","bandit","169","573559","0.0-131.0-0.0","96047174","wem/bandit_single","A2RTJ6BDY0DZVZ","pain","8","","75","K","2","","0","1","0","","0.2296452841","false","94","","0.02873343753","main_expt","","0.1351842626","","0.2296452841","","0.2585327286","","","","","",""
"298","","bandit","170","575627","0.0-132.0-0.0","96047174","wem/bandit_single","A2RTJ6BDY0DZVZ","pain","8","","75","K","2","","0","0","1","","0.3009770616","false","95","","0.03754278977","main_expt","","0.1229387465","","0.3009770616","","0.2043747222","","","","","",""
"28","","bandit","171","577422","0.0-133.0-0.0","96047174","wem/bandit_single","A2RTJ6BDY0DZVZ","pain","8","","75","K","2","","0","0","1","","0.3664634414","false","96","","0.02045008397","main_expt","","0.1341504272","","0.3664634414","","0.2149370614","","","","","",""
"200","","bandit","172","579393","0.0-134.0-0.0","96047174","wem/bandit_single","A2RTJ6BDY0DZVZ","pain","8","","75","K","2","","0","1","0","","0.3476641925","false","97","","0.01282395838","main_expt","","0.08646330057","","0.3476641925","","0.1294523689","","","","","",""
"461","","bandit","173","581621","0.0-135.0-0.0","96047174","wem/bandit_single","A2RTJ6BDY0DZVZ","pain","8","","75","K","2","","0","1","0","","0.3885632826","false","98","","0.02206163243","main_expt","","0.07731746448","","0.3885632826","","0.1653870254","","","","","",""
"269","","bandit","174","583658","0.0-136.0-0.0","96047174","wem/bandit_single","A2RTJ6BDY0DZVZ","pain","8","","75","K","2","","0","0","1","","0.3222143249","false","99","","0.03016500256","main_expt","","0.05048608161","","0.3222143249","","0.187235433","","","","","",""
"84","","bandit","175","585511","0.0-137.0-0.0","96047174","wem/bandit_single","A2RTJ6BDY0DZVZ","pain","8","","75","K","2","","0","0","1","","0.3386714995","false","100","","0.03237578522","main_expt","","0.03970728334","","0.3386714995","","0.1583251777","","","","","",""
"103","","bandit","176","587380","0.0-138.0-0.0","96047174","wem/bandit_single","A2RTJ6BDY0DZVZ","pain","8","","75","K","2","","0","0","1","","0.3131396166","false","101","","0.03241037075","main_expt","","0.02108340439","","0.3131396166","","0.1337381207","","","","","",""
"124","","bandit","177","589273","0.0-139.0-0.0","96047174","wem/bandit_single","A2RTJ6BDY0DZVZ","pain","8","","75","K","2","","0","0","1","","0.3417288757","false","102","","0.06000215667","main_expt","","0.05244648731","","0.3417288757","","0.1163639012","","","","","",""
"53","","bandit","178","591094","0.0-140.0-0.0","96047174","wem/bandit_single","A2RTJ6BDY0DZVZ","pain","8","","72","H","0","img/none_selected.jpg","0","0","1","","0.08726741307","false","103","","0.08726741307","main_expt","","0.04574159302","","0.3582654759","","0.1118657557","","","","","",""
"71","","bandit","179","592925","0.0-141.0-0.0","96047174","wem/bandit_single","A2RTJ6BDY0DZVZ","pain","8","","72","H","0","img/none_selected.jpg","0","0","1","","0.1067467257","false","104","","0.1067467257","main_expt","","0.05033190662","","0.3409136392","","0.1501499683","","","","","",""
"240","","bandit","180","594933","0.0-142.0-0.0","96047174","wem/bandit_single","A2RTJ6BDY0DZVZ","pain","8","","72","H","0","img/none_selected.jpg","0","0","1","","0.1004566838","false","105","","0.1004566838","main_expt","","0.1076128494","","0.3532992837","","0.1354733374","","","","","",""
"105","","bandit","181","596807","0.0-143.0-0.0","96047174","wem/bandit_single","A2RTJ6BDY0DZVZ","pain","8","","72","H","0","img/none_selected.jpg","0","0","1","","0.1055318719","false","106","","0.1055318719","main_expt","","0.06740855405","","0.335683565","","0.1727398631","","","","","",""
"107","","bandit","182","598679","0.0-144.0-0.0","96047174","wem/bandit_single","A2RTJ6BDY0DZVZ","pain","8","","74","J","1","","0","1","0","","0.06658027063","false","107","","0.1236328269","main_expt","","0.06658027063","","0.3924059951","","0.1474174257","","","","","",""
"226","","bandit","183","600673","0.0-145.0-0.0","96047174","wem/bandit_single","A2RTJ6BDY0DZVZ","pain","8","","74","J","1","","0","0","1","","0.0777756245","false","108","","0.1301170461","main_expt","","0.0777756245","","0.3626054341","","0.1683059408","","","","","",""
"107","","bandit","184","602549","0.0-146.0-0.0","96047174","wem/bandit_single","A2RTJ6BDY0DZVZ","pain","8","","74","J","1","","0","0","1","","0.1117823495","false","109","","0.1507941036","main_expt","","0.1117823495","","0.3806857721","","0.1972223025","","","","","",""
"171","","bandit","185","604486","0.0-147.0-0.0","96047174","wem/bandit_single","A2RTJ6BDY0DZVZ","pain","8","","74","J","1","","0","0","1","","0.08710900622","false","110","","0.1647590848","main_expt","","0.08710900622","","0.3452619283","","0.2085186414","","","","","",""
"75","","bandit","186","606322","0.0-148.0-0.0","96047174","wem/bandit_single","A2RTJ6BDY0DZVZ","pain","8","","74","J","1","","0","0","1","","0.107183683","false","111","","0.1574612326","main_expt","","0.107183683","","0.3653509784","","0.1811180602","","","","","",""
"825","","bandit","187","608920","0.0-149.0-0.0","96047174","wem/bandit_single","A2RTJ6BDY0DZVZ","pain","8","","76","L","3","","0","0","1","","0.222295219","false","112","","0.1406493921","main_expt","","0.1099425133","","0.3435522482","","0.222295219","","","","","",""
"151","","bandit","188","610839","0.0-150.0-0.0","96047174","wem/bandit_single","A2RTJ6BDY0DZVZ","pain","8","","76","L","3","","0","0","1","","0.254178783","false","113","","0.1367300214","main_expt","","0.1457634924","","0.3424956272","","0.254178783","","","","","",""
"192","","bandit","189","612797","0.0-151.0-0.0","96047174","wem/bandit_single","A2RTJ6BDY0DZVZ","pain","8","","76","L","3","","0","1","0","","0.2315882939","false","114","","0.1534665218","main_expt","","0.09824844824","","0.3353894863","","0.2315882939","","","","","",""
"207","","bandit","190","614774","0.0-152.0-0.0","96047174","wem/bandit_single","A2RTJ6BDY0DZVZ","pain","8","","76","L","3","","0","0","1","","0.2079629003","false","115","","0.1890238391","main_expt","","0.07202874502","","0.3965113255","","0.2079629003","","","","","",""
"63","","bandit","191","616604","0.0-153.0-0.0","96047174","wem/bandit_single","A2RTJ6BDY0DZVZ","pain","8","","76","L","3","","0","0","1","","0.2117584369","false","116","","0.1480670238","main_expt","","0.08386797302","","0.3889101716","","0.2117584369","","","","","",""
"23","","bandit","192","618392","0.0-154.0-0.0","96047174","wem/bandit_single","A2RTJ6BDY0DZVZ","pain","8","","76","L","3","","0","1","0","","0.1897465023","false","117","","0.1450369027","main_expt","","0.1223406282","","0.412290601","","0.1897465023","","","","","",""
"263","","bandit","193","620424","0.0-155.0-0.0","96047174","wem/bandit_single","A2RTJ6BDY0DZVZ","pain","8","","76","L","3","","0","0","1","","0.2162179109","false","118","","0.1525061225","main_expt","","0.1131974311","","0.4090296977","","0.2162179109","","","","","",""
"120","","bandit","194","622314","0.0-156.0-0.0","96047174","wem/bandit_single","A2RTJ6BDY0DZVZ","pain","8","","76","L","3","","0","0","1","","0.1954464435","false","119","","0.1327940691","main_expt","","0.1214903214","","0.3900906375","","0.1954464435","","","","","",""
"565","","bandit","195","624647","0.0-157.0-0.0","96047174","wem/bandit_single","A2RTJ6BDY0DZVZ","pain","8","","76","L","3","","0","0","1","","0.2433439763","false","120","","0.1517026744","main_expt","","0.1379734046","","0.3722828095","","0.2433439763","","","","","",""
"448","","bandit","196","626856","0.0-158.0-0.0","96047174","wem/bandit_single","A2RTJ6BDY0DZVZ","pain","8","","76","L","3","","0","1","0","","0.2093375247","false","121","","0.09770447215","main_expt","","0.1537473387","","0.3593952677","","0.2093375247","","","","","",""
"311","","bandit","197","628933","0.0-159.0-0.0","96047174","wem/bandit_single","A2RTJ6BDY0DZVZ","pain","8","","76","L","3","","0","0","1","","0.2030857612","false","122","","0.1084092314","main_expt","","0.1654199468","","0.3670381393","","0.2030857612","","","","","",""
"87","","bandit","198","630789","0.0-160.0-0.0","96047174","wem/bandit_single","A2RTJ6BDY0DZVZ","pain","8","","76","L","3","","0","0","1","","0.1810532848","false","123","","0.1828660492","main_expt","","0.1908187881","","0.3587286137","","0.1810532848","","","","","",""
"105","","bandit","199","632663","0.0-161.0-0.0","96047174","wem/bandit_single","A2RTJ6BDY0DZVZ","pain","8","","76","L","3","","0","0","1","","0.1582229448","false","124","","0.1743556658","main_expt","","0.2229551501","","0.3492740793","","0.1582229448","","","","","",""
"194","","bandit","200","634625","0.0-162.0-0.0","96047174","wem/bandit_single","A2RTJ6BDY0DZVZ","pain","8","","76","L","3","","0","1","0","","0.1223239468","false","125","","0.2091647646","main_expt","","0.2354127912","","0.3031262708","","0.1223239468","","","","","",""
"162","","bandit","201","636557","0.0-163.0-0.0","96047174","wem/bandit_single","A2RTJ6BDY0DZVZ","pain","8","","76","L","3","","0","0","1","","0.08912034734","false","126","","0.2089783764","main_expt","","0.25119817","","0.3272336491","","0.08912034734","","","","","",""
"124","","bandit","202","638449","0.0-164.0-0.0","96047174","wem/bandit_single","A2RTJ6BDY0DZVZ","pain","8","","76","L","3","","0","0","1","","0.05948163","false","127","","0.21334071","main_expt","","0.2312690923","","0.3153677968","","0.05948163","","","","","",""
"69","","bandit","203","640287","0.0-165.0-0.0","96047174","wem/bandit_single","A2RTJ6BDY0DZVZ","pain","8","","76","L","3","","0","1","0","","0.06525821595","false","128","","0.1916283041","main_expt","","0.2741150261","","0.3317710332","","0.06525821595","","","","","",""
"295","","bandit","204","642352","0.0-166.0-0.0","96047174","wem/bandit_single","A2RTJ6BDY0DZVZ","pain","8","","76","L","3","","0","0","1","","0.04677418535","false","129","","0.1810604207","main_expt","","0.2804264122","","0.3818586719","","0.04677418535","","","","","",""
"147","","bandit","205","644269","0.0-167.0-0.0","96047174","wem/bandit_single","A2RTJ6BDY0DZVZ","pain","8","","76","L","3","","0","0","1","","0.04931785787","false","130","","0.1492319935","main_expt","","0.2746384559","","0.3778611376","","0.04931785787","","","","","",""
"109","","bandit","206","646147","0.0-168.0-0.0","96047174","wem/bandit_single","A2RTJ6BDY0DZVZ","pain","8","","76","L","3","","0","0","1","","0.03231589458","false","131","","0.129351286","main_expt","","0.3052944487","","0.3745485054","","0.03231589458","","","","","",""
"25","","bandit","207","647943","0.0-169.0-0.0","96047174","wem/bandit_single","A2RTJ6BDY0DZVZ","pain","8","","76","L","3","","0","0","1","","0.0374336399","false","132","","0.1020216346","main_expt","","0.2871604017","","0.3901944836","","0.0374336399","","","","","",""
"101","","bandit","208","649816","0.0-170.0-0.0","96047174","wem/bandit_single","A2RTJ6BDY0DZVZ","pain","8","","75","K","2","","0","0","1","","0.3245875462","false","133","","0.1100395313","main_expt","","0.2262434135","","0.3245875462","","0.04583961862","","","","","",""
"64","","bandit","209","651643","0.0-171.0-0.0","96047174","wem/bandit_single","A2RTJ6BDY0DZVZ","pain","8","","75","K","2","","0","0","1","","0.2794858075","false","134","","0.1078381017","main_expt","","0.2020687113","","0.2794858075","","0.04150300199","","","","","",""
"108","","bandit","210","653511","0.0-172.0-0.0","96047174","wem/bandit_single","A2RTJ6BDY0DZVZ","pain","8","","74","J","1","","0","0","1","","0.2168620662","false","135","","0.1093486249","main_expt","","0.2168620662","","0.2867414221","","0.04663842542","","","","","",""
"246","","bandit","211","655524","0.0-173.0-0.0","96047174","wem/bandit_single","A2RTJ6BDY0DZVZ","pain","8","","74","J","1","","0","0","1","","0.151139006","false","136","","0.1246456113","main_expt","","0.151139006","","0.2388941587","","0.06291357963","","","","","",""
"70","","bandit","212","657366","0.0-174.0-0.0","96047174","wem/bandit_single","A2RTJ6BDY0DZVZ","pain","8","","75","K","2","","0","0","1","","0.2301747732","false","137","","0.1167447495","main_expt","","0.1452995234","","0.2301747732","","0.0848669819","","","","","",""
"105","","bandit","213","659242","0.0-175.0-0.0","96047174","wem/bandit_single","A2RTJ6BDY0DZVZ","pain","8","","75","K","2","","0","0","1","","0.2344721482","false","138","","0.1357570265","main_expt","","0.1599176777","","0.2344721482","","0.1250360552","","","","","",""
"111","","bandit","214","661120","0.0-176.0-0.0","96047174","wem/bandit_single","A2RTJ6BDY0DZVZ","pain","8","","72","H","0","img/none_selected.jpg","0","0","1","","0.1616689495","false","139","","0.1616689495","main_expt","","0.1704699841","","0.2351335283","","0.122190115","","","","","",""
"223","","bandit","215","663114","0.0-177.0-0.0","96047174","wem/bandit_single","A2RTJ6BDY0DZVZ","pain","8","","72","H","0","img/none_selected.jpg","0","0","1","","0.1979747013","false","140","","0.1979747013","main_expt","","0.1142956015","","0.2876903143","","0.08666030548","","","","","",""
"175","","bandit","216","665059","0.0-178.0-0.0","96047174","wem/bandit_single","A2RTJ6BDY0DZVZ","pain","8","","72","H","0","img/none_selected.jpg","0","0","1","","0.1708965128","false","141","","0.1708965128","main_expt","","0.1206890816","","0.2865732071","","0.09967801986","","","","","",""
"272","","bandit","217","667103","0.0-179.0-0.0","96047174","wem/bandit_single","A2RTJ6BDY0DZVZ","pain","8","","72","H","0","img/none_selected.jpg","0","1","0","","0.204481367","false","142","","0.204481367","main_expt","","0.1324259923","","0.248943806","","0.1125289611","","","","","",""
"139","","bandit","218","669011","0.0-180.0-0.0","96047174","wem/bandit_single","A2RTJ6BDY0DZVZ","pain","8","","72","H","0","img/none_selected.jpg","0","1","0","","0.1861099789","false","143","","0.1861099789","main_expt","","0.09892217097","","0.2839045407","","0.1467602081","","","","","",""
"202","","bandit","219","670982","0.0-181.0-0.0","96047174","wem/bandit_single","A2RTJ6BDY0DZVZ","pain","8","","72","H","0","img/none_selected.jpg","0","0","1","","0.1956465744","false","144","","0.1956465744","main_expt","","0.1577744197","","0.3150250783","","0.1467522766","","","","","",""
"123","","bandit","220","672874","0.0-182.0-0.0","96047174","wem/bandit_single","A2RTJ6BDY0DZVZ","pain","8","","72","H","0","img/none_selected.jpg","0","0","1","","0.2622876922","false","145","","0.2622876922","main_expt","","0.1392006829","","0.3090395899","","0.118212248","","","","","",""
"135","","bandit","221","674778","0.0-183.0-0.0","96047174","wem/bandit_single","A2RTJ6BDY0DZVZ","pain","8","","72","H","0","img/none_selected.jpg","0","0","1","","0.304745079","false","146","","0.304745079","main_expt","","0.1262993523","","0.3122039877","","0.1089879874","","","","","",""
"167","","bandit","222","676716","0.0-184.0-0.0","96047174","wem/bandit_single","A2RTJ6BDY0DZVZ","pain","8","","72","H","0","img/none_selected.jpg","0","1","0","","0.2888799162","false","147","","0.2888799162","main_expt","","0.1970652478","","0.2959619691","","0.1200469816","","","","","",""
"358","","bandit","223","678842","0.0-185.0-0.0","96047174","wem/bandit_single","A2RTJ6BDY0DZVZ","pain","8","","72","H","0","img/none_selected.jpg","0","0","1","","0.2290209364","false","148","","0.2290209364","main_expt","","0.2502259542","","0.2395536641","","0.1276189258","","","","","",""
"62","","bandit","224","680665","0.0-186.0-0.0","96047174","wem/bandit_single","A2RTJ6BDY0DZVZ","pain","8","","72","H","0","img/none_selected.jpg","0","0","1","","0.1626908122","false","149","","0.1626908122","main_expt","","0.264890558","","0.2650868272","","0.1280703092","","","","","",""
"129","","bandit","225","682566","0.0-187.0-0.0","96047174","wem/bandit_single","A2RTJ6BDY0DZVZ","pain","8","","72","H","0","img/none_selected.jpg","0","0","1","","0.1958031623","false","150","","0.1958031623","main_expt","","0.2458403893","","0.2986082654","","0.1260403861","","","","","",""
"123","","bandit","226","684456","0.0-188.0-0.0","96047174","wem/bandit_single","A2RTJ6BDY0DZVZ","pain","8","","72","H","0","img/none_selected.jpg","0","0","1","","0.2110526716","false","151","","0.2110526716","main_expt","","0.3021038309","","0.2843767109","","0.1472493067","","","","","",""
"233","","bandit","227","686460","0.0-189.0-0.0","96047174","wem/bandit_single","A2RTJ6BDY0DZVZ","pain","8","","76","L","3","","0","0","1","","0.1256460397","false","152","","0.239542308","main_expt","","0.2863751765","","0.2910803031","","0.1256460397","","","","","",""
"82","","bandit","228","688310","0.0-190.0-0.0","96047174","wem/bandit_single","A2RTJ6BDY0DZVZ","pain","8","","76","L","3","","0","0","1","","0.1567097088","false","153","","0.2781725502","main_expt","","0.250244768","","0.2910028656","","0.1567097088","","","","","",""
"127","","bandit","229","690208","0.0-191.0-0.0","96047174","wem/bandit_single","A2RTJ6BDY0DZVZ","pain","8","","76","L","3","","0","0","1","","0.1473662378","false","154","","0.228047793","main_expt","","0.2127808211","","0.2845613835","","0.1473662378","","","","","",""
"56","","bandit","230","692034","0.0-192.0-0.0","96047174","wem/bandit_single","A2RTJ6BDY0DZVZ","pain","8","","76","L","3","","0","0","1","","0.1466549972","false","155","","0.2683949018","main_expt","","0.205053704","","0.2707345723","","0.1466549972","","","","","",""
"97","","bandit","231","693901","0.0-193.0-0.0","96047174","wem/bandit_single","A2RTJ6BDY0DZVZ","pain","8","","75","K","2","","0","1","0","","0.3156720475","false","156","","0.3192141369","main_expt","","0.1648482415","","0.3156720475","","0.1127453184","","","","","",""
"231","","bandit","232","695906","0.0-194.0-0.0","96047174","wem/bandit_single","A2RTJ6BDY0DZVZ","pain","8","","75","K","2","","0","0","1","","0.3101066834","false","157","","0.3402823895","main_expt","","0.1888047422","","0.3101066834","","0.1577506677","","","","","",""
"123","","bandit","233","697800","0.0-195.0-0.0","96047174","wem/bandit_single","A2RTJ6BDY0DZVZ","pain","8","","75","K","2","","0","0","1","","0.3236654942","false","158","","0.2944958958","main_expt","","0.1759444775","","0.3236654942","","0.177177298","","","","","",""
"32","","bandit","234","699592","0.0-196.0-0.0","96047174","wem/bandit_single","A2RTJ6BDY0DZVZ","pain","8","","75","K","2","","0","1","0","","0.2735657487","false","159","","0.3007248388","main_expt","","0.2066832709","","0.2735657487","","0.1693510486","","","","","",""
"262","","bandit","235","701626","0.0-197.0-0.0","96047174","wem/bandit_single","A2RTJ6BDY0DZVZ","pain","8","","75","K","2","","0","0","1","","0.2384912546","false","160","","0.3179332055","main_expt","","0.2570817279","","0.2384912546","","0.1230292859","","","","","",""
"260","","bandit","236","703659","0.0-198.0-0.0","96047174","wem/bandit_single","A2RTJ6BDY0DZVZ","pain","8","","75","K","2","","0","0","1","","0.2615252743","false","161","","0.2506164635","main_expt","","0.2244749933","","0.2615252743","","0.07903667538","","","","","",""
"311","","bandit","237","705744","0.0-199.0-0.0","96047174","wem/bandit_single","A2RTJ6BDY0DZVZ","pain","8","","75","K","2","","0","0","1","","0.2187643747","false","162","","0.2858836385","main_expt","","0.23263707","","0.2187643747","","0.1136507332","","","","","",""
"218","","bandit","238","707733","0.0-200.0-0.0","96047174","wem/bandit_single","A2RTJ6BDY0DZVZ","pain","8","","75","K","2","","0","0","1","","0.1909081127","false","163","","0.2848163613","main_expt","","0.2287127565","","0.1909081127","","0.1137116213","","","","","",""
"432","","bandit","239","709932","0.0-201.0-0.0","96047174","wem/bandit_single","A2RTJ6BDY0DZVZ","pain","8","","74","J","1","","0","0","1","","0.2303253206","false","164","","0.2688566635","main_expt","","0.2303253206","","0.1808716434","","0.1254102563","","","","","",""
"71","","bandit","240","711771","0.0-202.0-0.0","96047174","wem/bandit_single","A2RTJ6BDY0DZVZ","pain","8","","74","J","1","","0","0","1","","0.2771057403","false","165","","0.2921202554","main_expt","","0.2771057403","","0.2118073572","","0.1216805934","","","","","",""
"51","","bandit","241","713594","0.0-203.0-0.0","96047174","wem/bandit_single","A2RTJ6BDY0DZVZ","pain","8","","74","J","1","","0","0","1","","0.2371810998","false","166","","0.3143591269","main_expt","","0.2371810998","","0.2410554973","","0.1291529517","","","","","",""
"95","","bandit","242","715459","0.0-204.0-0.0","96047174","wem/bandit_single","A2RTJ6BDY0DZVZ","pain","8","","74","J","1","","0","0","1","","0.2349122652","false","167","","0.2892924204","main_expt","","0.2349122652","","0.2574005288","","0.1535345887","","","","","",""
"101","","bandit","243","717332","0.0-205.0-0.0","96047174","wem/bandit_single","A2RTJ6BDY0DZVZ","pain","8","","74","J","1","","0","0","1","","0.1959020284","false","168","","0.2786305655","main_expt","","0.1959020284","","0.2729884233","","0.1435034989","","","","","",""
"84","","bandit","244","719186","0.0-206.0-0.0","96047174","wem/bandit_single","A2RTJ6BDY0DZVZ","pain","8","","74","J","1","","0","0","1","","0.1899859579","false","169","","0.246803054","main_expt","","0.1899859579","","0.2625821735","","0.1957458285","","","","","",""
"91","","bandit","245","721052","0.0-207.0-0.0","96047174","wem/bandit_single","A2RTJ6BDY0DZVZ","pain","8","","75","K","2","","0","0","1","","0.3100542845","false","170","","0.2375021307","main_expt","","0.2213833812","","0.3100542845","","0.1308867566","","","","","",""
"69","","bandit","246","722892","0.0-208.0-0.0","96047174","wem/bandit_single","A2RTJ6BDY0DZVZ","pain","8","","75","K","2","","0","0","1","","0.3083945368","false","171","","0.2965678991","main_expt","","0.1589997081","","0.3083945368","","0.1422271972","","","","","",""
"105","","bandit","247","724770","0.0-209.0-0.0","96047174","wem/bandit_single","A2RTJ6BDY0DZVZ","pain","8","","75","K","2","","0","1","0","","0.3929186772","false","172","","0.2696718616","main_expt","","0.1669714507","","0.3929186772","","0.1541925874","","","","","",""
"181","","bandit","248","726721","0.0-210.0-0.0","96047174","wem/bandit_single","A2RTJ6BDY0DZVZ","pain","8","","75","K","2","","0","1","0","","0.4107736206","false","173","","0.2576521005","main_expt","","0.1699847696","","0.4107736206","","0.1416394444","","","","","",""
"251","","bandit","249","728744","0.0-211.0-0.0","96047174","wem/bandit_single","A2RTJ6BDY0DZVZ","pain","8","","75","K","2","","0","1","0","","0.4267170337","false","174","","0.2839516933","main_expt","","0.202136981","","0.4267170337","","0.1207830423","","","","","",""
"140","","bandit","250","730657","0.0-212.0-0.0","96047174","wem/bandit_single","A2RTJ6BDY0DZVZ","pain","8","","75","K","2","","0","0","1","","0.420504823","false","175","","0.2932452363","main_expt","","0.1863880777","","0.420504823","","0.1636312712","","","","","",""
"131","","bandit","251","732561","0.0-213.0-0.0","96047174","wem/bandit_single","A2RTJ6BDY0DZVZ","pain","8","","75","K","2","","0","0","1","","0.3956962169","false","176","","0.3118313574","main_expt","","0.1426909825","","0.3956962169","","0.186569684","","","","","",""
"166","","bandit","252","734495","0.0-214.0-0.0","96047174","wem/bandit_single","A2RTJ6BDY0DZVZ","pain","8","","75","K","2","","0","1","0","","0.3834761318","false","177","","0.3378695823","main_expt","","0.1335645184","","0.3834761318","","0.1089038478","","","","","",""
"479","","bandit","253","736746","0.0-215.0-0.0","96047174","wem/bandit_single","A2RTJ6BDY0DZVZ","pain","8","","75","K","2","","0","0","1","","0.4167112469","false","178","","0.3234122319","main_expt","","0.09719791569","","0.4167112469","","0.08465244813","","","","","",""
"290","","bandit","254","738808","0.0-216.0-0.0","96047174","wem/bandit_single","A2RTJ6BDY0DZVZ","pain","8","","75","K","2","","0","0","1","","0.4370197561","false","179","","0.3281528324","main_expt","","0.07123289457","","0.4370197561","","0.1015747644","","","","","",""
"44","","bandit","255","740618","0.0-217.0-0.0","96047174","wem/bandit_single","A2RTJ6BDY0DZVZ","pain","8","","75","K","2","","0","1","0","","0.3776598584","false","180","","0.340497037","main_expt","","0.05555663239","","0.3776598584","","0.1277953302","","","","","",""
"497","","bandit","256","742887","0.0-218.0-0.0","96047174","wem/bandit_single","A2RTJ6BDY0DZVZ","pain","8","","75","K","2","","0","1","0","","0.3636519722","false","181","","0.3007371283","main_expt","","0.04396828199","","0.3636519722","","0.1854921141","","","","","",""
"167","","bandit","257","744825","0.0-219.0-0.0","96047174","wem/bandit_single","A2RTJ6BDY0DZVZ","pain","8","","75","K","2","","0","0","1","","0.3246411676","false","182","","0.3190136055","main_expt","","0.02691259782","","0.3246411676","","0.2273529654","","","","","",""
"101","","bandit","258","746688","0.0-220.0-0.0","96047174","wem/bandit_single","A2RTJ6BDY0DZVZ","pain","8","","75","K","2","","0","0","1","","0.3187018958","false","183","","0.322323442","main_expt","","0.04807599522","","0.3187018958","","0.2600234541","","","","","",""
"266","","bandit","259","748726","0.0-221.0-0.0","96047174","wem/bandit_single","A2RTJ6BDY0DZVZ","pain","8","","75","K","2","","0","0","1","","0.3497063737","false","184","","0.3086696071","main_expt","","0.05076165442","","0.3497063737","","0.2689652485","","","","","",""
"275","","bandit","260","750772","0.0-222.0-0.0","96047174","wem/bandit_single","A2RTJ6BDY0DZVZ","pain","8","","75","K","2","","0","0","1","","0.3334532315","false","185","","0.3146814862","main_expt","","0.1128087831","","0.3334532315","","0.2646203852","","","","","",""
"143","","bandit","261","752690","0.0-223.0-0.0","96047174","wem/bandit_single","A2RTJ6BDY0DZVZ","pain","8","","76","L","3","","0","0","1","","0.2038557162","false","186","","0.3353274036","main_expt","","0.1592260056","","0.3511592443","","0.2038557162","","","","","",""
"204","","bandit","262","754666","0.0-224.0-0.0","96047174","wem/bandit_single","A2RTJ6BDY0DZVZ","pain","8","","76","L","3","","0","1","0","","0.2643634763","false","187","","0.331036234","main_expt","","0.2195828404","","0.3758503369","","0.2643634763","","","","","",""
"233","","bandit","263","756672","0.0-225.0-0.0","96047174","wem/bandit_single","A2RTJ6BDY0DZVZ","pain","8","","76","L","3","","0","1","0","","0.2137054787","false","188","","0.3061178756","main_expt","","0.214856838","","0.3951098987","","0.2137054787","","","","","",""
"165","","bandit","264","758608","0.0-226.0-0.0","96047174","wem/bandit_single","A2RTJ6BDY0DZVZ","pain","8","","76","L","3","","0","0","1","","0.2349639762","false","189","","0.3455914038","main_expt","","0.2103369464","","0.3766733461","","0.2349639762","","","","","",""
"296","","bandit","265","760689","0.0-227.0-0.0","96047174","wem/bandit_single","A2RTJ6BDY0DZVZ","pain","8","","76","L","3","","0","0","1","","0.2067261929","false","190","","0.3734842368","main_expt","","0.1932940482","","0.3974997784","","0.2067261929","","","","","",""
"112","","bandit","266","762573","0.0-228.0-0.0","96047174","wem/bandit_single","A2RTJ6BDY0DZVZ","pain","8","","76","L","3","","0","0","1","","0.275245882","false","191","","0.3648323685","main_expt","","0.2285646161","","0.4174686418","","0.275245882","","","","","",""
"221","","bandit","267","764564","0.0-229.0-0.0","96047174","wem/bandit_single","A2RTJ6BDY0DZVZ","pain","8","","76","L","3","","0","0","1","","0.306220044","false","192","","0.3339781981","main_expt","","0.2589031043","","0.3963748123","","0.306220044","","","","","",""
"249","","bandit","268","766586","0.0-230.0-0.0","96047174","wem/bandit_single","A2RTJ6BDY0DZVZ","pain","8","","72","H","0","img/none_selected.jpg","0","0","1","","0.3342714415","false","193","","0.3342714415","main_expt","","0.2195537535","","0.3921748604","","0.3035773814","","","","","",""
"137","","bandit","269","768498","0.0-231.0-0.0","96047174","wem/bandit_single","A2RTJ6BDY0DZVZ","pain","8","","72","H","0","img/none_selected.jpg","0","0","1","","0.3241295504","false","194","","0.3241295504","main_expt","","0.2027550427","","0.3580841109","","0.2510827831","","","","","",""
"148","","bandit","270","770407","0.0-232.0-0.0","96047174","wem/bandit_single","A2RTJ6BDY0DZVZ","pain","8","","72","H","0","img/none_selected.jpg","0","0","1","","0.3116310431","false","195","","0.3116310431","main_expt","","0.1862287394","","0.3508589263","","0.2455858858","","","","","",""
"107","","bandit","271","772286","0.0-233.0-0.0","96047174","wem/bandit_single","A2RTJ6BDY0DZVZ","pain","8","","72","H","0","img/none_selected.jpg","0","0","1","","0.3757707762","false","196","","0.3757707762","main_expt","","0.1892299528","","0.3580593089","","0.2514601016","","","","","",""
"135","","bandit","272","774192","0.0-234.0-0.0","96047174","wem/bandit_single","A2RTJ6BDY0DZVZ","pain","8","","74","J","1","","0","1","0","","0.2217707201","false","197","","0.3510132286","main_expt","","0.2217707201","","0.325214339","","0.2735270373","","","","","",""
"229","","bandit","273","776194","0.0-235.0-0.0","96047174","wem/bandit_single","A2RTJ6BDY0DZVZ","pain","8","","74","J","1","","0","0","1","","0.2622368769","false","198","","0.3775824693","main_expt","","0.2622368769","","0.3214736551","","0.1856542716","","","","","",""
"102","","bandit","274","778067","0.0-236.0-0.0","96047174","wem/bandit_single","A2RTJ6BDY0DZVZ","pain","8","","74","J","1","","0","0","1","","0.2566369559","false","199","","0.3591355879","main_expt","","0.2566369559","","0.3134841864","","0.1439471636","","","","","",""
"80","","bandit","275","779922","0.0-237.0-0.0","96047174","wem/bandit_single","A2RTJ6BDY0DZVZ","pain","8","","74","J","1","","0","0","1","","0.2405232655","false","200","","0.4329566742","main_expt","","0.2405232655","","0.3484934822","","0.1920673188","","","","","",""
"44","","bandit","276","781741","0.0-238.0-0.0","96047174","wem/bandit_single","A2RTJ6BDY0DZVZ","pain","8","","74","J","1","","0","0","1","","0.191632201","false","201","","0.4316294991","main_expt","","0.191632201","","0.3509587021","","0.2139557707","","","","","",""
"60","","bandit","277","783575","0.0-239.0-0.0","96047174","wem/bandit_single","A2RTJ6BDY0DZVZ","pain","8","","75","K","2","","0","0","1","","0.3472711197","false","202","","0.4446061493","main_expt","","0.1860277461","","0.3472711197","","0.2411081829","","","","","",""
"134","","bandit","278","785482","0.0-240.0-0.0","96047174","wem/bandit_single","A2RTJ6BDY0DZVZ","pain","8","","75","K","2","","0","1","0","","0.3501901851","false","203","","0.4350640844","main_expt","","0.1959395152","","0.3501901851","","0.2229679022","","","","","",""
"282","","bandit","279","787538","0.0-241.0-0.0","96047174","wem/bandit_single","A2RTJ6BDY0DZVZ","pain","8","","75","K","2","","0","0","1","","0.4021923856","false","204","","0.4511953558","main_expt","","0.1909798814","","0.4021923856","","0.2094072873","","","","","",""
"94","","bandit","280","789406","0.0-242.0-0.0","96047174","wem/bandit_single","A2RTJ6BDY0DZVZ","pain","8","","75","K","2","","0","1","0","","0.4103624794","false","205","","0.4444608137","main_expt","","0.1952925147","","0.4103624794","","0.2061243076","","","","","",""
"230","","bandit","281","791409","0.0-243.0-0.0","96047174","wem/bandit_single","A2RTJ6BDY0DZVZ","pain","8","","75","K","2","","0","1","0","","0.3884407208","false","206","","0.4174874576","main_expt","","0.2333477628","","0.3884407208","","0.1830656651","","","","","",""
"113","","bandit","282","793295","0.0-244.0-0.0","96047174","wem/bandit_single","A2RTJ6BDY0DZVZ","pain","8","","75","K","2","","0","1","0","","0.4205181933","false","207","","0.4473837798","main_expt","","0.2366383375","","0.4205181933","","0.1806213093","","","","","",""
"123","","bandit","283","795193","0.0-245.0-0.0","96047174","wem/bandit_single","A2RTJ6BDY0DZVZ","pain","8","","75","K","2","","0","0","1","","0.39705837","false","208","","0.4423282801","main_expt","","0.2588239296","","0.39705837","","0.1547428587","","","","","",""
"180","","bandit","284","797146","0.0-246.0-0.0","96047174","wem/bandit_single","A2RTJ6BDY0DZVZ","pain","8","","75","K","2","","0","0","1","","0.3763678409","false","209","","0.4495798672","main_expt","","0.2109346514","","0.3763678409","","0.1633509089","","","","","",""
"147","","bandit","285","799069","0.0-247.0-0.0","96047174","wem/bandit_single","A2RTJ6BDY0DZVZ","pain","8","","75","K","2","","0","0","1","","0.329669689","false","210","","0.4604116181","main_expt","","0.2352346414","","0.329669689","","0.194224154","","","","","",""
"80","","bandit","286","800926","0.0-248.0-0.0","96047174","wem/bandit_single","A2RTJ6BDY0DZVZ","pain","8","","75","K","2","","0","0","1","","0.3234151823","false","211","","0.4515605979","main_expt","","0.1919095989","","0.3234151823","","0.1428536625","","","","","",""
"263","","bandit","287","802960","0.0-249.0-0.0","96047174","wem/bandit_single","A2RTJ6BDY0DZVZ","pain","8","","72","H","0","img/none_selected.jpg","0","0","1","","0.3796359761","false","212","","0.3796359761","main_expt","","0.2511997366","","0.346289724","","0.1876263767","","","","","",""
"432","","bandit","288","805165","0.0-250.0-0.0","96047174","wem/bandit_single","A2RTJ6BDY0DZVZ","pain","8","","72","H","0","img/none_selected.jpg","0","0","1","","0.4098311692","false","213","","0.4098311692","main_expt","","0.2247602752","","0.3579646626","","0.1767426991","","","","","",""
"611","","bandit","289","807549","0.0-251.0-0.0","96047174","wem/bandit_single","A2RTJ6BDY0DZVZ","pain","8","","72","H","0","img/none_selected.jpg","0","1","0","","0.3758430492","false","214","","0.3758430492","main_expt","","0.2078026042","","0.3871938136","","0.1997003326","","","","","",""
"653","","bandit","290","809979","0.0-252.0-0.0","96047174","wem/bandit_single","A2RTJ6BDY0DZVZ","pain","8","","72","H","0","img/none_selected.jpg","0","1","0","","0.3391734167","false","215","","0.3391734167","main_expt","","0.2000367883","","0.4072701047","","0.1753208105","","","","","",""
"940","","bandit","291","812693","0.0-253.0-0.0","96047174","wem/bandit_single","A2RTJ6BDY0DZVZ","pain","8","","72","H","0","img/none_selected.jpg","0","0","1","","0.3292806148","false","216","","0.3292806148","main_expt","","0.1850279066","","0.4139997029","","0.1526073348","","","","","",""
"299","","bandit","292","814763","0.0-254.0-0.0","96047174","wem/bandit_single","A2RTJ6BDY0DZVZ","pain","8","","72","H","0","img/none_selected.jpg","0","0","1","","0.3672552775","false","217","","0.3672552775","main_expt","","0.1862329662","","0.4058129166","","0.1885901152","","","","","",""
"1310","","bandit","293","817854","0.0-255.0-0.0","96047174","wem/bandit_single","A2RTJ6BDY0DZVZ","pain","8","","72","H","0","img/none_selected.jpg","0","1","0","","0.3540988412","false","218","","0.3540988412","main_expt","","0.2076422808","","0.3831507141","","0.2068683321","","","","","",""
"304","","bandit","294","819930","0.0-256.0-0.0","96047174","wem/bandit_single","A2RTJ6BDY0DZVZ","pain","8","","72","H","0","img/none_selected.jpg","0","0","1","","0.3705907093","false","219","","0.3705907093","main_expt","","0.1693095695","","0.3975704748","","0.1830460615","","","","","",""
"40","","bandit","295","821743","0.0-257.0-0.0","96047174","wem/bandit_single","A2RTJ6BDY0DZVZ","pain","8","","72","H","0","img/none_selected.jpg","0","0","1","","0.4071767116","false","220","","0.4071767116","main_expt","","0.1643321708","","0.420208779","","0.1510464272","","","","","",""
"384","","bandit","296","823901","0.0-258.0-0.0","96047174","wem/bandit_single","A2RTJ6BDY0DZVZ","pain","8","","72","H","0","img/none_selected.jpg","0","0","1","","0.4000591573","false","221","","0.4000591573","main_expt","","0.1755642267","","0.4277126104","","0.1195154075","","","","","",""
"380","","bandit","297","826054","0.0-259.0-0.0","96047174","wem/bandit_single","A2RTJ6BDY0DZVZ","pain","8","","72","H","0","img/none_selected.jpg","0","1","0","","0.4257242725","false","222","","0.4257242725","main_expt","","0.2047466037","","0.4098861052","","0.1322821073","","","","","",""
"455","","bandit","298","828282","0.0-260.0-0.0","96047174","wem/bandit_single","A2RTJ6BDY0DZVZ","pain","8","","72","H","0","img/none_selected.jpg","0","0","1","","0.4084538547","false","223","","0.4084538547","main_expt","","0.1261696039","","0.3865692481","","0.1634864242","","","","","",""
"92","","bandit","299","830147","0.0-261.0-0.0","96047174","wem/bandit_single","A2RTJ6BDY0DZVZ","pain","8","","72","H","0","img/none_selected.jpg","0","1","0","","0.3756333804","false","224","","0.3756333804","main_expt","","0.1671605087","","0.3942994903","","0.1927622759","","","","","",""
"345","","bandit","300","832269","0.0-262.0-0.0","96047174","wem/bandit_single","A2RTJ6BDY0DZVZ","pain","8","","72","H","0","img/none_selected.jpg","0","1","0","","0.3977261909","false","225","","0.3977261909","main_expt","","0.1498322393","","0.3444994861","","0.1949177646","","","","","",""
"166","","bandit","301","834206","0.0-263.0-0.0","96047174","wem/bandit_single","A2RTJ6BDY0DZVZ","pain","8","","72","H","0","img/none_selected.jpg","0","0","1","","0.3876796808","false","226","","0.3876796808","main_expt","","0.106170416","","0.4042132592","","0.1675301724","","","","","",""
"141","","bandit","302","836122","0.0-264.0-0.0","96047174","wem/bandit_single","A2RTJ6BDY0DZVZ","pain","8","","72","H","0","img/none_selected.jpg","0","0","1","","0.3213858912","false","227","","0.3213858912","main_expt","","0.0897934899","","0.3906229402","","0.163375113","","","","","",""
"116","","bandit","303","838006","0.0-265.0-0.0","96047174","wem/bandit_single","A2RTJ6BDY0DZVZ","pain","8","","72","H","0","img/none_selected.jpg","0","1","0","","0.3331191915","false","228","","0.3331191915","main_expt","","0.09443294629","","0.3417164876","","0.195474145","","","","","",""
"406","","bandit","304","840184","0.0-266.0-0.0","96047174","wem/bandit_single","A2RTJ6BDY0DZVZ","pain","8","","72","H","0","img/none_selected.jpg","0","1","0","","0.308496805","false","229","","0.308496805","main_expt","","0.0848669953","","0.3222205624","","0.2410354958","","","","","",""
"211","","bandit","305","842167","0.0-267.0-0.0","96047174","wem/bandit_single","A2RTJ6BDY0DZVZ","pain","8","","72","H","0","img/none_selected.jpg","0","0","1","","0.2734654059","false","230","","0.2734654059","main_expt","","0.0701458292","","0.3442672336","","0.2567648542","","","","","",""
"109","","bandit","306","844050","0.0-268.0-0.0","96047174","wem/bandit_single","A2RTJ6BDY0DZVZ","pain","8","","72","H","0","img/none_selected.jpg","0","0","1","","0.292212981","false","231","","0.292212981","main_expt","","0.1251282835","","0.3164459362","","0.2304241664","","","","","",""
"178","","bandit","307","846008","0.0-269.0-0.0","96047174","wem/bandit_single","A2RTJ6BDY0DZVZ","pain","8","","72","H","0","img/none_selected.jpg","0","0","1","","0.2516656152","false","232","","0.2516656152","main_expt","","0.1124912266","","0.3396906789","","0.2264886823","","","","","",""
"150","","bandit","308","847929","0.0-270.0-0.0","96047174","wem/bandit_single","A2RTJ6BDY0DZVZ","pain","8","","72","H","0","img/none_selected.jpg","0","0","1","","0.2563877418","false","233","","0.2563877418","main_expt","","0.1535494164","","0.3008540409","","0.1892320941","","","","","",""
"148","","bandit","309","849851","0.0-271.0-0.0","96047174","wem/bandit_single","A2RTJ6BDY0DZVZ","pain","8","","76","L","3","","0","0","1","","0.1556895318","false","234","","0.283882603","main_expt","","0.1389628654","","0.2767988229","","0.1556895318","","","","","",""
"49","","bandit","310","851671","0.0-272.0-0.0","96047174","wem/bandit_single","A2RTJ6BDY0DZVZ","pain","8","","76","L","3","","0","0","1","","0.1976044491","false","235","","0.2758852766","main_expt","","0.1680793718","","0.2507781603","","0.1976044491","","","","","",""
"58","","bandit","311","853503","0.0-273.0-0.0","96047174","wem/bandit_single","A2RTJ6BDY0DZVZ","pain","8","","76","L","3","","0","0","1","","0.1468950029","false","236","","0.2434452049","main_expt","","0.2037097706","","0.3091667607","","0.1468950029","","","","","",""
"78","","bandit","312","855356","0.0-274.0-0.0","96047174","wem/bandit_single","A2RTJ6BDY0DZVZ","pain","8","","76","L","3","","0","0","1","","0.1365515699","false","237","","0.2405517979","main_expt","","0.1897176974","","0.2883211118","","0.1365515699","","","","","",""
"122","","bandit","313","857252","0.0-275.0-0.0","96047174","wem/bandit_single","A2RTJ6BDY0DZVZ","pain","8","","76","L","3","","0","0","1","","0.1527077476","false","238","","0.2260832521","main_expt","","0.2317710791","","0.2756444762","","0.1527077476","","","","","",""
"109","","bandit","314","859138","0.0-276.0-0.0","96047174","wem/bandit_single","A2RTJ6BDY0DZVZ","pain","8","","75","K","2","","0","1","0","","0.3061346513","false","239","","0.2061693665","main_expt","","0.2206906913","","0.3061346513","","0.1315224722","","","","","",""
"231","","bandit","315","861142","0.0-277.0-0.0","96047174","wem/bandit_single","A2RTJ6BDY0DZVZ","pain","8","","75","K","2","","0","1","0","","0.3274201615","false","240","","0.2203195159","main_expt","","0.2155283076","","0.3274201615","","0.1398926963","","","","","",""
"103","","bandit","316","863023","0.0-278.0-0.0","96047174","wem/bandit_single","A2RTJ6BDY0DZVZ","pain","8","","75","K","2","","0","0","1","","0.2838770346","false","241","","0.2230507071","main_expt","","0.2386015387","","0.2838770346","","0.1698873683","","","","","",""
"168","","bandit","317","864967","0.0-279.0-0.0","96047174","wem/bandit_single","A2RTJ6BDY0DZVZ","pain","8","","75","K","2","","0","0","1","","0.261873528","false","242","","0.1834748297","main_expt","","0.2178179326","","0.261873528","","0.1693915972","","","","","",""
"181","","bandit","318","866921","0.0-280.0-0.0","96047174","wem/bandit_single","A2RTJ6BDY0DZVZ","pain","8","","75","K","2","","0","1","0","","0.2346518895","false","243","","0.1450766806","main_expt","","0.2209910316","","0.2346518895","","0.2011280514","","","","","",""
"214","","bandit","319","868910","0.0-281.0-0.0","96047174","wem/bandit_single","A2RTJ6BDY0DZVZ","pain","8","","75","K","2","","0","0","1","","0.2253303202","false","244","","0.1407015906","main_expt","","0.2202366047","","0.2253303202","","0.283074141","","","","","",""
"440","","bandit","320","871124","0.0-282.0-0.0","96047174","wem/bandit_single","A2RTJ6BDY0DZVZ","pain","8","","75","K","2","","0","1","0","","0.2379184421","false","245","","0.1386250556","main_expt","","0.2369425358","","0.2379184421","","0.2960363525","","","","","",""
"272","","bandit","321","873170","0.0-283.0-0.0","96047174","wem/bandit_single","A2RTJ6BDY0DZVZ","pain","8","","75","K","2","","0","0","1","","0.1704118475","false","246","","0.1561911267","main_expt","","0.2437218948","","0.1704118475","","0.2985154159","","","","","",""
"484","","bandit","322","875438","0.0-284.0-0.0","96047174","wem/bandit_single","A2RTJ6BDY0DZVZ","pain","8","","75","K","2","","0","0","1","","0.1520093858","false","247","","0.251644506","main_expt","","0.2573167276","","0.1520093858","","0.3159682012","","","","","",""
"61","","bandit","323","877272","0.0-285.0-0.0","96047174","wem/bandit_single","A2RTJ6BDY0DZVZ","pain","8","","75","K","2","","0","0","1","","0.1246217458","false","248","","0.2541276422","main_expt","","0.255349996","","0.1246217458","","0.2937445921","","","","","",""
"91","","bandit","324","879138","0.0-286.0-0.0","96047174","wem/bandit_single","A2RTJ6BDY0DZVZ","pain","8","","75","K","2","","0","0","1","","0.1525969556","false","249","","0.1924412691","main_expt","","0.2866877344","","0.1525969556","","0.2794909668","","","","","",""
"301","","bandit","325","881215","0.0-287.0-0.0","96047174","wem/bandit_single","A2RTJ6BDY0DZVZ","pain","8","","75","K","2","","0","1","0","","0.1500628479","false","250","","0.1397358892","main_expt","","0.2330780591","","0.1500628479","","0.2327966623","","","","","",""
"396","","bandit","326","883385","0.0-288.0-0.0","96047174","wem/bandit_single","A2RTJ6BDY0DZVZ","pain","8","","75","K","2","","0","0","1","","0.1141396938","false","251","","0.1362233376","main_expt","","0.2580196572","","0.1141396938","","0.2595602212","","","","","",""
"161","","bandit","327","885322","0.0-289.0-0.0","96047174","wem/bandit_single","A2RTJ6BDY0DZVZ","pain","8","","75","K","2","","0","0","1","","0.1476089834","false","252","","0.1796418735","main_expt","","0.2003146692","","0.1476089834","","0.2715763176","","","","","",""
"145","","bandit","328","887241","0.0-290.0-0.0","96047174","wem/bandit_single","A2RTJ6BDY0DZVZ","pain","8","","75","K","2","","0","0","1","","0.175183139","false","253","","0.1833608075","main_expt","","0.1651092288","","0.175183139","","0.3146654463","","","","","",""
"125","","bandit","329","889148","0.0-291.0-0.0","96047174","wem/bandit_single","A2RTJ6BDY0DZVZ","pain","8","","75","K","2","","0","0","1","","0.1916323123","false","254","","0.1983034343","main_expt","","0.1413675546","","0.1916323123","","0.3037610447","","","","","",""
"90","","bandit","330","891014","0.0-292.0-0.0","96047174","wem/bandit_single","A2RTJ6BDY0DZVZ","pain","8","","75","K","2","","0","0","1","","0.1888714334","false","255","","0.2286544637","main_expt","","0.1801919014","","0.1888714334","","0.287825992","","","","","",""
"129","","bandit","331","892920","0.0-293.0-0.0","96047174","wem/bandit_single","A2RTJ6BDY0DZVZ","pain","8","","74","J","1","","0","0","1","","0.1883387327","false","256","","0.2502735072","main_expt","","0.1883387327","","0.2338577058","","0.2673332977","","","","","",""
"86","","bandit","332","894779","0.0-294.0-0.0","96047174","wem/bandit_single","A2RTJ6BDY0DZVZ","pain","8","","74","J","1","","0","0","1","","0.1757220287","false","257","","0.2657937058","main_expt","","0.1757220287","","0.2235288738","","0.2867614738","","","","","",""
"355","","bandit","333","896917","0.0-295.0-0.0","96047174","wem/bandit_single","A2RTJ6BDY0DZVZ","pain","8","","74","J","1","","0","0","1","","0.1817694486","false","258","","0.2326681124","main_expt","","0.1817694486","","0.2256298632","","0.2432485896","","","","","",""
"270","","bandit","334","898963","0.0-296.0-0.0","96047174","wem/bandit_single","A2RTJ6BDY0DZVZ","pain","8","","74","J","1","","0","0","1","","0.1938363466","false","259","","0.2128848171","main_expt","","0.1938363466","","0.229367941","","0.2433124215","","","","","",""
"132","","bandit","335","900869","0.0-297.0-0.0","96047174","wem/bandit_single","A2RTJ6BDY0DZVZ","pain","8","","74","J","1","","0","0","1","","0.2129025296","false","260","","0.261065439","main_expt","","0.2129025296","","0.2585863351","","0.202057327","","","","","",""
"689","","bandit","336","903333","0.0-298.0-0.0","96047174","wem/bandit_single","A2RTJ6BDY0DZVZ","pain","8","","72","H","0","img/none_selected.jpg","0","0","1","","0.2693274395","false","261","","0.2693274395","main_expt","","0.1931457884","","0.2748644017","","0.163702413","","","","","",""
"179","","bandit","337","905291","0.0-299.0-0.0","96047174","wem/bandit_single","A2RTJ6BDY0DZVZ","pain","8","","72","H","0","img/none_selected.jpg","0","0","1","","0.3386888623","false","262","","0.3386888623","main_expt","","0.183306516","","0.288340978","","0.1317961998","","","","","",""
"584","","bandit","338","907648","0.0-300.0-0.0","96047174","wem/bandit_single","A2RTJ6BDY0DZVZ","pain","8","","72","H","0","img/none_selected.jpg","0","0","1","","0.3645909238","false","263","","0.3645909238","main_expt","","0.1293037787","","0.3151532186","","0.09680570831","","","","","",""
"348","","bandit","339","909772","0.0-301.0-0.0","96047174","wem/bandit_single","A2RTJ6BDY0DZVZ","pain","8","","72","H","0","img/none_selected.jpg","0","0","1","","0.3437159196","false","264","","0.3437159196","main_expt","","0.1386072774","","0.2931268787","","0.08846786375","","","","","",""
"144","","bandit","340","911693","0.0-302.0-0.0","96047174","wem/bandit_single","A2RTJ6BDY0DZVZ","pain","8","","72","H","0","img/none_selected.jpg","0","0","1","","0.3644358952","false","265","","0.3644358952","main_expt","","0.1511252148","","0.3131275506","","0.08556864258","","","","","",""
"173","","bandit","341","913640","0.0-303.0-0.0","96047174","wem/bandit_single","A2RTJ6BDY0DZVZ","pain","8","","72","H","0","img/none_selected.jpg","0","0","1","","0.3904852039","false","266","","0.3904852039","main_expt","","0.2186772706","","0.336523231","","0.0706515048","","","","","",""
"90","","bandit","342","915505","0.0-304.0-0.0","96047174","wem/bandit_single","A2RTJ6BDY0DZVZ","pain","8","","76","L","3","","0","1","0","","0.0747424838","false","267","","0.3896615427","main_expt","","0.2625163009","","0.2850369317","","0.0747424838","","","","","",""
"271","","bandit","343","917552","0.0-305.0-0.0","96047174","wem/bandit_single","A2RTJ6BDY0DZVZ","pain","8","","76","L","3","","0","0","1","","0.112617448","false","268","","0.4017278216","main_expt","","0.3140442454","","0.3163307124","","0.112617448","","","","","",""
"194","","bandit","344","919521","0.0-306.0-0.0","96047174","wem/bandit_single","A2RTJ6BDY0DZVZ","pain","8","","76","L","3","","0","0","1","","0.1406639307","false","269","","0.370996795","main_expt","","0.3069084364","","0.2956683275","","0.1406639307","","","","","",""
"95","","bandit","345","921391","0.0-307.0-0.0","96047174","wem/bandit_single","A2RTJ6BDY0DZVZ","pain","8","","76","L","3","","0","0","1","","0.1398727949","false","270","","0.4255483526","main_expt","","0.2814908846","","0.3574655381","","0.1398727949","","","","","",""
"102","","bandit","346","923268","0.0-308.0-0.0","96047174","wem/bandit_single","A2RTJ6BDY0DZVZ","pain","8","","76","L","3","","0","1","0","","0.1430486157","false","271","","0.3948114384","main_expt","","0.3060786573","","0.3969117111","","0.1430486157","","","","","",""
"265","","bandit","347","925311","0.0-309.0-0.0","96047174","wem/bandit_single","A2RTJ6BDY0DZVZ","pain","8","","76","L","3","","0","0","1","","0.1872928851","false","272","","0.3713372483","main_expt","","0.3555003363","","0.3938657786","","0.1872928851","","","","","",""
"78","","bandit","348","927162","0.0-310.0-0.0","96047174","wem/bandit_single","A2RTJ6BDY0DZVZ","pain","8","","76","L","3","","0","0","1","","0.1769074474","false","273","","0.3650537767","main_expt","","0.3980140183","","0.3903330825","","0.1769074474","","","","","",""
"106","","bandit","349","929040","0.0-311.0-0.0","96047174","wem/bandit_single","A2RTJ6BDY0DZVZ","pain","8","","76","L","3","","0","0","1","","0.1820324592","false","274","","0.3414565802","main_expt","","0.4077181827","","0.4236793781","","0.1820324592","","","","","",""
"86","","bandit","350","930903","0.0-312.0-0.0","96047174","wem/bandit_single","A2RTJ6BDY0DZVZ","pain","8","","76","L","3","","0","0","1","","0.1923133529","false","275","","0.3027622838","main_expt","","0.4142369189","","0.4320968281","","0.1923133529","","","","","",""
"210","","bandit","351","932889","0.0-313.0-0.0","96047174","wem/bandit_single","A2RTJ6BDY0DZVZ","pain","8","","76","L","3","","0","0","1","","0.1917589367","false","276","","0.3125082267","main_expt","","0.4250096067","","0.4017915655","","0.1917589367","","","","","",""
"111","","bandit","352","934774","0.0-314.0-0.0","96047174","wem/bandit_single","A2RTJ6BDY0DZVZ","pain","8","","75","K","2","","0","0","1","","0.3548215972","false","277","","0.348890663","main_expt","","0.4378988515","","0.3548215972","","0.1667093518","","","","","",""
"188","","bandit","353","936741","0.0-315.0-0.0","96047174","wem/bandit_single","A2RTJ6BDY0DZVZ","pain","8","","75","K","2","","0","0","1","","0.3683165275","false","278","","0.3341457036","main_expt","","0.4323676568","","0.3683165275","","0.1695638059","","","","","",""
"106","","bandit","354","938624","0.0-316.0-0.0","96047174","wem/bandit_single","A2RTJ6BDY0DZVZ","pain","8","","75","K","2","","0","0","1","","0.3750953637","false","279","","0.2341959149","main_expt","","0.4391545144","","0.3750953637","","0.1696283439","","","","","",""
"124","","bandit","355","940522","0.0-317.0-0.0","96047174","wem/bandit_single","A2RTJ6BDY0DZVZ","pain","8","","75","K","2","","0","0","1","","0.3557095414","false","280","","0.1839622844","main_expt","","0.4467207207","","0.3557095414","","0.09227733008","","","","","",""
"148","","bandit","356","942450","0.0-318.0-0.0","96047174","wem/bandit_single","A2RTJ6BDY0DZVZ","pain","8","","74","J","1","","0","0","1","","0.3922333676","false","281","","0.1303375237","main_expt","","0.3922333676","","0.374333358","","0.08059064446","","","","","",""
"96","","bandit","357","944322","0.0-319.0-0.0","96047174","wem/bandit_single","A2RTJ6BDY0DZVZ","pain","8","","74","J","1","","0","1","0","","0.4243132136","false","282","","0.07449941097","main_expt","","0.4243132136","","0.3786855632","","0.06236597977","","","","","",""
"191","","bandit","358","946291","0.0-320.0-0.0","96047174","wem/bandit_single","A2RTJ6BDY0DZVZ","pain","8","","74","J","1","","0","0","1","","0.4187362854","false","283","","0.08783129911","main_expt","","0.4187362854","","0.437514669","","0.07782340279","","","","","",""
"201","","bandit","359","948269","0.0-321.0-0.0","96047174","wem/bandit_single","A2RTJ6BDY0DZVZ","pain","8","","74","J","1","","0","1","0","","0.422543139","false","284","","0.08228152097","main_expt","","0.422543139","","0.410198323","","0.07564660971","","","","","",""
"318","","bandit","360","950366","0.0-322.0-0.0","96047174","wem/bandit_single","A2RTJ6BDY0DZVZ","pain","8","","74","J","1","","0","1","0","","0.434302279","false","285","","0.09246744832","main_expt","","0.434302279","","0.3777139522","","0.08237135124","","","","","",""
"400","","bandit","361","952542","0.0-323.0-0.0","96047174","wem/bandit_single","A2RTJ6BDY0DZVZ","pain","8","","74","J","1","","0","0","1","","0.4094725029","false","286","","0.08394792075","main_expt","","0.4094725029","","0.3841171753","","0.05670298638","","","","","",""
"38","","bandit","362","954357","0.0-324.0-0.0","96047174","wem/bandit_single","A2RTJ6BDY0DZVZ","pain","8","","74","J","1","","0","0","1","","0.3778080042","false","287","","0.1021913287","main_expt","","0.3778080042","","0.3641862554","","0.06647452785","","","","","",""
"56","","bandit","363","956189","0.0-325.0-0.0","96047174","wem/bandit_single","A2RTJ6BDY0DZVZ","pain","8","","74","J","1","","0","0","1","","0.3671495563","false","288","","0.1188664616","main_expt","","0.3671495563","","0.3192590496","","0.04859701272","","","","","",""
"64","","bandit","364","958032","0.0-326.0-0.0","96047174","wem/bandit_single","A2RTJ6BDY0DZVZ","pain","8","","74","J","1","","0","1","0","","0.3622055636","false","289","","0.1050513492","main_expt","","0.3622055636","","0.3384054944","","0.04246321062","","","","","",""
"390","","bandit","365","960198","0.0-327.0-0.0","96047174","wem/bandit_single","A2RTJ6BDY0DZVZ","pain","8","","74","J","1","","0","0","1","","0.3616647964","false","290","","0.1304324694","main_expt","","0.3616647964","","0.329366118","","0.08307379137","","","","","",""
"293","","bandit","366","962266","0.0-328.0-0.0","96047174","wem/bandit_single","A2RTJ6BDY0DZVZ","pain","8","","74","J","1","","0","0","1","","0.3521760992","false","291","","0.09707891459","main_expt","","0.3521760992","","0.38061917","","0.09664054691","","","","","",""
"178","","bandit","367","964223","0.0-329.0-0.0","96047174","wem/bandit_single","A2RTJ6BDY0DZVZ","pain","8","","74","J","1","","0","0","1","","0.3062989856","false","292","","0.1166693976","main_expt","","0.3062989856","","0.3703624541","","0.1089287446","","","","","",""
"68","","bandit","368","966067","0.0-330.0-0.0","96047174","wem/bandit_single","A2RTJ6BDY0DZVZ","pain","8","","74","J","1","","0","1","0","","0.2594623792","false","293","","0.1448282665","main_expt","","0.2594623792","","0.3554666564","","0.1426967363","","","","","",""
"325","","bandit","369","968169","0.0-331.0-0.0","96047174","wem/bandit_single","A2RTJ6BDY0DZVZ","pain","8","","74","J","1","","0","0","1","","0.2666401727","false","294","","0.1486412875","main_expt","","0.2666401727","","0.3976604504","","0.08295656842","","","","","",""
"214","","bandit","370","970160","0.0-332.0-0.0","96047174","wem/bandit_single","A2RTJ6BDY0DZVZ","pain","8","","74","J","1","","0","1","0","","0.2160621863","false","295","","0.1266024918","main_expt","","0.2160621863","","0.3567340825","","0.07441347029","","","","","",""
"129","","bandit","371","972063","0.0-333.0-0.0","96047174","wem/bandit_single","A2RTJ6BDY0DZVZ","pain","8","","74","J","1","","0","0","1","","0.1924669582","false","296","","0.1499702932","main_expt","","0.1924669582","","0.3802278382","","0.08167080543","","","","","",""
"76","","bandit","372","973907","0.0-334.0-0.0","96047174","wem/bandit_single","A2RTJ6BDY0DZVZ","pain","8","","74","J","1","","0","1","0","","0.2572135825","false","297","","0.1124444021","main_expt","","0.2572135825","","0.3764104085","","0.06721412472","","","","","",""
"586","","bandit","373","976271","0.0-335.0-0.0","96047174","wem/bandit_single","A2RTJ6BDY0DZVZ","pain","8","","74","J","1","","0","0","1","","0.2660288188","false","298","","0.122133656","main_expt","","0.2660288188","","0.3801851674","","0.1106754059","","","","","",""
