"rt","responses","trial_type","trial_index","time_elapsed","internal_node_id","subjID","study","MID","cond","drift","key_press","respCharCode","respKey","respChoiceNum","respChoice","gems","bombs","no_reward","GemPrChosen","BombPrChosen","practice","trial_counter","WinPr_0","LosePr_0","trial_label","WinPr_1","LosePr_1","WinPr_2","LosePr_2","WinPr_3","LosePr_3","Q0","Q1","Q2","gender","age","ethnicity"
"5735","{""Q0"":""A2541C8MY0BYV3""}","survey-text","0","5753","0.0-0.0","96529321","wem/bandit_single","A2541C8MY0BYV3","pain","5","","","","","","","","","","","","","","","","","","","","","","","","","","",""
"1056","","text","1","7816","0.0-1.0","96529321","wem/bandit_single","A2541C8MY0BYV3","pain","5","32","","","","","","","","","","","","","","","","","","","","","","","","","",""
"2363","","text","2","10181","0.0-2.0","96529321","wem/bandit_single","A2541C8MY0BYV3","pain","5","32","","","","","","","","","","","","","","","","","","","","","","","","","",""
"1752","","text","3","11938","0.0-3.0","96529321","wem/bandit_single","A2541C8MY0BYV3","pain","5","32","","","","","","","","","","","","","","","","","","","","","","","","","",""
"1326","","text","4","13267","0.0-4.0","96529321","wem/bandit_single","A2541C8MY0BYV3","pain","5","32","","","","","","","","","","","","","","","","","","","","","","","","","",""
"2783","","text","5","16053","0.0-5.0","96529321","wem/bandit_single","A2541C8MY0BYV3","pain","5","32","","","","","","","","","","","","","","","","","","","","","","","","","",""
"1079","","text","6","17136","0.0-6.0","96529321","wem/bandit_single","A2541C8MY0BYV3","pain","5","32","","","","","","","","","","","","","","","","","","","","","","","","","",""
"2505","","text","7","19643","0.0-7.0","96529321","wem/bandit_single","A2541C8MY0BYV3","pain","5","32","","","","","","","","","","","","","","","","","","","","","","","","","",""
"2162","","text","8","21808","0.0-8.0","96529321","wem/bandit_single","A2541C8MY0BYV3","pain","5","32","","","","","","","","","","","","","","","","","","","","","","","","","",""
"1260","","text","9","23070","0.0-9.0","96529321","wem/bandit_single","A2541C8MY0BYV3","pain","5","32","","","","","","","","","","","","","","","","","","","","","","","","","",""
"15074","","text","10","38147","0.0-10.0","96529321","wem/bandit_single","A2541C8MY0BYV3","pain","5","32","","","","","","","","","","","","","","","","","","","","","","","","","",""
"1337","","text","11","39487","0.0-11.0","96529321","wem/bandit_single","A2541C8MY0BYV3","pain","5","32","","","","","","","","","","","","","","","","","","","","","","","","","",""
"1817","","bandit","12","42849","0.0-12.0-0.0","96529321","wem/bandit_single","A2541C8MY0BYV3","pain","5","","74","J","0","img/none_selected_demo.jpg","0","0","1","0","0","true","0","0","0","","","","","","","","","","","","",""
"675","","bandit","13","45306","0.0-13.0-0.0","96529321","wem/bandit_single","A2541C8MY0BYV3","pain","5","","75","K","0","img/none_selected_demo.jpg","0","0","1","0","0","true","0","0","0","","","","","","","","","","","","",""
"1715","","text","14","47274","0.0-14.0","96529321","wem/bandit_single","A2541C8MY0BYV3","pain","5","32","","","","","","","","","","","","","","","","","","","","","","","","","",""
"443","","text","15","47719","0.0-15.0","96529321","wem/bandit_single","A2541C8MY0BYV3","pain","5","32","","","","","","","","","","","","","","","","","","","","","","","","","",""
"412","","text","16","48134","0.0-16.0","96529321","wem/bandit_single","A2541C8MY0BYV3","pain","5","32","","","","","","","","","","","","","","","","","","","","","","","","","",""
"465","","text","17","48600","0.0-17.0","96529321","wem/bandit_single","A2541C8MY0BYV3","pain","5","32","","","","","","","","","","","","","","","","","","","","","","","","","",""
"1188","","bandit","18","51313","0.0-18.0-0.0","96529321","wem/bandit_single","A2541C8MY0BYV3","pain","5","","74","J","0","img/none_selected_demo.jpg","0","1","0","0","0.8","true","0","0","0.8","80_20_practice","0","0.2","","","","","","","","","",""
"1109","","bandit","19","54202","0.0-18.0-1.0","96529321","wem/bandit_single","A2541C8MY0BYV3","pain","5","","75","K","1","","0","0","1","0","0.2","true","0","0","0.8","80_20_practice","0","0.2","","","","","","","","","",""
"142","","bandit","20","56132","0.0-18.0-2.0","96529321","wem/bandit_single","A2541C8MY0BYV3","pain","5","","75","K","1","","0","0","1","0","0.2","true","0","0","0.8","80_20_practice","0","0.2","","","","","","","","","",""
"166","","bandit","21","58085","0.0-18.0-3.0","96529321","wem/bandit_single","A2541C8MY0BYV3","pain","5","","74","J","0","img/none_selected_demo.jpg","0","1","0","0","0.8","true","0","0","0.8","80_20_practice","0","0.2","","","","","","","","","",""
"8","","bandit","22","59871","0.0-18.0-4.0","96529321","wem/bandit_single","A2541C8MY0BYV3","pain","5","","75","K","1","","0","0","1","0","0.2","true","0","0","0.8","80_20_practice","0","0.2","","","","","","","","","",""
"1282","","bandit","23","62933","0.0-18.0-5.0","96529321","wem/bandit_single","A2541C8MY0BYV3","pain","5","","75","K","1","","0","0","1","0","0.2","true","0","0","0.8","80_20_practice","0","0.2","","","","","","","","","",""
"230","","bandit","24","64949","0.0-18.0-6.0","96529321","wem/bandit_single","A2541C8MY0BYV3","pain","5","","75","K","1","","0","0","1","0","0.2","true","0","0","0.8","80_20_practice","0","0.2","","","","","","","","","",""
"169","","bandit","25","66912","0.0-18.0-7.0","96529321","wem/bandit_single","A2541C8MY0BYV3","pain","5","","75","K","1","","0","0","1","0","0.2","true","0","0","0.8","80_20_practice","0","0.2","","","","","","","","","",""
"4","","bandit","26","68699","0.0-18.0-8.0","96529321","wem/bandit_single","A2541C8MY0BYV3","pain","5","","75","K","1","","0","0","1","0","0.2","true","0","0","0.8","80_20_practice","0","0.2","","","","","","","","","",""
"1170","","bandit","27","71771","0.0-18.0-9.0","96529321","wem/bandit_single","A2541C8MY0BYV3","pain","5","","74","J","0","img/none_selected_demo.jpg","0","1","0","0","0.8","true","0","0","0.8","80_20_practice","0","0.2","","","","","","","","","",""
"96","","bandit","28","73630","0.0-18.0-10.0","96529321","wem/bandit_single","A2541C8MY0BYV3","pain","5","","75","K","1","","0","0","1","0","0.2","true","0","0","0.8","80_20_practice","0","0.2","","","","","","","","","",""
"489","","bandit","29","75881","0.0-18.0-11.0","96529321","wem/bandit_single","A2541C8MY0BYV3","pain","5","","75","K","1","","0","0","1","0","0.2","true","0","0","0.8","80_20_practice","0","0.2","","","","","","","","","",""
"947","","bandit","30","78593","0.0-18.0-12.0","96529321","wem/bandit_single","A2541C8MY0BYV3","pain","5","","75","K","1","","0","1","0","0","0.2","true","0","0","0.8","80_20_practice","0","0.2","","","","","","","","","",""
"53","","bandit","31","80414","0.0-18.0-13.0","96529321","wem/bandit_single","A2541C8MY0BYV3","pain","5","","75","K","1","","0","0","1","0","0.2","true","0","0","0.8","80_20_practice","0","0.2","","","","","","","","","",""
"1111","","bandit","32","83313","0.0-18.0-14.0","96529321","wem/bandit_single","A2541C8MY0BYV3","pain","5","","74","J","0","img/none_selected_demo.jpg","0","1","0","0","0.8","true","0","0","0.8","80_20_practice","0","0.2","","","","","","","","","",""
"123","","bandit","33","85203","0.0-18.0-15.0","96529321","wem/bandit_single","A2541C8MY0BYV3","pain","5","","75","K","1","","0","0","1","0","0.2","true","0","0","0.8","80_20_practice","0","0.2","","","","","","","","","",""
"11","","bandit","34","86987","0.0-18.0-16.0","96529321","wem/bandit_single","A2541C8MY0BYV3","pain","5","","75","K","1","","0","1","0","0","0.2","true","0","0","0.8","80_20_practice","0","0.2","","","","","","","","","",""
"557","","bandit","35","89311","0.0-18.0-17.0","96529321","wem/bandit_single","A2541C8MY0BYV3","pain","5","","74","J","0","img/none_selected_demo.jpg","0","0","1","0","0.8","true","0","0","0.8","80_20_practice","0","0.2","","","","","","","","","",""
"172","","bandit","36","91246","0.0-18.0-18.0","96529321","wem/bandit_single","A2541C8MY0BYV3","pain","5","","75","K","1","","0","0","1","0","0.2","true","0","0","0.8","80_20_practice","0","0.2","","","","","","","","","",""
"113","","bandit","37","93124","0.0-18.0-19.0","96529321","wem/bandit_single","A2541C8MY0BYV3","pain","5","","74","J","0","img/none_selected_demo.jpg","0","1","0","0","0.8","true","0","0","0.8","80_20_practice","0","0.2","","","","","","","","","",""
"8648","","text","38","102027","0.0-19.0","96529321","wem/bandit_single","A2541C8MY0BYV3","pain","5","32","","","","","","","","","","","","","","","","","","","","","","","","","",""
"1295","","bandit","39","104855","0.0-20.0-0.0","96529321","wem/bandit_single","A2541C8MY0BYV3","pain","5","","74","J","0","img/none_selected_demo.jpg","0","0","1","0","0","true","0","0","0","","0","0","","","","","","","","","",""
"111","","text","40","105223","0.0-21.0","96529321","wem/bandit_single","A2541C8MY0BYV3","pain","5","75","","","","","","","","","","","","","","","","","","","","","","","","","",""
"1758","","text","41","106986","0.0-22.0","96529321","wem/bandit_single","A2541C8MY0BYV3","pain","5","32","","","","","","","","","","","","","","","","","","","","","","","","","",""
"338","","text","42","107326","0.0-23.0","96529321","wem/bandit_single","A2541C8MY0BYV3","pain","5","32","","","","","","","","","","","","","","","","","","","","","","","","","",""
"201","","text","43","107533","0.0-24.0","96529321","wem/bandit_single","A2541C8MY0BYV3","pain","5","32","","","","","","","","","","","","","","","","","","","","","","","","","",""
"300","","text","44","107840","0.0-25.0","96529321","wem/bandit_single","A2541C8MY0BYV3","pain","5","32","","","","","","","","","","","","","","","","","","","","","","","","","",""
"292","","text","45","108141","0.0-26.0","96529321","wem/bandit_single","A2541C8MY0BYV3","pain","5","32","","","","","","","","","","","","","","","","","","","","","","","","","",""
"266","","text","46","108409","0.0-27.0","96529321","wem/bandit_single","A2541C8MY0BYV3","pain","5","32","","","","","","","","","","","","","","","","","","","","","","","","","",""
"279","","text","47","108692","0.0-28.0","96529321","wem/bandit_single","A2541C8MY0BYV3","pain","5","32","","","","","","","","","","","","","","","","","","","","","","","","","",""
"252","","text","48","108946","0.0-29.0","96529321","wem/bandit_single","A2541C8MY0BYV3","pain","5","32","","","","","","","","","","","","","","","","","","","","","","","","","",""
"242","","text","49","109191","0.0-30.0","96529321","wem/bandit_single","A2541C8MY0BYV3","pain","5","32","","","","","","","","","","","","","","","","","","","","","","","","","",""
"238","","text","50","109430","0.0-31.0","96529321","wem/bandit_single","A2541C8MY0BYV3","pain","5","32","","","","","","","","","","","","","","","","","","","","","","","","","",""
"2055","","bandit","51","113029","0.0-32.0-0.0","96529321","wem/bandit_single","A2541C8MY0BYV3","pain","5","","72","H","0","img/none_selected.jpg","0","1","0","0","0.8","true","0","0","0.8","full_practice","0","0.2","0","0.6","0","0.2","","","","","",""
"914","","bandit","52","115754","0.0-32.0-1.0","96529321","wem/bandit_single","A2541C8MY0BYV3","pain","5","","75","K","2","","0","0","1","0","0.6","true","0","0","0.8","full_practice","0","0.2","0","0.6","0","0.2","","","","","",""
"382","","bandit","53","117928","0.0-32.0-2.0","96529321","wem/bandit_single","A2541C8MY0BYV3","pain","5","","74","J","1","","0","0","1","0","0.2","true","0","0","0.8","full_practice","0","0.2","0","0.6","0","0.2","","","","","",""
"38","","bandit","54","119751","0.0-32.0-3.0","96529321","wem/bandit_single","A2541C8MY0BYV3","pain","5","","76","L","3","","0","0","1","0","0.2","true","0","0","0.8","full_practice","0","0.2","0","0.6","0","0.2","","","","","",""
"255","","bandit","55","121789","0.0-32.0-4.0","96529321","wem/bandit_single","A2541C8MY0BYV3","pain","5","","72","H","0","img/none_selected.jpg","0","1","0","0","0.8","true","0","0","0.8","full_practice","0","0.2","0","0.6","0","0.2","","","","","",""
"344","","bandit","56","123913","0.0-32.0-5.0","96529321","wem/bandit_single","A2541C8MY0BYV3","pain","5","","75","K","2","","0","1","0","0","0.6","true","0","0","0.8","full_practice","0","0.2","0","0.6","0","0.2","","","","","",""
"306","","bandit","57","126007","0.0-32.0-6.0","96529321","wem/bandit_single","A2541C8MY0BYV3","pain","5","","74","J","1","","0","0","1","0","0.2","true","0","0","0.8","full_practice","0","0.2","0","0.6","0","0.2","","","","","",""
"15","","bandit","58","127806","0.0-32.0-7.0","96529321","wem/bandit_single","A2541C8MY0BYV3","pain","5","","76","L","3","","0","0","1","0","0.2","true","0","0","0.8","full_practice","0","0.2","0","0.6","0","0.2","","","","","",""
"263","","bandit","59","129859","0.0-32.0-8.0","96529321","wem/bandit_single","A2541C8MY0BYV3","pain","5","","72","H","0","img/none_selected.jpg","0","0","1","0","0.8","true","0","0","0.8","full_practice","0","0.2","0","0.6","0","0.2","","","","","",""
"245","","bandit","60","131879","0.0-32.0-9.0","96529321","wem/bandit_single","A2541C8MY0BYV3","pain","5","","75","K","2","","0","0","1","0","0.6","true","0","0","0.8","full_practice","0","0.2","0","0.6","0","0.2","","","","","",""
"218","","bandit","61","133876","0.0-32.0-10.0","96529321","wem/bandit_single","A2541C8MY0BYV3","pain","5","","72","H","0","img/none_selected.jpg","0","1","0","0","0.8","true","0","0","0.8","full_practice","0","0.2","0","0.6","0","0.2","","","","","",""
"33","","bandit","62","135689","0.0-32.0-11.0","96529321","wem/bandit_single","A2541C8MY0BYV3","pain","5","","74","J","1","","0","1","0","0","0.2","true","0","0","0.8","full_practice","0","0.2","0","0.6","0","0.2","","","","","",""
"156","","bandit","63","137628","0.0-32.0-12.0","96529321","wem/bandit_single","A2541C8MY0BYV3","pain","5","","76","L","3","","0","1","0","0","0.2","true","0","0","0.8","full_practice","0","0.2","0","0.6","0","0.2","","","","","",""
"127","","bandit","64","139528","0.0-32.0-13.0","96529321","wem/bandit_single","A2541C8MY0BYV3","pain","5","","75","K","2","","0","0","1","0","0.6","true","0","0","0.8","full_practice","0","0.2","0","0.6","0","0.2","","","","","",""
"6","","bandit","65","141319","0.0-32.0-14.0","96529321","wem/bandit_single","A2541C8MY0BYV3","pain","5","","75","K","2","","0","0","1","0","0.6","true","0","0","0.8","full_practice","0","0.2","0","0.6","0","0.2","","","","","",""
"333","","bandit","66","143427","0.0-32.0-15.0","96529321","wem/bandit_single","A2541C8MY0BYV3","pain","5","","75","K","2","","0","1","0","0","0.6","true","0","0","0.8","full_practice","0","0.2","0","0.6","0","0.2","","","","","",""
"165","","bandit","67","145377","0.0-32.0-16.0","96529321","wem/bandit_single","A2541C8MY0BYV3","pain","5","","74","J","1","","0","0","1","0","0.2","true","0","0","0.8","full_practice","0","0.2","0","0.6","0","0.2","","","","","",""
"65","","bandit","68","147243","0.0-32.0-17.0","96529321","wem/bandit_single","A2541C8MY0BYV3","pain","5","","74","J","1","","0","1","0","0","0.2","true","0","0","0.8","full_practice","0","0.2","0","0.6","0","0.2","","","","","",""
"459","","bandit","69","149491","0.0-32.0-18.0","96529321","wem/bandit_single","A2541C8MY0BYV3","pain","5","","72","H","0","img/none_selected.jpg","0","1","0","0","0.8","true","0","0","0.8","full_practice","0","0.2","0","0.6","0","0.2","","","","","",""
"341","","bandit","70","151648","0.0-32.0-19.0","96529321","wem/bandit_single","A2541C8MY0BYV3","pain","5","","75","K","2","","0","0","1","0","0.6","true","0","0","0.8","full_practice","0","0.2","0","0.6","0","0.2","","","","","",""
"1430","","text","71","153368","0.0-33.0","96529321","wem/bandit_single","A2541C8MY0BYV3","pain","5","32","","","","","","","","","","","","","","","","","","","","","","","","","",""
"1814","","text","72","156196","0.0-34.0","96529321","wem/bandit_single","A2541C8MY0BYV3","pain","5","32","","","","","","","","","","","","","","","","","","","","","","","","","",""
"363","","text","73","156566","0.0-35.0","96529321","wem/bandit_single","A2541C8MY0BYV3","pain","5","32","","","","","","","","","","","","","","","","","","","","","","","","","",""
"263","","text","74","156841","0.0-36.0","96529321","wem/bandit_single","A2541C8MY0BYV3","pain","5","32","","","","","","","","","","","","","","","","","","","","","","","","","",""
"245","","text","75","157098","0.0-37.0","96529321","wem/bandit_single","A2541C8MY0BYV3","pain","5","32","","","","","","","","","","","","","","","","","","","","","","","","","",""
"652","","bandit","76","159290","0.0-38.0-0.0","96529321","wem/bandit_single","A2541C8MY0BYV3","pain","5","","76","L","3","","0","0","1","","0.3811303016","false","1","","0.04962883862","main_expt","","0.4657241486","","0.1478184891","","0.3811303016","","","","","",""
"332","","bandit","77","161411","0.0-39.0-0.0","96529321","wem/bandit_single","A2541C8MY0BYV3","pain","5","","75","K","2","","0","1","0","","0.2081060842","false","2","","0.03569255153","main_expt","","0.4660849779","","0.2081060842","","0.350111504","","","","","",""
"218","","bandit","78","163416","0.0-40.0-0.0","96529321","wem/bandit_single","A2541C8MY0BYV3","pain","5","","76","L","3","","0","0","1","","0.3436486883","false","3","","0.02901958263","main_expt","","0.4687539887","","0.1722167697","","0.3436486883","","","","","",""
"30","","bandit","79","165231","0.0-41.0-0.0","96529321","wem/bandit_single","A2541C8MY0BYV3","pain","5","","74","J","1","","0","1","0","","0.48401473","false","4","","0.04894390993","main_expt","","0.48401473","","0.1424145416","","0.3419997506","","","","","",""
"295","","bandit","80","167318","0.0-42.0-0.0","96529321","wem/bandit_single","A2541C8MY0BYV3","pain","5","","72","H","0","img/none_selected.jpg","0","0","1","","0.04206610475","false","5","","0.04206610475","main_expt","","0.4755123677","","0.1446667298","","0.3692180445","","","","","",""
"352","","bandit","81","169463","0.0-43.0-0.0","96529321","wem/bandit_single","A2541C8MY0BYV3","pain","5","","76","L","3","","0","0","1","","0.3602257359","false","6","","0.04292771587","main_expt","","0.4802482158","","0.1447199692","","0.3602257359","","","","","",""
"91","","bandit","82","171338","0.0-44.0-0.0","96529321","wem/bandit_single","A2541C8MY0BYV3","pain","5","","72","H","0","img/none_selected.jpg","0","0","1","","0.06035830385","false","7","","0.06035830385","main_expt","","0.4780438684","","0.1001258446","","0.3568498895","","","","","",""
"272","","bandit","83","173391","0.0-45.0-0.0","96529321","wem/bandit_single","A2541C8MY0BYV3","pain","5","","76","L","3","","0","0","1","","0.294604339","false","8","","0.09727842944","main_expt","","0.4575173044","","0.1244671667","","0.294604339","","","","","",""
"629","","bandit","84","175799","0.0-46.0-0.0","96529321","wem/bandit_single","A2541C8MY0BYV3","pain","5","","76","L","3","","0","1","0","","0.3802768622","false","9","","0.07952196982","main_expt","","0.4525933246","","0.1293804987","","0.3802768622","","","","","",""
"12","","bandit","85","177590","0.0-47.0-0.0","96529321","wem/bandit_single","A2541C8MY0BYV3","pain","5","","72","H","0","img/none_selected.jpg","0","0","1","","0.1049852556","false","10","","0.1049852556","main_expt","","0.4476408152","","0.1606810952","","0.3530595227","","","","","",""
"465","","bandit","86","179841","0.0-48.0-0.0","96529321","wem/bandit_single","A2541C8MY0BYV3","pain","5","","72","H","0","img/none_selected.jpg","0","0","1","","0.1118692116","false","11","","0.1118692116","main_expt","","0.4484644352","","0.1585385462","","0.358648576","","","","","",""
"103","","bandit","87","181740","0.0-49.0-0.0","96529321","wem/bandit_single","A2541C8MY0BYV3","pain","5","","76","L","3","","0","0","1","","0.3382469396","false","12","","0.1270372311","main_expt","","0.4466341879","","0.1492634201","","0.3382469396","","","","","",""
"98","","bandit","88","183632","0.0-50.0-0.0","96529321","wem/bandit_single","A2541C8MY0BYV3","pain","5","","72","H","0","img/none_selected.jpg","0","0","1","","0.1278892577","false","13","","0.1278892577","main_expt","","0.4642511008","","0.1106465011","","0.3092021245","","","","","",""
"120","","bandit","89","185543","0.0-51.0-0.0","96529321","wem/bandit_single","A2541C8MY0BYV3","pain","5","","76","L","3","","0","0","1","","0.3532484784","false","14","","0.1024725346","main_expt","","0.4615970843","","0.1232346967","","0.3532484784","","","","","",""
"21","","bandit","90","187352","0.0-52.0-0.0","96529321","wem/bandit_single","A2541C8MY0BYV3","pain","5","","72","H","0","img/none_selected.jpg","0","0","1","","0.1234109619","false","15","","0.1234109619","main_expt","","0.4692442536","","0.1323340596","","0.3371384495","","","","","",""
"133","","bandit","91","189274","0.0-53.0-0.0","96529321","wem/bandit_single","A2541C8MY0BYV3","pain","5","","76","L","3","","0","1","0","","0.3282622062","false","16","","0.1360550169","main_expt","","0.4755425263","","0.1410223318","","0.3282622062","","","","","",""
"406","","bandit","92","191456","0.0-54.0-0.0","96529321","wem/bandit_single","A2541C8MY0BYV3","pain","5","","72","H","0","img/none_selected.jpg","0","0","1","","0.1070219664","false","17","","0.1070219664","main_expt","","0.4828633911","","0.1498636582","","0.3032164303","","","","","",""
"5","","bandit","93","193242","0.0-55.0-0.0","96529321","wem/bandit_single","A2541C8MY0BYV3","pain","5","","72","H","0","img/none_selected.jpg","0","1","0","","0.09318331203","false","18","","0.09318331203","main_expt","","0.4784959143","","0.1132842199","","0.2834034058","","","","","",""
"141","","bandit","94","195165","0.0-56.0-0.0","96529321","wem/bandit_single","A2541C8MY0BYV3","pain","5","","74","J","1","","0","1","0","","0.4645747316","false","19","","0.08644374764","main_expt","","0.4645747316","","0.08554013857","","0.376157017","","","","","",""
"285","","bandit","95","197242","0.0-57.0-0.0","96529321","wem/bandit_single","A2541C8MY0BYV3","pain","5","","75","K","2","","0","0","1","","0.1176407844","false","20","","0.1066513301","main_expt","","0.4441513352","","0.1176407844","","0.3718288413","","","","","",""
"271","","bandit","96","199303","0.0-58.0-0.0","96529321","wem/bandit_single","A2541C8MY0BYV3","pain","5","","75","K","2","","0","0","1","","0.09701455477","false","21","","0.1143532382","main_expt","","0.4281495132","","0.09701455477","","0.3755251961","","","","","",""
"135","","bandit","97","201224","0.0-59.0-0.0","96529321","wem/bandit_single","A2541C8MY0BYV3","pain","5","","75","K","2","","0","0","1","","0.08683592795","false","22","","0.111858438","main_expt","","0.4374563715","","0.08683592795","","0.3536603278","","","","","",""
"3","","bandit","98","203010","0.0-60.0-0.0","96529321","wem/bandit_single","A2541C8MY0BYV3","pain","5","","75","K","2","","0","0","1","","0.1062952262","false","23","","0.09088087914","main_expt","","0.4408316507","","0.1062952262","","0.3908816919","","","","","",""
"9","","bandit","99","204792","0.0-61.0-0.0","96529321","wem/bandit_single","A2541C8MY0BYV3","pain","5","","72","H","0","img/none_selected.jpg","0","0","1","","0.1045917755","false","24","","0.1045917755","main_expt","","0.4249736282","","0.1320295984","","0.3639752867","","","","","",""
"344","","bandit","100","206912","0.0-62.0-0.0","96529321","wem/bandit_single","A2541C8MY0BYV3","pain","5","","76","L","3","","0","0","1","","0.3569796848","false","25","","0.107118439","main_expt","","0.4542404639","","0.18562956","","0.3569796848","","","","","",""
"61","","bandit","101","208753","0.0-63.0-0.0","96529321","wem/bandit_single","A2541C8MY0BYV3","pain","5","","72","H","0","img/none_selected.jpg","0","0","1","","0.08847958778","false","26","","0.08847958778","main_expt","","0.4707756245","","0.1589772959","","0.3466804264","","","","","",""
"287","","bandit","102","210820","0.0-64.0-0.0","96529321","wem/bandit_single","A2541C8MY0BYV3","pain","5","","76","L","3","","0","0","1","","0.3487144915","false","27","","0.105958259","main_expt","","0.4492807888","","0.1361305173","","0.3487144915","","","","","",""
"205","","bandit","103","212864","0.0-65.0-0.0","96529321","wem/bandit_single","A2541C8MY0BYV3","pain","5","","76","L","3","","0","0","1","","0.31872733","false","28","","0.09976229861","main_expt","","0.4630254912","","0.1517112547","","0.31872733","","","","","",""
"357","","bandit","104","215026","0.0-66.0-0.0","96529321","wem/bandit_single","A2541C8MY0BYV3","pain","5","","76","L","3","","0","0","1","","0.3351256986","false","29","","0.1117783291","main_expt","","0.4582460064","","0.1207272987","","0.3351256986","","","","","",""
"119","","bandit","105","216936","0.0-67.0-0.0","96529321","wem/bandit_single","A2541C8MY0BYV3","pain","5","","72","H","0","img/none_selected.jpg","0","0","1","","0.104708879","false","30","","0.104708879","main_expt","","0.44398484","","0.06619286558","","0.3165147827","","","","","",""
"60","","bandit","106","218788","0.0-68.0-0.0","96529321","wem/bandit_single","A2541C8MY0BYV3","pain","5","","76","L","3","","0","0","1","","0.3587164307","false","31","","0.1168740313","main_expt","","0.4662875842","","0.08172424971","","0.3587164307","","","","","",""
"222","","bandit","107","220825","0.0-69.0-0.0","96529321","wem/bandit_single","A2541C8MY0BYV3","pain","5","","72","H","0","img/none_selected.jpg","0","1","0","","0.1193100679","false","32","","0.1193100679","main_expt","","0.4823207571","","0.1118972321","","0.384091524","","","","","",""
"144","","bandit","108","222754","0.0-70.0-0.0","96529321","wem/bandit_single","A2541C8MY0BYV3","pain","5","","76","L","3","","0","0","1","","0.3410562849","false","33","","0.1160378653","main_expt","","0.4887640326","","0.07764728595","","0.3410562849","","","","","",""
"28569","","bandit","109","253121","0.0-71.0-0.0","96529321","wem/bandit_single","A2541C8MY0BYV3","pain","5","","72","H","0","img/none_selected.jpg","0","0","1","","0.1240203414","false","34","","0.1240203414","main_expt","","0.4871413525","","0.1021677232","","0.3772037995","","","","","",""
"144","","bandit","110","255067","0.0-72.0-0.0","96529321","wem/bandit_single","A2541C8MY0BYV3","pain","5","","76","L","3","","0","0","1","","0.3601610849","false","35","","0.1568527985","main_expt","","0.472467875","","0.09263198197","","0.3601610849","","","","","",""
"135","","bandit","111","256976","0.0-73.0-0.0","96529321","wem/bandit_single","A2541C8MY0BYV3","pain","5","","72","H","0","img/none_selected.jpg","0","1","0","","0.1887398002","false","36","","0.1887398002","main_expt","","0.4801988656","","0.1395706987","","0.3199141994","","","","","",""
"830","","bandit","112","259571","0.0-74.0-0.0","96529321","wem/bandit_single","A2541C8MY0BYV3","pain","5","","76","L","3","","0","0","1","","0.3022128767","false","37","","0.1567271146","main_expt","","0.4658101737","","0.1166343238","","0.3022128767","","","","","",""
"6","","bandit","113","261350","0.0-75.0-0.0","96529321","wem/bandit_single","A2541C8MY0BYV3","pain","5","","76","L","3","","0","0","1","","0.220841548","false","38","","0.1213003185","main_expt","","0.4725237643","","0.1344783462","","0.220841548","","","","","",""
"2796","","bandit","114","265909","0.0-76.0-0.0","96529321","wem/bandit_single","A2541C8MY0BYV3","pain","5","","72","H","0","img/none_selected.jpg","0","0","1","","0.1129188575","false","39","","0.1129188575","main_expt","","0.4863678522","","0.1132701409","","0.2273815274","","","","","",""
"229","","bandit","115","267903","0.0-77.0-0.0","96529321","wem/bandit_single","A2541C8MY0BYV3","pain","5","","76","L","3","","0","0","1","","0.2216047912","false","40","","0.1490040727","main_expt","","0.4756100127","","0.1269330716","","0.2216047912","","","","","",""
"18","","bandit","116","269688","0.0-78.0-0.0","96529321","wem/bandit_single","A2541C8MY0BYV3","pain","5","","76","L","3","","0","0","1","","0.1790357129","false","41","","0.20555416","main_expt","","0.4644843691","","0.1043764639","","0.1790357129","","","","","",""
"80","","bandit","117","271535","0.0-79.0-0.0","96529321","wem/bandit_single","A2541C8MY0BYV3","pain","5","","72","H","0","img/none_selected.jpg","0","0","1","","0.2458082757","false","42","","0.2458082757","main_expt","","0.4595487669","","0.123259557","","0.1124402831","","","","","",""
"219","","bandit","118","273521","0.0-80.0-0.0","96529321","wem/bandit_single","A2541C8MY0BYV3","pain","5","","76","L","3","","0","0","1","","0.1309909921","false","43","","0.1980967925","main_expt","","0.4598563523","","0.1523094635","","0.1309909921","","","","","",""
"676","","bandit","119","275967","0.0-81.0-0.0","96529321","wem/bandit_single","A2541C8MY0BYV3","pain","5","","76","L","3","","0","0","1","","0.1620245532","false","44","","0.2011817551","main_expt","","0.4444935065","","0.1438901127","","0.1620245532","","","","","",""
"57","","bandit","120","277794","0.0-82.0-0.0","96529321","wem/bandit_single","A2541C8MY0BYV3","pain","5","","72","H","0","img/none_selected.jpg","0","0","1","","0.1908172103","false","45","","0.1908172103","main_expt","","0.4201454787","","0.1381896233","","0.1962154431","","","","","",""
"281","","bandit","121","279836","0.0-83.0-0.0","96529321","wem/bandit_single","A2541C8MY0BYV3","pain","5","","76","L","3","","0","1","0","","0.1548021256","false","46","","0.1682898959","main_expt","","0.4420567968","","0.08118013389","","0.1548021256","","","","","",""
"315","","bandit","122","281917","0.0-84.0-0.0","96529321","wem/bandit_single","A2541C8MY0BYV3","pain","5","","76","L","3","","0","0","1","","0.155425446","false","47","","0.114950809","main_expt","","0.4454115659","","0.08279503272","","0.155425446","","","","","",""
"25","","bandit","123","283710","0.0-85.0-0.0","96529321","wem/bandit_single","A2541C8MY0BYV3","pain","5","","76","L","3","","0","1","0","","0.2368850053","false","48","","0.1231508501","main_expt","","0.4409121906","","0.09757227309","","0.2368850053","","","","","",""
"33","","bandit","124","285514","0.0-86.0-0.0","96529321","wem/bandit_single","A2541C8MY0BYV3","pain","5","","72","H","0","img/none_selected.jpg","0","0","1","","0.1264715503","false","49","","0.1264715503","main_expt","","0.4640555105","","0.1407466139","","0.1712995484","","","","","",""
"538726","","bandit","125","826061","0.0-87.0-0.0","96529321","wem/bandit_single","A2541C8MY0BYV3","pain","5","","72","H","0","img/none_selected.jpg","0","0","1","","0.1119267987","false","50","","0.1119267987","main_expt","","0.4619625264","","0.1128896644","","0.2371897999","","","","","",""
"169","","bandit","126","828056","0.0-88.0-0.0","96529321","wem/bandit_single","A2541C8MY0BYV3","pain","5","","72","H","0","img/none_selected.jpg","0","0","1","","0.1192285775","false","51","","0.1192285775","main_expt","","0.4686499241","","0.1292206793","","0.2520952739","","","","","",""
"137","","bandit","127","829989","0.0-89.0-0.0","96529321","wem/bandit_single","A2541C8MY0BYV3","pain","5","","72","H","0","img/none_selected.jpg","0","0","1","","0.1536714506","false","52","","0.1536714506","main_expt","","0.4721244997","","0.117204758","","0.2201249325","","","","","",""
"96","","bandit","128","831876","0.0-90.0-0.0","96529321","wem/bandit_single","A2541C8MY0BYV3","pain","5","","76","L","3","","0","1","0","","0.2019083534","false","53","","0.1817289366","main_expt","","0.4776765754","","0.1180232867","","0.2019083534","","","","","",""
"125","","bandit","129","833788","0.0-91.0-0.0","96529321","wem/bandit_single","A2541C8MY0BYV3","pain","5","","72","H","0","img/none_selected.jpg","0","1","0","","0.1664376657","false","54","","0.1664376657","main_expt","","0.4788042678","","0.09503139185","","0.2133100918","","","","","",""
"167","","bandit","130","835731","0.0-92.0-0.0","96529321","wem/bandit_single","A2541C8MY0BYV3","pain","5","","76","L","3","","0","0","1","","0.2210295122","false","55","","0.1219288973","main_expt","","0.4852168201","","0.1238025275","","0.2210295122","","","","","",""
"44","","bandit","131","837557","0.0-93.0-0.0","96529321","wem/bandit_single","A2541C8MY0BYV3","pain","5","","76","L","3","","0","0","1","","0.1728424853","false","56","","0.1392062569","main_expt","","0.4860946669","","0.1544257673","","0.1728424853","","","","","",""
"383","","bandit","132","839743","0.0-94.0-0.0","96529321","wem/bandit_single","A2541C8MY0BYV3","pain","5","","76","L","3","","0","0","1","","0.2301797189","false","57","","0.2060247316","main_expt","","0.4859962979","","0.1492478473","","0.2301797189","","","","","",""
"26","","bandit","133","841563","0.0-95.0-0.0","96529321","wem/bandit_single","A2541C8MY0BYV3","pain","5","","76","L","3","","0","1","0","","0.2820892606","false","58","","0.1723567799","main_expt","","0.4751013025","","0.1392181034","","0.2820892606","","","","","",""
"6140","","bandit","134","849485","0.0-96.0-0.0","96529321","wem/bandit_single","A2541C8MY0BYV3","pain","5","","72","H","0","img/none_selected.jpg","0","0","1","","0.16345501","false","59","","0.16345501","main_expt","","0.4816883425","","0.1854998728","","0.308641684","","","","","",""
"25","","bandit","135","851293","0.0-97.0-0.0","96529321","wem/bandit_single","A2541C8MY0BYV3","pain","5","","76","L","3","","0","0","1","","0.3012287428","false","60","","0.1552759559","main_expt","","0.4846541976","","0.1306651225","","0.3012287428","","","","","",""
"60","","bandit","136","853145","0.0-98.0-0.0","96529321","wem/bandit_single","A2541C8MY0BYV3","pain","5","","72","H","0","img/none_selected.jpg","0","1","0","","0.1652193455","false","61","","0.1652193455","main_expt","","0.4848840061","","0.1567024934","","0.263166603","","","","","",""
"147","","bandit","137","855089","0.0-99.0-0.0","96529321","wem/bandit_single","A2541C8MY0BYV3","pain","5","","76","L","3","","0","0","1","","0.2428038775","false","62","","0.1813222976","main_expt","","0.4856292504","","0.1622246099","","0.2428038775","","","","","",""
"852","","bandit","138","857729","0.0-100.0-0.0","96529321","wem/bandit_single","A2541C8MY0BYV3","pain","5","","75","K","2","","0","0","1","","0.2196770705","false","63","","0.1727004114","main_expt","","0.4865153319","","0.2196770705","","0.2843805899","","","","","",""
"367","","bandit","139","859880","0.0-101.0-0.0","96529321","wem/bandit_single","A2541C8MY0BYV3","pain","5","","76","L","3","","0","1","0","","0.2895992306","false","64","","0.2105999223","main_expt","","0.4874146034","","0.218319606","","0.2895992306","","","","","",""
"347","","bandit","140","862024","0.0-102.0-0.0","96529321","wem/bandit_single","A2541C8MY0BYV3","pain","5","","75","K","2","","0","0","1","","0.2278721313","false","65","","0.240225816","main_expt","","0.4781609215","","0.2278721313","","0.3847688","","","","","",""
"219","","bandit","141","864031","0.0-103.0-0.0","96529321","wem/bandit_single","A2541C8MY0BYV3","pain","5","","72","H","0","img/none_selected.jpg","0","1","0","","0.2924754864","false","66","","0.2924754864","main_expt","","0.4848714892","","0.1599393353","","0.4083751038","","","","","",""
"211","","bandit","142","866053","0.0-104.0-0.0","96529321","wem/bandit_single","A2541C8MY0BYV3","pain","5","","75","K","2","","0","0","1","","0.1647045883","false","67","","0.2363072125","main_expt","","0.4872204599","","0.1647045883","","0.4036944211","","","","","",""
"358","","bandit","143","868265","0.0-105.0-0.0","96529321","wem/bandit_single","A2541C8MY0BYV3","pain","5","","74","J","1","","0","0","1","","0.4749956953","false","68","","0.264359064","main_expt","","0.4749956953","","0.1442333851","","0.3910329043","","","","","",""
"623","","bandit","144","870695","0.0-106.0-0.0","96529321","wem/bandit_single","A2541C8MY0BYV3","pain","5","","75","K","2","","0","0","1","","0.1757685765","false","69","","0.2755227552","main_expt","","0.4776093432","","0.1757685765","","0.3438989047","","","","","",""
"30","","bandit","145","872530","0.0-107.0-0.0","96529321","wem/bandit_single","A2541C8MY0BYV3","pain","5","","74","J","1","","0","1","0","","0.4550183311","false","70","","0.2978365432","main_expt","","0.4550183311","","0.1995177274","","0.3282106587","","","","","",""
"6997","","bandit","146","881348","0.0-108.0-0.0","96529321","wem/bandit_single","A2541C8MY0BYV3","pain","5","","72","H","0","img/none_selected.jpg","0","0","1","","0.2788476436","false","71","","0.2788476436","main_expt","","0.4466984445","","0.2429348876","","0.3085852942","","","","","",""
"13","","bandit","147","883166","0.0-109.0-0.0","96529321","wem/bandit_single","A2541C8MY0BYV3","pain","5","","76","L","3","","0","0","1","","0.317066931","false","72","","0.2983184618","main_expt","","0.453817204","","0.2134703404","","0.317066931","","","","","",""
"4490","","bandit","148","889442","0.0-110.0-0.0","96529321","wem/bandit_single","A2541C8MY0BYV3","pain","5","","72","H","0","img/none_selected.jpg","0","0","1","","0.3235064893","false","73","","0.3235064893","main_expt","","0.4421557619","","0.2779115064","","0.3118309255","","","","","",""
"132","","bandit","149","891357","0.0-111.0-0.0","96529321","wem/bandit_single","A2541C8MY0BYV3","pain","5","","76","L","3","","0","1","0","","0.3442292265","false","74","","0.2605282151","main_expt","","0.4340536998","","0.2696493969","","0.3442292265","","","","","",""
"4","","bandit","150","893146","0.0-112.0-0.0","96529321","wem/bandit_single","A2541C8MY0BYV3","pain","5","","72","H","0","img/none_selected.jpg","0","0","1","","0.3081503464","false","75","","0.3081503464","main_expt","","0.4148912722","","0.2929582525","","0.3392290825","","","","","",""
"3687","","bandit","151","898619","0.0-113.0-0.0","96529321","wem/bandit_single","A2541C8MY0BYV3","pain","5","","72","H","0","img/none_selected.jpg","0","1","0","","0.3793773342","false","76","","0.3793773342","main_expt","","0.4049452856","","0.2925997362","","0.3019050266","","","","","",""
"96","","bandit","152","900510","0.0-114.0-0.0","96529321","wem/bandit_single","A2541C8MY0BYV3","pain","5","","76","L","3","","0","0","1","","0.3346778491","false","77","","0.4108459626","main_expt","","0.3804311168","","0.2402419665","","0.3346778491","","","","","",""
"161","","bandit","153","902455","0.0-115.0-0.0","96529321","wem/bandit_single","A2541C8MY0BYV3","pain","5","","76","L","3","","0","1","0","","0.2858281516","false","78","","0.432197644","main_expt","","0.4076768351","","0.2662288132","","0.2858281516","","","","","",""
"1051","","bandit","154","905302","0.0-116.0-0.0","96529321","wem/bandit_single","A2541C8MY0BYV3","pain","5","","75","K","2","","0","0","1","","0.2946750364","false","79","","0.4681634707","main_expt","","0.4322729224","","0.2946750364","","0.2601805687","","","","","",""
"241","","bandit","155","907322","0.0-117.0-0.0","96529321","wem/bandit_single","A2541C8MY0BYV3","pain","5","","75","K","2","","0","1","0","","0.3142603933","false","80","","0.4487514359","main_expt","","0.4344903628","","0.3142603933","","0.2494540003","","","","","",""
"41233","","bandit","156","950352","0.0-118.0-0.0","96529321","wem/bandit_single","A2541C8MY0BYV3","pain","5","","72","H","0","img/none_selected.jpg","0","1","0","","0.4278748425","false","81","","0.4278748425","main_expt","","0.4128510282","","0.3045476359","","0.2029748002","","","","","",""
"13","","bandit","157","952169","0.0-119.0-0.0","96529321","wem/bandit_single","A2541C8MY0BYV3","pain","5","","76","L","3","","0","1","0","","0.1459008349","false","82","","0.3873338363","main_expt","","0.3473788204","","0.2481672469","","0.1459008349","","","","","",""
"130","","bandit","158","954110","0.0-120.0-0.0","96529321","wem/bandit_single","A2541C8MY0BYV3","pain","5","","75","K","2","","0","0","1","","0.2366474468","false","83","","0.3676955993","main_expt","","0.3964685929","","0.2366474468","","0.1792892234","","","","","",""
"105","","bandit","159","956019","0.0-121.0-0.0","96529321","wem/bandit_single","A2541C8MY0BYV3","pain","5","","75","K","2","","0","1","0","","0.2327145127","false","84","","0.3494013457","main_expt","","0.4058457219","","0.2327145127","","0.1384159538","","","","","",""
"84","","bandit","160","957897","0.0-122.0-0.0","96529321","wem/bandit_single","A2541C8MY0BYV3","pain","5","","74","J","1","","0","1","0","","0.419702676","false","85","","0.3484693071","main_expt","","0.419702676","","0.2276425053","","0.1569521301","","","","","",""
"79","","bandit","161","959766","0.0-123.0-0.0","96529321","wem/bandit_single","A2541C8MY0BYV3","pain","5","","72","H","0","img/none_selected.jpg","0","0","1","","0.3738623358","false","86","","0.3738623358","main_expt","","0.3584641731","","0.1932648708","","0.2111509195","","","","","",""
"322","","bandit","162","961864","0.0-124.0-0.0","96529321","wem/bandit_single","A2541C8MY0BYV3","pain","5","","76","L","3","","0","0","1","","0.1855749087","false","87","","0.3635865115","main_expt","","0.3362954576","","0.1554886006","","0.1855749087","","","","","",""
"172","","bandit","163","963823","0.0-125.0-0.0","96529321","wem/bandit_single","A2541C8MY0BYV3","pain","5","","72","H","0","img/none_selected.jpg","0","0","1","","0.28993028","false","88","","0.28993028","main_expt","","0.3495778317","","0.1288388744","","0.1260067519","","","","","",""
"94143","","bandit","164","1059802","0.0-126.0-0.0","96529321","wem/bandit_single","A2541C8MY0BYV3","pain","5","","72","H","0","img/none_selected.jpg","0","0","1","","0.2529053562","false","89","","0.2529053562","main_expt","","0.3337998134","","0.1672252434","","0.1930097593","","","","","",""
"151","","bandit","165","1061757","0.0-127.0-0.0","96529321","wem/bandit_single","A2541C8MY0BYV3","pain","5","","76","L","3","","0","0","1","","0.2016869017","false","90","","0.2239223254","main_expt","","0.3254710898","","0.1379373657","","0.2016869017","","","","","",""
"1116","","bandit","166","1064678","0.0-128.0-0.0","96529321","wem/bandit_single","A2541C8MY0BYV3","pain","5","","72","H","0","img/none_selected.jpg","0","0","1","","0.1874521573","false","91","","0.1874521573","main_expt","","0.3248617863","","0.1296834551","","0.2283296651","","","","","",""
"381","","bandit","167","1066863","0.0-129.0-0.0","96529321","wem/bandit_single","A2541C8MY0BYV3","pain","5","","76","L","3","","0","0","1","","0.2253008126","false","92","","0.1464907128","main_expt","","0.3290731597","","0.1601432093","","0.2253008126","","","","","",""
"702","","bandit","168","1069363","0.0-130.0-0.0","96529321","wem/bandit_single","A2541C8MY0BYV3","pain","5","","74","J","1","","0","0","1","","0.2947126164","false","93","","0.1817498408","main_expt","","0.2947126164","","0.1976873148","","0.1826671142","","","","","",""
"334","","bandit","169","1071494","0.0-131.0-0.0","96529321","wem/bandit_single","A2541C8MY0BYV3","pain","5","","72","H","0","img/none_selected.jpg","0","0","1","","0.1967130988","false","94","","0.1967130988","main_expt","","0.2762739163","","0.2296862911","","0.1650727581","","","","","",""
"310","","bandit","170","1073598","0.0-132.0-0.0","96529321","wem/bandit_single","A2541C8MY0BYV3","pain","5","","76","L","3","","0","0","1","","0.1971582392","false","95","","0.2294656294","main_expt","","0.3184689772","","0.1990842867","","0.1971582392","","","","","",""
"1583","","bandit","171","1076998","0.0-133.0-0.0","96529321","wem/bandit_single","A2541C8MY0BYV3","pain","5","","72","H","0","img/none_selected.jpg","0","1","0","","0.2966343553","false","96","","0.2966343553","main_expt","","0.281027734","","0.258496532","","0.1791402521","","","","","",""
"47940","","bandit","172","1126746","0.0-134.0-0.0","96529321","wem/bandit_single","A2541C8MY0BYV3","pain","5","","72","H","0","img/none_selected.jpg","0","0","1","","0.3346257274","false","97","","0.3346257274","main_expt","","0.2474299406","","0.2766566169","","0.1516442175","","","","","",""
"160","","bandit","173","1128694","0.0-135.0-0.0","96529321","wem/bandit_single","A2541C8MY0BYV3","pain","5","","76","L","3","","0","0","1","","0.2200018313","false","98","","0.3139493976","main_expt","","0.2217126022","","0.2377114848","","0.2200018313","","","","","",""
"594","","bandit","174","1131076","0.0-136.0-0.0","96529321","wem/bandit_single","A2541C8MY0BYV3","pain","5","","72","H","0","img/none_selected.jpg","0","1","0","","0.2478490566","false","99","","0.2478490566","main_expt","","0.2677278576","","0.3124158187","","0.2752547205","","","","","",""
"159","","bandit","175","1133026","0.0-137.0-0.0","96529321","wem/bandit_single","A2541C8MY0BYV3","pain","5","","76","L","3","","0","0","1","","0.252850905","false","100","","0.2602221343","main_expt","","0.3271916833","","0.2059987679","","0.252850905","","","","","",""
"485","","bandit","176","1135288","0.0-138.0-0.0","96529321","wem/bandit_single","A2541C8MY0BYV3","pain","5","","72","H","0","img/none_selected.jpg","0","0","1","","0.2584762291","false","101","","0.2584762291","main_expt","","0.3066156257","","0.1758265216","","0.1867047362","","","","","",""
"366","","bandit","177","1137435","0.0-139.0-0.0","96529321","wem/bandit_single","A2541C8MY0BYV3","pain","5","","76","L","3","","0","0","1","","0.1175578895","false","102","","0.282093771","main_expt","","0.3260250896","","0.2262322791","","0.1175578895","","","","","",""
"30","","bandit","178","1139272","0.0-140.0-0.0","96529321","wem/bandit_single","A2541C8MY0BYV3","pain","5","","76","L","3","","0","0","1","","0.09132094505","false","103","","0.2725256196","main_expt","","0.3731136732","","0.2018281434","","0.09132094505","","","","","",""
"139","","bandit","179","1141211","0.0-141.0-0.0","96529321","wem/bandit_single","A2541C8MY0BYV3","pain","5","","72","H","0","img/none_selected.jpg","0","0","1","","0.2243623384","false","104","","0.2243623384","main_expt","","0.3941656488","","0.1447482012","","0.1422553795","","","","","",""
"132","","bandit","180","1143143","0.0-142.0-0.0","96529321","wem/bandit_single","A2541C8MY0BYV3","pain","5","","76","L","3","","0","0","1","","0.1390697773","false","105","","0.2403200944","main_expt","","0.4030151573","","0.2104813725","","0.1390697773","","","","","",""
"170","","bandit","181","1145099","0.0-143.0-0.0","96529321","wem/bandit_single","A2541C8MY0BYV3","pain","5","","74","J","1","","0","1","0","","0.3715193073","false","106","","0.2332798071","main_expt","","0.3715193073","","0.2492378957","","0.1155807694","","","","","",""
"655","","bandit","182","1147544","0.0-144.0-0.0","96529321","wem/bandit_single","A2541C8MY0BYV3","pain","5","","76","L","3","","0","0","1","","0.105728532","false","107","","0.181620067","main_expt","","0.3837270358","","0.217404121","","0.105728532","","","","","",""
"24","","bandit","183","1149373","0.0-145.0-0.0","96529321","wem/bandit_single","A2541C8MY0BYV3","pain","5","","72","H","0","img/none_selected.jpg","0","0","1","","0.2173069915","false","108","","0.2173069915","main_expt","","0.3908875135","","0.2142202377","","0.08831090648","","","","","",""
"377","","bandit","184","1151559","0.0-146.0-0.0","96529321","wem/bandit_single","A2541C8MY0BYV3","pain","5","","72","H","0","img/none_selected.jpg","0","0","1","","0.226697077","false","109","","0.226697077","main_expt","","0.3774052568","","0.2683226389","","0.1043724426","","","","","",""
"6","","bandit","185","1153373","0.0-147.0-0.0","96529321","wem/bandit_single","A2541C8MY0BYV3","pain","5","","76","L","3","","0","0","1","","0.07530108238","false","110","","0.2695419639","main_expt","","0.3601275089","","0.2619142817","","0.07530108238","","","","","",""
"1215","","bandit","186","1156376","0.0-148.0-0.0","96529321","wem/bandit_single","A2541C8MY0BYV3","pain","5","","76","L","3","","0","0","1","","0.05159845725","false","111","","0.2635727161","main_expt","","0.3880855357","","0.2754039507","","0.05159845725","","","","","",""
"388","","bandit","187","1158552","0.0-149.0-0.0","96529321","wem/bandit_single","A2541C8MY0BYV3","pain","5","","72","H","0","img/none_selected.jpg","0","1","0","","0.3202716687","false","112","","0.3202716687","main_expt","","0.3864248384","","0.2721436228","","0.08116028731","","","","","",""
"750","","bandit","188","1161104","0.0-150.0-0.0","96529321","wem/bandit_single","A2541C8MY0BYV3","pain","5","","76","L","3","","0","0","1","","0.08538759299","false","113","","0.3546461764","main_expt","","0.339569604","","0.2598768298","","0.08538759299","","","","","",""
"520","","bandit","189","1163433","0.0-151.0-0.0","96529321","wem/bandit_single","A2541C8MY0BYV3","pain","5","","74","J","1","","0","1","0","","0.3612744832","false","114","","0.3339806629","main_expt","","0.3612744832","","0.2271708717","","0.106551095","","","","","",""
"977","","bandit","190","1166209","0.0-152.0-0.0","96529321","wem/bandit_single","A2541C8MY0BYV3","pain","5","","75","K","2","","0","1","0","","0.2382373761","false","115","","0.3175163572","main_expt","","0.3616298021","","0.2382373761","","0.1120532439","","","","","",""
"367","","bandit","191","1168377","0.0-153.0-0.0","96529321","wem/bandit_single","A2541C8MY0BYV3","pain","5","","76","L","3","","0","0","1","","0.07206247825","false","116","","0.3626291523","main_expt","","0.3886586702","","0.2092397162","","0.07206247825","","","","","",""
"437","","bandit","192","1170613","0.0-154.0-0.0","96529321","wem/bandit_single","A2541C8MY0BYV3","pain","5","","72","H","0","img/none_selected.jpg","0","0","1","","0.4005972513","false","117","","0.4005972513","main_expt","","0.3837198657","","0.1790603663","","0.05990892348","","","","","",""
"488","","bandit","193","1172897","0.0-155.0-0.0","96529321","wem/bandit_single","A2541C8MY0BYV3","pain","5","","76","L","3","","0","0","1","","0.07349038746","false","118","","0.3994725347","main_expt","","0.3831944796","","0.2515048449","","0.07349038746","","","","","",""
"53","","bandit","194","1174747","0.0-156.0-0.0","96529321","wem/bandit_single","A2541C8MY0BYV3","pain","5","","75","K","2","","0","0","1","","0.2591845625","false","119","","0.3690387214","main_expt","","0.3200080389","","0.2591845625","","0.0880416307","","","","","",""
"1055","","bandit","195","1177607","0.0-157.0-0.0","96529321","wem/bandit_single","A2541C8MY0BYV3","pain","5","","74","J","1","","0","0","1","","0.3498825307","false","120","","0.3553033444","main_expt","","0.3498825307","","0.2719994365","","0.08832912692","","","","","",""
"66","","bandit","196","1179472","0.0-158.0-0.0","96529321","wem/bandit_single","A2541C8MY0BYV3","pain","5","","76","L","3","","0","0","1","","0.08322673311","false","121","","0.3558993888","main_expt","","0.3150568547","","0.2511552987","","0.08322673311","","","","","",""
"252","","bandit","197","1181516","0.0-159.0-0.0","96529321","wem/bandit_single","A2541C8MY0BYV3","pain","5","","72","H","0","img/none_selected.jpg","0","1","0","","0.3539125929","false","122","","0.3539125929","main_expt","","0.332296042","","0.246059836","","0.1027924146","","","","","",""
"94","","bandit","198","1183402","0.0-160.0-0.0","96529321","wem/bandit_single","A2541C8MY0BYV3","pain","5","","75","K","2","","0","0","1","","0.201637063","false","123","","0.2756210624","main_expt","","0.3023892254","","0.201637063","","0.1112730508","","","","","",""
"48","","bandit","199","1185233","0.0-161.0-0.0","96529321","wem/bandit_single","A2541C8MY0BYV3","pain","5","","76","L","3","","0","0","1","","0.1401536705","false","124","","0.2924451827","main_expt","","0.2971441903","","0.2424225803","","0.1401536705","","","","","",""
"415","","bandit","200","1187419","0.0-162.0-0.0","96529321","wem/bandit_single","A2541C8MY0BYV3","pain","5","","76","L","3","","0","0","1","","0.170676821","false","125","","0.3283550958","main_expt","","0.2989687221","","0.2663511033","","0.170676821","","","","","",""
"1515","","bandit","201","1190732","0.0-163.0-0.0","96529321","wem/bandit_single","A2541C8MY0BYV3","pain","5","","72","H","0","img/none_selected.jpg","0","0","1","","0.3561713316","false","126","","0.3561713316","main_expt","","0.3470717071","","0.2214557307","","0.2239131839","","","","","",""
"810","","bandit","202","1193381","0.0-164.0-0.0","96529321","wem/bandit_single","A2541C8MY0BYV3","pain","5","","76","L","3","","0","1","0","","0.1828765327","false","127","","0.3093512765","main_expt","","0.3399927284","","0.2274120533","","0.1828765327","","","","","",""
"463","","bandit","203","1195662","0.0-165.0-0.0","96529321","wem/bandit_single","A2541C8MY0BYV3","pain","5","","76","L","3","","0","0","1","","0.2182936746","false","128","","0.3682433617","main_expt","","0.3039142281","","0.2035603578","","0.2182936746","","","","","",""
"508","","bandit","204","1197975","0.0-166.0-0.0","96529321","wem/bandit_single","A2541C8MY0BYV3","pain","5","","72","H","0","img/none_selected.jpg","0","1","0","","0.3485983391","false","129","","0.3485983391","main_expt","","0.331948561","","0.1571118888","","0.2206976306","","","","","",""
"954","","bandit","205","1200729","0.0-167.0-0.0","96529321","wem/bandit_single","A2541C8MY0BYV3","pain","5","","76","L","3","","0","0","1","","0.1657145536","false","130","","0.3907345736","main_expt","","0.3512730473","","0.08617346002","","0.1657145536","","","","","",""
"415","","bandit","206","1202945","0.0-168.0-0.0","96529321","wem/bandit_single","A2541C8MY0BYV3","pain","5","","72","H","0","img/none_selected.jpg","0","1","0","","0.3697977754","false","131","","0.3697977754","main_expt","","0.3617370935","","0.1196539686","","0.2555784817","","","","","",""
"146","","bandit","207","1204918","0.0-169.0-0.0","96529321","wem/bandit_single","A2541C8MY0BYV3","pain","5","","76","L","3","","0","1","0","","0.287060772","false","132","","0.3916621277","main_expt","","0.3520165756","","0.1111227042","","0.287060772","","","","","",""
"202","","bandit","208","1206933","0.0-170.0-0.0","96529321","wem/bandit_single","A2541C8MY0BYV3","pain","5","","76","L","3","","0","0","1","","0.238965149","false","133","","0.3437671512","main_expt","","0.3863989014","","0.1223368092","","0.238965149","","","","","",""
"67","","bandit","209","1208806","0.0-171.0-0.0","96529321","wem/bandit_single","A2541C8MY0BYV3","pain","5","","72","H","0","img/none_selected.jpg","0","1","0","","0.3636108046","false","134","","0.3636108046","main_expt","","0.3391859262","","0.1001486166","","0.2457001749","","","","","",""
"276","","bandit","210","1210857","0.0-172.0-0.0","96529321","wem/bandit_single","A2541C8MY0BYV3","pain","5","","74","J","1","","0","0","1","","0.3700101905","false","135","","0.3251377881","main_expt","","0.3700101905","","0.1179747861","","0.2499382958","","","","","",""
"134","","bandit","211","1212801","0.0-173.0-0.0","96529321","wem/bandit_single","A2541C8MY0BYV3","pain","5","","75","K","2","","0","1","0","","0.1167775935","false","136","","0.3838305716","main_expt","","0.3002558999","","0.1167775935","","0.2553087313","","","","","",""
"73","","bandit","212","1214719","0.0-174.0-0.0","96529321","wem/bandit_single","A2541C8MY0BYV3","pain","5","","76","L","3","","0","1","0","","0.2517181947","false","137","","0.374624825","main_expt","","0.3242357935","","0.1459170178","","0.2517181947","","","","","",""
"7196","","bandit","213","1223696","0.0-175.0-0.0","96529321","wem/bandit_single","A2541C8MY0BYV3","pain","5","","72","H","0","img/none_selected.jpg","0","0","1","","0.36903936","false","138","","0.36903936","main_expt","","0.3413485239","","0.1403776257","","0.2531469116","","","","","",""
"907","","bandit","214","1226422","0.0-176.0-0.0","96529321","wem/bandit_single","A2541C8MY0BYV3","pain","5","","75","K","2","","0","0","1","","0.1647502834","false","139","","0.3757762965","main_expt","","0.3172825342","","0.1647502834","","0.2810662396","","","","","",""
"202","","bandit","215","1228429","0.0-177.0-0.0","96529321","wem/bandit_single","A2541C8MY0BYV3","pain","5","","74","J","1","","0","1","0","","0.3683668128","false","140","","0.3240643918","main_expt","","0.3683668128","","0.2135508935","","0.2226737135","","","","","",""
"422","","bandit","216","1230646","0.0-178.0-0.0","96529321","wem/bandit_single","A2541C8MY0BYV3","pain","5","","76","L","3","","0","0","1","","0.2330331678","false","141","","0.342151626","main_expt","","0.2976824498","","0.2286669107","","0.2330331678","","","","","",""
"2276","","bandit","217","1234771","0.0-179.0-0.0","96529321","wem/bandit_single","A2541C8MY0BYV3","pain","5","","75","K","2","","0","1","0","","0.1870561284","false","142","","0.3576151309","main_expt","","0.3424177608","","0.1870561284","","0.1833347363","","","","","",""
"416","","bandit","218","1237032","0.0-180.0-0.0","96529321","wem/bandit_single","A2541C8MY0BYV3","pain","5","","76","L","3","","0","1","0","","0.2063127673","false","143","","0.3075624404","main_expt","","0.3367953268","","0.220851353","","0.2063127673","","","","","",""
"273","","bandit","219","1239097","0.0-181.0-0.0","96529321","wem/bandit_single","A2541C8MY0BYV3","pain","5","","72","H","0","img/none_selected.jpg","0","0","1","","0.3666812205","false","144","","0.3666812205","main_expt","","0.3446852995","","0.1581776843","","0.24054226","","","","","",""
"1695","","bandit","220","1242593","0.0-182.0-0.0","96529321","wem/bandit_single","A2541C8MY0BYV3","pain","5","","72","H","0","img/none_selected.jpg","0","0","1","","0.373264243","false","145","","0.373264243","main_expt","","0.3569090532","","0.1562309797","","0.3397881996","","","","","",""
"575","","bandit","221","1244969","0.0-183.0-0.0","96529321","wem/bandit_single","A2541C8MY0BYV3","pain","5","","72","H","0","img/none_selected.jpg","0","1","0","","0.3588440804","false","146","","0.3588440804","main_expt","","0.3546691234","","0.201277092","","0.334771558","","","","","",""
"720","","bandit","222","1247507","0.0-184.0-0.0","96529321","wem/bandit_single","A2541C8MY0BYV3","pain","5","","76","L","3","","0","0","1","","0.3135854179","false","147","","0.3848898601","main_expt","","0.3346193534","","0.2014254916","","0.3135854179","","","","","",""
"83","","bandit","223","1249395","0.0-185.0-0.0","96529321","wem/bandit_single","A2541C8MY0BYV3","pain","5","","72","H","0","img/none_selected.jpg","0","0","1","","0.4049875018","false","148","","0.4049875018","main_expt","","0.3481099765","","0.1783642851","","0.2601716543","","","","","",""
"1026","","bandit","224","1252420","0.0-186.0-0.0","96529321","wem/bandit_single","A2541C8MY0BYV3","pain","5","","75","K","2","","0","1","0","","0.2394621943","false","149","","0.3644303146","main_expt","","0.3473239498","","0.2394621943","","0.2449203511","","","","","",""
"2888","","bandit","225","1257084","0.0-187.0-0.0","96529321","wem/bandit_single","A2541C8MY0BYV3","pain","5","","74","J","1","","0","0","1","","0.3457177179","false","150","","0.3820895465","main_expt","","0.3457177179","","0.2009439561","","0.2679682766","","","","","",""
"20","","bandit","226","1258913","0.0-188.0-0.0","96529321","wem/bandit_single","A2541C8MY0BYV3","pain","5","","76","L","3","","0","1","0","","0.2811524043","false","151","","0.3715335383","main_expt","","0.3131990842","","0.1783838281","","0.2811524043","","","","","",""
"37","","bandit","227","1260763","0.0-189.0-0.0","96529321","wem/bandit_single","A2541C8MY0BYV3","pain","5","","72","H","0","img/none_selected.jpg","0","1","0","","0.3270427106","false","152","","0.3270427106","main_expt","","0.2632978047","","0.2357029213","","0.2320671432","","","","","",""
"1","","bandit","228","1262571","0.0-190.0-0.0","96529321","wem/bandit_single","A2541C8MY0BYV3","pain","5","","74","J","1","","0","0","1","","0.2782579121","false","153","","0.3117301263","main_expt","","0.2782579121","","0.1701289497","","0.2655606304","","","","","",""
"607","","bandit","229","1265011","0.0-191.0-0.0","96529321","wem/bandit_single","A2541C8MY0BYV3","pain","5","","74","J","1","","0","0","1","","0.2212449789","false","154","","0.2860829053","main_expt","","0.2212449789","","0.1613436629","","0.3485425359","","","","","",""
"238","","bandit","230","1267055","0.0-192.0-0.0","96529321","wem/bandit_single","A2541C8MY0BYV3","pain","5","","76","L","3","","0","1","0","","0.3302543019","false","155","","0.2412247214","main_expt","","0.1944586175","","0.1419994917","","0.3302543019","","","","","",""
"61","","bandit","231","1268899","0.0-193.0-0.0","96529321","wem/bandit_single","A2541C8MY0BYV3","pain","5","","72","H","0","img/none_selected.jpg","0","0","1","","0.2505935016","false","156","","0.2505935016","main_expt","","0.2035424954","","0.2076402971","","0.2696600886","","","","","",""
"1489","","bandit","232","1272172","0.0-194.0-0.0","96529321","wem/bandit_single","A2541C8MY0BYV3","pain","5","","75","K","2","","0","1","0","","0.2253974945","false","157","","0.2677381881","main_expt","","0.2039725598","","0.2253974945","","0.3095791192","","","","","",""
"943","","bandit","233","1274913","0.0-195.0-0.0","96529321","wem/bandit_single","A2541C8MY0BYV3","pain","5","","76","L","3","","0","0","1","","0.3427908005","false","158","","0.228073272","main_expt","","0.1610126092","","0.3173726248","","0.3427908005","","","","","",""
"1519","","bandit","234","1278240","0.0-196.0-0.0","96529321","wem/bandit_single","A2541C8MY0BYV3","pain","5","","76","L","3","","0","0","1","","0.3459652535","false","159","","0.2181731157","main_expt","","0.2244023171","","0.2929560982","","0.3459652535","","","","","",""
"314","","bandit","235","1280361","0.0-197.0-0.0","96529321","wem/bandit_single","A2541C8MY0BYV3","pain","5","","76","L","3","","0","0","1","","0.3277363444","false","160","","0.2483475363","main_expt","","0.2550463449","","0.2599130114","","0.3277363444","","","","","",""
"113","","bandit","236","1282269","0.0-198.0-0.0","96529321","wem/bandit_single","A2541C8MY0BYV3","pain","5","","76","L","3","","0","1","0","","0.3043896987","false","161","","0.2287268475","main_expt","","0.1988840894","","0.3006759107","","0.3043896987","","","","","",""
"129","","bandit","237","1284184","0.0-199.0-0.0","96529321","wem/bandit_single","A2541C8MY0BYV3","pain","5","","72","H","0","img/none_selected.jpg","0","0","1","","0.2118340618","false","162","","0.2118340618","main_expt","","0.3208820199","","0.3359074288","","0.3013302692","","","","","",""
"749","","bandit","238","1286716","0.0-200.0-0.0","96529321","wem/bandit_single","A2541C8MY0BYV3","pain","5","","74","J","1","","0","0","1","","0.3416291965","false","163","","0.2467500447","main_expt","","0.3416291965","","0.3248254093","","0.3359404133","","","","","",""
"317","","bandit","239","1288872","0.0-201.0-0.0","96529321","wem/bandit_single","A2541C8MY0BYV3","pain","5","","75","K","2","","0","0","1","","0.2480447101","false","164","","0.2745506496","main_expt","","0.3531125991","","0.2480447101","","0.3449747326","","","","","",""
"1637","","bandit","240","1292313","0.0-202.0-0.0","96529321","wem/bandit_single","A2541C8MY0BYV3","pain","5","","76","L","3","","0","1","0","","0.3388680014","false","165","","0.2893970703","main_expt","","0.3329293945","","0.2291527929","","0.3388680014","","","","","",""
"1429","","bandit","241","1295546","0.0-203.0-0.0","96529321","wem/bandit_single","A2541C8MY0BYV3","pain","5","","74","J","1","","0","0","1","","0.368824295","false","166","","0.326956194","main_expt","","0.368824295","","0.2408823094","","0.3565097084","","","","","",""
"295","","bandit","242","1297635","0.0-204.0-0.0","96529321","wem/bandit_single","A2541C8MY0BYV3","pain","5","","75","K","2","","0","0","1","","0.1852653973","false","167","","0.2562538154","main_expt","","0.3528049135","","0.1852653973","","0.3807311224","","","","","",""
"12","","bandit","243","1299450","0.0-205.0-0.0","96529321","wem/bandit_single","A2541C8MY0BYV3","pain","5","","76","L","3","","0","0","1","","0.4157533759","false","168","","0.259707785","main_expt","","0.3530437727","","0.1123614246","","0.4157533759","","","","","",""
"1534","","bandit","244","1302813","0.0-206.0-0.0","96529321","wem/bandit_single","A2541C8MY0BYV3","pain","5","","76","L","3","","0","0","1","","0.3990846218","false","169","","0.305903145","main_expt","","0.3619584092","","0.1289140747","","0.3990846218","","","","","",""
"70","","bandit","245","1304710","0.0-207.0-0.0","96529321","wem/bandit_single","A2541C8MY0BYV3","pain","5","","72","H","0","img/none_selected.jpg","0","0","1","","0.2780458482","false","170","","0.2780458482","main_expt","","0.3851568221","","0.1082073398","","0.3840903594","","","","","",""
"54","","bandit","246","1306595","0.0-208.0-0.0","96529321","wem/bandit_single","A2541C8MY0BYV3","pain","5","","74","J","1","","0","1","0","","0.369821393","false","171","","0.2754425626","main_expt","","0.369821393","","0.09560917383","","0.4279034191","","","","","",""
"163","","bandit","247","1308554","0.0-209.0-0.0","96529321","wem/bandit_single","A2541C8MY0BYV3","pain","5","","76","L","3","","0","1","0","","0.4277210969","false","172","","0.2801866594","main_expt","","0.3238500873","","0.09002122866","","0.4277210969","","","","","",""
"278","","bandit","248","1310611","0.0-210.0-0.0","96529321","wem/bandit_single","A2541C8MY0BYV3","pain","5","","75","K","2","","0","0","1","","0.06359212806","false","173","","0.2903169923","main_expt","","0.371178543","","0.06359212806","","0.4177409887","","","","","",""
"341","","bandit","249","1312758","0.0-211.0-0.0","96529321","wem/bandit_single","A2541C8MY0BYV3","pain","5","","75","K","2","","0","0","1","","0.07897407323","false","174","","0.3135769273","main_expt","","0.364968973","","0.07897407323","","0.4149019111","","","","","",""
"303","","bandit","250","1314861","0.0-212.0-0.0","96529321","wem/bandit_single","A2541C8MY0BYV3","pain","5","","75","K","2","","0","0","1","","0.05374651045","false","175","","0.3205535054","main_expt","","0.4172857806","","0.05374651045","","0.3890834012","","","","","",""
"1061","","bandit","251","1317733","0.0-213.0-0.0","96529321","wem/bandit_single","A2541C8MY0BYV3","pain","5","","75","K","2","","0","1","0","","0.05298342689","false","176","","0.3548310205","main_expt","","0.3931137538","","0.05298342689","","0.3775492635","","","","","",""
"182","","bandit","252","1319718","0.0-214.0-0.0","96529321","wem/bandit_single","A2541C8MY0BYV3","pain","5","","74","J","1","","0","1","0","","0.4118750583","false","177","","0.3374760958","main_expt","","0.4118750583","","0.04117570961","","0.2763311933","","","","","",""
"4","","bandit","253","1321526","0.0-215.0-0.0","96529321","wem/bandit_single","A2541C8MY0BYV3","pain","5","","76","L","3","","0","0","1","","0.2117274321","false","178","","0.3045899674","main_expt","","0.4019835374","","0.0682688674","","0.2117274321","","","","","",""
"340","","bandit","254","1323653","0.0-216.0-0.0","96529321","wem/bandit_single","A2541C8MY0BYV3","pain","5","","76","L","3","","0","0","1","","0.2071796451","false","179","","0.2701203387","main_expt","","0.3943962464","","0.0699035784","","0.2071796451","","","","","",""
"6","","bandit","255","1325438","0.0-217.0-0.0","96529321","wem/bandit_single","A2541C8MY0BYV3","pain","5","","72","H","0","img/none_selected.jpg","0","1","0","","0.3010541938","false","180","","0.3010541938","main_expt","","0.3879360396","","0.08066818268","","0.2237333922","","","","","",""
"353","","bandit","256","1327578","0.0-218.0-0.0","96529321","wem/bandit_single","A2541C8MY0BYV3","pain","5","","76","L","3","","0","0","1","","0.1462221579","false","181","","0.2685782119","main_expt","","0.3516035239","","0.06418194011","","0.1462221579","","","","","",""
"30","","bandit","257","1329408","0.0-219.0-0.0","96529321","wem/bandit_single","A2541C8MY0BYV3","pain","5","","75","K","2","","0","0","1","","0.05948248489","false","182","","0.2333395507","main_expt","","0.3544849886","","0.05948248489","","0.1745001591","","","","","",""
"54","","bandit","258","1331442","0.0-220.0-0.0","96529321","wem/bandit_single","A2541C8MY0BYV3","pain","5","","75","K","2","","0","0","1","","0.04249263759","false","183","","0.1817222791","main_expt","","0.3239224462","","0.04249263759","","0.1840457003","","","","","",""
"6","","bandit","259","1333258","0.0-221.0-0.0","96529321","wem/bandit_single","A2541C8MY0BYV3","pain","5","","74","J","1","","0","0","1","","0.3437575642","false","184","","0.1946528514","main_expt","","0.3437575642","","0.05174265856","","0.1684271963","","","","","",""
"412","","bandit","260","1335553","0.0-222.0-0.0","96529321","wem/bandit_single","A2541C8MY0BYV3","pain","5","","76","L","3","","0","0","1","","0.1820742113","false","185","","0.1998780622","main_expt","","0.3584643827","","0.04700335152","","0.1820742113","","","","","",""
"2632","","bandit","261","1339957","0.0-223.0-0.0","96529321","wem/bandit_single","A2541C8MY0BYV3","pain","5","","74","J","1","","0","1","0","","0.3968797112","false","186","","0.2674223733","main_expt","","0.3968797112","","0.0651928762","","0.2156320388","","","","","",""
"1215","","bandit","262","1343018","0.0-224.0-0.0","96529321","wem/bandit_single","A2541C8MY0BYV3","pain","5","","76","L","3","","0","1","0","","0.2805416817","false","187","","0.2625155344","main_expt","","0.3851297664","","0.1006801651","","0.2805416817","","","","","",""
"4398","","bandit","263","1349218","0.0-225.0-0.0","96529321","wem/bandit_single","A2541C8MY0BYV3","pain","5","","74","J","1","","0","0","1","","0.3861445831","false","188","","0.2428845682","main_expt","","0.3861445831","","0.1650650448","","0.255869765","","","","","",""
"387","","bandit","264","1351416","0.0-226.0-0.0","96529321","wem/bandit_single","A2541C8MY0BYV3","pain","5","","76","L","3","","0","1","0","","0.1757761595","false","189","","0.2017656849","main_expt","","0.3904601473","","0.1545550266","","0.1757761595","","","","","",""
"1","","bandit","265","1353204","0.0-227.0-0.0","96529321","wem/bandit_single","A2541C8MY0BYV3","pain","5","","76","L","3","","0","0","1","","0.1346649685","false","190","","0.2163316772","main_expt","","0.430863334","","0.187471884","","0.1346649685","","","","","",""
"123","","bandit","266","1355117","0.0-228.0-0.0","96529321","wem/bandit_single","A2541C8MY0BYV3","pain","5","","72","H","0","img/none_selected.jpg","0","0","1","","0.2055350187","false","191","","0.2055350187","main_expt","","0.4113524325","","0.1611513775","","0.1132332922","","","","","",""
"199","","bandit","267","1357124","0.0-229.0-0.0","96529321","wem/bandit_single","A2541C8MY0BYV3","pain","5","","74","J","1","","0","0","1","","0.4039805352","false","192","","0.1895719249","main_expt","","0.4039805352","","0.1777959463","","0.1208943264","","","","","",""
"233","","bandit","268","1359169","0.0-230.0-0.0","96529321","wem/bandit_single","A2541C8MY0BYV3","pain","5","","76","L","3","","0","0","1","","0.1939792015","false","193","","0.1748526562","main_expt","","0.4245567291","","0.1871499601","","0.1939792015","","","","","",""
"294","","bandit","269","1361242","0.0-231.0-0.0","96529321","wem/bandit_single","A2541C8MY0BYV3","pain","5","","75","K","2","","0","0","1","","0.1876497678","false","194","","0.1474168317","main_expt","","0.3947968319","","0.1876497678","","0.16637132","","","","","",""
"1040","","bandit","270","1364081","0.0-232.0-0.0","96529321","wem/bandit_single","A2541C8MY0BYV3","pain","5","","72","H","0","img/none_selected.jpg","0","0","1","","0.192031623","false","195","","0.192031623","main_expt","","0.4142863389","","0.1091892437","","0.1730885183","","","","","",""
"1204","","bandit","271","1367066","0.0-233.0-0.0","96529321","wem/bandit_single","A2541C8MY0BYV3","pain","5","","76","L","3","","0","1","0","","0.215114198","false","196","","0.2058404012","main_expt","","0.4233691667","","0.1617114059","","0.215114198","","","","","",""
"11","","bandit","272","1368873","0.0-234.0-0.0","96529321","wem/bandit_single","A2541C8MY0BYV3","pain","5","","75","K","2","","0","0","1","","0.1704243662","false","197","","0.2424759238","main_expt","","0.3910113043","","0.1704243662","","0.2080771369","","","","","",""
"605","","bandit","273","1371277","0.0-235.0-0.0","96529321","wem/bandit_single","A2541C8MY0BYV3","pain","5","","76","L","3","","0","0","1","","0.2349601263","false","198","","0.2209877853","main_expt","","0.4036427912","","0.1547158464","","0.2349601263","","","","","",""
"385","","bandit","274","1373475","0.0-236.0-0.0","96529321","wem/bandit_single","A2541C8MY0BYV3","pain","5","","74","J","1","","0","0","1","","0.4211573591","false","199","","0.2167038869","main_expt","","0.4211573591","","0.1871633293","","0.2603506135","","","","","",""
"1177","","bandit","275","1376492","0.0-237.0-0.0","96529321","wem/bandit_single","A2541C8MY0BYV3","pain","5","","75","K","2","","0","0","1","","0.2044595191","false","200","","0.1923465651","main_expt","","0.4279321675","","0.2044595191","","0.3238520586","","","","","",""
"509","","bandit","276","1378807","0.0-238.0-0.0","96529321","wem/bandit_single","A2541C8MY0BYV3","pain","5","","76","L","3","","0","0","1","","0.3006478669","false","201","","0.2292217674","main_expt","","0.4164542871","","0.2260370877","","0.3006478669","","","","","",""
"412","","bandit","277","1381014","0.0-239.0-0.0","96529321","wem/bandit_single","A2541C8MY0BYV3","pain","5","","72","H","0","img/none_selected.jpg","0","0","1","","0.2458551357","false","202","","0.2458551357","main_expt","","0.4304584766","","0.2543806879","","0.2728804465","","","","","",""
"13","","bandit","278","1382834","0.0-240.0-0.0","96529321","wem/bandit_single","A2541C8MY0BYV3","pain","5","","74","J","1","","0","0","1","","0.4301844238","false","203","","0.2388066436","main_expt","","0.4301844238","","0.248330882","","0.3070028205","","","","","",""
"1046","","bandit","279","1385675","0.0-241.0-0.0","96529321","wem/bandit_single","A2541C8MY0BYV3","pain","5","","72","H","0","img/none_selected.jpg","0","1","0","","0.2087278664","false","204","","0.2087278664","main_expt","","0.3900297032","","0.272777159","","0.2937269753","","","","","",""
"147","","bandit","280","1387639","0.0-242.0-0.0","96529321","wem/bandit_single","A2541C8MY0BYV3","pain","5","","74","J","1","","0","0","1","","0.3928583167","false","205","","0.1498191458","main_expt","","0.3928583167","","0.3434557908","","0.2378968556","","","","","",""
"556","","bandit","281","1390005","0.0-243.0-0.0","96529321","wem/bandit_single","A2541C8MY0BYV3","pain","5","","76","L","3","","0","0","1","","0.2621799838","false","206","","0.1173401749","main_expt","","0.4066069638","","0.3670462125","","0.2621799838","","","","","",""
"902","","bandit","282","1392710","0.0-244.0-0.0","96529321","wem/bandit_single","A2541C8MY0BYV3","pain","5","","76","L","3","","0","0","1","","0.2751860601","false","207","","0.131911627","main_expt","","0.3973448409","","0.3762900352","","0.2751860601","","","","","",""
"219","","bandit","283","1394727","0.0-245.0-0.0","96529321","wem/bandit_single","A2541C8MY0BYV3","pain","5","","75","K","2","","0","1","0","","0.3619644859","false","208","","0.121614138","main_expt","","0.4149937731","","0.3619644859","","0.2449975294","","","","","",""
"220","","bandit","284","1396745","0.0-246.0-0.0","96529321","wem/bandit_single","A2541C8MY0BYV3","pain","5","","72","H","0","img/none_selected.jpg","0","0","1","","0.1301565943","false","209","","0.1301565943","main_expt","","0.4174336027","","0.3487947413","","0.2260792918","","","","","",""
"493","","bandit","285","1399053","0.0-247.0-0.0","96529321","wem/bandit_single","A2541C8MY0BYV3","pain","5","","74","J","1","","0","1","0","","0.3969791934","false","210","","0.09603783024","main_expt","","0.3969791934","","0.3019817091","","0.2506868781","","","","","",""
"2420","","bandit","286","1403285","0.0-248.0-0.0","96529321","wem/bandit_single","A2541C8MY0BYV3","pain","5","","72","H","0","img/none_selected.jpg","0","0","1","","0.09853312819","false","211","","0.09853312819","main_expt","","0.4109689779","","0.3322841588","","0.2364470615","","","","","",""
"278","","bandit","287","1405367","0.0-249.0-0.0","96529321","wem/bandit_single","A2541C8MY0BYV3","pain","5","","76","L","3","","0","1","0","","0.2097336517","false","212","","0.08497623984","main_expt","","0.3870841375","","0.3257981887","","0.2097336517","","","","","",""
"4","","bandit","288","1407169","0.0-250.0-0.0","96529321","wem/bandit_single","A2541C8MY0BYV3","pain","5","","74","J","1","","0","1","0","","0.3702451026","false","213","","0.0690536233","main_expt","","0.3702451026","","0.299150427","","0.223293056","","","","","",""
"183","","bandit","289","1409152","0.0-251.0-0.0","96529321","wem/bandit_single","A2541C8MY0BYV3","pain","5","","75","K","2","","0","0","1","","0.2841516905","false","214","","0.05607702273","main_expt","","0.4052473305","","0.2841516905","","0.2797804449","","","","","",""
"1647","","bandit","290","1412619","0.0-252.0-0.0","96529321","wem/bandit_single","A2541C8MY0BYV3","pain","5","","72","H","0","img/none_selected.jpg","0","0","1","","0.0612243178","false","215","","0.0612243178","main_expt","","0.4003088938","","0.2421432752","","0.3307304153","","","","","",""
"512","","bandit","291","1414955","0.0-253.0-0.0","96529321","wem/bandit_single","A2541C8MY0BYV3","pain","5","","72","H","0","img/none_selected.jpg","0","0","1","","0.03010565971","false","216","","0.03010565971","main_expt","","0.4087675299","","0.1705338946","","0.3341057131","","","","","",""
"514","","bandit","292","1417294","0.0-254.0-0.0","96529321","wem/bandit_single","A2541C8MY0BYV3","pain","5","","76","L","3","","0","1","0","","0.3086359365","false","217","","0.05034411961","main_expt","","0.3947963157","","0.219014384","","0.3086359365","","","","","",""
"387","","bandit","293","1419513","0.0-255.0-0.0","96529321","wem/bandit_single","A2541C8MY0BYV3","pain","5","","74","J","1","","0","0","1","","0.4200256015","false","218","","0.03278593655","main_expt","","0.4200256015","","0.2135739311","","0.370061562","","","","","",""
"1138","","bandit","294","1422452","0.0-256.0-0.0","96529321","wem/bandit_single","A2541C8MY0BYV3","pain","5","","74","J","1","","0","0","1","","0.3845181055","false","219","","0.02968551415","main_expt","","0.3845181055","","0.1719688778","","0.3425962001","","","","","",""
"311","","bandit","295","1424547","0.0-257.0-0.0","96529321","wem/bandit_single","A2541C8MY0BYV3","pain","5","","72","H","0","img/none_selected.jpg","0","0","1","","0.03392365282","false","220","","0.03392365282","main_expt","","0.3200105211","","0.1017501311","","0.3200162658","","","","","",""
"165","","bandit","296","1426492","0.0-258.0-0.0","96529321","wem/bandit_single","A2541C8MY0BYV3","pain","5","","74","J","1","","0","1","0","","0.297673658","false","221","","0.03139192041","main_expt","","0.297673658","","0.1121412156","","0.3209906652","","","","","",""
"144","","bandit","297","1428456","0.0-259.0-0.0","96529321","wem/bandit_single","A2541C8MY0BYV3","pain","5","","72","H","0","img/none_selected.jpg","0","0","1","","0.02842311261","false","222","","0.02842311261","main_expt","","0.2963768597","","0.1091313961","","0.3013890172","","","","","",""
"1012","","bandit","298","1431279","0.0-260.0-0.0","96529321","wem/bandit_single","A2541C8MY0BYV3","pain","5","","72","H","0","img/none_selected.jpg","0","0","1","","0.0287580325","false","223","","0.0287580325","main_expt","","0.2927297303","","0.09983876589","","0.2614115174","","","","","",""
"1854","","bandit","299","1434931","0.0-261.0-0.0","96529321","wem/bandit_single","A2541C8MY0BYV3","pain","5","","72","H","0","img/none_selected.jpg","0","0","1","","0.02300930076","false","224","","0.02300930076","main_expt","","0.2751498343","","0.1018501693","","0.2490141009","","","","","",""
"925","","bandit","300","1437647","0.0-262.0-0.0","96529321","wem/bandit_single","A2541C8MY0BYV3","pain","5","","75","K","2","","0","0","1","","0.1222407881","false","225","","0.02989568437","main_expt","","0.2377617529","","0.1222407881","","0.263459589","","","","","",""
"764","","bandit","301","1440212","0.0-263.0-0.0","96529321","wem/bandit_single","A2541C8MY0BYV3","pain","5","","76","L","3","","0","1","0","","0.2828917593","false","226","","0.04233903912","main_expt","","0.2137681397","","0.1332846515","","0.2828917593","","","","","",""
"194","","bandit","302","1442220","0.0-264.0-0.0","96529321","wem/bandit_single","A2541C8MY0BYV3","pain","5","","75","K","2","","0","1","0","","0.1606351014","false","227","","0.0317259717","main_expt","","0.1830623781","","0.1606351014","","0.2635957152","","","","","",""
"67","","bandit","303","1444115","0.0-265.0-0.0","96529321","wem/bandit_single","A2541C8MY0BYV3","pain","5","","74","J","1","","0","0","1","","0.1665925442","false","228","","0.04253553249","main_expt","","0.1665925442","","0.1292420082","","0.259674247","","","","","",""
"336","","bandit","304","1446266","0.0-266.0-0.0","96529321","wem/bandit_single","A2541C8MY0BYV3","pain","5","","72","H","0","img/none_selected.jpg","0","0","1","","0.06761640147","false","229","","0.06761640147","main_expt","","0.2136718414","","0.1281284096","","0.2737318667","","","","","",""
"289","","bandit","305","1448356","0.0-267.0-0.0","96529321","wem/bandit_single","A2541C8MY0BYV3","pain","5","","74","J","1","","0","0","1","","0.2435987791","false","230","","0.08572380951","main_expt","","0.2435987791","","0.0791291566","","0.3195589589","","","","","",""
"352","","bandit","306","1450496","0.0-268.0-0.0","96529321","wem/bandit_single","A2541C8MY0BYV3","pain","5","","72","H","0","img/none_selected.jpg","0","0","1","","0.07272236896","false","231","","0.07272236896","main_expt","","0.2566168121","","0.10920453","","0.3304270948","","","","","",""
"258","","bandit","307","1452565","0.0-269.0-0.0","96529321","wem/bandit_single","A2541C8MY0BYV3","pain","5","","74","J","1","","0","1","0","","0.2152843379","false","232","","0.0735724775","main_expt","","0.2152843379","","0.167261158","","0.2806951239","","","","","",""
"969","","bandit","308","1455337","0.0-270.0-0.0","96529321","wem/bandit_single","A2541C8MY0BYV3","pain","5","","76","L","3","","0","0","1","","0.3115261247","false","233","","0.06465645962","main_expt","","0.2361400262","","0.1078973024","","0.3115261247","","","","","",""
"75","","bandit","309","1457234","0.0-271.0-0.0","96529321","wem/bandit_single","A2541C8MY0BYV3","pain","5","","76","L","3","","0","0","1","","0.3001083946","false","234","","0.04279198238","main_expt","","0.2575526348","","0.2366146445","","0.3001083946","","","","","",""
"669","","bandit","310","1459713","0.0-272.0-0.0","96529321","wem/bandit_single","A2541C8MY0BYV3","pain","5","","76","L","3","","0","0","1","","0.2768541542","false","235","","0.06672803397","main_expt","","0.2828430508","","0.2393051992","","0.2768541542","","","","","",""
"18","","bandit","311","1461538","0.0-273.0-0.0","96529321","wem/bandit_single","A2541C8MY0BYV3","pain","5","","72","H","0","img/none_selected.jpg","0","0","1","","0.07100342573","false","236","","0.07100342573","main_expt","","0.2860482958","","0.2976693115","","0.332362789","","","","","",""
"799","","bandit","312","1464127","0.0-274.0-0.0","96529321","wem/bandit_single","A2541C8MY0BYV3","pain","5","","75","K","2","","0","0","1","","0.2674299269","false","237","","0.03680589181","main_expt","","0.2783023894","","0.2674299269","","0.3408832027","","","","","",""
"180","","bandit","313","1466097","0.0-275.0-0.0","96529321","wem/bandit_single","A2541C8MY0BYV3","pain","5","","72","H","0","img/none_selected.jpg","0","0","1","","0.02733344458","false","238","","0.02733344458","main_expt","","0.2644861187","","0.2647207175","","0.362117859","","","","","",""
"1115","","bandit","314","1469022","0.0-276.0-0.0","96529321","wem/bandit_single","A2541C8MY0BYV3","pain","5","","76","L","3","","0","0","1","","0.3574250999","false","239","","0.01831396817","main_expt","","0.3186717024","","0.1936342125","","0.3574250999","","","","","",""
"208","","bandit","315","1471035","0.0-277.0-0.0","96529321","wem/bandit_single","A2541C8MY0BYV3","pain","5","","75","K","2","","0","0","1","","0.2382432393","false","240","","0.01383764992","main_expt","","0.3360375491","","0.2382432393","","0.290436356","","","","","",""
"18","","bandit","316","1472855","0.0-278.0-0.0","96529321","wem/bandit_single","A2541C8MY0BYV3","pain","5","","72","H","0","img/none_selected.jpg","0","0","1","","0.0277662638","false","241","","0.0277662638","main_expt","","0.3386213473","","0.2984572788","","0.3414967811","","","","","",""
"250","","bandit","317","1474918","0.0-279.0-0.0","96529321","wem/bandit_single","A2541C8MY0BYV3","pain","5","","76","L","3","","0","0","1","","0.3778608287","false","242","","0.04064120638","main_expt","","0.3523037021","","0.2927867707","","0.3778608287","","","","","",""
"7","","bandit","318","1476744","0.0-280.0-0.0","96529321","wem/bandit_single","A2541C8MY0BYV3","pain","5","","75","K","2","","0","1","0","","0.2870713985","false","243","","0.04640587852","main_expt","","0.360543067","","0.2870713985","","0.3552630766","","","","","",""
"17","","bandit","319","1478581","0.0-281.0-0.0","96529321","wem/bandit_single","A2541C8MY0BYV3","pain","5","","72","H","0","img/none_selected.jpg","0","0","1","","0.06567084485","false","244","","0.06567084485","main_expt","","0.3728786331","","0.2882437102","","0.3538674815","","","","","",""
"247","","bandit","320","1480652","0.0-282.0-0.0","96529321","wem/bandit_single","A2541C8MY0BYV3","pain","5","","72","H","0","img/none_selected.jpg","0","0","1","","0.1069305933","false","245","","0.1069305933","main_expt","","0.3736501537","","0.3125457984","","0.3592745223","","","","","",""
"306","","bandit","321","1482772","0.0-283.0-0.0","96529321","wem/bandit_single","A2541C8MY0BYV3","pain","5","","76","L","3","","0","0","1","","0.3784559109","false","246","","0.07318543846","main_expt","","0.3880614915","","0.2949331023","","0.3784559109","","","","","",""
"52","","bandit","322","1484660","0.0-284.0-0.0","96529321","wem/bandit_single","A2541C8MY0BYV3","pain","5","","76","L","3","","0","0","1","","0.3871101473","false","247","","0.06866628372","main_expt","","0.3906355486","","0.3557375168","","0.3871101473","","","","","",""
"126","","bandit","323","1486615","0.0-285.0-0.0","96529321","wem/bandit_single","A2541C8MY0BYV3","pain","5","","72","H","0","img/none_selected.jpg","0","0","1","","0.06101724449","false","248","","0.06101724449","main_expt","","0.3713177951","","0.3190142928","","0.366594806","","","","","",""
"336","","bandit","324","1488763","0.0-286.0-0.0","96529321","wem/bandit_single","A2541C8MY0BYV3","pain","5","","76","L","3","","0","0","1","","0.35265903","false","249","","0.07132197128","main_expt","","0.2887643678","","0.2946857214","","0.35265903","","","","","",""
"435","","bandit","325","1490997","0.0-287.0-0.0","96529321","wem/bandit_single","A2541C8MY0BYV3","pain","5","","76","L","3","","0","0","1","","0.3725690128","false","250","","0.04991986053","main_expt","","0.3503459773","","0.285145352","","0.3725690128","","","","","",""
"793","","bandit","326","1493581","0.0-288.0-0.0","96529321","wem/bandit_single","A2541C8MY0BYV3","pain","5","","76","L","3","","0","0","1","","0.3516217444","false","251","","0.087584861","main_expt","","0.3900307368","","0.2572530626","","0.3516217444","","","","","",""
"48","","bandit","327","1495418","0.0-289.0-0.0","96529321","wem/bandit_single","A2541C8MY0BYV3","pain","5","","72","H","0","img/none_selected.jpg","0","0","1","","0.1089760904","false","252","","0.1089760904","main_expt","","0.3998204568","","0.206609756","","0.3478664427","","","","","",""
"85","","bandit","328","1497304","0.0-290.0-0.0","96529321","wem/bandit_single","A2541C8MY0BYV3","pain","5","","72","H","0","img/none_selected.jpg","0","0","1","","0.1389783028","false","253","","0.1389783028","main_expt","","0.4062214202","","0.2526850855","","0.2845216812","","","","","",""
"48","","bandit","329","1499169","0.0-291.0-0.0","96529321","wem/bandit_single","A2541C8MY0BYV3","pain","5","","72","H","0","img/none_selected.jpg","0","0","1","","0.1438582992","false","254","","0.1438582992","main_expt","","0.434330363","","0.2143143283","","0.3395138109","","","","","",""
"222","","bandit","330","1501207","0.0-292.0-0.0","96529321","wem/bandit_single","A2541C8MY0BYV3","pain","5","","76","L","3","","0","0","1","","0.284072963","false","255","","0.1341592381","main_expt","","0.463361135","","0.2330346229","","0.284072963","","","","","",""
"193","","bandit","331","1503206","0.0-293.0-0.0","96529321","wem/bandit_single","A2541C8MY0BYV3","pain","5","","75","K","2","","0","0","1","","0.1707848091","false","256","","0.1539827047","main_expt","","0.4513325925","","0.1707848091","","0.2791977035","","","","","",""
"83","","bandit","332","1505068","0.0-294.0-0.0","96529321","wem/bandit_single","A2541C8MY0BYV3","pain","5","","76","L","3","","0","0","1","","0.2827618753","false","257","","0.1067893116","main_expt","","0.4493477618","","0.204762461","","0.2827618753","","","","","",""
"506","","bandit","333","1507383","0.0-295.0-0.0","96529321","wem/bandit_single","A2541C8MY0BYV3","pain","5","","75","K","2","","0","0","1","","0.1678630312","false","258","","0.05021154971","main_expt","","0.4586876348","","0.1678630312","","0.2367173663","","","","","",""
"858","","bandit","334","1510024","0.0-296.0-0.0","96529321","wem/bandit_single","A2541C8MY0BYV3","pain","5","","76","L","3","","0","0","1","","0.2715647874","false","259","","0.04357518244","main_expt","","0.45931789","","0.1739170557","","0.2715647874","","","","","",""
"547","","bandit","335","1512401","0.0-297.0-0.0","96529321","wem/bandit_single","A2541C8MY0BYV3","pain","5","","76","L","3","","0","0","1","","0.2310951927","false","260","","0.05606835832","main_expt","","0.4583289396","","0.1848885371","","0.2310951927","","","","","",""
"63","","bandit","336","1514336","0.0-298.0-0.0","96529321","wem/bandit_single","A2541C8MY0BYV3","pain","5","","72","H","0","img/none_selected.jpg","0","0","1","","0.05035703518","false","261","","0.05035703518","main_expt","","0.4470277171","","0.2258440324","","0.2297288133","","","","","",""
"10915","","bandit","337","1527070","0.0-299.0-0.0","96529321","wem/bandit_single","A2541C8MY0BYV3","pain","5","","76","L","3","","0","0","1","","0.2072969611","false","262","","0.04352905051","main_expt","","0.457772586","","0.2167220908","","0.2072969611","","","","","",""
"92","","bandit","338","1528986","0.0-300.0-0.0","96529321","wem/bandit_single","A2541C8MY0BYV3","pain","5","","75","K","2","","0","0","1","","0.2118780444","false","263","","0.0373968872","main_expt","","0.417694616","","0.2118780444","","0.2427077321","","","","","",""
"285","","bandit","339","1531092","0.0-301.0-0.0","96529321","wem/bandit_single","A2541C8MY0BYV3","pain","5","","76","L","3","","0","0","1","","0.3052561595","false","264","","0.04440415955","main_expt","","0.4214939516","","0.1870566281","","0.3052561595","","","","","",""
"83","","bandit","340","1532982","0.0-302.0-0.0","96529321","wem/bandit_single","A2541C8MY0BYV3","pain","5","","75","K","2","","0","0","1","","0.1706127143","false","265","","0.0139225964","main_expt","","0.413465883","","0.1706127143","","0.3000319327","","","","","",""
"221","","bandit","341","1535009","0.0-303.0-0.0","96529321","wem/bandit_single","A2541C8MY0BYV3","pain","5","","72","H","0","img/none_selected.jpg","0","0","1","","0.01259799349","false","266","","0.01259799349","main_expt","","0.4116424673","","0.1693140566","","0.3134404232","","","","","",""
"396","","bandit","342","1537186","0.0-304.0-0.0","96529321","wem/bandit_single","A2541C8MY0BYV3","pain","5","","72","H","0","img/none_selected.jpg","0","0","1","","0.00740451457","false","267","","0.00740451457","main_expt","","0.3863145418","","0.1753800763","","0.3066387991","","","","","",""
"176","","bandit","343","1539153","0.0-305.0-0.0","96529321","wem/bandit_single","A2541C8MY0BYV3","pain","5","","76","L","3","","0","0","1","","0.3058482798","false","268","","0.004693585052","main_expt","","0.4265221664","","0.1918786918","","0.3058482798","","","","","",""
"16","","bandit","344","1540989","0.0-306.0-0.0","96529321","wem/bandit_single","A2541C8MY0BYV3","pain","5","","75","K","2","","0","0","1","","0.1999989265","false","269","","0.004824061053","main_expt","","0.4515898034","","0.1999989265","","0.2523051309","","","","","",""
"75","","bandit","345","1542886","0.0-307.0-0.0","96529321","wem/bandit_single","A2541C8MY0BYV3","pain","5","","76","L","3","","0","0","1","","0.2663701485","false","270","","0.006174480496","main_expt","","0.4467147125","","0.2211747839","","0.2663701485","","","","","",""
"1","","bandit","346","1544696","0.0-308.0-0.0","96529321","wem/bandit_single","A2541C8MY0BYV3","pain","5","","76","L","3","","0","0","1","","0.2485798686","false","271","","0.00832103917","main_expt","","0.4582909467","","0.2404792593","","0.2485798686","","","","","",""
"100","","bandit","347","1546594","0.0-309.0-0.0","96529321","wem/bandit_single","A2541C8MY0BYV3","pain","5","","75","K","2","","0","0","1","","0.2558589782","false","272","","0.00728594366","main_expt","","0.4709209778","","0.2558589782","","0.2345495347","","","","","",""
"2787","","bandit","348","1551176","0.0-310.0-0.0","96529321","wem/bandit_single","A2541C8MY0BYV3","pain","5","","72","H","0","img/none_selected.jpg","0","0","1","","0.01114453755","false","273","","0.01114453755","main_expt","","0.4660917397","","0.1700432942","","0.2137032991","","","","","",""
"167","","bandit","349","1553151","0.0-311.0-0.0","96529321","wem/bandit_single","A2541C8MY0BYV3","pain","5","","76","L","3","","0","0","1","","0.2108512091","false","274","","0.01390500062","main_expt","","0.4639522763","","0.2452429789","","0.2108512091","","","","","",""
"12","","bandit","350","1554966","0.0-312.0-0.0","96529321","wem/bandit_single","A2541C8MY0BYV3","pain","5","","76","L","3","","0","0","1","","0.1817434844","false","275","","0.01307999715","main_expt","","0.4559735555","","0.2540496776","","0.1817434844","","","","","",""
"2","","bandit","351","1556788","0.0-313.0-0.0","96529321","wem/bandit_single","A2541C8MY0BYV3","pain","5","","74","J","1","","0","0","1","","0.4246507461","false","276","","0.01650166306","main_expt","","0.4246507461","","0.2816965905","","0.2037179719","","","","","",""
"180","","bandit","352","1558779","0.0-314.0-0.0","96529321","wem/bandit_single","A2541C8MY0BYV3","pain","5","","76","L","3","","0","0","1","","0.211691867","false","277","","0.02228120093","main_expt","","0.4061878557","","0.2757967379","","0.211691867","","","","","",""
"18","","bandit","353","1560600","0.0-315.0-0.0","96529321","wem/bandit_single","A2541C8MY0BYV3","pain","5","","72","H","0","img/none_selected.jpg","0","0","1","","0.01609054627","false","278","","0.01609054627","main_expt","","0.4185559707","","0.3233086266","","0.1725584367","","","","","",""
"53","","bandit","354","1562476","0.0-316.0-0.0","96529321","wem/bandit_single","A2541C8MY0BYV3","pain","5","","76","L","3","","0","1","0","","0.1976152383","false","279","","0.03276024715","main_expt","","0.4048416859","","0.3447853064","","0.1976152383","","","","","",""
"569","","bandit","355","1564848","0.0-317.0-0.0","96529321","wem/bandit_single","A2541C8MY0BYV3","pain","5","","75","K","2","","0","0","1","","0.2944080033","false","280","","0.045813934","main_expt","","0.3930733378","","0.2944080033","","0.2245419331","","","","","",""
"116","","bandit","356","1566784","0.0-318.0-0.0","96529321","wem/bandit_single","A2541C8MY0BYV3","pain","5","","74","J","1","","0","0","1","","0.3722539572","false","281","","0.07680660156","main_expt","","0.3722539572","","0.3455536282","","0.2649095144","","","","","",""
"253","","bandit","357","1568886","0.0-319.0-0.0","96529321","wem/bandit_single","A2541C8MY0BYV3","pain","5","","75","K","2","","0","0","1","","0.3002636441","false","282","","0.08989395926","main_expt","","0.392640689","","0.3002636441","","0.2440542309","","","","","",""
"238","","bandit","358","1570943","0.0-320.0-0.0","96529321","wem/bandit_single","A2541C8MY0BYV3","pain","5","","72","H","0","img/none_selected.jpg","0","1","0","","0.1096048843","false","283","","0.1096048843","main_expt","","0.3657249804","","0.2433385189","","0.3074658718","","","","","",""
"59","","bandit","359","1572821","0.0-321.0-0.0","96529321","wem/bandit_single","A2541C8MY0BYV3","pain","5","","74","J","1","","0","0","1","","0.3625644972","false","284","","0.1082817284","main_expt","","0.3625644972","","0.2108667552","","0.3224089974","","","","","",""
"291","","bandit","360","1574917","0.0-322.0-0.0","96529321","wem/bandit_single","A2541C8MY0BYV3","pain","5","","75","K","2","","0","0","1","","0.2340218901","false","285","","0.1629804938","main_expt","","0.3054288932","","0.2340218901","","0.3022873968","","","","","",""
"311","","bandit","361","1577024","0.0-323.0-0.0","96529321","wem/bandit_single","A2541C8MY0BYV3","pain","5","","74","J","1","","0","0","1","","0.3391155559","false","286","","0.1852598429","main_expt","","0.3391155559","","0.2499238339","","0.2889410052","","","","","",""
"452","","bandit","362","1579273","0.0-324.0-0.0","96529321","wem/bandit_single","A2541C8MY0BYV3","pain","5","","75","K","2","","0","0","1","","0.2334780882","false","287","","0.2065414002","main_expt","","0.3328791194","","0.2334780882","","0.3151816804","","","","","",""
"322","","bandit","363","1581391","0.0-325.0-0.0","96529321","wem/bandit_single","A2541C8MY0BYV3","pain","5","","76","L","3","","0","0","1","","0.3489654206","false","288","","0.1811366591","main_expt","","0.3011075564","","0.2784320663","","0.3489654206","","","","","",""
"114","","bandit","364","1583315","0.0-326.0-0.0","96529321","wem/bandit_single","A2541C8MY0BYV3","pain","5","","75","K","2","","0","0","1","","0.2751214951","false","289","","0.1202209304","main_expt","","0.3326814497","","0.2751214951","","0.3673528387","","","","","",""
"195","","bandit","365","1585327","0.0-327.0-0.0","96529321","wem/bandit_single","A2541C8MY0BYV3","pain","5","","75","K","2","","0","1","0","","0.304381699","false","290","","0.1453470377","main_expt","","0.3289320066","","0.304381699","","0.3156989172","","","","","",""
"136","","bandit","366","1587279","0.0-328.0-0.0","96529321","wem/bandit_single","A2541C8MY0BYV3","pain","5","","76","L","3","","0","0","1","","0.3731423443","false","291","","0.1477070836","main_expt","","0.3074380044","","0.2447169523","","0.3731423443","","","","","",""
"73","","bandit","367","1589167","0.0-329.0-0.0","96529321","wem/bandit_single","A2541C8MY0BYV3","pain","5","","74","J","1","","0","0","1","","0.247625386","false","292","","0.1442574827","main_expt","","0.247625386","","0.2422140582","","0.3819638953","","","","","",""
"491","","bandit","368","1591466","0.0-330.0-0.0","96529321","wem/bandit_single","A2541C8MY0BYV3","pain","5","","76","L","3","","0","1","0","","0.3709780048","false","293","","0.1219757373","main_expt","","0.2438381571","","0.1480972705","","0.3709780048","","","","","",""
"200","","bandit","369","1593479","0.0-331.0-0.0","96529321","wem/bandit_single","A2541C8MY0BYV3","pain","5","","74","J","1","","0","0","1","","0.2772308066","false","294","","0.149249144","main_expt","","0.2772308066","","0.1338078997","","0.4013541824","","","","","",""
"134","","bandit","370","1595414","0.0-332.0-0.0","96529321","wem/bandit_single","A2541C8MY0BYV3","pain","5","","72","H","0","img/none_selected.jpg","0","0","1","","0.1066825056","false","295","","0.1066825056","main_expt","","0.2386370059","","0.1452417655","","0.4203470877","","","","","",""
"370","","bandit","371","1597602","0.0-333.0-0.0","96529321","wem/bandit_single","A2541C8MY0BYV3","pain","5","","72","H","0","img/none_selected.jpg","0","0","1","","0.06692503618","false","296","","0.06692503618","main_expt","","0.2322267342","","0.12995508","","0.4006598815","","","","","",""
"105","","bandit","372","1599531","0.0-334.0-0.0","96529321","wem/bandit_single","A2541C8MY0BYV3","pain","5","","74","J","1","","0","1","0","","0.2930795043","false","297","","0.08806334149","main_expt","","0.2930795043","","0.1079814357","","0.4189250697","","","","","",""
