"rt","responses","trial_type","trial_index","time_elapsed","internal_node_id","subjID","study","MID","cond","drift","key_press","respCharCode","respKey","respChoiceNum","respChoice","gems","bombs","no_reward","GemPrChosen","BombPrChosen","practice","trial_counter","WinPr_0","LosePr_0","trial_label","WinPr_1","LosePr_1","WinPr_2","LosePr_2","WinPr_3","LosePr_3","Q0","Q1","Q2","gender","age","ethnicity"
"69869","{""Q0"":""A2C7PADOTOMFT6""}","survey-text","0","69888","0.0-0.0","96664144","wem/bandit_single","A2C7PADOTOMFT6","pain","6","","","","","","","","","","","","","","","","","","","","","","","","","","",""
"1543","","text","1","72443","0.0-1.0","96664144","wem/bandit_single","A2C7PADOTOMFT6","pain","6","32","","","","","","","","","","","","","","","","","","","","","","","","","",""
"8183","","text","2","80629","0.0-2.0","96664144","wem/bandit_single","A2C7PADOTOMFT6","pain","6","32","","","","","","","","","","","","","","","","","","","","","","","","","",""
"29088","","text","3","109722","0.0-3.0","96664144","wem/bandit_single","A2C7PADOTOMFT6","pain","6","32","","","","","","","","","","","","","","","","","","","","","","","","","",""
"37830","","text","4","147557","0.0-4.0","96664144","wem/bandit_single","A2C7PADOTOMFT6","pain","6","32","","","","","","","","","","","","","","","","","","","","","","","","","",""
"17250","","text","5","164812","0.0-5.0","96664144","wem/bandit_single","A2C7PADOTOMFT6","pain","6","32","","","","","","","","","","","","","","","","","","","","","","","","","",""
"12295","","text","6","177113","0.0-6.0","96664144","wem/bandit_single","A2C7PADOTOMFT6","pain","6","32","","","","","","","","","","","","","","","","","","","","","","","","","",""
"8588","","text","7","185705","0.0-7.0","96664144","wem/bandit_single","A2C7PADOTOMFT6","pain","6","32","","","","","","","","","","","","","","","","","","","","","","","","","",""
"8051","","text","8","193758","0.0-8.0","96664144","wem/bandit_single","A2C7PADOTOMFT6","pain","6","32","","","","","","","","","","","","","","","","","","","","","","","","","",""
"4742","","text","9","198502","0.0-9.0","96664144","wem/bandit_single","A2C7PADOTOMFT6","pain","6","32","","","","","","","","","","","","","","","","","","","","","","","","","",""
"6185","","text","10","204689","0.0-10.0","96664144","wem/bandit_single","A2C7PADOTOMFT6","pain","6","32","","","","","","","","","","","","","","","","","","","","","","","","","",""
"6451","","text","11","211143","0.0-11.0","96664144","wem/bandit_single","A2C7PADOTOMFT6","pain","6","32","","","","","","","","","","","","","","","","","","","","","","","","","",""
"1064","","bandit","12","213730","0.0-12.0-0.0","96664144","wem/bandit_single","A2C7PADOTOMFT6","pain","6","","74","J","0","img/none_selected_demo.jpg","0","0","1","0","0","true","0","0","0","","","","","","","","","","","","",""
"1076","","bandit","13","216578","0.0-13.0-0.0","96664144","wem/bandit_single","A2C7PADOTOMFT6","pain","6","","75","K","0","img/none_selected_demo.jpg","0","0","1","0","0","true","0","0","0","","","","","","","","","","","","",""
"2762","","text","14","219598","0.0-14.0","96664144","wem/bandit_single","A2C7PADOTOMFT6","pain","6","32","","","","","","","","","","","","","","","","","","","","","","","","","",""
"2461","","text","15","222061","0.0-15.0","96664144","wem/bandit_single","A2C7PADOTOMFT6","pain","6","32","","","","","","","","","","","","","","","","","","","","","","","","","",""
"3222","","text","16","225286","0.0-16.0","96664144","wem/bandit_single","A2C7PADOTOMFT6","pain","6","32","","","","","","","","","","","","","","","","","","","","","","","","","",""
"3949","","text","17","229237","0.0-17.0","96664144","wem/bandit_single","A2C7PADOTOMFT6","pain","6","32","","","","","","","","","","","","","","","","","","","","","","","","","",""
"1590","","bandit","18","232340","0.0-18.0-0.0","96664144","wem/bandit_single","A2C7PADOTOMFT6","pain","6","","74","J","0","img/none_selected_demo.jpg","0","1","0","0","0.8","true","0","0","0.8","80_20_practice","0","0.2","","","","","","","","","",""
"391","","bandit","19","234499","0.0-18.0-1.0","96664144","wem/bandit_single","A2C7PADOTOMFT6","pain","6","","74","J","0","img/none_selected_demo.jpg","0","1","0","0","0.8","true","0","0","0.8","80_20_practice","0","0.2","","","","","","","","","",""
"320","","bandit","20","236583","0.0-18.0-2.0","96664144","wem/bandit_single","A2C7PADOTOMFT6","pain","6","","74","J","0","img/none_selected_demo.jpg","0","1","0","0","0.8","true","0","0","0.8","80_20_practice","0","0.2","","","","","","","","","",""
"270","","bandit","21","238620","0.0-18.0-3.0","96664144","wem/bandit_single","A2C7PADOTOMFT6","pain","6","","74","J","0","img/none_selected_demo.jpg","0","1","0","0","0.8","true","0","0","0.8","80_20_practice","0","0.2","","","","","","","","","",""
"307","","bandit","22","240693","0.0-18.0-4.0","96664144","wem/bandit_single","A2C7PADOTOMFT6","pain","6","","74","J","0","img/none_selected_demo.jpg","0","1","0","0","0.8","true","0","0","0.8","80_20_practice","0","0.2","","","","","","","","","",""
"77","","bandit","23","242539","0.0-18.0-5.0","96664144","wem/bandit_single","A2C7PADOTOMFT6","pain","6","","74","J","0","img/none_selected_demo.jpg","0","1","0","0","0.8","true","0","0","0.8","80_20_practice","0","0.2","","","","","","","","","",""
"248","","bandit","24","244553","0.0-18.0-6.0","96664144","wem/bandit_single","A2C7PADOTOMFT6","pain","6","","74","J","0","img/none_selected_demo.jpg","0","1","0","0","0.8","true","0","0","0.8","80_20_practice","0","0.2","","","","","","","","","",""
"226","","bandit","25","246543","0.0-18.0-7.0","96664144","wem/bandit_single","A2C7PADOTOMFT6","pain","6","","74","J","0","img/none_selected_demo.jpg","0","1","0","0","0.8","true","0","0","0.8","80_20_practice","0","0.2","","","","","","","","","",""
"187","","bandit","26","248500","0.0-18.0-8.0","96664144","wem/bandit_single","A2C7PADOTOMFT6","pain","6","","74","J","0","img/none_selected_demo.jpg","0","1","0","0","0.8","true","0","0","0.8","80_20_practice","0","0.2","","","","","","","","","",""
"96","","bandit","27","250364","0.0-18.0-9.0","96664144","wem/bandit_single","A2C7PADOTOMFT6","pain","6","","74","J","0","img/none_selected_demo.jpg","0","1","0","0","0.8","true","0","0","0.8","80_20_practice","0","0.2","","","","","","","","","",""
"71","","bandit","28","252200","0.0-18.0-10.0","96664144","wem/bandit_single","A2C7PADOTOMFT6","pain","6","","74","J","0","img/none_selected_demo.jpg","0","1","0","0","0.8","true","0","0","0.8","80_20_practice","0","0.2","","","","","","","","","",""
"87","","bandit","29","254056","0.0-18.0-11.0","96664144","wem/bandit_single","A2C7PADOTOMFT6","pain","6","","74","J","0","img/none_selected_demo.jpg","0","1","0","0","0.8","true","0","0","0.8","80_20_practice","0","0.2","","","","","","","","","",""
"101","","bandit","30","255923","0.0-18.0-12.0","96664144","wem/bandit_single","A2C7PADOTOMFT6","pain","6","","74","J","0","img/none_selected_demo.jpg","0","1","0","0","0.8","true","0","0","0.8","80_20_practice","0","0.2","","","","","","","","","",""
"77","","bandit","31","257771","0.0-18.0-13.0","96664144","wem/bandit_single","A2C7PADOTOMFT6","pain","6","","74","J","0","img/none_selected_demo.jpg","0","0","1","0","0.8","true","0","0","0.8","80_20_practice","0","0.2","","","","","","","","","",""
"535","","bandit","32","260075","0.0-18.0-14.0","96664144","wem/bandit_single","A2C7PADOTOMFT6","pain","6","","75","K","1","","0","0","1","0","0.2","true","0","0","0.8","80_20_practice","0","0.2","","","","","","","","","",""
"48","","bandit","33","261892","0.0-18.0-15.0","96664144","wem/bandit_single","A2C7PADOTOMFT6","pain","6","","75","K","1","","0","0","1","0","0.2","true","0","0","0.8","80_20_practice","0","0.2","","","","","","","","","",""
"23","","bandit","34","263680","0.0-18.0-16.0","96664144","wem/bandit_single","A2C7PADOTOMFT6","pain","6","","75","K","1","","0","0","1","0","0.2","true","0","0","0.8","80_20_practice","0","0.2","","","","","","","","","",""
"51","","bandit","35","265496","0.0-18.0-17.0","96664144","wem/bandit_single","A2C7PADOTOMFT6","pain","6","","75","K","1","","0","0","1","0","0.2","true","0","0","0.8","80_20_practice","0","0.2","","","","","","","","","",""
"1505","","bandit","36","268771","0.0-18.0-18.0","96664144","wem/bandit_single","A2C7PADOTOMFT6","pain","6","","74","J","0","img/none_selected_demo.jpg","0","1","0","0","0.8","true","0","0","0.8","80_20_practice","0","0.2","","","","","","","","","",""
"153","","bandit","37","270687","0.0-18.0-19.0","96664144","wem/bandit_single","A2C7PADOTOMFT6","pain","6","","74","J","0","img/none_selected_demo.jpg","0","1","0","0","0.8","true","0","0","0.8","80_20_practice","0","0.2","","","","","","","","","",""
"5110","","text","38","276053","0.0-19.0","96664144","wem/bandit_single","A2C7PADOTOMFT6","pain","6","32","","","","","","","","","","","","","","","","","","","","","","","","","",""
"1563","","bandit","39","279128","0.0-20.0-0.0","96664144","wem/bandit_single","A2C7PADOTOMFT6","pain","6","","74","J","0","img/none_selected_demo.jpg","0","0","1","0","0","true","0","0","0","","0","0","","","","","","","","","",""
"7392","","text","40","286782","0.0-21.0","96664144","wem/bandit_single","A2C7PADOTOMFT6","pain","6","32","","","","","","","","","","","","","","","","","","","","","","","","","",""
"3794","","text","41","290579","0.0-22.0","96664144","wem/bandit_single","A2C7PADOTOMFT6","pain","6","32","","","","","","","","","","","","","","","","","","","","","","","","","",""
"2669","","text","42","293251","0.0-23.0","96664144","wem/bandit_single","A2C7PADOTOMFT6","pain","6","32","","","","","","","","","","","","","","","","","","","","","","","","","",""
"4192","","text","43","297445","0.0-24.0","96664144","wem/bandit_single","A2C7PADOTOMFT6","pain","6","32","","","","","","","","","","","","","","","","","","","","","","","","","",""
"13850","","text","44","311300","0.0-25.0","96664144","wem/bandit_single","A2C7PADOTOMFT6","pain","6","32","","","","","","","","","","","","","","","","","","","","","","","","","",""
"8573","","text","45","319877","0.0-26.0","96664144","wem/bandit_single","A2C7PADOTOMFT6","pain","6","32","","","","","","","","","","","","","","","","","","","","","","","","","",""
"6630","","text","46","326511","0.0-27.0","96664144","wem/bandit_single","A2C7PADOTOMFT6","pain","6","32","","","","","","","","","","","","","","","","","","","","","","","","","",""
"4192","","text","47","330708","0.0-28.0","96664144","wem/bandit_single","A2C7PADOTOMFT6","pain","6","32","","","","","","","","","","","","","","","","","","","","","","","","","",""
"5401","","text","48","336116","0.0-29.0","96664144","wem/bandit_single","A2C7PADOTOMFT6","pain","6","32","","","","","","","","","","","","","","","","","","","","","","","","","",""
"3165","","text","49","339284","0.0-30.0","96664144","wem/bandit_single","A2C7PADOTOMFT6","pain","6","32","","","","","","","","","","","","","","","","","","","","","","","","","",""
"2988","","text","50","342274","0.0-31.0","96664144","wem/bandit_single","A2C7PADOTOMFT6","pain","6","32","","","","","","","","","","","","","","","","","","","","","","","","","",""
"1267","","bandit","51","345058","0.0-32.0-0.0","96664144","wem/bandit_single","A2C7PADOTOMFT6","pain","6","","74","J","1","","0","0","1","0","0.2","true","0","0","0.8","full_practice","0","0.2","0","0.6","0","0.2","","","","","",""
"240","","bandit","52","347061","0.0-32.0-1.0","96664144","wem/bandit_single","A2C7PADOTOMFT6","pain","6","","72","H","0","img/none_selected.jpg","0","1","0","0","0.8","true","0","0","0.8","full_practice","0","0.2","0","0.6","0","0.2","","","","","",""
"24","","bandit","53","348854","0.0-32.0-2.0","96664144","wem/bandit_single","A2C7PADOTOMFT6","pain","6","","72","H","0","img/none_selected.jpg","0","1","0","0","0.8","true","0","0","0.8","full_practice","0","0.2","0","0.6","0","0.2","","","","","",""
"122","","bandit","54","350741","0.0-32.0-3.0","96664144","wem/bandit_single","A2C7PADOTOMFT6","pain","6","","72","H","0","img/none_selected.jpg","0","1","0","0","0.8","true","0","0","0.8","full_practice","0","0.2","0","0.6","0","0.2","","","","","",""
"55","","bandit","55","352570","0.0-32.0-4.0","96664144","wem/bandit_single","A2C7PADOTOMFT6","pain","6","","72","H","0","img/none_selected.jpg","0","0","1","0","0.8","true","0","0","0.8","full_practice","0","0.2","0","0.6","0","0.2","","","","","",""
"135","","bandit","56","354470","0.0-32.0-5.0","96664144","wem/bandit_single","A2C7PADOTOMFT6","pain","6","","72","H","0","img/none_selected.jpg","0","0","1","0","0.8","true","0","0","0.8","full_practice","0","0.2","0","0.6","0","0.2","","","","","",""
"2322","","bandit","57","358555","0.0-32.0-6.0","96664144","wem/bandit_single","A2C7PADOTOMFT6","pain","6","","75","K","2","","0","1","0","0","0.6","true","0","0","0.8","full_practice","0","0.2","0","0.6","0","0.2","","","","","",""
"29","","bandit","58","360351","0.0-32.0-7.0","96664144","wem/bandit_single","A2C7PADOTOMFT6","pain","6","","75","K","2","","0","0","1","0","0.6","true","0","0","0.8","full_practice","0","0.2","0","0.6","0","0.2","","","","","",""
"37","","bandit","59","362154","0.0-32.0-8.0","96664144","wem/bandit_single","A2C7PADOTOMFT6","pain","6","","75","K","2","","0","0","1","0","0.6","true","0","0","0.8","full_practice","0","0.2","0","0.6","0","0.2","","","","","",""
"1204","","bandit","60","365126","0.0-32.0-9.0","96664144","wem/bandit_single","A2C7PADOTOMFT6","pain","6","","76","L","3","","0","0","1","0","0.2","true","0","0","0.8","full_practice","0","0.2","0","0.6","0","0.2","","","","","",""
"46","","bandit","61","366943","0.0-32.0-10.0","96664144","wem/bandit_single","A2C7PADOTOMFT6","pain","6","","76","L","3","","0","1","0","0","0.2","true","0","0","0.8","full_practice","0","0.2","0","0.6","0","0.2","","","","","",""
"54","","bandit","62","368767","0.0-32.0-11.0","96664144","wem/bandit_single","A2C7PADOTOMFT6","pain","6","","76","L","3","","0","0","1","0","0.2","true","0","0","0.8","full_practice","0","0.2","0","0.6","0","0.2","","","","","",""
"98","","bandit","63","370629","0.0-32.0-12.0","96664144","wem/bandit_single","A2C7PADOTOMFT6","pain","6","","74","J","1","","0","0","1","0","0.2","true","0","0","0.8","full_practice","0","0.2","0","0.6","0","0.2","","","","","",""
"842","","bandit","64","373252","0.0-32.0-13.0","96664144","wem/bandit_single","A2C7PADOTOMFT6","pain","6","","72","H","0","img/none_selected.jpg","0","1","0","0","0.8","true","0","0","0.8","full_practice","0","0.2","0","0.6","0","0.2","","","","","",""
"40","","bandit","65","375058","0.0-32.0-14.0","96664144","wem/bandit_single","A2C7PADOTOMFT6","pain","6","","72","H","0","img/none_selected.jpg","0","1","0","0","0.8","true","0","0","0.8","full_practice","0","0.2","0","0.6","0","0.2","","","","","",""
"15","","bandit","66","376835","0.0-32.0-15.0","96664144","wem/bandit_single","A2C7PADOTOMFT6","pain","6","","72","H","0","img/none_selected.jpg","0","1","0","0","0.8","true","0","0","0.8","full_practice","0","0.2","0","0.6","0","0.2","","","","","",""
"520","","bandit","67","379118","0.0-32.0-16.0","96664144","wem/bandit_single","A2C7PADOTOMFT6","pain","6","","72","H","0","img/none_selected.jpg","0","1","0","0","0.8","true","0","0","0.8","full_practice","0","0.2","0","0.6","0","0.2","","","","","",""
"70","","bandit","68","380956","0.0-32.0-17.0","96664144","wem/bandit_single","A2C7PADOTOMFT6","pain","6","","72","H","0","img/none_selected.jpg","0","1","0","0","0.8","true","0","0","0.8","full_practice","0","0.2","0","0.6","0","0.2","","","","","",""
"26","","bandit","69","382750","0.0-32.0-18.0","96664144","wem/bandit_single","A2C7PADOTOMFT6","pain","6","","72","H","0","img/none_selected.jpg","0","1","0","0","0.8","true","0","0","0.8","full_practice","0","0.2","0","0.6","0","0.2","","","","","",""
"490","","bandit","70","385008","0.0-32.0-19.0","96664144","wem/bandit_single","A2C7PADOTOMFT6","pain","6","","72","H","0","img/none_selected.jpg","0","1","0","0","0.8","true","0","0","0.8","full_practice","0","0.2","0","0.6","0","0.2","","","","","",""
"2818","","text","71","388091","0.0-33.0","96664144","wem/bandit_single","A2C7PADOTOMFT6","pain","6","32","","","","","","","","","","","","","","","","","","","","","","","","","",""
"11023","","text","72","400125","0.0-34.0","96664144","wem/bandit_single","A2C7PADOTOMFT6","pain","6","32","","","","","","","","","","","","","","","","","","","","","","","","","",""
"7609","","text","73","407739","0.0-35.0","96664144","wem/bandit_single","A2C7PADOTOMFT6","pain","6","32","","","","","","","","","","","","","","","","","","","","","","","","","",""
"5620","","text","74","413362","0.0-36.0","96664144","wem/bandit_single","A2C7PADOTOMFT6","pain","6","32","","","","","","","","","","","","","","","","","","","","","","","","","",""
"7613","","text","75","420979","0.0-37.0","96664144","wem/bandit_single","A2C7PADOTOMFT6","pain","6","32","","","","","","","","","","","","","","","","","","","","","","","","","",""
"647","","bandit","76","423144","0.0-38.0-0.0","96664144","wem/bandit_single","A2C7PADOTOMFT6","pain","6","","75","K","2","","0","1","0","","0.1940838181","false","1","","0.1623639982","main_expt","","0.1142009487","","0.1940838181","","0.3785571591","","","","","",""
"81","","bandit","77","424992","0.0-39.0-0.0","96664144","wem/bandit_single","A2C7PADOTOMFT6","pain","6","","75","K","2","","0","0","1","","0.2410489397","false","2","","0.1864124343","main_expt","","0.09165924831","","0.2410489397","","0.3894156921","","","","","",""
"24","","bandit","78","426781","0.0-40.0-0.0","96664144","wem/bandit_single","A2C7PADOTOMFT6","pain","6","","75","K","2","","0","0","1","","0.2645422736","false","3","","0.1494323563","main_expt","","0.1174954382","","0.2645422736","","0.4125386255","","","","","",""
"6","","bandit","79","427400","0.0-41.0-0.0","96664144","wem/bandit_single","A2C7PADOTOMFT6","pain","6","","75","K","2","","0","0","1","","0.1984909652","false","4","","0.1266436655","main_expt","","0.1426329369","","0.1984909652","","0.3990363537","","","","","",""
"47","","bandit","80","429216","0.0-42.0-0.0","96664144","wem/bandit_single","A2C7PADOTOMFT6","pain","6","","76","L","3","","0","0","1","","0.454435597","false","5","","0.1476492511","main_expt","","0.1503595054","","0.1239860826","","0.454435597","","","","","",""
"662","","bandit","81","431650","0.0-43.0-0.0","96664144","wem/bandit_single","A2C7PADOTOMFT6","pain","6","","76","L","3","","0","0","1","","0.4583077461","false","6","","0.1525625276","main_expt","","0.1646450236","","0.06805906468","","0.4583077461","","","","","",""
"139","","bandit","82","433563","0.0-44.0-0.0","96664144","wem/bandit_single","A2C7PADOTOMFT6","pain","6","","74","J","1","","0","0","1","","0.2031930874","false","7","","0.1856713893","main_expt","","0.2031930874","","0.05890971721","","0.4617786505","","","","","",""
"687","","bandit","83","436014","0.0-45.0-0.0","96664144","wem/bandit_single","A2C7PADOTOMFT6","pain","6","","74","J","1","","0","0","1","","0.181996894","false","8","","0.2108076934","main_expt","","0.181996894","","0.0832196585","","0.475168559","","","","","",""
"33","","bandit","84","437811","0.0-46.0-0.0","96664144","wem/bandit_single","A2C7PADOTOMFT6","pain","6","","74","J","1","","0","0","1","","0.1673845292","false","9","","0.1956497028","main_expt","","0.1673845292","","0.1325638406","","0.458325554","","","","","",""
"382","","bandit","85","439961","0.0-47.0-0.0","96664144","wem/bandit_single","A2C7PADOTOMFT6","pain","6","","72","H","0","img/none_selected.jpg","0","0","1","","0.1582923175","false","10","","0.1582923175","main_expt","","0.2328473308","","0.1196898321","","0.4316924572","","","","","",""
"419","","bandit","86","442153","0.0-48.0-0.0","96664144","wem/bandit_single","A2C7PADOTOMFT6","pain","6","","72","H","0","img/none_selected.jpg","0","0","1","","0.167734997","false","11","","0.167734997","main_expt","","0.20589494","","0.1103103944","","0.3756511011","","","","","",""
"685","","bandit","87","444604","0.0-49.0-0.0","96664144","wem/bandit_single","A2C7PADOTOMFT6","pain","6","","75","K","2","","0","0","1","","0.06819125589","false","12","","0.2150601968","main_expt","","0.2246944015","","0.06819125589","","0.3549088727","","","","","",""
"15","","bandit","88","446386","0.0-50.0-0.0","96664144","wem/bandit_single","A2C7PADOTOMFT6","pain","6","","75","K","2","","0","1","0","","0.07076675629","false","13","","0.252216208","main_expt","","0.2613447163","","0.07076675629","","0.3455803359","","","","","",""
"14","","bandit","89","448166","0.0-51.0-0.0","96664144","wem/bandit_single","A2C7PADOTOMFT6","pain","6","","75","K","2","","0","0","1","","0.09241451512","false","14","","0.2184022087","main_expt","","0.212655478","","0.09241451512","","0.3809937316","","","","","",""
"233","","bandit","90","450166","0.0-52.0-0.0","96664144","wem/bandit_single","A2C7PADOTOMFT6","pain","6","","72","H","0","img/none_selected.jpg","0","0","1","","0.210005203","false","15","","0.210005203","main_expt","","0.1679070286","","0.07205700739","","0.3479508526","","","","","",""
"385","","bandit","91","452319","0.0-53.0-0.0","96664144","wem/bandit_single","A2C7PADOTOMFT6","pain","6","","72","H","0","img/none_selected.jpg","0","0","1","","0.2402495983","false","16","","0.2402495983","main_expt","","0.1774383452","","0.04760190598","","0.3287514515","","","","","",""
"180","","bandit","92","454266","0.0-54.0-0.0","96664144","wem/bandit_single","A2C7PADOTOMFT6","pain","6","","74","J","1","","0","0","1","","0.1562672395","false","17","","0.2766196603","main_expt","","0.1562672395","","0.03958098904","","0.4008698656","","","","","",""
"111","","bandit","93","456144","0.0-55.0-0.0","96664144","wem/bandit_single","A2C7PADOTOMFT6","pain","6","","75","K","2","","0","0","1","","0.03128671198","false","18","","0.3193638145","main_expt","","0.1407597156","","0.03128671198","","0.3845126264","","","","","",""
"311","","bandit","94","458228","0.0-56.0-0.0","96664144","wem/bandit_single","A2C7PADOTOMFT6","pain","6","","76","L","3","","0","1","0","","0.3979941068","false","19","","0.2953318626","main_expt","","0.1310890834","","0.04453616628","","0.3979941068","","","","","",""
"148","","bandit","95","460144","0.0-57.0-0.0","96664144","wem/bandit_single","A2C7PADOTOMFT6","pain","6","","76","L","3","","0","0","1","","0.3920029867","false","20","","0.3007143328","main_expt","","0.1317163977","","0.04596917346","","0.3920029867","","","","","",""
"19","","bandit","96","461932","0.0-58.0-0.0","96664144","wem/bandit_single","A2C7PADOTOMFT6","pain","6","","76","L","3","","0","1","0","","0.4057752261","false","21","","0.3105995928","main_expt","","0.1752537558","","0.04297504417","","0.4057752261","","","","","",""
"26","","bandit","97","463725","0.0-59.0-0.0","96664144","wem/bandit_single","A2C7PADOTOMFT6","pain","6","","76","L","3","","0","0","1","","0.4072420822","false","22","","0.3742057862","main_expt","","0.2064983175","","0.04739698515","","0.4072420822","","","","","",""
"42","","bandit","98","465536","0.0-60.0-0.0","96664144","wem/bandit_single","A2C7PADOTOMFT6","pain","6","","76","L","3","","0","0","1","","0.3798298113","false","23","","0.3439758112","main_expt","","0.216691321","","0.08003173613","","0.3798298113","","","","","",""
"401","","bandit","99","467701","0.0-61.0-0.0","96664144","wem/bandit_single","A2C7PADOTOMFT6","pain","6","","75","K","2","","0","0","1","","0.09868307827","false","24","","0.3549138733","main_expt","","0.2342773894","","0.09868307827","","0.3329856024","","","","","",""
"285","","bandit","100","469757","0.0-62.0-0.0","96664144","wem/bandit_single","A2C7PADOTOMFT6","pain","6","","75","K","2","","0","0","1","","0.07950464875","false","25","","0.3811330683","main_expt","","0.2378870173","","0.07950464875","","0.3337381726","","","","","",""
"174","","bandit","101","471703","0.0-63.0-0.0","96664144","wem/bandit_single","A2C7PADOTOMFT6","pain","6","","76","L","3","","0","1","0","","0.3650510818","false","26","","0.3131907418","main_expt","","0.2555438901","","0.09697268327","","0.3650510818","","","","","",""
"581","","bandit","102","474055","0.0-64.0-0.0","96664144","wem/bandit_single","A2C7PADOTOMFT6","pain","6","","76","L","3","","0","1","0","","0.3930286133","false","27","","0.3210571327","main_expt","","0.2487754609","","0.09831328215","","0.3930286133","","","","","",""
"1044","","bandit","103","476868","0.0-65.0-0.0","96664144","wem/bandit_single","A2C7PADOTOMFT6","pain","6","","76","L","3","","0","0","1","","0.3849328395","false","28","","0.3350138966","main_expt","","0.2023297646","","0.08798585883","","0.3849328395","","","","","",""
"434","","bandit","104","479073","0.0-66.0-0.0","96664144","wem/bandit_single","A2C7PADOTOMFT6","pain","6","","76","L","3","","0","0","1","","0.3635333449","false","29","","0.3491704597","main_expt","","0.1824385616","","0.1001400419","","0.3635333449","","","","","",""
"663","","bandit","105","481504","0.0-67.0-0.0","96664144","wem/bandit_single","A2C7PADOTOMFT6","pain","6","","74","J","1","","0","1","0","","0.2108935763","false","30","","0.3515390533","main_expt","","0.2108935763","","0.100360092","","0.3870800473","","","","","",""
"247","","bandit","106","483521","0.0-68.0-0.0","96664144","wem/bandit_single","A2C7PADOTOMFT6","pain","6","","74","J","1","","0","0","1","","0.2212072473","false","31","","0.3116189274","main_expt","","0.2212072473","","0.1235489826","","0.407818568","","","","","",""
"58","","bandit","107","485348","0.0-69.0-0.0","96664144","wem/bandit_single","A2C7PADOTOMFT6","pain","6","","74","J","1","","0","0","1","","0.2349080289","false","32","","0.2923613921","main_expt","","0.2349080289","","0.0999088058","","0.4365503818","","","","","",""
"23","","bandit","108","487137","0.0-70.0-0.0","96664144","wem/bandit_single","A2C7PADOTOMFT6","pain","6","","72","H","0","img/none_selected.jpg","0","0","1","","0.2833872006","false","33","","0.2833872006","main_expt","","0.2233211346","","0.1229353218","","0.438397095","","","","","",""
"178","","bandit","109","489075","0.0-71.0-0.0","96664144","wem/bandit_single","A2C7PADOTOMFT6","pain","6","","74","J","1","","0","0","1","","0.2328620384","false","34","","0.251012165","main_expt","","0.2328620384","","0.1174339591","","0.4225996483","","","","","",""
"207","","bandit","110","491042","0.0-72.0-0.0","96664144","wem/bandit_single","A2C7PADOTOMFT6","pain","6","","75","K","2","","0","0","1","","0.08922948311","false","35","","0.2150204629","main_expt","","0.2442853791","","0.08922948311","","0.3719427837","","","","","",""
"15","","bandit","111","492829","0.0-73.0-0.0","96664144","wem/bandit_single","A2C7PADOTOMFT6","pain","6","","75","K","2","","0","0","1","","0.1065429935","false","36","","0.2003821391","main_expt","","0.2536962779","","0.1065429935","","0.3643608465","","","","","",""
"172","","bandit","112","494772","0.0-74.0-0.0","96664144","wem/bandit_single","A2C7PADOTOMFT6","pain","6","","76","L","3","","0","1","0","","0.3951734682","false","37","","0.1584744983","main_expt","","0.1968410568","","0.119331244","","0.3951734682","","","","","",""
"201","","bandit","113","496736","0.0-75.0-0.0","96664144","wem/bandit_single","A2C7PADOTOMFT6","pain","6","","76","L","3","","0","1","0","","0.4106313244","false","38","","0.1107345946","main_expt","","0.1903576104","","0.1140529394","","0.4106313244","","","","","",""
"8","","bandit","114","498508","0.0-76.0-0.0","96664144","wem/bandit_single","A2C7PADOTOMFT6","pain","6","","76","L","3","","0","0","1","","0.385877281","false","39","","0.1922112034","main_expt","","0.2094560733","","0.1377706652","","0.385877281","","","","","",""
"94","","bandit","115","500366","0.0-77.0-0.0","96664144","wem/bandit_single","A2C7PADOTOMFT6","pain","6","","76","L","3","","0","0","1","","0.3814638094","false","40","","0.202991566","main_expt","","0.2157952434","","0.1686011578","","0.3814638094","","","","","",""
"59","","bandit","116","502194","0.0-78.0-0.0","96664144","wem/bandit_single","A2C7PADOTOMFT6","pain","6","","74","J","1","","0","0","1","","0.1982376225","false","41","","0.257249123","main_expt","","0.1982376225","","0.1640814413","","0.3569976603","","","","","",""
"17","","bandit","117","503982","0.0-79.0-0.0","96664144","wem/bandit_single","A2C7PADOTOMFT6","pain","6","","74","J","1","","0","0","1","","0.1815133425","false","42","","0.3139605103","main_expt","","0.1815133425","","0.1444461896","","0.3254656301","","","","","",""
"104","","bandit","118","505857","0.0-80.0-0.0","96664144","wem/bandit_single","A2C7PADOTOMFT6","pain","6","","75","K","2","","0","0","1","","0.1466097136","false","43","","0.2859416922","main_expt","","0.1804658283","","0.1466097136","","0.3061667188","","","","","",""
"9","","bandit","119","507627","0.0-81.0-0.0","96664144","wem/bandit_single","A2C7PADOTOMFT6","pain","6","","72","H","0","img/none_selected.jpg","0","0","1","","0.2344477797","false","44","","0.2344477797","main_expt","","0.1453808853","","0.1701376127","","0.3247162798","","","","","",""
"49","","bandit","120","509444","0.0-82.0-0.0","96664144","wem/bandit_single","A2C7PADOTOMFT6","pain","6","","76","L","3","","0","0","1","","0.3464274235","false","45","","0.25278305","main_expt","","0.1975985391","","0.2382164817","","0.3464274235","","","","","",""
"333","","bandit","121","511555","0.0-83.0-0.0","96664144","wem/bandit_single","A2C7PADOTOMFT6","pain","6","","76","L","3","","0","0","1","","0.2853596265","false","46","","0.2447001663","main_expt","","0.2099331931","","0.2817064876","","0.2853596265","","","","","",""
"956","","bandit","122","514286","0.0-84.0-0.0","96664144","wem/bandit_single","A2C7PADOTOMFT6","pain","6","","76","L","3","","0","1","0","","0.2781892211","false","47","","0.2439886488","main_expt","","0.2373708448","","0.3449614965","","0.2781892211","","","","","",""
"34","","bandit","123","516092","0.0-85.0-0.0","96664144","wem/bandit_single","A2C7PADOTOMFT6","pain","6","","76","L","3","","0","0","1","","0.2802769371","false","48","","0.3453423138","main_expt","","0.2929879582","","0.2846403666","","0.2802769371","","","","","",""
"36","","bandit","124","517893","0.0-86.0-0.0","96664144","wem/bandit_single","A2C7PADOTOMFT6","pain","6","","75","K","2","","0","0","1","","0.3292227521","false","49","","0.3208634608","main_expt","","0.2643709298","","0.3292227521","","0.3162769287","","","","","",""
"353","","bandit","125","520015","0.0-87.0-0.0","96664144","wem/bandit_single","A2C7PADOTOMFT6","pain","6","","75","K","2","","0","0","1","","0.270904054","false","50","","0.2600740437","main_expt","","0.2666646559","","0.270904054","","0.2524095143","","","","","",""
"419","","bandit","126","522207","0.0-88.0-0.0","96664144","wem/bandit_single","A2C7PADOTOMFT6","pain","6","","76","L","3","","0","0","1","","0.2630113652","false","51","","0.2451527442","main_expt","","0.2550538978","","0.2503066232","","0.2630113652","","","","","",""
"176","","bandit","127","524145","0.0-89.0-0.0","96664144","wem/bandit_single","A2C7PADOTOMFT6","pain","6","","74","J","1","","0","1","0","","0.3235330097","false","52","","0.1882651979","main_expt","","0.3235330097","","0.2405173112","","0.2707742251","","","","","",""
"195","","bandit","128","526109","0.0-90.0-0.0","96664144","wem/bandit_single","A2C7PADOTOMFT6","pain","6","","74","J","1","","0","0","1","","0.347433539","false","53","","0.1930778153","main_expt","","0.347433539","","0.2966352861","","0.2150274285","","","","","",""
"112","","bandit","129","527989","0.0-91.0-0.0","96664144","wem/bandit_single","A2C7PADOTOMFT6","pain","6","","74","J","1","","0","1","0","","0.3368202787","false","54","","0.2216955806","main_expt","","0.3368202787","","0.2887198369","","0.2326572497","","","","","",""
"146","","bandit","130","529900","0.0-92.0-0.0","96664144","wem/bandit_single","A2C7PADOTOMFT6","pain","6","","74","J","1","","0","0","1","","0.3503124627","false","55","","0.2422165651","main_expt","","0.3503124627","","0.2801160178","","0.2134399586","","","","","",""
"163","","bandit","131","531828","0.0-93.0-0.0","96664144","wem/bandit_single","A2C7PADOTOMFT6","pain","6","","74","J","1","","0","1","0","","0.368841946","false","56","","0.228979269","main_expt","","0.368841946","","0.3022415889","","0.2394891912","","","","","",""
"68","","bandit","132","533662","0.0-94.0-0.0","96664144","wem/bandit_single","A2C7PADOTOMFT6","pain","6","","74","J","1","","0","0","1","","0.3883837061","false","57","","0.243325051","main_expt","","0.3883837061","","0.3300995428","","0.2942469327","","","","","",""
"218","","bandit","133","535643","0.0-95.0-0.0","96664144","wem/bandit_single","A2C7PADOTOMFT6","pain","6","","74","J","1","","0","1","0","","0.4116863428","false","58","","0.2326991071","main_expt","","0.4116863428","","0.3393984951","","0.369295693","","","","","",""
"65","","bandit","134","537476","0.0-96.0-0.0","96664144","wem/bandit_single","A2C7PADOTOMFT6","pain","6","","74","J","1","","0","0","1","","0.3980375199","false","59","","0.2480349675","main_expt","","0.3980375199","","0.3592245678","","0.3663837161","","","","","",""
"21","","bandit","135","539271","0.0-97.0-0.0","96664144","wem/bandit_single","A2C7PADOTOMFT6","pain","6","","74","J","1","","0","1","0","","0.3849919156","false","60","","0.2591134247","main_expt","","0.3849919156","","0.3431938453","","0.3578669063","","","","","",""
"10","","bandit","136","541051","0.0-98.0-0.0","96664144","wem/bandit_single","A2C7PADOTOMFT6","pain","6","","72","H","0","img/none_selected.jpg","0","0","1","","0.2828027123","false","61","","0.2828027123","main_expt","","0.3822359719","","0.3622980041","","0.3901807011","","","","","",""
"176","","bandit","137","542997","0.0-99.0-0.0","96664144","wem/bandit_single","A2C7PADOTOMFT6","pain","6","","74","J","1","","0","1","0","","0.3356955782","false","62","","0.2645717152","main_expt","","0.3356955782","","0.3898917795","","0.4199484271","","","","","",""
"198","","bandit","138","544964","0.0-100.0-0.0","96664144","wem/bandit_single","A2C7PADOTOMFT6","pain","6","","74","J","1","","0","0","1","","0.2961333539","false","63","","0.3164731366","main_expt","","0.2961333539","","0.3730814422","","0.431710707","","","","","",""
"158","","bandit","139","546892","0.0-101.0-0.0","96664144","wem/bandit_single","A2C7PADOTOMFT6","pain","6","","72","H","0","img/none_selected.jpg","0","0","1","","0.3549458842","false","64","","0.3549458842","main_expt","","0.3332154777","","0.359514794","","0.4302834116","","","","","",""
"70","","bandit","140","548731","0.0-102.0-0.0","96664144","wem/bandit_single","A2C7PADOTOMFT6","pain","6","","74","J","1","","0","0","1","","0.35785358","false","65","","0.288515421","main_expt","","0.35785358","","0.3114607296","","0.3985691748","","","","","",""
"22","","bandit","141","550525","0.0-103.0-0.0","96664144","wem/bandit_single","A2C7PADOTOMFT6","pain","6","","75","K","2","","0","0","1","","0.2942291023","false","66","","0.3011993237","main_expt","","0.406057841","","0.2942291023","","0.4041176093","","","","","",""
"160","","bandit","142","552452","0.0-104.0-0.0","96664144","wem/bandit_single","A2C7PADOTOMFT6","pain","6","","74","J","1","","0","0","1","","0.4196038874","false","67","","0.345072876","main_expt","","0.4196038874","","0.3320533568","","0.4007812862","","","","","",""
"177","","bandit","143","554397","0.0-105.0-0.0","96664144","wem/bandit_single","A2C7PADOTOMFT6","pain","6","","74","J","1","","0","0","1","","0.3890604874","false","68","","0.3196529892","main_expt","","0.3890604874","","0.3600975808","","0.4294162969","","","","","",""
"97","","bandit","144","556257","0.0-106.0-0.0","96664144","wem/bandit_single","A2C7PADOTOMFT6","pain","6","","76","L","3","","0","0","1","","0.3767619451","false","69","","0.3649702463","main_expt","","0.4084138829","","0.2872110667","","0.3767619451","","","","","",""
"395","","bandit","145","558420","0.0-107.0-0.0","96664144","wem/bandit_single","A2C7PADOTOMFT6","pain","6","","75","K","2","","0","0","1","","0.295141158","false","70","","0.356932825","main_expt","","0.3468887804","","0.295141158","","0.3777248691","","","","","",""
"41","","bandit","146","560229","0.0-108.0-0.0","96664144","wem/bandit_single","A2C7PADOTOMFT6","pain","6","","75","K","2","","0","1","0","","0.3206647592","false","71","","0.3835678776","main_expt","","0.341524862","","0.3206647592","","0.3795242786","","","","","",""
"57","","bandit","147","562053","0.0-109.0-0.0","96664144","wem/bandit_single","A2C7PADOTOMFT6","pain","6","","75","K","2","","0","1","0","","0.3264000429","false","72","","0.4212385026","main_expt","","0.3749246652","","0.3264000429","","0.3665841139","","","","","",""
"44","","bandit","148","563871","0.0-110.0-0.0","96664144","wem/bandit_single","A2C7PADOTOMFT6","pain","6","","75","K","2","","0","1","0","","0.333972891","false","73","","0.4261424303","main_expt","","0.3871824506","","0.333972891","","0.3651794524","","","","","",""
"30","","bandit","149","565665","0.0-111.0-0.0","96664144","wem/bandit_single","A2C7PADOTOMFT6","pain","6","","75","K","2","","0","0","1","","0.3616968722","false","74","","0.3977974162","main_expt","","0.3721906724","","0.3616968722","","0.3550305672","","","","","",""
"38","","bandit","150","567475","0.0-112.0-0.0","96664144","wem/bandit_single","A2C7PADOTOMFT6","pain","6","","75","K","2","","0","1","0","","0.3975057441","false","75","","0.4267201321","main_expt","","0.3111946895","","0.3975057441","","0.2927321298","","","","","",""
"402","","bandit","151","569647","0.0-113.0-0.0","96664144","wem/bandit_single","A2C7PADOTOMFT6","pain","6","","75","K","2","","0","1","0","","0.3807363423","false","76","","0.4263250047","main_expt","","0.3336428477","","0.3807363423","","0.2842047713","","","","","",""
"17","","bandit","152","571434","0.0-114.0-0.0","96664144","wem/bandit_single","A2C7PADOTOMFT6","pain","6","","75","K","2","","0","0","1","","0.394346207","false","77","","0.4081139898","main_expt","","0.2972108807","","0.394346207","","0.291961298","","","","","",""
"14","","bandit","153","573219","0.0-115.0-0.0","96664144","wem/bandit_single","A2C7PADOTOMFT6","pain","6","","75","K","2","","0","1","0","","0.4130135997","false","78","","0.4081745619","main_expt","","0.3500338334","","0.4130135997","","0.2772504781","","","","","",""
"218","","bandit","154","575208","0.0-116.0-0.0","96664144","wem/bandit_single","A2C7PADOTOMFT6","pain","6","","75","K","2","","0","1","0","","0.388257836","false","79","","0.4210543479","main_expt","","0.3382579744","","0.388257836","","0.2910266255","","","","","",""
"0","","bandit","155","576978","0.0-117.0-0.0","96664144","wem/bandit_single","A2C7PADOTOMFT6","pain","6","","75","K","2","","0","1","0","","0.402189785","false","80","","0.4173400146","main_expt","","0.2848378437","","0.402189785","","0.3236474027","","","","","",""
"46","","bandit","156","578795","0.0-118.0-0.0","96664144","wem/bandit_single","A2C7PADOTOMFT6","pain","6","","75","K","2","","0","1","0","","0.4188164015","false","81","","0.3876294662","main_expt","","0.2824957966","","0.4188164015","","0.3171491255","","","","","",""
"329","","bandit","157","580891","0.0-119.0-0.0","96664144","wem/bandit_single","A2C7PADOTOMFT6","pain","6","","75","K","2","","0","0","1","","0.3923487362","false","82","","0.3960397656","main_expt","","0.2921189703","","0.3923487362","","0.3253049084","","","","","",""
"295","","bandit","158","582957","0.0-120.0-0.0","96664144","wem/bandit_single","A2C7PADOTOMFT6","pain","6","","75","K","2","","0","1","0","","0.3765831671","false","83","","0.4048972575","main_expt","","0.346808059","","0.3765831671","","0.2650825447","","","","","",""
"130","","bandit","159","584860","0.0-121.0-0.0","96664144","wem/bandit_single","A2C7PADOTOMFT6","pain","6","","75","K","2","","0","1","0","","0.3744655151","false","84","","0.4261464595","main_expt","","0.3142369957","","0.3744655151","","0.2860936523","","","","","",""
"12","","bandit","160","586643","0.0-122.0-0.0","96664144","wem/bandit_single","A2C7PADOTOMFT6","pain","6","","75","K","2","","0","1","0","","0.4097897279","false","85","","0.4252889048","main_expt","","0.3336664699","","0.4097897279","","0.2965161573","","","","","",""
"101","","bandit","161","588518","0.0-123.0-0.0","96664144","wem/bandit_single","A2C7PADOTOMFT6","pain","6","","75","K","2","","0","0","1","","0.4365994201","false","86","","0.4234238012","main_expt","","0.3487181938","","0.4365994201","","0.2718920201","","","","","",""
"27","","bandit","162","590317","0.0-124.0-0.0","96664144","wem/bandit_single","A2C7PADOTOMFT6","pain","6","","75","K","2","","0","0","1","","0.4485753971","false","87","","0.4493325849","main_expt","","0.3595256023","","0.4485753971","","0.2663647104","","","","","",""
"34","","bandit","163","592118","0.0-125.0-0.0","96664144","wem/bandit_single","A2C7PADOTOMFT6","pain","6","","75","K","2","","0","1","0","","0.4682155013","false","88","","0.4618336953","main_expt","","0.3633435887","","0.4682155013","","0.2505207396","","","","","",""
"406","","bandit","164","594294","0.0-126.0-0.0","96664144","wem/bandit_single","A2C7PADOTOMFT6","pain","6","","75","K","2","","0","1","0","","0.455546077","false","89","","0.470357169","main_expt","","0.3301577903","","0.455546077","","0.2380326514","","","","","",""
"17","","bandit","165","596078","0.0-127.0-0.0","96664144","wem/bandit_single","A2C7PADOTOMFT6","pain","6","","75","K","2","","0","0","1","","0.4648286352","false","90","","0.4756012524","main_expt","","0.2983975746","","0.4648286352","","0.2825572521","","","","","",""
"23","","bandit","166","597870","0.0-128.0-0.0","96664144","wem/bandit_single","A2C7PADOTOMFT6","pain","6","","75","K","2","","0","0","1","","0.4597569826","false","91","","0.4661355378","main_expt","","0.2708507867","","0.4597569826","","0.3629334232","","","","","",""
"27","","bandit","167","599667","0.0-129.0-0.0","96664144","wem/bandit_single","A2C7PADOTOMFT6","pain","6","","75","K","2","","0","1","0","","0.4636055165","false","92","","0.4640816948","main_expt","","0.2025174094","","0.4636055165","","0.4318733099","","","","","",""
"22","","bandit","168","601456","0.0-130.0-0.0","96664144","wem/bandit_single","A2C7PADOTOMFT6","pain","6","","75","K","2","","0","0","1","","0.4344757896","false","93","","0.4745032584","main_expt","","0.1991535532","","0.4344757896","","0.4354989634","","","","","",""
"51","","bandit","169","603274","0.0-131.0-0.0","96664144","wem/bandit_single","A2C7PADOTOMFT6","pain","6","","75","K","2","","0","1","0","","0.4540573516","false","94","","0.4713826624","main_expt","","0.2072674268","","0.4540573516","","0.4569950804","","","","","",""
"498","","bandit","170","605544","0.0-132.0-0.0","96664144","wem/bandit_single","A2C7PADOTOMFT6","pain","6","","75","K","2","","0","0","1","","0.467393544","false","95","","0.4518091014","main_expt","","0.2139910976","","0.467393544","","0.4626037768","","","","","",""
"48","","bandit","171","607366","0.0-133.0-0.0","96664144","wem/bandit_single","A2C7PADOTOMFT6","pain","6","","75","K","2","","0","0","1","","0.4523779492","false","96","","0.4610288074","main_expt","","0.1714021876","","0.4523779492","","0.4632162831","","","","","",""
"48","","bandit","172","609189","0.0-134.0-0.0","96664144","wem/bandit_single","A2C7PADOTOMFT6","pain","6","","75","K","2","","0","0","1","","0.4734298584","false","97","","0.4610411697","main_expt","","0.1776734449","","0.4734298584","","0.4574348148","","","","","",""
"59","","bandit","173","611017","0.0-135.0-0.0","96664144","wem/bandit_single","A2C7PADOTOMFT6","pain","6","","75","K","2","","0","1","0","","0.4822123269","false","98","","0.4658458747","main_expt","","0.2143852757","","0.4822123269","","0.4551488225","","","","","",""
"50","","bandit","174","612834","0.0-136.0-0.0","96664144","wem/bandit_single","A2C7PADOTOMFT6","pain","6","","75","K","2","","0","1","0","","0.4829706494","false","99","","0.4372748216","main_expt","","0.2341872784","","0.4829706494","","0.4604873832","","","","","",""
"399","","bandit","175","615006","0.0-137.0-0.0","96664144","wem/bandit_single","A2C7PADOTOMFT6","pain","6","","75","K","2","","0","1","0","","0.4918551361","false","100","","0.4237986198","main_expt","","0.2835639283","","0.4918551361","","0.4364445071","","","","","",""
"372","","bandit","176","617151","0.0-138.0-0.0","96664144","wem/bandit_single","A2C7PADOTOMFT6","pain","6","","75","K","2","","0","0","1","","0.4891782125","false","101","","0.4239408107","main_expt","","0.3342764243","","0.4891782125","","0.4152010141","","","","","",""
"78","","bandit","177","618993","0.0-139.0-0.0","96664144","wem/bandit_single","A2C7PADOTOMFT6","pain","6","","75","K","2","","0","0","1","","0.484620563","false","102","","0.4482877494","main_expt","","0.3693598309","","0.484620563","","0.4463558977","","","","","",""
"39","","bandit","178","620805","0.0-140.0-0.0","96664144","wem/bandit_single","A2C7PADOTOMFT6","pain","6","","75","K","2","","0","0","1","","0.4880888492","false","103","","0.4319618448","main_expt","","0.3465782007","","0.4880888492","","0.4519222506","","","","","",""
"19","","bandit","179","622589","0.0-141.0-0.0","96664144","wem/bandit_single","A2C7PADOTOMFT6","pain","6","","75","K","2","","0","0","1","","0.4862983338","false","104","","0.3989131432","main_expt","","0.356437927","","0.4862983338","","0.44950272","","","","","",""
"150","","bandit","180","624504","0.0-142.0-0.0","96664144","wem/bandit_single","A2C7PADOTOMFT6","pain","6","","74","J","1","","0","0","1","","0.349556789","false","105","","0.3718051273","main_expt","","0.349556789","","0.4761426531","","0.4631277203","","","","","",""
"306","","bandit","181","626577","0.0-143.0-0.0","96664144","wem/bandit_single","A2C7PADOTOMFT6","pain","6","","74","J","1","","0","1","0","","0.3368343046","false","106","","0.3820213715","main_expt","","0.3368343046","","0.4724420891","","0.4761070442","","","","","",""
"217","","bandit","182","628565","0.0-144.0-0.0","96664144","wem/bandit_single","A2C7PADOTOMFT6","pain","6","","74","J","1","","0","0","1","","0.3492990444","false","107","","0.3903902173","main_expt","","0.3492990444","","0.4544285192","","0.4574049266","","","","","",""
"83","","bandit","183","630418","0.0-145.0-0.0","96664144","wem/bandit_single","A2C7PADOTOMFT6","pain","6","","74","J","1","","0","1","0","","0.3657086014","false","108","","0.424383047","main_expt","","0.3657086014","","0.4489506099","","0.4342229458","","","","","",""
"46","","bandit","184","632234","0.0-146.0-0.0","96664144","wem/bandit_single","A2C7PADOTOMFT6","pain","6","","74","J","1","","0","0","1","","0.3473329542","false","109","","0.3732822228","main_expt","","0.3473329542","","0.4357570441","","0.4437976733","","","","","",""
"5","","bandit","185","634011","0.0-147.0-0.0","96664144","wem/bandit_single","A2C7PADOTOMFT6","pain","6","","74","J","1","","0","0","1","","0.3937482981","false","110","","0.3545846445","main_expt","","0.3937482981","","0.4243789051","","0.4131704669","","","","","",""
"21","","bandit","186","635804","0.0-148.0-0.0","96664144","wem/bandit_single","A2C7PADOTOMFT6","pain","6","","74","J","1","","0","1","0","","0.4067223002","false","111","","0.2861948885","main_expt","","0.4067223002","","0.4235572131","","0.3849612216","","","","","",""
"4","","bandit","187","637595","0.0-149.0-0.0","96664144","wem/bandit_single","A2C7PADOTOMFT6","pain","6","","72","H","0","img/none_selected.jpg","0","0","1","","0.3148935151","false","112","","0.3148935151","main_expt","","0.3791461054","","0.4216330179","","0.4197473064","","","","","",""
"560","","bandit","188","639930","0.0-150.0-0.0","96664144","wem/bandit_single","A2C7PADOTOMFT6","pain","6","","72","H","0","img/none_selected.jpg","0","0","1","","0.310891148","false","113","","0.310891148","main_expt","","0.3697872407","","0.3981229654","","0.4477672952","","","","","",""
"49","","bandit","189","641747","0.0-151.0-0.0","96664144","wem/bandit_single","A2C7PADOTOMFT6","pain","6","","74","J","1","","0","0","1","","0.3542284497","false","114","","0.3312817134","main_expt","","0.3542284497","","0.4051483532","","0.4347577032","","","","","",""
"319","","bandit","190","643844","0.0-152.0-0.0","96664144","wem/bandit_single","A2C7PADOTOMFT6","pain","6","","74","J","1","","0","1","0","","0.3424252445","false","115","","0.3328181623","main_expt","","0.3424252445","","0.3664587937","","0.4123529648","","","","","",""
"282","","bandit","191","645896","0.0-153.0-0.0","96664144","wem/bandit_single","A2C7PADOTOMFT6","pain","6","","74","J","1","","0","0","1","","0.3364913945","false","116","","0.282168926","main_expt","","0.3364913945","","0.3815824605","","0.4374051313","","","","","",""
"31","","bandit","192","647698","0.0-154.0-0.0","96664144","wem/bandit_single","A2C7PADOTOMFT6","pain","6","","74","J","1","","0","0","1","","0.3607093693","false","117","","0.3282440564","main_expt","","0.3607093693","","0.3718524962","","0.4336999329","","","","","",""
"195","","bandit","193","649665","0.0-155.0-0.0","96664144","wem/bandit_single","A2C7PADOTOMFT6","pain","6","","74","J","1","","0","0","1","","0.3651530194","false","118","","0.3735758205","main_expt","","0.3651530194","","0.3228128462","","0.4609057125","","","","","",""
"66","","bandit","194","651500","0.0-156.0-0.0","96664144","wem/bandit_single","A2C7PADOTOMFT6","pain","6","","72","H","0","img/none_selected.jpg","0","0","1","","0.4085136599","false","119","","0.4085136599","main_expt","","0.391691743","","0.3303119184","","0.4644995027","","","","","",""
"170","","bandit","195","653434","0.0-157.0-0.0","96664144","wem/bandit_single","A2C7PADOTOMFT6","pain","6","","76","L","3","","0","1","0","","0.4699288035","false","120","","0.4152109264","main_expt","","0.3892352466","","0.3566896217","","0.4699288035","","","","","",""
"102","","bandit","196","655309","0.0-158.0-0.0","96664144","wem/bandit_single","A2C7PADOTOMFT6","pain","6","","76","L","3","","0","1","0","","0.48416914","false","121","","0.4362055741","main_expt","","0.4119078466","","0.3938610898","","0.48416914","","","","","",""
"183","","bandit","197","657262","0.0-159.0-0.0","96664144","wem/bandit_single","A2C7PADOTOMFT6","pain","6","","76","L","3","","0","1","0","","0.4744752566","false","122","","0.4381361327","main_expt","","0.3864510994","","0.3846692282","","0.4744752566","","","","","",""
"796","","bandit","198","659826","0.0-160.0-0.0","96664144","wem/bandit_single","A2C7PADOTOMFT6","pain","6","","76","L","3","","0","0","1","","0.4770694964","false","123","","0.4266523018","main_expt","","0.3206095238","","0.3479888462","","0.4770694964","","","","","",""
"164","","bandit","199","661758","0.0-161.0-0.0","96664144","wem/bandit_single","A2C7PADOTOMFT6","pain","6","","76","L","3","","0","1","0","","0.4882663864","false","124","","0.3976500929","main_expt","","0.3004639257","","0.3446564944","","0.4882663864","","","","","",""
"65","","bandit","200","663591","0.0-162.0-0.0","96664144","wem/bandit_single","A2C7PADOTOMFT6","pain","6","","76","L","3","","0","1","0","","0.4867438878","false","125","","0.4004048686","main_expt","","0.2718713493","","0.3742116014","","0.4867438878","","","","","",""
"87","","bandit","201","665450","0.0-163.0-0.0","96664144","wem/bandit_single","A2C7PADOTOMFT6","pain","6","","76","L","3","","0","1","0","","0.4859509926","false","126","","0.3978852423","main_expt","","0.312825386","","0.3522130289","","0.4859509926","","","","","",""
"61","","bandit","202","667282","0.0-164.0-0.0","96664144","wem/bandit_single","A2C7PADOTOMFT6","pain","6","","76","L","3","","0","0","1","","0.4910312391","false","127","","0.4164913371","main_expt","","0.2929193121","","0.4136983804","","0.4910312391","","","","","",""
"65","","bandit","203","669118","0.0-165.0-0.0","96664144","wem/bandit_single","A2C7PADOTOMFT6","pain","6","","76","L","3","","0","1","0","","0.4916106826","false","128","","0.4273270633","main_expt","","0.3483635392","","0.3740150402","","0.4916106826","","","","","",""
"53","","bandit","204","670943","0.0-166.0-0.0","96664144","wem/bandit_single","A2C7PADOTOMFT6","pain","6","","76","L","3","","0","1","0","","0.4774596984","false","129","","0.4403517336","main_expt","","0.3180783589","","0.3561584853","","0.4774596984","","","","","",""
"22","","bandit","205","672734","0.0-167.0-0.0","96664144","wem/bandit_single","A2C7PADOTOMFT6","pain","6","","76","L","3","","0","1","0","","0.4792113904","false","130","","0.436469863","main_expt","","0.332672873","","0.3781611856","","0.4792113904","","","","","",""
"22","","bandit","206","674530","0.0-168.0-0.0","96664144","wem/bandit_single","A2C7PADOTOMFT6","pain","6","","76","L","3","","0","1","0","","0.4761250173","false","131","","0.467157068","main_expt","","0.3172252399","","0.3972118802","","0.4761250173","","","","","",""
"21","","bandit","207","676321","0.0-169.0-0.0","96664144","wem/bandit_single","A2C7PADOTOMFT6","pain","6","","76","L","3","","0","0","1","","0.4782449011","false","132","","0.4747764211","main_expt","","0.2808852702","","0.3951630556","","0.4782449011","","","","","",""
"418","","bandit","208","678505","0.0-170.0-0.0","96664144","wem/bandit_single","A2C7PADOTOMFT6","pain","6","","76","L","3","","0","0","1","","0.4789501527","false","133","","0.4662147581","main_expt","","0.2846237695","","0.3918056992","","0.4789501527","","","","","",""
"13","","bandit","209","680286","0.0-171.0-0.0","96664144","wem/bandit_single","A2C7PADOTOMFT6","pain","6","","76","L","3","","0","0","1","","0.4821877595","false","134","","0.4711951182","main_expt","","0.3115497245","","0.395342783","","0.4821877595","","","","","",""
"22","","bandit","210","682078","0.0-172.0-0.0","96664144","wem/bandit_single","A2C7PADOTOMFT6","pain","6","","76","L","3","","0","0","1","","0.4863767518","false","135","","0.4540730246","main_expt","","0.3413582918","","0.3867762939","","0.4863767518","","","","","",""
"44","","bandit","211","683891","0.0-173.0-0.0","96664144","wem/bandit_single","A2C7PADOTOMFT6","pain","6","","76","L","3","","0","0","1","","0.4887786445","false","136","","0.4412688847","main_expt","","0.316763081","","0.3929594686","","0.4887786445","","","","","",""
"242","","bandit","212","685908","0.0-174.0-0.0","96664144","wem/bandit_single","A2C7PADOTOMFT6","pain","6","","75","K","2","","0","0","1","","0.3067223256","false","137","","0.4585130214","main_expt","","0.2585559296","","0.3067223256","","0.4896902137","","","","","",""
"22","","bandit","213","687705","0.0-175.0-0.0","96664144","wem/bandit_single","A2C7PADOTOMFT6","pain","6","","75","K","2","","0","1","0","","0.3444805877","false","138","","0.4413786145","main_expt","","0.2320291273","","0.3444805877","","0.4754525561","","","","","",""
"378","","bandit","214","689846","0.0-176.0-0.0","96664144","wem/bandit_single","A2C7PADOTOMFT6","pain","6","","75","K","2","","0","1","0","","0.4025185773","false","139","","0.4235974169","main_expt","","0.2705305451","","0.4025185773","","0.4525902595","","","","","",""
"28","","bandit","215","691653","0.0-177.0-0.0","96664144","wem/bandit_single","A2C7PADOTOMFT6","pain","6","","75","K","2","","0","1","0","","0.4000290511","false","140","","0.3993595144","main_expt","","0.2115164241","","0.4000290511","","0.474141966","","","","","",""
"27","","bandit","216","693446","0.0-178.0-0.0","96664144","wem/bandit_single","A2C7PADOTOMFT6","pain","6","","75","K","2","","0","1","0","","0.4052231698","false","141","","0.3845482665","main_expt","","0.2166269704","","0.4052231698","","0.4642583801","","","","","",""
"48","","bandit","217","695263","0.0-179.0-0.0","96664144","wem/bandit_single","A2C7PADOTOMFT6","pain","6","","75","K","2","","0","1","0","","0.3881257509","false","142","","0.3636407915","main_expt","","0.2477117994","","0.3881257509","","0.4713728632","","","","","",""
"42","","bandit","218","697191","0.0-180.0-0.0","96664144","wem/bandit_single","A2C7PADOTOMFT6","pain","6","","75","K","2","","0","0","1","","0.4101759482","false","143","","0.3360879677","main_expt","","0.2347168821","","0.4101759482","","0.4714731714","","","","","",""
"134","","bandit","219","699108","0.0-181.0-0.0","96664144","wem/bandit_single","A2C7PADOTOMFT6","pain","6","","75","K","2","","0","1","0","","0.4100488723","false","144","","0.2886719504","main_expt","","0.190213181","","0.4100488723","","0.4777196865","","","","","",""
"74","","bandit","220","700952","0.0-182.0-0.0","96664144","wem/bandit_single","A2C7PADOTOMFT6","pain","6","","75","K","2","","0","1","0","","0.4294240464","false","145","","0.2607344777","main_expt","","0.2873677543","","0.4294240464","","0.467438704","","","","","",""
"28","","bandit","221","702748","0.0-183.0-0.0","96664144","wem/bandit_single","A2C7PADOTOMFT6","pain","6","","75","K","2","","0","1","0","","0.4447984025","false","146","","0.261523257","main_expt","","0.3434581746","","0.4447984025","","0.4764572222","","","","","",""
"158","","bandit","222","704669","0.0-184.0-0.0","96664144","wem/bandit_single","A2C7PADOTOMFT6","pain","6","","75","K","2","","0","1","0","","0.4339083406","false","147","","0.2768268543","main_expt","","0.3677167414","","0.4339083406","","0.4670163239","","","","","",""
"50","","bandit","223","706491","0.0-185.0-0.0","96664144","wem/bandit_single","A2C7PADOTOMFT6","pain","6","","75","K","2","","0","1","0","","0.4200875786","false","148","","0.2822793125","main_expt","","0.378672096","","0.4200875786","","0.4762727371","","","","","",""
"336","","bandit","224","708602","0.0-186.0-0.0","96664144","wem/bandit_single","A2C7PADOTOMFT6","pain","6","","75","K","2","","0","1","0","","0.4370731276","false","149","","0.3100291085","main_expt","","0.3447579657","","0.4370731276","","0.4763998188","","","","","",""
"63","","bandit","225","710466","0.0-187.0-0.0","96664144","wem/bandit_single","A2C7PADOTOMFT6","pain","6","","75","K","2","","0","0","1","","0.4606741766","false","150","","0.3473977335","main_expt","","0.3225325285","","0.4606741766","","0.4534074178","","","","","",""
"30","","bandit","226","712276","0.0-188.0-0.0","96664144","wem/bandit_single","A2C7PADOTOMFT6","pain","6","","75","K","2","","0","1","0","","0.4831185644","false","151","","0.3755194153","main_expt","","0.2971371866","","0.4831185644","","0.4518750411","","","","","",""
"72","","bandit","227","714116","0.0-189.0-0.0","96664144","wem/bandit_single","A2C7PADOTOMFT6","pain","6","","75","K","2","","0","1","0","","0.489350082","false","152","","0.3931135366","main_expt","","0.2436525959","","0.489350082","","0.4724220712","","","","","",""
"55","","bandit","228","715945","0.0-190.0-0.0","96664144","wem/bandit_single","A2C7PADOTOMFT6","pain","6","","75","K","2","","0","0","1","","0.4874668037","false","153","","0.3704791656","main_expt","","0.2745817176","","0.4874668037","","0.4655138208","","","","","",""
"317","","bandit","229","718035","0.0-191.0-0.0","96664144","wem/bandit_single","A2C7PADOTOMFT6","pain","6","","75","K","2","","0","0","1","","0.4906252114","false","154","","0.3918087328","main_expt","","0.2354012901","","0.4906252114","","0.466892577","","","","","",""
"106","","bandit","230","719910","0.0-192.0-0.0","96664144","wem/bandit_single","A2C7PADOTOMFT6","pain","6","","75","K","2","","0","1","0","","0.4807331657","false","155","","0.3629162862","main_expt","","0.2125693007","","0.4807331657","","0.4696525674","","","","","",""
"121","","bandit","231","721802","0.0-193.0-0.0","96664144","wem/bandit_single","A2C7PADOTOMFT6","pain","6","","75","K","2","","0","1","0","","0.4886913858","false","156","","0.3329402669","main_expt","","0.2344806361","","0.4886913858","","0.4798639378","","","","","",""
"196","","bandit","232","723764","0.0-194.0-0.0","96664144","wem/bandit_single","A2C7PADOTOMFT6","pain","6","","75","K","2","","0","0","1","","0.4791259403","false","157","","0.2681960896","main_expt","","0.1314384861","","0.4791259403","","0.4706110477","","","","","",""
"143","","bandit","233","725674","0.0-195.0-0.0","96664144","wem/bandit_single","A2C7PADOTOMFT6","pain","6","","75","K","2","","0","0","1","","0.4733263956","false","158","","0.2540197996","main_expt","","0.181857365","","0.4733263956","","0.4469873257","","","","","",""
"91","","bandit","234","727536","0.0-196.0-0.0","96664144","wem/bandit_single","A2C7PADOTOMFT6","pain","6","","75","K","2","","0","1","0","","0.4815819336","false","159","","0.2609952623","main_expt","","0.158015958","","0.4815819336","","0.4239904196","","","","","",""
"44","","bandit","235","729355","0.0-197.0-0.0","96664144","wem/bandit_single","A2C7PADOTOMFT6","pain","6","","75","K","2","","0","0","1","","0.4721468952","false","160","","0.2023108268","main_expt","","0.141078422","","0.4721468952","","0.4459131135","","","","","",""
"58","","bandit","236","731183","0.0-198.0-0.0","96664144","wem/bandit_single","A2C7PADOTOMFT6","pain","6","","75","K","2","","0","1","0","","0.4711146003","false","161","","0.2500661268","main_expt","","0.1347361735","","0.4711146003","","0.4186734055","","","","","",""
"20","","bandit","237","732971","0.0-199.0-0.0","96664144","wem/bandit_single","A2C7PADOTOMFT6","pain","6","","75","K","2","","0","0","1","","0.4712261849","false","162","","0.2540596089","main_expt","","0.09535719087","","0.4712261849","","0.3857154427","","","","","",""
"516","","bandit","238","735260","0.0-200.0-0.0","96664144","wem/bandit_single","A2C7PADOTOMFT6","pain","6","","75","K","2","","0","0","1","","0.4845321786","false","163","","0.2601053227","main_expt","","0.08326456225","","0.4845321786","","0.4174701589","","","","","",""
"98","","bandit","239","737133","0.0-201.0-0.0","96664144","wem/bandit_single","A2C7PADOTOMFT6","pain","6","","75","K","2","","0","1","0","","0.4759389929","false","164","","0.2541421927","main_expt","","0.09053498257","","0.4759389929","","0.3890878976","","","","","",""
"402","","bandit","240","739303","0.0-202.0-0.0","96664144","wem/bandit_single","A2C7PADOTOMFT6","pain","6","","75","K","2","","0","1","0","","0.4720948066","false","165","","0.2481661974","main_expt","","0.08506048778","","0.4720948066","","0.4138915172","","","","","",""
"414","","bandit","241","741488","0.0-203.0-0.0","96664144","wem/bandit_single","A2C7PADOTOMFT6","pain","6","","75","K","2","","0","1","0","","0.4785392204","false","166","","0.2774316831","main_expt","","0.1313511463","","0.4785392204","","0.3965001983","","","","","",""
"199","","bandit","242","743460","0.0-204.0-0.0","96664144","wem/bandit_single","A2C7PADOTOMFT6","pain","6","","75","K","2","","0","1","0","","0.4807372421","false","167","","0.2487678046","main_expt","","0.1176964862","","0.4807372421","","0.3565429409","","","","","",""
"127","","bandit","243","745356","0.0-205.0-0.0","96664144","wem/bandit_single","A2C7PADOTOMFT6","pain","6","","75","K","2","","0","0","1","","0.4679921472","false","168","","0.3058486258","main_expt","","0.08442850793","","0.4679921472","","0.3697134737","","","","","",""
"95","","bandit","244","747224","0.0-206.0-0.0","96664144","wem/bandit_single","A2C7PADOTOMFT6","pain","6","","75","K","2","","0","0","1","","0.4504326489","false","169","","0.3196595105","main_expt","","0.08508452716","","0.4504326489","","0.3754926497","","","","","",""
"313","","bandit","245","749312","0.0-207.0-0.0","96664144","wem/bandit_single","A2C7PADOTOMFT6","pain","6","","75","K","2","","0","0","1","","0.4575738232","false","170","","0.2675331271","main_expt","","0.06647736925","","0.4575738232","","0.3688606114","","","","","",""
"1","","bandit","246","751081","0.0-208.0-0.0","96664144","wem/bandit_single","A2C7PADOTOMFT6","pain","6","","74","J","1","","0","0","1","","0.05048422731","false","171","","0.2898788388","main_expt","","0.05048422731","","0.4515033555","","0.3548436987","","","","","",""
"356","","bandit","247","753206","0.0-209.0-0.0","96664144","wem/bandit_single","A2C7PADOTOMFT6","pain","6","","74","J","1","","0","1","0","","0.05782489063","false","172","","0.3066863737","main_expt","","0.05782489063","","0.4804896953","","0.3789739593","","","","","",""
"191","","bandit","248","755169","0.0-210.0-0.0","96664144","wem/bandit_single","A2C7PADOTOMFT6","pain","6","","74","J","1","","0","0","1","","0.05297704283","false","173","","0.2694007619","main_expt","","0.05297704283","","0.4915792717","","0.361488512","","","","","",""
"344","","bandit","249","757282","0.0-211.0-0.0","96664144","wem/bandit_single","A2C7PADOTOMFT6","pain","6","","74","J","1","","0","0","1","","0.05353397103","false","174","","0.2754062015","main_expt","","0.05353397103","","0.4861742571","","0.3460135238","","","","","",""
"226","","bandit","250","759276","0.0-212.0-0.0","96664144","wem/bandit_single","A2C7PADOTOMFT6","pain","6","","74","J","1","","0","0","1","","0.03778759003","false","175","","0.296446081","main_expt","","0.03778759003","","0.4817940596","","0.3522158256","","","","","",""
"15","","bandit","251","761061","0.0-213.0-0.0","96664144","wem/bandit_single","A2C7PADOTOMFT6","pain","6","","72","H","0","img/none_selected.jpg","0","1","0","","0.3058710094","false","176","","0.3058710094","main_expt","","0.02527008277","","0.4757066075","","0.2998164985","","","","","",""
"394","","bandit","252","763226","0.0-214.0-0.0","96664144","wem/bandit_single","A2C7PADOTOMFT6","pain","6","","72","H","0","img/none_selected.jpg","0","1","0","","0.2349503117","false","177","","0.2349503117","main_expt","","0.03305249037","","0.4781570811","","0.2523084086","","","","","",""
"403","","bandit","253","765401","0.0-215.0-0.0","96664144","wem/bandit_single","A2C7PADOTOMFT6","pain","6","","72","H","0","img/none_selected.jpg","0","1","0","","0.2619038699","false","178","","0.2619038699","main_expt","","0.03386287722","","0.4800614517","","0.304071788","","","","","",""
"203","","bandit","254","767377","0.0-216.0-0.0","96664144","wem/bandit_single","A2C7PADOTOMFT6","pain","6","","72","H","0","img/none_selected.jpg","0","1","0","","0.2830684205","false","179","","0.2830684205","main_expt","","0.04065763291","","0.4829502963","","0.2871062198","","","","","",""
"133","","bandit","255","769280","0.0-217.0-0.0","96664144","wem/bandit_single","A2C7PADOTOMFT6","pain","6","","72","H","0","img/none_selected.jpg","0","0","1","","0.3534450431","false","180","","0.3534450431","main_expt","","0.05743716857","","0.4858173281","","0.2266659288","","","","","",""
"152","","bandit","256","771208","0.0-218.0-0.0","96664144","wem/bandit_single","A2C7PADOTOMFT6","pain","6","","72","H","0","img/none_selected.jpg","0","0","1","","0.3212605574","false","181","","0.3212605574","main_expt","","0.04418568229","","0.4744777914","","0.221928096","","","","","",""
"140","","bandit","257","773119","0.0-219.0-0.0","96664144","wem/bandit_single","A2C7PADOTOMFT6","pain","6","","72","H","0","img/none_selected.jpg","0","1","0","","0.3315430587","false","182","","0.3315430587","main_expt","","0.08176319179","","0.4845259409","","0.2300829386","","","","","",""
"112","","bandit","258","775006","0.0-220.0-0.0","96664144","wem/bandit_single","A2C7PADOTOMFT6","pain","6","","72","H","0","img/none_selected.jpg","0","0","1","","0.3284942609","false","183","","0.3284942609","main_expt","","0.127405614","","0.481953826","","0.236046558","","","","","",""
"43","","bandit","259","776821","0.0-221.0-0.0","96664144","wem/bandit_single","A2C7PADOTOMFT6","pain","6","","72","H","0","img/none_selected.jpg","0","1","0","","0.3122619856","false","184","","0.3122619856","main_expt","","0.08615736955","","0.4855041368","","0.2923178249","","","","","",""
"577","","bandit","260","779165","0.0-222.0-0.0","96664144","wem/bandit_single","A2C7PADOTOMFT6","pain","6","","72","H","0","img/none_selected.jpg","0","0","1","","0.2923416166","false","185","","0.2923416166","main_expt","","0.1184297318","","0.4698046591","","0.2808840613","","","","","",""
"71","","bandit","261","781006","0.0-223.0-0.0","96664144","wem/bandit_single","A2C7PADOTOMFT6","pain","6","","72","H","0","img/none_selected.jpg","0","0","1","","0.2743414945","false","186","","0.2743414945","main_expt","","0.1909222977","","0.4595088788","","0.2016881086","","","","","",""
"629","","bandit","262","783408","0.0-224.0-0.0","96664144","wem/bandit_single","A2C7PADOTOMFT6","pain","6","","72","H","0","img/none_selected.jpg","0","0","1","","0.3313242874","false","187","","0.3313242874","main_expt","","0.156943311","","0.4646501277","","0.2403842116","","","","","",""
"213","","bandit","263","785385","0.0-225.0-0.0","96664144","wem/bandit_single","A2C7PADOTOMFT6","pain","6","","76","L","3","","0","0","1","","0.2559443775","false","188","","0.3665806697","main_expt","","0.139104156","","0.4587354039","","0.2559443775","","","","","",""
"62","","bandit","264","787217","0.0-226.0-0.0","96664144","wem/bandit_single","A2C7PADOTOMFT6","pain","6","","76","L","3","","0","1","0","","0.2450962267","false","189","","0.3982105691","main_expt","","0.1984961232","","0.4433819168","","0.2450962267","","","","","",""
"155","","bandit","265","789142","0.0-227.0-0.0","96664144","wem/bandit_single","A2C7PADOTOMFT6","pain","6","","76","L","3","","0","1","0","","0.2520413598","false","190","","0.4063069195","main_expt","","0.3152507924","","0.441597313","","0.2520413598","","","","","",""
"176","","bandit","266","791088","0.0-228.0-0.0","96664144","wem/bandit_single","A2C7PADOTOMFT6","pain","6","","76","L","3","","0","0","1","","0.3069822625","false","191","","0.4073058099","main_expt","","0.34868685","","0.4447050695","","0.3069822625","","","","","",""
"10","","bandit","267","792872","0.0-229.0-0.0","96664144","wem/bandit_single","A2C7PADOTOMFT6","pain","6","","76","L","3","","0","0","1","","0.269658105","false","192","","0.3597632315","main_expt","","0.3244392246","","0.3903647542","","0.269658105","","","","","",""
"149","","bandit","268","794790","0.0-230.0-0.0","96664144","wem/bandit_single","A2C7PADOTOMFT6","pain","6","","76","L","3","","0","0","1","","0.2337652902","false","193","","0.3512918873","main_expt","","0.3077199203","","0.37796371","","0.2337652902","","","","","",""
"45","","bandit","269","796605","0.0-231.0-0.0","96664144","wem/bandit_single","A2C7PADOTOMFT6","pain","6","","75","K","2","","0","1","0","","0.4130200877","false","194","","0.2959519196","main_expt","","0.3089314305","","0.4130200877","","0.232364398","","","","","",""
"108","","bandit","270","798491","0.0-232.0-0.0","96664144","wem/bandit_single","A2C7PADOTOMFT6","pain","6","","75","K","2","","0","0","1","","0.4247195967","false","195","","0.335494982","main_expt","","0.2747286701","","0.4247195967","","0.3001816851","","","","","",""
"166","","bandit","271","800435","0.0-233.0-0.0","96664144","wem/bandit_single","A2C7PADOTOMFT6","pain","6","","75","K","2","","0","0","1","","0.4243543636","false","196","","0.349715921","main_expt","","0.234477082","","0.4243543636","","0.3408234979","","","","","",""
"383","","bandit","272","802586","0.0-234.0-0.0","96664144","wem/bandit_single","A2C7PADOTOMFT6","pain","6","","74","J","1","","0","0","1","","0.2134381397","false","197","","0.301359959","main_expt","","0.2134381397","","0.3856928417","","0.3048500693","","","","","",""
"503","","bandit","273","804861","0.0-235.0-0.0","96664144","wem/bandit_single","A2C7PADOTOMFT6","pain","6","","76","L","3","","0","0","1","","0.320222978","false","198","","0.2948231879","main_expt","","0.1732682886","","0.3619593125","","0.320222978","","","","","",""
"85","","bandit","274","806722","0.0-236.0-0.0","96664144","wem/bandit_single","A2C7PADOTOMFT6","pain","6","","76","L","3","","0","0","1","","0.3267381451","false","199","","0.2739130918","main_expt","","0.1702760897","","0.367752629","","0.3267381451","","","","","",""
"75","","bandit","275","808567","0.0-237.0-0.0","96664144","wem/bandit_single","A2C7PADOTOMFT6","pain","6","","76","L","3","","0","1","0","","0.3471124056","false","200","","0.2519174554","main_expt","","0.1149890083","","0.3243939248","","0.3471124056","","","","","",""
"126","","bandit","276","810467","0.0-238.0-0.0","96664144","wem/bandit_single","A2C7PADOTOMFT6","pain","6","","76","L","3","","0","1","0","","0.377370495","false","201","","0.2607800984","main_expt","","0.1378425817","","0.309205964","","0.377370495","","","","","",""
"5","","bandit","277","812248","0.0-239.0-0.0","96664144","wem/bandit_single","A2C7PADOTOMFT6","pain","6","","76","L","3","","0","1","0","","0.4118986778","false","202","","0.2144757733","main_expt","","0.1351165101","","0.2762714965","","0.4118986778","","","","","",""
"123","","bandit","278","814143","0.0-240.0-0.0","96664144","wem/bandit_single","A2C7PADOTOMFT6","pain","6","","76","L","3","","0","0","1","","0.4232074982","false","203","","0.3006883459","main_expt","","0.105254576","","0.296808735","","0.4232074982","","","","","",""
"24","","bandit","279","815939","0.0-241.0-0.0","96664144","wem/bandit_single","A2C7PADOTOMFT6","pain","6","","76","L","3","","0","0","1","","0.422672589","false","204","","0.3059688055","main_expt","","0.09939331469","","0.3198559136","","0.422672589","","","","","",""
"182","","bandit","280","817896","0.0-242.0-0.0","96664144","wem/bandit_single","A2C7PADOTOMFT6","pain","6","","76","L","3","","0","1","0","","0.4290364806","false","205","","0.2810212056","main_expt","","0.1099723927","","0.3814451683","","0.4290364806","","","","","",""
"1261","","bandit","281","820926","0.0-243.0-0.0","96664144","wem/bandit_single","A2C7PADOTOMFT6","pain","6","","76","L","3","","0","0","1","","0.4412489094","false","206","","0.2427537705","main_expt","","0.1203356594","","0.3836436308","","0.4412489094","","","","","",""
"110","","bandit","282","822808","0.0-244.0-0.0","96664144","wem/bandit_single","A2C7PADOTOMFT6","pain","6","","76","L","3","","0","1","0","","0.461161346","false","207","","0.2312113295","main_expt","","0.1887874267","","0.3943212714","","0.461161346","","","","","",""
"110","","bandit","283","824687","0.0-245.0-0.0","96664144","wem/bandit_single","A2C7PADOTOMFT6","pain","6","","76","L","3","","0","0","1","","0.4749000037","false","208","","0.2502246517","main_expt","","0.1570662604","","0.4100076043","","0.4749000037","","","","","",""
"25","","bandit","284","826484","0.0-246.0-0.0","96664144","wem/bandit_single","A2C7PADOTOMFT6","pain","6","","76","L","3","","0","0","1","","0.4677638209","false","209","","0.2378747501","main_expt","","0.2050570797","","0.4207901851","","0.4677638209","","","","","",""
"361","","bandit","285","828611","0.0-247.0-0.0","96664144","wem/bandit_single","A2C7PADOTOMFT6","pain","6","","75","K","2","","0","0","1","","0.4261573075","false","210","","0.2323826376","main_expt","","0.1803355731","","0.4261573075","","0.4507398287","","","","","",""
"57","","bandit","286","830441","0.0-248.0-0.0","96664144","wem/bandit_single","A2C7PADOTOMFT6","pain","6","","75","K","2","","0","0","1","","0.3677002177","false","211","","0.2346446126","main_expt","","0.2066302241","","0.3677002177","","0.4275102647","","","","","",""
"125","","bandit","287","832347","0.0-249.0-0.0","96664144","wem/bandit_single","A2C7PADOTOMFT6","pain","6","","76","L","3","","0","0","1","","0.4147803006","false","212","","0.2017096022","main_expt","","0.2190460355","","0.4030871251","","0.4147803006","","","","","",""
"28","","bandit","288","834149","0.0-250.0-0.0","96664144","wem/bandit_single","A2C7PADOTOMFT6","pain","6","","76","L","3","","0","0","1","","0.4119553225","false","213","","0.2149770465","main_expt","","0.2433731683","","0.3616850983","","0.4119553225","","","","","",""
"48","","bandit","289","835972","0.0-251.0-0.0","96664144","wem/bandit_single","A2C7PADOTOMFT6","pain","6","","74","J","1","","0","1","0","","0.2355486522","false","214","","0.2323699387","main_expt","","0.2355486522","","0.3380837625","","0.4097086646","","","","","",""
"241","","bandit","290","837983","0.0-252.0-0.0","96664144","wem/bandit_single","A2C7PADOTOMFT6","pain","6","","74","J","1","","0","1","0","","0.2493822419","false","215","","0.1880023584","main_expt","","0.2493822419","","0.3788103814","","0.4553079268","","","","","",""
"239","","bandit","291","840001","0.0-253.0-0.0","96664144","wem/bandit_single","A2C7PADOTOMFT6","pain","6","","74","J","1","","0","0","1","","0.2455091026","false","216","","0.2305078945","main_expt","","0.2455091026","","0.3844600678","","0.4360341733","","","","","",""
"116","","bandit","292","841894","0.0-254.0-0.0","96664144","wem/bandit_single","A2C7PADOTOMFT6","pain","6","","74","J","1","","0","0","1","","0.193913996","false","217","","0.2042922501","main_expt","","0.193913996","","0.3747540642","","0.4337093526","","","","","",""
"91","","bandit","293","843753","0.0-255.0-0.0","96664144","wem/bandit_single","A2C7PADOTOMFT6","pain","6","","74","J","1","","0","0","1","","0.2375794361","false","218","","0.1827914188","main_expt","","0.2375794361","","0.373903774","","0.4646024675","","","","","",""
"8","","bandit","294","845531","0.0-256.0-0.0","96664144","wem/bandit_single","A2C7PADOTOMFT6","pain","6","","72","H","0","img/none_selected.jpg","0","1","0","","0.2630445196","false","219","","0.2630445196","main_expt","","0.2477723709","","0.3735380413","","0.4630893692","","","","","",""
"132","","bandit","295","847439","0.0-257.0-0.0","96664144","wem/bandit_single","A2C7PADOTOMFT6","pain","6","","72","H","0","img/none_selected.jpg","0","0","1","","0.311946342","false","220","","0.311946342","main_expt","","0.2543503475","","0.383917491","","0.4683356487","","","","","",""
"149","","bandit","296","849364","0.0-258.0-0.0","96664144","wem/bandit_single","A2C7PADOTOMFT6","pain","6","","72","H","0","img/none_selected.jpg","0","0","1","","0.2972788283","false","221","","0.2972788283","main_expt","","0.2776519347","","0.3479973737","","0.4682635517","","","","","",""
"25","","bandit","297","851164","0.0-259.0-0.0","96664144","wem/bandit_single","A2C7PADOTOMFT6","pain","6","","72","H","0","img/none_selected.jpg","0","0","1","","0.3550400804","false","222","","0.3550400804","main_expt","","0.2291835432","","0.3845595158","","0.4771668828","","","","","",""
"30","","bandit","298","852969","0.0-260.0-0.0","96664144","wem/bandit_single","A2C7PADOTOMFT6","pain","6","","74","J","1","","0","0","1","","0.2266132179","false","223","","0.3246239653","main_expt","","0.2266132179","","0.368723436","","0.4773959318","","","","","",""
"32","","bandit","299","854774","0.0-261.0-0.0","96664144","wem/bandit_single","A2C7PADOTOMFT6","pain","6","","74","J","1","","0","0","1","","0.2124948974","false","224","","0.351266899","main_expt","","0.2124948974","","0.3566991655","","0.4567335023","","","","","",""
"106","","bandit","300","856649","0.0-262.0-0.0","96664144","wem/bandit_single","A2C7PADOTOMFT6","pain","6","","75","K","2","","0","0","1","","0.3557331736","false","225","","0.3617362435","main_expt","","0.2168010387","","0.3557331736","","0.4545703871","","","","","",""
"181","","bandit","301","858605","0.0-263.0-0.0","96664144","wem/bandit_single","A2C7PADOTOMFT6","pain","6","","75","K","2","","0","0","1","","0.3620904828","false","226","","0.3625162538","main_expt","","0.2286352314","","0.3620904828","","0.4563055184","","","","","",""
"157","","bandit","302","860530","0.0-264.0-0.0","96664144","wem/bandit_single","A2C7PADOTOMFT6","pain","6","","76","L","3","","0","0","1","","0.4414344485","false","227","","0.3638477037","main_expt","","0.2349833204","","0.3794330306","","0.4414344485","","","","","",""
"181","","bandit","303","862489","0.0-265.0-0.0","96664144","wem/bandit_single","A2C7PADOTOMFT6","pain","6","","76","L","3","","0","1","0","","0.4509897562","false","228","","0.321865515","main_expt","","0.2376541641","","0.3480060926","","0.4509897562","","","","","",""
"119","","bandit","304","864386","0.0-266.0-0.0","96664144","wem/bandit_single","A2C7PADOTOMFT6","pain","6","","76","L","3","","0","0","1","","0.4355264455","false","229","","0.2574970425","main_expt","","0.2141250471","","0.3197951212","","0.4355264455","","","","","",""
"105","","bandit","305","866264","0.0-267.0-0.0","96664144","wem/bandit_single","A2C7PADOTOMFT6","pain","6","","76","L","3","","0","0","1","","0.4393215817","false","230","","0.3167366343","main_expt","","0.1986478114","","0.2360623461","","0.4393215817","","","","","",""
"180","","bandit","306","868223","0.0-268.0-0.0","96664144","wem/bandit_single","A2C7PADOTOMFT6","pain","6","","76","L","3","","0","1","0","","0.426442838","false","231","","0.359889087","main_expt","","0.1632677176","","0.228441671","","0.426442838","","","","","",""
"121","","bandit","307","870113","0.0-269.0-0.0","96664144","wem/bandit_single","A2C7PADOTOMFT6","pain","6","","76","L","3","","0","0","1","","0.4455015341","false","232","","0.3765691143","main_expt","","0.1437929512","","0.2233622879","","0.4455015341","","","","","",""
"692","","bandit","308","872580","0.0-270.0-0.0","96664144","wem/bandit_single","A2C7PADOTOMFT6","pain","6","","76","L","3","","0","0","1","","0.4370113712","false","233","","0.351320345","main_expt","","0.2490618922","","0.1782647691","","0.4370113712","","","","","",""
"170","","bandit","309","874525","0.0-271.0-0.0","96664144","wem/bandit_single","A2C7PADOTOMFT6","pain","6","","76","L","3","","0","1","0","","0.4228056097","false","234","","0.2997083133","main_expt","","0.2811602772","","0.1971530904","","0.4228056097","","","","","",""
"178","","bandit","310","876479","0.0-272.0-0.0","96664144","wem/bandit_single","A2C7PADOTOMFT6","pain","6","","76","L","3","","0","1","0","","0.4176536857","false","235","","0.3526624454","main_expt","","0.332316849","","0.2109348075","","0.4176536857","","","","","",""
"82","","bandit","311","878342","0.0-273.0-0.0","96664144","wem/bandit_single","A2C7PADOTOMFT6","pain","6","","76","L","3","","0","0","1","","0.419442654","false","236","","0.3050627859","main_expt","","0.3059905229","","0.1891579582","","0.419442654","","","","","",""
"0","","bandit","312","880118","0.0-274.0-0.0","96664144","wem/bandit_single","A2C7PADOTOMFT6","pain","6","","76","L","3","","0","1","0","","0.4082659589","false","237","","0.312969263","main_expt","","0.3058344165","","0.1278978542","","0.4082659589","","","","","",""
"37","","bandit","313","881935","0.0-275.0-0.0","96664144","wem/bandit_single","A2C7PADOTOMFT6","pain","6","","76","L","3","","0","1","0","","0.4108407801","false","238","","0.380225341","main_expt","","0.2931512536","","0.1509653188","","0.4108407801","","","","","",""
"59","","bandit","314","883761","0.0-276.0-0.0","96664144","wem/bandit_single","A2C7PADOTOMFT6","pain","6","","76","L","3","","0","0","1","","0.4378360478","false","239","","0.3657076542","main_expt","","0.2922133777","","0.1919733462","","0.4378360478","","","","","",""
"142","","bandit","315","885679","0.0-277.0-0.0","96664144","wem/bandit_single","A2C7PADOTOMFT6","pain","6","","76","L","3","","0","0","1","","0.4467030129","false","240","","0.3815359164","main_expt","","0.3452033359","","0.1751407906","","0.4467030129","","","","","",""
"274","","bandit","316","887724","0.0-278.0-0.0","96664144","wem/bandit_single","A2C7PADOTOMFT6","pain","6","","75","K","2","","0","1","0","","0.1759125222","false","241","","0.3251101936","main_expt","","0.3682897549","","0.1759125222","","0.4705393647","","","","","",""
"587","","bandit","317","890085","0.0-279.0-0.0","96664144","wem/bandit_single","A2C7PADOTOMFT6","pain","6","","75","K","2","","0","0","1","","0.2137068054","false","242","","0.3212185421","main_expt","","0.3628947189","","0.2137068054","","0.4610792938","","","","","",""
"64","","bandit","318","891929","0.0-280.0-0.0","96664144","wem/bandit_single","A2C7PADOTOMFT6","pain","6","","75","K","2","","0","0","1","","0.2179170348","false","243","","0.3270030252","main_expt","","0.3766569032","","0.2179170348","","0.4437729889","","","","","",""
"86","","bandit","319","893790","0.0-281.0-0.0","96664144","wem/bandit_single","A2C7PADOTOMFT6","pain","6","","75","K","2","","0","1","0","","0.2426329099","false","244","","0.309973419","main_expt","","0.377991886","","0.2426329099","","0.4199869792","","","","","",""
"210","","bandit","320","895769","0.0-282.0-0.0","96664144","wem/bandit_single","A2C7PADOTOMFT6","pain","6","","75","K","2","","0","1","0","","0.2351694379","false","245","","0.3342881273","main_expt","","0.304751896","","0.2351694379","","0.4183767379","","","","","",""
"228","","bandit","321","897771","0.0-283.0-0.0","96664144","wem/bandit_single","A2C7PADOTOMFT6","pain","6","","75","K","2","","0","0","1","","0.2111663312","false","246","","0.3149240913","main_expt","","0.3348187262","","0.2111663312","","0.4292136751","","","","","",""
"229","","bandit","322","899775","0.0-284.0-0.0","96664144","wem/bandit_single","A2C7PADOTOMFT6","pain","6","","75","K","2","","0","1","0","","0.1899020887","false","247","","0.296458043","main_expt","","0.3307987246","","0.1899020887","","0.4577956797","","","","","",""
"206","","bandit","323","901754","0.0-285.0-0.0","96664144","wem/bandit_single","A2C7PADOTOMFT6","pain","6","","75","K","2","","0","0","1","","0.2151484255","false","248","","0.3038576119","main_expt","","0.3774544282","","0.2151484255","","0.4586239927","","","","","",""
"72","","bandit","324","903606","0.0-286.0-0.0","96664144","wem/bandit_single","A2C7PADOTOMFT6","pain","6","","75","K","2","","0","0","1","","0.2454548658","false","249","","0.3383832125","main_expt","","0.3553688181","","0.2454548658","","0.4709187109","","","","","",""
"219","","bandit","325","905601","0.0-287.0-0.0","96664144","wem/bandit_single","A2C7PADOTOMFT6","pain","6","","75","K","2","","0","0","1","","0.1973527755","false","250","","0.3505221498","main_expt","","0.3209961504","","0.1973527755","","0.4742496359","","","","","",""
"7","","bandit","326","907378","0.0-288.0-0.0","96664144","wem/bandit_single","A2C7PADOTOMFT6","pain","6","","75","K","2","","0","0","1","","0.2459600056","false","251","","0.3439557404","main_expt","","0.2938420796","","0.2459600056","","0.4684276702","","","","","",""
"150","","bandit","327","909301","0.0-289.0-0.0","96664144","wem/bandit_single","A2C7PADOTOMFT6","pain","6","","74","J","1","","0","0","1","","0.2377141092","false","252","","0.3394881367","main_expt","","0.2377141092","","0.2361341643","","0.465775704","","","","","",""
"108","","bandit","328","911184","0.0-290.0-0.0","96664144","wem/bandit_single","A2C7PADOTOMFT6","pain","6","","74","J","1","","0","0","1","","0.28098189","false","253","","0.3195186677","main_expt","","0.28098189","","0.2263014677","","0.4739398589","","","","","",""
"39","","bandit","329","912996","0.0-291.0-0.0","96664144","wem/bandit_single","A2C7PADOTOMFT6","pain","6","","74","J","1","","0","0","1","","0.36168886","false","254","","0.3607388593","main_expt","","0.36168886","","0.2384195691","","0.4709597483","","","","","",""
"41","","bandit","330","914815","0.0-292.0-0.0","96664144","wem/bandit_single","A2C7PADOTOMFT6","pain","6","","72","H","0","img/none_selected.jpg","0","0","1","","0.3801942793","false","255","","0.3801942793","main_expt","","0.3196270919","","0.2186709452","","0.468651231","","","","","",""
"11","","bandit","331","916604","0.0-293.0-0.0","96664144","wem/bandit_single","A2C7PADOTOMFT6","pain","6","","72","H","0","img/none_selected.jpg","0","0","1","","0.2987962353","false","256","","0.2987962353","main_expt","","0.3201998045","","0.1625458568","","0.4837462493","","","","","",""
"515","","bandit","332","918893","0.0-294.0-0.0","96664144","wem/bandit_single","A2C7PADOTOMFT6","pain","6","","72","H","0","img/none_selected.jpg","0","0","1","","0.272571782","false","257","","0.272571782","main_expt","","0.3576002339","","0.159361747","","0.4842399178","","","","","",""
"127","","bandit","333","920795","0.0-295.0-0.0","96664144","wem/bandit_single","A2C7PADOTOMFT6","pain","6","","75","K","2","","0","0","1","","0.1556255119","false","258","","0.2593204486","main_expt","","0.3715220428","","0.1556255119","","0.4878873921","","","","","",""
"86","","bandit","334","922663","0.0-296.0-0.0","96664144","wem/bandit_single","A2C7PADOTOMFT6","pain","6","","76","L","3","","0","0","1","","0.4869160663","false","259","","0.2951424317","main_expt","","0.3730860303","","0.1256368346","","0.4869160663","","","","","",""
"88","","bandit","335","924521","0.0-297.0-0.0","96664144","wem/bandit_single","A2C7PADOTOMFT6","pain","6","","76","L","3","","0","0","1","","0.4912834456","false","260","","0.2369093976","main_expt","","0.3724964978","","0.1449854444","","0.4912834456","","","","","",""
"173","","bandit","336","926471","0.0-298.0-0.0","96664144","wem/bandit_single","A2C7PADOTOMFT6","pain","6","","76","L","3","","0","1","0","","0.4907072989","false","261","","0.2234433316","main_expt","","0.3574286068","","0.1647157085","","0.4907072989","","","","","",""
"9","","bandit","337","928248","0.0-299.0-0.0","96664144","wem/bandit_single","A2C7PADOTOMFT6","pain","6","","76","L","3","","0","0","1","","0.4904114062","false","262","","0.215626833","main_expt","","0.4204463107","","0.1586541082","","0.4904114062","","","","","",""
"592","","bandit","338","930611","0.0-300.0-0.0","96664144","wem/bandit_single","A2C7PADOTOMFT6","pain","6","","76","L","3","","0","0","1","","0.4900075499","false","263","","0.2227197798","main_expt","","0.4244263348","","0.1683870388","","0.4900075499","","","","","",""
"80","","bandit","339","932468","0.0-301.0-0.0","96664144","wem/bandit_single","A2C7PADOTOMFT6","pain","6","","75","K","2","","0","0","1","","0.2205087037","false","264","","0.2113558788","main_expt","","0.4217668892","","0.2205087037","","0.4922230388","","","","","",""
"179","","bandit","340","934419","0.0-302.0-0.0","96664144","wem/bandit_single","A2C7PADOTOMFT6","pain","6","","75","K","2","","0","1","0","","0.1554736059","false","265","","0.1814287308","main_expt","","0.3908218086","","0.1554736059","","0.4892111554","","","","","",""
"126","","bandit","341","936312","0.0-303.0-0.0","96664144","wem/bandit_single","A2C7PADOTOMFT6","pain","6","","75","K","2","","0","0","1","","0.1556775797","false","266","","0.2579261203","main_expt","","0.350583855","","0.1556775797","","0.4894097466","","","","","",""
"86","","bandit","342","938185","0.0-304.0-0.0","96664144","wem/bandit_single","A2C7PADOTOMFT6","pain","6","","75","K","2","","0","0","1","","0.1732223335","false","267","","0.3033521226","main_expt","","0.2971845499","","0.1732223335","","0.4898547377","","","","","",""
"269","","bandit","343","940226","0.0-305.0-0.0","96664144","wem/bandit_single","A2C7PADOTOMFT6","pain","6","","75","K","2","","0","1","0","","0.1670192172","false","268","","0.2697057224","main_expt","","0.3271935382","","0.1670192172","","0.4960714099","","","","","",""
"27","","bandit","344","942027","0.0-306.0-0.0","96664144","wem/bandit_single","A2C7PADOTOMFT6","pain","6","","75","K","2","","0","0","1","","0.1666577124","false","269","","0.3075876552","main_expt","","0.2912245063","","0.1666577124","","0.4951393121","","","","","",""
"474","","bandit","345","944276","0.0-307.0-0.0","96664144","wem/bandit_single","A2C7PADOTOMFT6","pain","6","","75","K","2","","0","0","1","","0.1133531577","false","270","","0.3437361696","main_expt","","0.3007980493","","0.1133531577","","0.4903783272","","","","","",""
"28","","bandit","346","946081","0.0-308.0-0.0","96664144","wem/bandit_single","A2C7PADOTOMFT6","pain","6","","75","K","2","","0","0","1","","0.1453503833","false","271","","0.2596534978","main_expt","","0.3025875308","","0.1453503833","","0.4932948231","","","","","",""
"670","","bandit","347","948525","0.0-309.0-0.0","96664144","wem/bandit_single","A2C7PADOTOMFT6","pain","6","","75","K","2","","0","0","1","","0.1542373291","false","272","","0.2680739133","main_expt","","0.2608882705","","0.1542373291","","0.4950636705","","","","","",""
"0","","bandit","348","950300","0.0-310.0-0.0","96664144","wem/bandit_single","A2C7PADOTOMFT6","pain","6","","75","K","2","","0","0","1","","0.1312836042","false","273","","0.2287209558","main_expt","","0.2985246063","","0.1312836042","","0.4866982898","","","","","",""
"309","","bandit","349","952379","0.0-311.0-0.0","96664144","wem/bandit_single","A2C7PADOTOMFT6","pain","6","","74","J","1","","0","0","1","","0.296104213","false","274","","0.2659047846","main_expt","","0.296104213","","0.1616535947","","0.4654226264","","","","","",""
"103","","bandit","350","954255","0.0-312.0-0.0","96664144","wem/bandit_single","A2C7PADOTOMFT6","pain","6","","74","J","1","","0","0","1","","0.2897414639","false","275","","0.2303642271","main_expt","","0.2897414639","","0.163822666","","0.4633702838","","","","","",""
"67","","bandit","351","956098","0.0-313.0-0.0","96664144","wem/bandit_single","A2C7PADOTOMFT6","pain","6","","74","J","1","","0","1","0","","0.296822441","false","276","","0.2631654739","main_expt","","0.296822441","","0.1500588852","","0.4741710053","","","","","",""
"211","","bandit","352","958085","0.0-314.0-0.0","96664144","wem/bandit_single","A2C7PADOTOMFT6","pain","6","","74","J","1","","0","0","1","","0.2769528726","false","277","","0.2660527836","main_expt","","0.2769528726","","0.1975700973","","0.4821206929","","","","","",""
"22","","bandit","353","959885","0.0-315.0-0.0","96664144","wem/bandit_single","A2C7PADOTOMFT6","pain","6","","72","H","0","img/none_selected.jpg","0","0","1","","0.2869547209","false","278","","0.2869547209","main_expt","","0.3356585436","","0.1355298524","","0.4704549119","","","","","",""
"267","","bandit","354","961925","0.0-316.0-0.0","96664144","wem/bandit_single","A2C7PADOTOMFT6","pain","6","","72","H","0","img/none_selected.jpg","0","0","1","","0.3594721793","false","279","","0.3594721793","main_expt","","0.3222384225","","0.1437345226","","0.4749598821","","","","","",""
"399","","bandit","355","964098","0.0-317.0-0.0","96664144","wem/bandit_single","A2C7PADOTOMFT6","pain","6","","72","H","0","img/none_selected.jpg","0","0","1","","0.3903699723","false","280","","0.3903699723","main_expt","","0.27346357","","0.126787642","","0.4385317488","","","","","",""
"150","","bandit","356","966020","0.0-318.0-0.0","96664144","wem/bandit_single","A2C7PADOTOMFT6","pain","6","","76","L","3","","0","0","1","","0.4397970497","false","281","","0.4583904318","main_expt","","0.3633072925","","0.1765789866","","0.4397970497","","","","","",""
"18","","bandit","357","967813","0.0-319.0-0.0","96664144","wem/bandit_single","A2C7PADOTOMFT6","pain","6","","76","L","3","","0","1","0","","0.4485424667","false","282","","0.4689346609","main_expt","","0.3269934488","","0.1659157347","","0.4485424667","","","","","",""
"10","","bandit","358","969596","0.0-320.0-0.0","96664144","wem/bandit_single","A2C7PADOTOMFT6","pain","6","","76","L","3","","0","1","0","","0.4460930912","false","283","","0.460541741","main_expt","","0.324321327","","0.1876778028","","0.4460930912","","","","","",""
"151","","bandit","359","971523","0.0-321.0-0.0","96664144","wem/bandit_single","A2C7PADOTOMFT6","pain","6","","76","L","3","","0","1","0","","0.46041158","false","284","","0.4485703909","main_expt","","0.2677217275","","0.2072959333","","0.46041158","","","","","",""
"70","","bandit","360","973366","0.0-322.0-0.0","96664144","wem/bandit_single","A2C7PADOTOMFT6","pain","6","","76","L","3","","0","1","0","","0.4722631388","false","285","","0.4493749552","main_expt","","0.2832280908","","0.2171876524","","0.4722631388","","","","","",""
"36","","bandit","361","975174","0.0-323.0-0.0","96664144","wem/bandit_single","A2C7PADOTOMFT6","pain","6","","76","L","3","","0","1","0","","0.4710864859","false","286","","0.4223312446","main_expt","","0.3338799161","","0.224404947","","0.4710864859","","","","","",""
"69","","bandit","362","977020","0.0-324.0-0.0","96664144","wem/bandit_single","A2C7PADOTOMFT6","pain","6","","76","L","3","","0","1","0","","0.4400158941","false","287","","0.457140216","main_expt","","0.3484096991","","0.2249093708","","0.4400158941","","","","","",""
"418","","bandit","363","979209","0.0-325.0-0.0","96664144","wem/bandit_single","A2C7PADOTOMFT6","pain","6","","76","L","3","","0","0","1","","0.4036546776","false","288","","0.4411377771","main_expt","","0.3215301514","","0.2219747159","","0.4036546776","","","","","",""
"4","","bandit","364","980984","0.0-326.0-0.0","96664144","wem/bandit_single","A2C7PADOTOMFT6","pain","6","","76","L","3","","0","0","1","","0.4324218596","false","289","","0.4501271696","main_expt","","0.2965974011","","0.2183007497","","0.4324218596","","","","","",""
"157","","bandit","365","982916","0.0-327.0-0.0","96664144","wem/bandit_single","A2C7PADOTOMFT6","pain","6","","76","L","3","","0","0","1","","0.4536473803","false","290","","0.4436507911","main_expt","","0.2926361454","","0.2481136515","","0.4536473803","","","","","",""
"430","","bandit","366","985128","0.0-328.0-0.0","96664144","wem/bandit_single","A2C7PADOTOMFT6","pain","6","","76","L","3","","0","1","0","","0.4634661847","false","291","","0.4381939672","main_expt","","0.243163711","","0.2972088317","","0.4634661847","","","","","",""
"460","","bandit","367","987364","0.0-329.0-0.0","96664144","wem/bandit_single","A2C7PADOTOMFT6","pain","6","","76","L","3","","0","0","1","","0.4609966616","false","292","","0.4101305143","main_expt","","0.2064952975","","0.2998647236","","0.4609966616","","","","","",""
"118","","bandit","368","989268","0.0-330.0-0.0","96664144","wem/bandit_single","A2C7PADOTOMFT6","pain","6","","76","L","3","","0","0","1","","0.4648618971","false","293","","0.4297915702","main_expt","","0.2099334792","","0.2861810992","","0.4648618971","","","","","",""
"137","","bandit","369","991178","0.0-331.0-0.0","96664144","wem/bandit_single","A2C7PADOTOMFT6","pain","6","","76","L","3","","0","0","1","","0.4582487824","false","294","","0.4537219743","main_expt","","0.2507358833","","0.345484004","","0.4582487824","","","","","",""
"1","","bandit","370","992958","0.0-332.0-0.0","96664144","wem/bandit_single","A2C7PADOTOMFT6","pain","6","","76","L","3","","0","0","1","","0.4482247061","false","295","","0.4694953972","main_expt","","0.2494268831","","0.3251772281","","0.4482247061","","","","","",""
"381","","bandit","371","995115","0.0-333.0-0.0","96664144","wem/bandit_single","A2C7PADOTOMFT6","pain","6","","75","K","2","","0","1","0","","0.2953905587","false","296","","0.4880383038","main_expt","","0.2867080039","","0.2953905587","","0.42326912","","","","","",""
"36","","bandit","372","996922","0.0-334.0-0.0","96664144","wem/bandit_single","A2C7PADOTOMFT6","pain","6","","75","K","2","","0","1","0","","0.2717848064","false","297","","0.4916251568","main_expt","","0.2983387387","","0.2717848064","","0.4151021773","","","","","",""
"55","","bandit","373","998751","0.0-335.0-0.0","96664144","wem/bandit_single","A2C7PADOTOMFT6","pain","6","","75","K","2","","0","0","1","","0.2682571213","false","298","","0.4921476303","main_expt","","0.2982690602","","0.2682571213","","0.4270228344","","","","","",""
"36","","bandit","374","1000559","0.0-336.0-0.0","96664144","wem/bandit_single","A2C7PADOTOMFT6","pain","6","","75","K","2","","0","0","1","","0.2400439073","false","299","","0.4800884689","main_expt","","0.2955511463","","0.2400439073","","0.4168509428","","","","","",""
"518","","bandit","375","1002852","0.0-337.0-0.0","96664144","wem/bandit_single","A2C7PADOTOMFT6","pain","6","","75","K","2","","0","0","1","","0.2494994512","false","300","","0.4882901572","main_expt","","0.3236523504","","0.2494994512","","0.414464059","","","","","",""
"444","","bandit","376","1005075","0.0-338.0-0.0","96664144","wem/bandit_single","A2C7PADOTOMFT6","pain","6","","75","K","2","","0","0","1","","0.2511279273","false","301","","0.4849478036","main_expt","","0.2926345705","","0.2511279273","","0.423631951","","","","","",""
