"rt","responses","trial_type","trial_index","time_elapsed","internal_node_id","subjID","study","MID","cond","drift","key_press","respCharCode","respKey","respChoiceNum","respChoice","gems","bombs","no_reward","GemPrChosen","BombPrChosen","practice","trial_counter","WinPr_0","LosePr_0","trial_label","WinPr_1","LosePr_1","WinPr_2","LosePr_2","WinPr_3","LosePr_3","Q0","Q1","Q2","gender","age","ethnicity"
"14591","{""Q0"":""A1SH7LQFR0U8FK""}","survey-text","0","14609","0.0-0.0","97087123","wem/bandit_single","A1SH7LQFR0U8FK","gain","7","","","","","","","","","","","","","","","","","","","","","","","","","","",""
"2637","","text","1","18253","0.0-1.0","97087123","wem/bandit_single","A1SH7LQFR0U8FK","gain","7","32","","","","","","","","","","","","","","","","","","","","","","","","","",""
"1208","","text","2","19466","0.0-2.0","97087123","wem/bandit_single","A1SH7LQFR0U8FK","gain","7","32","","","","","","","","","","","","","","","","","","","","","","","","","",""
"29761","","text","3","49232","0.0-3.0","97087123","wem/bandit_single","A1SH7LQFR0U8FK","gain","7","32","","","","","","","","","","","","","","","","","","","","","","","","","",""
"13373","","text","4","62607","0.0-4.0","97087123","wem/bandit_single","A1SH7LQFR0U8FK","gain","7","32","","","","","","","","","","","","","","","","","","","","","","","","","",""
"11267","","text","5","73877","0.0-5.0","97087123","wem/bandit_single","A1SH7LQFR0U8FK","gain","7","32","","","","","","","","","","","","","","","","","","","","","","","","","",""
"4234","","text","6","78113","0.0-6.0","97087123","wem/bandit_single","A1SH7LQFR0U8FK","gain","7","32","","","","","","","","","","","","","","","","","","","","","","","","","",""
"5872","","text","7","83987","0.0-7.0","97087123","wem/bandit_single","A1SH7LQFR0U8FK","gain","7","32","","","","","","","","","","","","","","","","","","","","","","","","","",""
"4599","","text","8","88591","0.0-8.0","97087123","wem/bandit_single","A1SH7LQFR0U8FK","gain","7","32","","","","","","","","","","","","","","","","","","","","","","","","","",""
"2517","","text","9","91109","0.0-9.0","97087123","wem/bandit_single","A1SH7LQFR0U8FK","gain","7","32","","","","","","","","","","","","","","","","","","","","","","","","","",""
"4214","","text","10","95327","0.0-10.0","97087123","wem/bandit_single","A1SH7LQFR0U8FK","gain","7","32","","","","","","","","","","","","","","","","","","","","","","","","","",""
"5302","","text","11","100632","0.0-11.0","97087123","wem/bandit_single","A1SH7LQFR0U8FK","gain","7","32","","","","","","","","","","","","","","","","","","","","","","","","","",""
"1715","","bandit","12","103864","0.0-12.0-0.0","97087123","wem/bandit_single","A1SH7LQFR0U8FK","gain","7","","74","J","0","img/none_selected_demo.jpg","0","0","1","0","0","true","0","0","0","","","","","","","","","","","","",""
"1050","","bandit","13","106676","0.0-13.0-0.0","97087123","wem/bandit_single","A1SH7LQFR0U8FK","gain","7","","75","K","0","img/none_selected_demo.jpg","0","0","1","0","0","true","0","0","0","","","","","","","","","","","","",""
"4186","","text","14","111118","0.0-14.0","97087123","wem/bandit_single","A1SH7LQFR0U8FK","gain","7","32","","","","","","","","","","","","","","","","","","","","","","","","","",""
"2009","","text","15","113130","0.0-15.0","97087123","wem/bandit_single","A1SH7LQFR0U8FK","gain","7","32","","","","","","","","","","","","","","","","","","","","","","","","","",""
"4191","","text","16","117323","0.0-16.0","97087123","wem/bandit_single","A1SH7LQFR0U8FK","gain","7","32","","","","","","","","","","","","","","","","","","","","","","","","","",""
"1814","","text","17","119140","0.0-17.0","97087123","wem/bandit_single","A1SH7LQFR0U8FK","gain","7","32","","","","","","","","","","","","","","","","","","","","","","","","","",""
"1463","","bandit","18","122111","0.0-18.0-0.0","97087123","wem/bandit_single","A1SH7LQFR0U8FK","gain","7","","74","J","0","img/none_selected_demo.jpg","1","0","0","0.8","0","true","0","0.8","0","80_20_practice","0.2","0","","","","","","","","","",""
"348","","bandit","19","124223","0.0-18.0-1.0","97087123","wem/bandit_single","A1SH7LQFR0U8FK","gain","7","","74","J","0","img/none_selected_demo.jpg","1","0","0","0.8","0","true","0","0.8","0","80_20_practice","0.2","0","","","","","","","","","",""
"124","","bandit","20","126108","0.0-18.0-2.0","97087123","wem/bandit_single","A1SH7LQFR0U8FK","gain","7","","74","J","0","img/none_selected_demo.jpg","1","0","0","0.8","0","true","0","0.8","0","80_20_practice","0.2","0","","","","","","","","","",""
"25","","bandit","21","127895","0.0-18.0-3.0","97087123","wem/bandit_single","A1SH7LQFR0U8FK","gain","7","","75","K","1","","1","0","0","0.2","0","true","0","0.8","0","80_20_practice","0.2","0","","","","","","","","","",""
"18","","bandit","22","129673","0.0-18.0-4.0","97087123","wem/bandit_single","A1SH7LQFR0U8FK","gain","7","","75","K","1","","0","0","1","0.2","0","true","0","0.8","0","80_20_practice","0.2","0","","","","","","","","","",""
"29","","bandit","23","131464","0.0-18.0-5.0","97087123","wem/bandit_single","A1SH7LQFR0U8FK","gain","7","","74","J","0","img/none_selected_demo.jpg","1","0","0","0.8","0","true","0","0.8","0","80_20_practice","0.2","0","","","","","","","","","",""
"6","","bandit","24","133234","0.0-18.0-6.0","97087123","wem/bandit_single","A1SH7LQFR0U8FK","gain","7","","74","J","0","img/none_selected_demo.jpg","0","0","1","0.8","0","true","0","0.8","0","80_20_practice","0.2","0","","","","","","","","","",""
"165","","bandit","25","135157","0.0-18.0-7.0","97087123","wem/bandit_single","A1SH7LQFR0U8FK","gain","7","","75","K","1","","0","0","1","0.2","0","true","0","0.8","0","80_20_practice","0.2","0","","","","","","","","","",""
"1973","","bandit","26","138887","0.0-18.0-8.0","97087123","wem/bandit_single","A1SH7LQFR0U8FK","gain","7","","74","J","0","img/none_selected_demo.jpg","0","0","1","0.8","0","true","0","0.8","0","80_20_practice","0.2","0","","","","","","","","","",""
"56","","bandit","27","140701","0.0-18.0-9.0","97087123","wem/bandit_single","A1SH7LQFR0U8FK","gain","7","","74","J","0","img/none_selected_demo.jpg","1","0","0","0.8","0","true","0","0.8","0","80_20_practice","0.2","0","","","","","","","","","",""
"125","","bandit","28","142586","0.0-18.0-10.0","97087123","wem/bandit_single","A1SH7LQFR0U8FK","gain","7","","74","J","0","img/none_selected_demo.jpg","1","0","0","0.8","0","true","0","0.8","0","80_20_practice","0.2","0","","","","","","","","","",""
"0","","bandit","29","144348","0.0-18.0-11.0","97087123","wem/bandit_single","A1SH7LQFR0U8FK","gain","7","","75","K","1","","0","0","1","0.2","0","true","0","0.8","0","80_20_practice","0.2","0","","","","","","","","","",""
"96","","bandit","30","146206","0.0-18.0-12.0","97087123","wem/bandit_single","A1SH7LQFR0U8FK","gain","7","","75","K","1","","0","0","1","0.2","0","true","0","0.8","0","80_20_practice","0.2","0","","","","","","","","","",""
"16","","bandit","31","147982","0.0-18.0-13.0","97087123","wem/bandit_single","A1SH7LQFR0U8FK","gain","7","","74","J","0","img/none_selected_demo.jpg","1","0","0","0.8","0","true","0","0.8","0","80_20_practice","0.2","0","","","","","","","","","",""
"122","","bandit","32","149862","0.0-18.0-14.0","97087123","wem/bandit_single","A1SH7LQFR0U8FK","gain","7","","74","J","0","img/none_selected_demo.jpg","1","0","0","0.8","0","true","0","0.8","0","80_20_practice","0.2","0","","","","","","","","","",""
"304","","bandit","33","151929","0.0-18.0-15.0","97087123","wem/bandit_single","A1SH7LQFR0U8FK","gain","7","","74","J","0","img/none_selected_demo.jpg","1","0","0","0.8","0","true","0","0.8","0","80_20_practice","0.2","0","","","","","","","","","",""
"47","","bandit","34","153738","0.0-18.0-16.0","97087123","wem/bandit_single","A1SH7LQFR0U8FK","gain","7","","74","J","0","img/none_selected_demo.jpg","1","0","0","0.8","0","true","0","0.8","0","80_20_practice","0.2","0","","","","","","","","","",""
"195","","bandit","35","155695","0.0-18.0-17.0","97087123","wem/bandit_single","A1SH7LQFR0U8FK","gain","7","","74","J","0","img/none_selected_demo.jpg","1","0","0","0.8","0","true","0","0.8","0","80_20_practice","0.2","0","","","","","","","","","",""
"207","","bandit","36","157663","0.0-18.0-18.0","97087123","wem/bandit_single","A1SH7LQFR0U8FK","gain","7","","74","J","0","img/none_selected_demo.jpg","1","0","0","0.8","0","true","0","0.8","0","80_20_practice","0.2","0","","","","","","","","","",""
"6","","bandit","37","159427","0.0-18.0-19.0","97087123","wem/bandit_single","A1SH7LQFR0U8FK","gain","7","","74","J","0","img/none_selected_demo.jpg","1","0","0","0.8","0","true","0","0.8","0","80_20_practice","0.2","0","","","","","","","","","",""
"4142","","text","38","163826","0.0-19.0","97087123","wem/bandit_single","A1SH7LQFR0U8FK","gain","7","32","","","","","","","","","","","","","","","","","","","","","","","","","",""
"1370","","bandit","39","166704","0.0-20.0-0.0","97087123","wem/bandit_single","A1SH7LQFR0U8FK","gain","7","","74","J","0","img/none_selected_demo.jpg","0","0","1","0","0","true","0","0","0","","0","0","","","","","","","","","",""
"8748","","text","40","175708","0.0-21.0","97087123","wem/bandit_single","A1SH7LQFR0U8FK","gain","7","32","","","","","","","","","","","","","","","","","","","","","","","","","",""
"5348","","text","41","181060","0.0-22.0","97087123","wem/bandit_single","A1SH7LQFR0U8FK","gain","7","32","","","","","","","","","","","","","","","","","","","","","","","","","",""
"2666","","text","42","183731","0.0-23.0","97087123","wem/bandit_single","A1SH7LQFR0U8FK","gain","7","32","","","","","","","","","","","","","","","","","","","","","","","","","",""
"2421","","text","43","186157","0.0-24.0","97087123","wem/bandit_single","A1SH7LQFR0U8FK","gain","7","32","","","","","","","","","","","","","","","","","","","","","","","","","",""
"3973","","text","44","190133","0.0-25.0","97087123","wem/bandit_single","A1SH7LQFR0U8FK","gain","7","32","","","","","","","","","","","","","","","","","","","","","","","","","",""
"5744","","text","45","195881","0.0-26.0","97087123","wem/bandit_single","A1SH7LQFR0U8FK","gain","7","32","","","","","","","","","","","","","","","","","","","","","","","","","",""
"3676","","text","46","199561","0.0-27.0","97087123","wem/bandit_single","A1SH7LQFR0U8FK","gain","7","32","","","","","","","","","","","","","","","","","","","","","","","","","",""
"2748","","text","47","202314","0.0-28.0","97087123","wem/bandit_single","A1SH7LQFR0U8FK","gain","7","32","","","","","","","","","","","","","","","","","","","","","","","","","",""
"2777","","text","48","205095","0.0-29.0","97087123","wem/bandit_single","A1SH7LQFR0U8FK","gain","7","32","","","","","","","","","","","","","","","","","","","","","","","","","",""
"2506","","text","49","207606","0.0-30.0","97087123","wem/bandit_single","A1SH7LQFR0U8FK","gain","7","32","","","","","","","","","","","","","","","","","","","","","","","","","",""
"6802","","text","50","214412","0.0-31.0","97087123","wem/bandit_single","A1SH7LQFR0U8FK","gain","7","32","","","","","","","","","","","","","","","","","","","","","","","","","",""
"511","","bandit","51","216432","0.0-32.0-0.0","97087123","wem/bandit_single","A1SH7LQFR0U8FK","gain","7","","72","H","0","img/none_selected.jpg","1","0","0","0.8","0","true","0","0.8","0","full_practice","0.2","0","0.6","0","0.2","0","","","","","",""
"144","","bandit","52","218339","0.0-32.0-1.0","97087123","wem/bandit_single","A1SH7LQFR0U8FK","gain","7","","74","J","1","","0","0","1","0.2","0","true","0","0.8","0","full_practice","0.2","0","0.6","0","0.2","0","","","","","",""
"73","","bandit","53","220174","0.0-32.0-2.0","97087123","wem/bandit_single","A1SH7LQFR0U8FK","gain","7","","75","K","2","","1","0","0","0.6","0","true","0","0.8","0","full_practice","0.2","0","0.6","0","0.2","0","","","","","",""
"38","","bandit","54","221975","0.0-32.0-3.0","97087123","wem/bandit_single","A1SH7LQFR0U8FK","gain","7","","76","L","3","","1","0","0","0.2","0","true","0","0.8","0","full_practice","0.2","0","0.6","0","0.2","0","","","","","",""
"489","","bandit","55","224222","0.0-32.0-4.0","97087123","wem/bandit_single","A1SH7LQFR0U8FK","gain","7","","75","K","2","","1","0","0","0.6","0","true","0","0.8","0","full_practice","0.2","0","0.6","0","0.2","0","","","","","",""
"124","","bandit","56","226104","0.0-32.0-5.0","97087123","wem/bandit_single","A1SH7LQFR0U8FK","gain","7","","74","J","1","","1","0","0","0.2","0","true","0","0.8","0","full_practice","0.2","0","0.6","0","0.2","0","","","","","",""
"1117","","bandit","57","228982","0.0-32.0-6.0","97087123","wem/bandit_single","A1SH7LQFR0U8FK","gain","7","","72","H","0","img/none_selected.jpg","1","0","0","0.8","0","true","0","0.8","0","full_practice","0.2","0","0.6","0","0.2","0","","","","","",""
"12","","bandit","58","230753","0.0-32.0-7.0","97087123","wem/bandit_single","A1SH7LQFR0U8FK","gain","7","","74","J","1","","0","0","1","0.2","0","true","0","0.8","0","full_practice","0.2","0","0.6","0","0.2","0","","","","","",""
"322","","bandit","59","232836","0.0-32.0-8.0","97087123","wem/bandit_single","A1SH7LQFR0U8FK","gain","7","","75","K","2","","0","0","1","0.6","0","true","0","0.8","0","full_practice","0.2","0","0.6","0","0.2","0","","","","","",""
"7","","bandit","60","234605","0.0-32.0-9.0","97087123","wem/bandit_single","A1SH7LQFR0U8FK","gain","7","","76","L","3","","0","0","1","0.2","0","true","0","0.8","0","full_practice","0.2","0","0.6","0","0.2","0","","","","","",""
"161","","bandit","61","236535","0.0-32.0-10.0","97087123","wem/bandit_single","A1SH7LQFR0U8FK","gain","7","","72","H","0","img/none_selected.jpg","1","0","0","0.8","0","true","0","0.8","0","full_practice","0.2","0","0.6","0","0.2","0","","","","","",""
"211","","bandit","62","238508","0.0-32.0-11.0","97087123","wem/bandit_single","A1SH7LQFR0U8FK","gain","7","","74","J","1","","0","0","1","0.2","0","true","0","0.8","0","full_practice","0.2","0","0.6","0","0.2","0","","","","","",""
"277","","bandit","63","240546","0.0-32.0-12.0","97087123","wem/bandit_single","A1SH7LQFR0U8FK","gain","7","","74","J","1","","0","0","1","0.2","0","true","0","0.8","0","full_practice","0.2","0","0.6","0","0.2","0","","","","","",""
"342","","bandit","64","242651","0.0-32.0-13.0","97087123","wem/bandit_single","A1SH7LQFR0U8FK","gain","7","","75","K","2","","1","0","0","0.6","0","true","0","0.8","0","full_practice","0.2","0","0.6","0","0.2","0","","","","","",""
"5","","bandit","65","244416","0.0-32.0-14.0","97087123","wem/bandit_single","A1SH7LQFR0U8FK","gain","7","","75","K","2","","1","0","0","0.6","0","true","0","0.8","0","full_practice","0.2","0","0.6","0","0.2","0","","","","","",""
"114","","bandit","66","246289","0.0-32.0-15.0","97087123","wem/bandit_single","A1SH7LQFR0U8FK","gain","7","","75","K","2","","0","0","1","0.6","0","true","0","0.8","0","full_practice","0.2","0","0.6","0","0.2","0","","","","","",""
"227","","bandit","67","248281","0.0-32.0-16.0","97087123","wem/bandit_single","A1SH7LQFR0U8FK","gain","7","","76","L","3","","0","0","1","0.2","0","true","0","0.8","0","full_practice","0.2","0","0.6","0","0.2","0","","","","","",""
"79","","bandit","68","250120","0.0-32.0-17.0","97087123","wem/bandit_single","A1SH7LQFR0U8FK","gain","7","","72","H","0","img/none_selected.jpg","1","0","0","0.8","0","true","0","0.8","0","full_practice","0.2","0","0.6","0","0.2","0","","","","","",""
"348","","bandit","69","252231","0.0-32.0-18.0","97087123","wem/bandit_single","A1SH7LQFR0U8FK","gain","7","","75","K","2","","0","0","1","0.6","0","true","0","0.8","0","full_practice","0.2","0","0.6","0","0.2","0","","","","","",""
"239","","bandit","70","254233","0.0-32.0-19.0","97087123","wem/bandit_single","A1SH7LQFR0U8FK","gain","7","","76","L","3","","0","0","1","0.2","0","true","0","0.8","0","full_practice","0.2","0","0.6","0","0.2","0","","","","","",""
"2612","","text","71","257112","0.0-33.0","97087123","wem/bandit_single","A1SH7LQFR0U8FK","gain","7","32","","","","","","","","","","","","","","","","","","","","","","","","","",""
"5096","","text","72","263215","0.0-34.0","97087123","wem/bandit_single","A1SH7LQFR0U8FK","gain","7","32","","","","","","","","","","","","","","","","","","","","","","","","","",""
"589","","text","73","263809","0.0-35.0","97087123","wem/bandit_single","A1SH7LQFR0U8FK","gain","7","32","","","","","","","","","","","","","","","","","","","","","","","","","",""
"1399","","text","74","265215","0.0-36.0","97087123","wem/bandit_single","A1SH7LQFR0U8FK","gain","7","32","","","","","","","","","","","","","","","","","","","","","","","","","",""
"5342","","text","75","270563","0.0-37.0","97087123","wem/bandit_single","A1SH7LQFR0U8FK","gain","7","32","","","","","","","","","","","","","","","","","","","","","","","","","",""
"1893","","bandit","76","273966","0.0-38.0-0.0","97087123","wem/bandit_single","A1SH7LQFR0U8FK","gain","7","","75","K","2","","1","0","0","0.2046929885","","false","1","0.182860278","","main_expt","0.05137684772","","0.2046929885","","0.4656663819","","","","","","",""
"233","","bandit","77","275964","0.0-39.0-0.0","97087123","wem/bandit_single","A1SH7LQFR0U8FK","gain","7","","76","L","3","","1","0","0","0.4696156166","","false","2","0.1824128093","","main_expt","0.07150319997","","0.1903203277","","0.4696156166","","","","","","",""
"835","","bandit","78","278566","0.0-40.0-0.0","97087123","wem/bandit_single","A1SH7LQFR0U8FK","gain","7","","76","L","3","","0","0","1","0.477042595","","false","3","0.1671989933","","main_expt","0.080703679","","0.1806567389","","0.477042595","","","","","","",""
"92","","bandit","79","280423","0.0-41.0-0.0","97087123","wem/bandit_single","A1SH7LQFR0U8FK","gain","7","","75","K","2","","1","0","0","0.1746643784","","false","4","0.1769774761","","main_expt","0.09206073837","","0.1746643784","","0.4833388502","","","","","","",""
"263","","bandit","80","282450","0.0-42.0-0.0","97087123","wem/bandit_single","A1SH7LQFR0U8FK","gain","7","","72","H","0","img/none_selected.jpg","0","0","1","0.1847579949","","false","5","0.1847579949","","main_expt","0.09846378213","","0.1575849224","","0.4679643189","","","","","","",""
"382","","bandit","81","284595","0.0-43.0-0.0","97087123","wem/bandit_single","A1SH7LQFR0U8FK","gain","7","","72","H","0","img/none_selected.jpg","0","0","1","0.2263389119","","false","6","0.2263389119","","main_expt","0.07982937149","","0.1848921601","","0.4728114282","","","","","","",""
"11","","bandit","82","286367","0.0-44.0-0.0","97087123","wem/bandit_single","A1SH7LQFR0U8FK","gain","7","","74","J","1","","0","0","1","0.08361087011","","false","7","0.233500047","","main_expt","0.08361087011","","0.2090417599","","0.4763129956","","","","","","",""
"437","","bandit","83","288568","0.0-45.0-0.0","97087123","wem/bandit_single","A1SH7LQFR0U8FK","gain","7","","74","J","1","","0","0","1","0.1210475052","","false","8","0.2213385325","","main_expt","0.1210475052","","0.2340345007","","0.4605171502","","","","","","",""
"439","","bandit","84","290768","0.0-46.0-0.0","97087123","wem/bandit_single","A1SH7LQFR0U8FK","gain","7","","76","L","3","","0","0","1","0.457599345","","false","9","0.216727727","","main_expt","0.1023248189","","0.2388832632","","0.457599345","","","","","","",""
"31","","bandit","85","292564","0.0-47.0-0.0","97087123","wem/bandit_single","A1SH7LQFR0U8FK","gain","7","","75","K","2","","0","0","1","0.2336568073","","false","10","0.1757193701","","main_expt","0.1311876697","","0.2336568073","","0.4514273669","","","","","","",""
"39","","bandit","86","294372","0.0-48.0-0.0","97087123","wem/bandit_single","A1SH7LQFR0U8FK","gain","7","","75","K","2","","0","0","1","0.2682397485","","false","11","0.221687112","","main_expt","0.1171839072","","0.2682397485","","0.461109344","","","","","","",""
"2","","bandit","87","296135","0.0-49.0-0.0","97087123","wem/bandit_single","A1SH7LQFR0U8FK","gain","7","","76","L","3","","1","0","0","0.4750360261","","false","12","0.1693148256","","main_expt","0.09103905321","","0.2855743842","","0.4750360261","","","","","","",""
"20","","bandit","88","297921","0.0-50.0-0.0","97087123","wem/bandit_single","A1SH7LQFR0U8FK","gain","7","","76","L","3","","0","0","1","0.4882900813","","false","13","0.1861997022","","main_expt","0.08195125901","","0.2877368863","","0.4882900813","","","","","","",""
"139","","bandit","89","299822","0.0-51.0-0.0","97087123","wem/bandit_single","A1SH7LQFR0U8FK","gain","7","","72","H","0","img/none_selected.jpg","0","0","1","0.2056371894","","false","14","0.2056371894","","main_expt","0.1022478824","","0.2904717711","","0.4836145896","","","","","","",""
"456","","bandit","90","302043","0.0-52.0-0.0","97087123","wem/bandit_single","A1SH7LQFR0U8FK","gain","7","","72","H","0","img/none_selected.jpg","1","0","0","0.207651467","","false","15","0.207651467","","main_expt","0.1295923723","","0.3145527135","","0.4841526839","","","","","","",""
"212","","bandit","91","304019","0.0-53.0-0.0","97087123","wem/bandit_single","A1SH7LQFR0U8FK","gain","7","","74","J","1","","0","0","1","0.1259026636","","false","16","0.264879833","","main_expt","0.1259026636","","0.2919685568","","0.4733209008","","","","","","",""
"373","","bandit","92","306158","0.0-54.0-0.0","97087123","wem/bandit_single","A1SH7LQFR0U8FK","gain","7","","75","K","2","","0","0","1","0.2437915417","","false","17","0.301226273","","main_expt","0.08714849596","","0.2437915417","","0.4548629562","","","","","","",""
"790","","bandit","93","308712","0.0-55.0-0.0","97087123","wem/bandit_single","A1SH7LQFR0U8FK","gain","7","","76","L","3","","1","0","0","0.4423108412","","false","18","0.3355017989","","main_expt","0.06082296625","","0.2139729843","","0.4423108412","","","","","","",""
"823","","bandit","94","311295","0.0-56.0-0.0","97087123","wem/bandit_single","A1SH7LQFR0U8FK","gain","7","","76","L","3","","1","0","0","0.4510346454","","false","19","0.4066928382","","main_expt","0.04376078701","","0.2117718275","","0.4510346454","","","","","","",""
"700","","bandit","95","313759","0.0-57.0-0.0","97087123","wem/bandit_single","A1SH7LQFR0U8FK","gain","7","","76","L","3","","1","0","0","0.4522943673","","false","20","0.4152799178","","main_expt","0.0431273538","","0.2128214431","","0.4522943673","","","","","","",""
"490","","bandit","96","316010","0.0-58.0-0.0","97087123","wem/bandit_single","A1SH7LQFR0U8FK","gain","7","","76","L","3","","0","0","1","0.4213917452","","false","21","0.4005545413","","main_expt","0.05700218709","","0.2557511999","","0.4213917452","","","","","","",""
"110","","bandit","97","317887","0.0-59.0-0.0","97087123","wem/bandit_single","A1SH7LQFR0U8FK","gain","7","","72","H","0","img/none_selected.jpg","0","0","1","0.4065945052","","false","22","0.4065945052","","main_expt","0.03008320558","","0.2240556206","","0.4055738921","","","","","","",""
"284","","bandit","98","319935","0.0-60.0-0.0","97087123","wem/bandit_single","A1SH7LQFR0U8FK","gain","7","","74","J","1","","0","0","1","0.04675245401","","false","23","0.4396923884","","main_expt","0.04675245401","","0.1913455436","","0.4102744642","","","","","","",""
"1026","","bandit","99","322725","0.0-61.0-0.0","97087123","wem/bandit_single","A1SH7LQFR0U8FK","gain","7","","75","K","2","","1","0","0","0.1767964116","","false","24","0.4414607804","","main_expt","0.02664245213","","0.1767964116","","0.4215519413","","","","","","",""
"949","","bandit","100","325436","0.0-62.0-0.0","97087123","wem/bandit_single","A1SH7LQFR0U8FK","gain","7","","75","K","2","","0","0","1","0.1667721477","","false","25","0.430597795","","main_expt","0.02443183667","","0.1667721477","","0.4076768117","","","","","","",""
"104","","bandit","101","327306","0.0-63.0-0.0","97087123","wem/bandit_single","A1SH7LQFR0U8FK","gain","7","","76","L","3","","1","0","0","0.3563873355","","false","26","0.4049624372","","main_expt","0.02765515704","","0.132468293","","0.3563873355","","","","","","",""
"1856","","bandit","102","330923","0.0-64.0-0.0","97087123","wem/bandit_single","A1SH7LQFR0U8FK","gain","7","","72","H","0","img/none_selected.jpg","0","0","1","0.3959859591","","false","27","0.3959859591","","main_expt","0.05751586542","","0.1283549716","","0.3305608977","","","","","","",""
"957","","bandit","103","333647","0.0-65.0-0.0","97087123","wem/bandit_single","A1SH7LQFR0U8FK","gain","7","","74","J","1","","0","0","1","0.1046410472","","false","28","0.4316273603","","main_expt","0.1046410472","","0.1218888314","","0.323916825","","","","","","",""
"61","","bandit","104","335471","0.0-66.0-0.0","97087123","wem/bandit_single","A1SH7LQFR0U8FK","gain","7","","75","K","2","","0","0","1","0.08739650486","","false","29","0.4618757987","","main_expt","0.1174110135","","0.08739650486","","0.3256975875","","","","","","",""
"143","","bandit","105","337377","0.0-67.0-0.0","97087123","wem/bandit_single","A1SH7LQFR0U8FK","gain","7","","76","L","3","","0","0","1","0.3590663193","","false","30","0.4764599947","","main_expt","0.09344635718","","0.1113113005","","0.3590663193","","","","","","",""
"87","","bandit","106","339224","0.0-68.0-0.0","97087123","wem/bandit_single","A1SH7LQFR0U8FK","gain","7","","76","L","3","","1","0","0","0.2794303661","","false","31","0.4870567238","","main_expt","0.07228097062","","0.1234593762","","0.2794303661","","","","","","",""
"330","","bandit","107","341318","0.0-69.0-0.0","97087123","wem/bandit_single","A1SH7LQFR0U8FK","gain","7","","76","L","3","","1","0","0","0.2725021833","","false","32","0.4744541924","","main_expt","0.06660380695","","0.1204693509","","0.2725021833","","","","","","",""
"486","","bandit","108","343566","0.0-70.0-0.0","97087123","wem/bandit_single","A1SH7LQFR0U8FK","gain","7","","76","L","3","","0","0","1","0.2662358977","","false","33","0.4595636441","","main_expt","0.06161000393","","0.1525092538","","0.2662358977","","","","","","",""
"34","","bandit","109","345364","0.0-71.0-0.0","97087123","wem/bandit_single","A1SH7LQFR0U8FK","gain","7","","76","L","3","","0","0","1","0.3062719381","","false","34","0.4700794195","","main_expt","0.08245015188","","0.0933794629","","0.3062719381","","","","","","",""
"0","","bandit","110","347131","0.0-72.0-0.0","97087123","wem/bandit_single","A1SH7LQFR0U8FK","gain","7","","75","K","2","","0","0","1","0.06693018499","","false","35","0.46481425","","main_expt","0.08195488018","","0.06693018499","","0.3199342551","","","","","","",""
"18","","bandit","111","348916","0.0-73.0-0.0","97087123","wem/bandit_single","A1SH7LQFR0U8FK","gain","7","","72","H","0","img/none_selected.jpg","0","0","1","0.4518384169","","false","36","0.4518384169","","main_expt","0.1004102013","","0.09916465935","","0.3039619122","","","","","","",""
"188","","bandit","112","350867","0.0-74.0-0.0","97087123","wem/bandit_single","A1SH7LQFR0U8FK","gain","7","","74","J","1","","0","0","1","0.1390326598","","false","37","0.439581627","","main_expt","0.1390326598","","0.08872434017","","0.2927636057","","","","","","",""
"25","","bandit","113","352659","0.0-75.0-0.0","97087123","wem/bandit_single","A1SH7LQFR0U8FK","gain","7","","74","J","1","","0","0","1","0.143322519","","false","38","0.3994664239","","main_expt","0.143322519","","0.08103487055","","0.3513205482","","","","","","",""
"121","","bandit","114","354543","0.0-76.0-0.0","97087123","wem/bandit_single","A1SH7LQFR0U8FK","gain","7","","76","L","3","","1","0","0","0.3199725693","","false","39","0.399239641","","main_expt","0.1439849427","","0.09262773223","","0.3199725693","","","","","","",""
"99","","bandit","115","356405","0.0-77.0-0.0","97087123","wem/bandit_single","A1SH7LQFR0U8FK","gain","7","","76","L","3","","0","0","1","0.2899826696","","false","40","0.3842971785","","main_expt","0.1813186375","","0.08276392867","","0.2899826696","","","","","","",""
"76","","bandit","116","358243","0.0-78.0-0.0","97087123","wem/bandit_single","A1SH7LQFR0U8FK","gain","7","","76","L","3","","1","0","0","0.2470457707","","false","41","0.3584077127","","main_expt","0.182623784","","0.07889170896","","0.2470457707","","","","","","",""
"188","","bandit","117","360196","0.0-79.0-0.0","97087123","wem/bandit_single","A1SH7LQFR0U8FK","gain","7","","76","L","3","","0","0","1","0.2860815649","","false","42","0.2940512223","","main_expt","0.1310997782","","0.1007082374","","0.2860815649","","","","","","",""
"58","","bandit","118","362018","0.0-80.0-0.0","97087123","wem/bandit_single","A1SH7LQFR0U8FK","gain","7","","76","L","3","","1","0","0","0.3649324249","","false","43","0.3274682868","","main_expt","0.1211351308","","0.04983151166","","0.3649324249","","","","","","",""
"348","","bandit","119","364131","0.0-81.0-0.0","97087123","wem/bandit_single","A1SH7LQFR0U8FK","gain","7","","76","L","3","","0","0","1","0.3722884938","","false","44","0.3105097628","","main_expt","0.1032393721","","0.06772206808","","0.3722884938","","","","","","",""
"28","","bandit","120","365927","0.0-82.0-0.0","97087123","wem/bandit_single","A1SH7LQFR0U8FK","gain","7","","75","K","2","","0","0","1","0.07082322934","","false","45","0.3253779088","","main_expt","0.145243047","","0.07082322934","","0.3589666793","","","","","","",""
"321","","bandit","121","368016","0.0-83.0-0.0","97087123","wem/bandit_single","A1SH7LQFR0U8FK","gain","7","","75","K","2","","0","0","1","0.08302100682","","false","46","0.2907447256","","main_expt","0.1871821161","","0.08302100682","","0.309469461","","","","","","",""
"325","","bandit","122","370108","0.0-84.0-0.0","97087123","wem/bandit_single","A1SH7LQFR0U8FK","gain","7","","75","K","2","","1","0","0","0.04947507936","","false","47","0.2922490699","","main_expt","0.1827431821","","0.04947507936","","0.3486132663","","","","","","",""
"37","","bandit","123","371909","0.0-85.0-0.0","97087123","wem/bandit_single","A1SH7LQFR0U8FK","gain","7","","75","K","2","","0","0","1","0.05970491685","","false","48","0.3012354267","","main_expt","0.1863443356","","0.05970491685","","0.3613151755","","","","","","",""
"263","","bandit","124","373934","0.0-86.0-0.0","97087123","wem/bandit_single","A1SH7LQFR0U8FK","gain","7","","72","H","0","img/none_selected.jpg","1","0","0","0.3199255499","","false","49","0.3199255499","","main_expt","0.2089920758","","0.05846806591","","0.3810076255","","","","","","",""
"158","","bandit","125","375854","0.0-87.0-0.0","97087123","wem/bandit_single","A1SH7LQFR0U8FK","gain","7","","72","H","0","img/none_selected.jpg","0","0","1","0.3246792682","","false","50","0.3246792682","","main_expt","0.2204805957","","0.08078022322","","0.3528158806","","","","","","",""
"36","","bandit","126","377652","0.0-88.0-0.0","97087123","wem/bandit_single","A1SH7LQFR0U8FK","gain","7","","76","L","3","","1","0","0","0.4127521961","","false","51","0.3158487008","","main_expt","0.2796788854","","0.08366705542","","0.4127521961","","","","","","",""
"21","","bandit","127","379436","0.0-89.0-0.0","97087123","wem/bandit_single","A1SH7LQFR0U8FK","gain","7","","72","H","0","img/none_selected.jpg","0","0","1","0.2764666405","","false","52","0.2764666405","","main_expt","0.2870992152","","0.1365111474","","0.4034362436","","","","","","",""
"249","","bandit","128","381460","0.0-90.0-0.0","97087123","wem/bandit_single","A1SH7LQFR0U8FK","gain","7","","74","J","1","","0","0","1","0.3176469779","","false","53","0.2740398937","","main_expt","0.3176469779","","0.1238361543","","0.4268522392","","","","","","",""
"59","","bandit","129","383280","0.0-91.0-0.0","97087123","wem/bandit_single","A1SH7LQFR0U8FK","gain","7","","75","K","2","","0","0","1","0.1150058699","","false","54","0.2499565254","","main_expt","0.3407727651","","0.1150058699","","0.4471231168","","","","","","",""
"102","","bandit","130","385152","0.0-92.0-0.0","97087123","wem/bandit_single","A1SH7LQFR0U8FK","gain","7","","76","L","3","","0","0","1","0.4397300441","","false","55","0.221305586","","main_expt","0.380871147","","0.1498695165","","0.4397300441","","","","","","",""
"95","","bandit","131","387013","0.0-93.0-0.0","97087123","wem/bandit_single","A1SH7LQFR0U8FK","gain","7","","76","L","3","","1","0","0","0.4266514607","","false","56","0.2513729962","","main_expt","0.3614982187","","0.1559096332","","0.4266514607","","","","","","",""
"206","","bandit","132","389006","0.0-94.0-0.0","97087123","wem/bandit_single","A1SH7LQFR0U8FK","gain","7","","74","J","1","","0","0","1","0.3219973572","","false","57","0.254621842","","main_expt","0.3219973572","","0.139260175","","0.4351066669","","","","","","",""
"44","","bandit","133","390814","0.0-95.0-0.0","97087123","wem/bandit_single","A1SH7LQFR0U8FK","gain","7","","76","L","3","","0","0","1","0.4114765848","","false","58","0.2911199408","","main_expt","0.3136466855","","0.1101041774","","0.4114765848","","","","","","",""
"184","","bandit","134","392765","0.0-96.0-0.0","97087123","wem/bandit_single","A1SH7LQFR0U8FK","gain","7","","76","L","3","","1","0","0","0.4331866813","","false","59","0.3260103257","","main_expt","0.3553654786","","0.1619704935","","0.4331866813","","","","","","",""
"84","","bandit","135","394613","0.0-97.0-0.0","97087123","wem/bandit_single","A1SH7LQFR0U8FK","gain","7","","76","L","3","","1","0","0","0.4452666195","","false","60","0.3801831719","","main_expt","0.302494743","","0.1023472493","","0.4452666195","","","","","","",""
"87","","bandit","136","396463","0.0-98.0-0.0","97087123","wem/bandit_single","A1SH7LQFR0U8FK","gain","7","","76","L","3","","0","0","1","0.4533212266","","false","61","0.4097171909","","main_expt","0.3194951829","","0.1659923055","","0.4533212266","","","","","","",""
"44","","bandit","137","398274","0.0-99.0-0.0","97087123","wem/bandit_single","A1SH7LQFR0U8FK","gain","7","","76","L","3","","1","0","0","0.4546633602","","false","62","0.4297251169","","main_expt","0.3491175101","","0.1773336283","","0.4546633602","","","","","","",""
"104","","bandit","138","400145","0.0-100.0-0.0","97087123","wem/bandit_single","A1SH7LQFR0U8FK","gain","7","","76","L","3","","0","0","1","0.431915851","","false","63","0.4523537282","","main_expt","0.3618657485","","0.1838898345","","0.431915851","","","","","","",""
"78","","bandit","139","401992","0.0-101.0-0.0","97087123","wem/bandit_single","A1SH7LQFR0U8FK","gain","7","","76","L","3","","1","0","0","0.4397857724","","false","64","0.4577822331","","main_expt","0.3331995431","","0.1535376321","","0.4397857724","","","","","","",""
"183","","bandit","140","403937","0.0-102.0-0.0","97087123","wem/bandit_single","A1SH7LQFR0U8FK","gain","7","","76","L","3","","0","0","1","0.3803141428","","false","65","0.4366397349","","main_expt","0.3222916502","","0.1696059705","","0.3803141428","","","","","","",""
"142","","bandit","141","405841","0.0-103.0-0.0","97087123","wem/bandit_single","A1SH7LQFR0U8FK","gain","7","","76","L","3","","1","0","0","0.4318665216","","false","66","0.4223045317","","main_expt","0.2935747005","","0.1747776373","","0.4318665216","","","","","","",""
"322","","bandit","142","407934","0.0-104.0-0.0","97087123","wem/bandit_single","A1SH7LQFR0U8FK","gain","7","","76","L","3","","1","0","0","0.3783394243","","false","67","0.453094409","","main_expt","0.272098099","","0.1880318686","","0.3783394243","","","","","","",""
"206","","bandit","143","409910","0.0-105.0-0.0","97087123","wem/bandit_single","A1SH7LQFR0U8FK","gain","7","","76","L","3","","1","0","0","0.3424409758","","false","68","0.4441165928","","main_expt","0.2839543474","","0.1703396733","","0.3424409758","","","","","","",""
"21","","bandit","144","411700","0.0-106.0-0.0","97087123","wem/bandit_single","A1SH7LQFR0U8FK","gain","7","","76","L","3","","0","0","1","0.3825588005","","false","69","0.437102529","","main_expt","0.3106529802","","0.2041307244","","0.3825588005","","","","","","",""
"376","","bandit","145","413841","0.0-107.0-0.0","97087123","wem/bandit_single","A1SH7LQFR0U8FK","gain","7","","76","L","3","","0","0","1","0.4019939479","","false","70","0.463010405","","main_expt","0.2152651325","","0.2380468473","","0.4019939479","","","","","","",""
"2","","bandit","146","415607","0.0-108.0-0.0","97087123","wem/bandit_single","A1SH7LQFR0U8FK","gain","7","","75","K","2","","1","0","0","0.2540220497","","false","71","0.4511055106","","main_expt","0.2150247356","","0.2540220497","","0.3995375499","","","","","","",""
"905","","bandit","147","418278","0.0-109.0-0.0","97087123","wem/bandit_single","A1SH7LQFR0U8FK","gain","7","","72","H","0","img/none_selected.jpg","0","0","1","0.456238914","","false","72","0.456238914","","main_expt","0.2196699897","","0.2877519017","","0.3655493795","","","","","","",""
"112","","bandit","148","420158","0.0-110.0-0.0","97087123","wem/bandit_single","A1SH7LQFR0U8FK","gain","7","","75","K","2","","0","0","1","0.3090267326","","false","73","0.4499554287","","main_expt","0.2086164273","","0.3090267326","","0.3443296275","","","","","","",""
"156","","bandit","149","422077","0.0-111.0-0.0","97087123","wem/bandit_single","A1SH7LQFR0U8FK","gain","7","","74","J","1","","1","0","0","0.2226006448","","false","74","0.4439780401","","main_expt","0.2226006448","","0.3400901674","","0.3647916216","","","","","","",""
"136","","bandit","150","423979","0.0-112.0-0.0","97087123","wem/bandit_single","A1SH7LQFR0U8FK","gain","7","","74","J","1","","0","0","1","0.2015377479","","false","75","0.4332341766","","main_expt","0.2015377479","","0.3519214117","","0.3531956798","","","","","","",""
"27","","bandit","151","425773","0.0-113.0-0.0","97087123","wem/bandit_single","A1SH7LQFR0U8FK","gain","7","","76","L","3","","0","0","1","0.3375826797","","false","76","0.4241516559","","main_expt","0.2614433548","","0.3621584499","","0.3375826797","","","","","","",""
"308","","bandit","152","427846","0.0-114.0-0.0","97087123","wem/bandit_single","A1SH7LQFR0U8FK","gain","7","","76","L","3","","0","0","1","0.3389323042","","false","77","0.404580079","","main_expt","0.3216300101","","0.3919288513","","0.3389323042","","","","","","",""
"6","","bandit","153","429621","0.0-115.0-0.0","97087123","wem/bandit_single","A1SH7LQFR0U8FK","gain","7","","76","L","3","","1","0","0","0.3633343286","","false","78","0.4291019186","","main_expt","0.3253900192","","0.3733142104","","0.3633343286","","","","","","",""
"102","","bandit","154","431492","0.0-116.0-0.0","97087123","wem/bandit_single","A1SH7LQFR0U8FK","gain","7","","76","L","3","","1","0","0","0.35510173","","false","79","0.4431072694","","main_expt","0.3253799771","","0.3594898906","","0.35510173","","","","","","",""
"118","","bandit","155","433374","0.0-117.0-0.0","97087123","wem/bandit_single","A1SH7LQFR0U8FK","gain","7","","76","L","3","","1","0","0","0.3313699227","","false","80","0.4443251544","","main_expt","0.321449248","","0.3740263767","","0.3313699227","","","","","","",""
"42","","bandit","156","435184","0.0-118.0-0.0","97087123","wem/bandit_single","A1SH7LQFR0U8FK","gain","7","","76","L","3","","1","0","0","0.3545786091","","false","81","0.4222806544","","main_expt","0.3644617874","","0.4031190442","","0.3545786091","","","","","","",""
"7","","bandit","157","436957","0.0-119.0-0.0","97087123","wem/bandit_single","A1SH7LQFR0U8FK","gain","7","","76","L","3","","0","0","1","0.36958943","","false","82","0.4348184101","","main_expt","0.3646727683","","0.397551472","","0.36958943","","","","","","",""
"148","","bandit","158","438870","0.0-120.0-0.0","97087123","wem/bandit_single","A1SH7LQFR0U8FK","gain","7","","74","J","1","","0","0","1","0.3823543101","","false","83","0.4237956171","","main_expt","0.3823543101","","0.4251589807","","0.3818301908","","","","","","",""
"90","","bandit","159","440726","0.0-121.0-0.0","97087123","wem/bandit_single","A1SH7LQFR0U8FK","gain","7","","74","J","1","","0","0","1","0.3927357351","","false","84","0.4255820551","","main_expt","0.3927357351","","0.406460911","","0.3841316884","","","","","","",""
"1084","","bandit","160","443580","0.0-122.0-0.0","97087123","wem/bandit_single","A1SH7LQFR0U8FK","gain","7","","74","J","1","","0","0","1","0.3242792488","","false","85","0.4407045426","","main_expt","0.3242792488","","0.4190094225","","0.3769873451","","","","","","",""
"68","","bandit","161","445413","0.0-123.0-0.0","97087123","wem/bandit_single","A1SH7LQFR0U8FK","gain","7","","76","L","3","","0","0","1","0.3624331431","","false","86","0.4276882268","","main_expt","0.3257651096","","0.4006115864","","0.3624331431","","","","","","",""
"99","","bandit","162","447284","0.0-124.0-0.0","97087123","wem/bandit_single","A1SH7LQFR0U8FK","gain","7","","76","L","3","","0","0","1","0.356636023","","false","87","0.4430021271","","main_expt","0.3768973447","","0.3761684651","","0.356636023","","","","","","",""
"74","","bandit","163","449128","0.0-125.0-0.0","97087123","wem/bandit_single","A1SH7LQFR0U8FK","gain","7","","75","K","2","","0","0","1","0.3935355307","","false","88","0.4259892117","","main_expt","0.3333804566","","0.3935355307","","0.392705536","","","","","","",""
"634","","bandit","164","451528","0.0-126.0-0.0","97087123","wem/bandit_single","A1SH7LQFR0U8FK","gain","7","","72","H","0","img/none_selected.jpg","1","0","0","0.4451393147","","false","89","0.4451393147","","main_expt","0.3326985542","","0.3870426381","","0.39579544","","","","","","",""
"63","","bandit","165","453357","0.0-127.0-0.0","97087123","wem/bandit_single","A1SH7LQFR0U8FK","gain","7","","72","H","0","img/none_selected.jpg","0","0","1","0.4450202473","","false","90","0.4450202473","","main_expt","0.3392082427","","0.3838573884","","0.3832348421","","","","","","",""
"549","","bandit","166","455670","0.0-128.0-0.0","97087123","wem/bandit_single","A1SH7LQFR0U8FK","gain","7","","72","H","0","img/none_selected.jpg","1","0","0","0.428726471","","false","91","0.428726471","","main_expt","0.2686139101","","0.376063899","","0.4009824957","","","","","","",""
"185","","bandit","167","457637","0.0-129.0-0.0","97087123","wem/bandit_single","A1SH7LQFR0U8FK","gain","7","","72","H","0","img/none_selected.jpg","0","0","1","0.4207086611","","false","92","0.4207086611","","main_expt","0.247120026","","0.3877690924","","0.360902971","","","","","","",""
"1019","","bandit","168","460421","0.0-130.0-0.0","97087123","wem/bandit_single","A1SH7LQFR0U8FK","gain","7","","76","L","3","","0","0","1","0.4098322422","","false","93","0.4271109851","","main_expt","0.1945967668","","0.3832772702","","0.4098322422","","","","","","",""
"24","","bandit","169","462216","0.0-131.0-0.0","97087123","wem/bandit_single","A1SH7LQFR0U8FK","gain","7","","72","H","0","img/none_selected.jpg","0","0","1","0.3988025755","","false","94","0.3988025755","","main_expt","0.2059940606","","0.3569295009","","0.365685068","","","","","","",""
"335","","bandit","170","464315","0.0-132.0-0.0","97087123","wem/bandit_single","A1SH7LQFR0U8FK","gain","7","","72","H","0","img/none_selected.jpg","1","0","0","0.3413505888","","false","95","0.3413505888","","main_expt","0.2276463074","","0.3462427099","","0.3246475432","","","","","","",""
"575","","bandit","171","466656","0.0-133.0-0.0","97087123","wem/bandit_single","A1SH7LQFR0U8FK","gain","7","","72","H","0","img/none_selected.jpg","0","0","1","0.2791034264","","false","96","0.2791034264","","main_expt","0.3088064785","","0.2902370181","","0.3155220288","","","","","","",""
"174","","bandit","172","468596","0.0-134.0-0.0","97087123","wem/bandit_single","A1SH7LQFR0U8FK","gain","7","","72","H","0","img/none_selected.jpg","0","0","1","0.2300358144","","false","97","0.2300358144","","main_expt","0.3167474357","","0.2679909325","","0.2920368253","","","","","","",""
"423","","bandit","173","470785","0.0-135.0-0.0","97087123","wem/bandit_single","A1SH7LQFR0U8FK","gain","7","","72","H","0","img/none_selected.jpg","0","0","1","0.245913642","","false","98","0.245913642","","main_expt","0.3311058144","","0.1827708427","","0.3060047135","","","","","","",""
"323","","bandit","174","472873","0.0-136.0-0.0","97087123","wem/bandit_single","A1SH7LQFR0U8FK","gain","7","","75","K","2","","0","0","1","0.1847148603","","false","99","0.1977736678","","main_expt","0.2831383079","","0.1847148603","","0.2834300817","","","","","","",""
"282","","bandit","175","474928","0.0-137.0-0.0","97087123","wem/bandit_single","A1SH7LQFR0U8FK","gain","7","","76","L","3","","1","0","0","0.3094748938","","false","100","0.2300987319","","main_expt","0.2697282324","","0.230590463","","0.3094748938","","","","","","",""
"50","","bandit","176","476744","0.0-138.0-0.0","97087123","wem/bandit_single","A1SH7LQFR0U8FK","gain","7","","76","L","3","","0","0","1","0.2776834174","","false","101","0.2375929523","","main_expt","0.2908511313","","0.2036778932","","0.2776834174","","","","","","",""
"203","","bandit","177","478716","0.0-139.0-0.0","97087123","wem/bandit_single","A1SH7LQFR0U8FK","gain","7","","72","H","0","img/none_selected.jpg","0","0","1","0.2034833152","","false","102","0.2034833152","","main_expt","0.3371086545","","0.2146692458","","0.2649828438","","","","","","",""
"89","","bandit","178","480573","0.0-140.0-0.0","97087123","wem/bandit_single","A1SH7LQFR0U8FK","gain","7","","75","K","2","","1","0","0","0.2194044235","","false","103","0.2510503681","","main_expt","0.2925399581","","0.2194044235","","0.1977849252","","","","","","",""
"317","","bandit","179","482657","0.0-141.0-0.0","97087123","wem/bandit_single","A1SH7LQFR0U8FK","gain","7","","75","K","2","","0","0","1","0.2869514305","","false","104","0.2563420723","","main_expt","0.229866195","","0.2869514305","","0.164180841","","","","","","",""
"318","","bandit","180","484748","0.0-142.0-0.0","97087123","wem/bandit_single","A1SH7LQFR0U8FK","gain","7","","72","H","0","img/none_selected.jpg","0","0","1","0.2025228913","","false","105","0.2025228913","","main_expt","0.2786648232","","0.2577924419","","0.1410880488","","","","","","",""
"593","","bandit","181","487109","0.0-143.0-0.0","97087123","wem/bandit_single","A1SH7LQFR0U8FK","gain","7","","72","H","0","img/none_selected.jpg","0","0","1","0.2288818116","","false","106","0.2288818116","","main_expt","0.2907959635","","0.2984789445","","0.2151151798","","","","","","",""
"36","","bandit","182","488915","0.0-144.0-0.0","97087123","wem/bandit_single","A1SH7LQFR0U8FK","gain","7","","75","K","2","","0","0","1","0.2483059356","","false","107","0.2725684277","","main_expt","0.2934471614","","0.2483059356","","0.2068678097","","","","","","",""
"425","","bandit","183","491111","0.0-145.0-0.0","97087123","wem/bandit_single","A1SH7LQFR0U8FK","gain","7","","74","J","1","","0","0","1","0.2761460559","","false","108","0.2725367566","","main_expt","0.2761460559","","0.2177203031","","0.1775779384","","","","","","",""
"90","","bandit","184","492967","0.0-146.0-0.0","97087123","wem/bandit_single","A1SH7LQFR0U8FK","gain","7","","76","L","3","","0","0","1","0.1633907035","","false","109","0.2645412755","","main_expt","0.3154055318","","0.2155336726","","0.1633907035","","","","","","",""
"51","","bandit","185","494787","0.0-147.0-0.0","97087123","wem/bandit_single","A1SH7LQFR0U8FK","gain","7","","72","H","0","img/none_selected.jpg","0","0","1","0.2537238549","","false","110","0.2537238549","","main_expt","0.3375256398","","0.2012134729","","0.1918139944","","","","","","",""
"277","","bandit","186","496833","0.0-148.0-0.0","97087123","wem/bandit_single","A1SH7LQFR0U8FK","gain","7","","75","K","2","","0","0","1","0.1362677005","","false","111","0.2404930496","","main_expt","0.3575411602","","0.1362677005","","0.1512725872","","","","","","",""
"38","","bandit","187","498640","0.0-149.0-0.0","97087123","wem/bandit_single","A1SH7LQFR0U8FK","gain","7","","74","J","1","","0","0","1","0.3357984678","","false","112","0.2031918028","","main_expt","0.3357984678","","0.1146466799","","0.1579322392","","","","","","",""
"12305","","bandit","188","512714","0.0-150.0-0.0","97087123","wem/bandit_single","A1SH7LQFR0U8FK","gain","7","","75","K","2","","1","0","0","0.1503083978","","false","113","0.2649243105","","main_expt","0.2950954247","","0.1503083978","","0.1638150459","","","","","","",""
"86","","bandit","189","514570","0.0-151.0-0.0","97087123","wem/bandit_single","A1SH7LQFR0U8FK","gain","7","","76","L","3","","1","0","0","0.1913716077","","false","114","0.2669290767","","main_expt","0.3242299597","","0.1750780752","","0.1913716077","","","","","","",""
"37","","bandit","190","516376","0.0-152.0-0.0","97087123","wem/bandit_single","A1SH7LQFR0U8FK","gain","7","","75","K","2","","0","0","1","0.1486636943","","false","115","0.2538219684","","main_expt","0.3224166769","","0.1486636943","","0.1762938339","","","","","","",""
"53","","bandit","191","518198","0.0-153.0-0.0","97087123","wem/bandit_single","A1SH7LQFR0U8FK","gain","7","","76","L","3","","0","0","1","0.1696576366","","false","116","0.2987800907","","main_expt","0.3512221687","","0.149377163","","0.1696576366","","","","","","",""
"68","","bandit","192","520034","0.0-154.0-0.0","97087123","wem/bandit_single","A1SH7LQFR0U8FK","gain","7","","72","H","0","img/none_selected.jpg","0","0","1","0.2863147972","","false","117","0.2863147972","","main_expt","0.3854596622","","0.1255156769","","0.1743908607","","","","","","",""
"40","","bandit","193","521843","0.0-155.0-0.0","97087123","wem/bandit_single","A1SH7LQFR0U8FK","gain","7","","74","J","1","","0","0","1","0.3311459155","","false","118","0.2863485017","","main_expt","0.3311459155","","0.09405737873","","0.2187419408","","","","","","",""
"75","","bandit","194","523686","0.0-156.0-0.0","97087123","wem/bandit_single","A1SH7LQFR0U8FK","gain","7","","76","L","3","","1","0","0","0.2602037773","","false","119","0.2704451175","","main_expt","0.3243143835","","0.0580133569","","0.2602037773","","","","","","",""
"48","","bandit","195","525507","0.0-157.0-0.0","97087123","wem/bandit_single","A1SH7LQFR0U8FK","gain","7","","76","L","3","","1","0","0","0.2665240463","","false","120","0.2545920365","","main_expt","0.3830596167","","0.04965982272","","0.2665240463","","","","","","",""
"33","","bandit","196","527310","0.0-158.0-0.0","97087123","wem/bandit_single","A1SH7LQFR0U8FK","gain","7","","76","L","3","","0","0","1","0.2300357123","","false","121","0.323502768","","main_expt","0.4451194006","","0.05452098248","","0.2300357123","","","","","","",""
"247","","bandit","197","529332","0.0-159.0-0.0","97087123","wem/bandit_single","A1SH7LQFR0U8FK","gain","7","","75","K","2","","0","0","1","0.0475995955","","false","122","0.3380353075","","main_expt","0.4636898934","","0.0475995955","","0.2071140152","","","","","","",""
"39","","bandit","198","531141","0.0-160.0-0.0","97087123","wem/bandit_single","A1SH7LQFR0U8FK","gain","7","","74","J","1","","0","0","1","0.4384370655","","false","123","0.341491638","","main_expt","0.4384370655","","0.04799769062","","0.2590656513","","","","","","",""
"159","","bandit","199","533068","0.0-161.0-0.0","97087123","wem/bandit_single","A1SH7LQFR0U8FK","gain","7","","72","H","0","img/none_selected.jpg","1","0","0","0.3269941981","","false","124","0.3269941981","","main_expt","0.456933673","","0.06454195205","","0.2492473134","","","","","","",""
"231","","bandit","200","535071","0.0-162.0-0.0","97087123","wem/bandit_single","A1SH7LQFR0U8FK","gain","7","","72","H","0","img/none_selected.jpg","1","0","0","0.3263020805","","false","125","0.3263020805","","main_expt","0.4834692703","","0.0570469748","","0.2569957816","","","","","","",""
"185","","bandit","201","537025","0.0-163.0-0.0","97087123","wem/bandit_single","A1SH7LQFR0U8FK","gain","7","","72","H","0","img/none_selected.jpg","0","0","1","0.3377655475","","false","126","0.3377655475","","main_expt","0.4895912119","","0.06214194377","","0.2715808503","","","","","","",""
"4","","bandit","202","538805","0.0-164.0-0.0","97087123","wem/bandit_single","A1SH7LQFR0U8FK","gain","7","","72","H","0","img/none_selected.jpg","0","0","1","0.3489319456","","false","127","0.3489319456","","main_expt","0.4791977258","","0.06219251386","","0.3260406689","","","","","","",""
"211","","bandit","203","540794","0.0-165.0-0.0","97087123","wem/bandit_single","A1SH7LQFR0U8FK","gain","7","","76","L","3","","1","0","0","0.3487232841","","false","128","0.3450526125","","main_expt","0.4772399827","","0.06192095676","","0.3487232841","","","","","","",""
"1","","bandit","204","542564","0.0-166.0-0.0","97087123","wem/bandit_single","A1SH7LQFR0U8FK","gain","7","","76","L","3","","0","0","1","0.3601162145","","false","129","0.3297424559","","main_expt","0.4688955373","","0.03846933599","","0.3601162145","","","","","","",""
"154","","bandit","205","544485","0.0-167.0-0.0","97087123","wem/bandit_single","A1SH7LQFR0U8FK","gain","7","","75","K","2","","0","0","1","0.02330960587","","false","130","0.3731420779","","main_expt","0.4651179545","","0.02330960587","","0.4185413006","","","","","","",""
"55","","bandit","206","546307","0.0-168.0-0.0","97087123","wem/bandit_single","A1SH7LQFR0U8FK","gain","7","","76","L","3","","1","0","0","0.4537663544","","false","131","0.325638262","","main_expt","0.4794739162","","0.03495479357","","0.4537663544","","","","","","",""
"13","","bandit","207","548090","0.0-169.0-0.0","97087123","wem/bandit_single","A1SH7LQFR0U8FK","gain","7","","76","L","3","","0","0","1","0.4489861829","","false","132","0.3132782049","","main_expt","0.4679846252","","0.02752519027","","0.4489861829","","","","","","",""
"30","","bandit","208","549888","0.0-170.0-0.0","97087123","wem/bandit_single","A1SH7LQFR0U8FK","gain","7","","76","L","3","","0","0","1","0.4465240103","","false","133","0.3552481716","","main_expt","0.4636487781","","0.03239645132","","0.4465240103","","","","","","",""
"480","","bandit","209","552137","0.0-171.0-0.0","97087123","wem/bandit_single","A1SH7LQFR0U8FK","gain","7","","74","J","1","","0","0","1","0.4578614037","","false","134","0.3478795997","","main_expt","0.4578614037","","0.02361228775","","0.4286255731","","","","","","",""
"185","","bandit","210","554094","0.0-172.0-0.0","97087123","wem/bandit_single","A1SH7LQFR0U8FK","gain","7","","74","J","1","","0","0","1","0.4339873336","","false","135","0.3394088604","","main_expt","0.4339873336","","0.01378345967","","0.3969320342","","","","","","",""
"25","","bandit","211","555887","0.0-173.0-0.0","97087123","wem/bandit_single","A1SH7LQFR0U8FK","gain","7","","74","J","1","","0","0","1","0.4091277288","","false","136","0.3739095734","","main_expt","0.4091277288","","0.01349892684","","0.3975573163","","","","","","",""
"185","","bandit","212","557845","0.0-174.0-0.0","97087123","wem/bandit_single","A1SH7LQFR0U8FK","gain","7","","74","J","1","","0","0","1","0.4024864596","","false","137","0.3319731639","","main_expt","0.4024864596","","0.01373747566","","0.4226438881","","","","","","",""
"168","","bandit","213","559783","0.0-175.0-0.0","97087123","wem/bandit_single","A1SH7LQFR0U8FK","gain","7","","75","K","2","","0","0","1","0.009346923256","","false","138","0.3427854578","","main_expt","0.3793932322","","0.009346923256","","0.383622376","","","","","","",""
"297","","bandit","214","561848","0.0-176.0-0.0","97087123","wem/bandit_single","A1SH7LQFR0U8FK","gain","7","","72","H","0","img/none_selected.jpg","0","0","1","0.2804250852","","false","139","0.2804250852","","main_expt","0.3940691536","","0.005947695369","","0.3892077266","","","","","","",""
"3","","bandit","215","563621","0.0-177.0-0.0","97087123","wem/bandit_single","A1SH7LQFR0U8FK","gain","7","","72","H","0","img/none_selected.jpg","1","0","0","0.294489168","","false","140","0.294489168","","main_expt","0.3878174143","","0.003062149202","","0.3721285976","","","","","","",""
"62","","bandit","216","565454","0.0-178.0-0.0","97087123","wem/bandit_single","A1SH7LQFR0U8FK","gain","7","","76","L","3","","0","0","1","0.403063379","","false","141","0.2849233321","","main_expt","0.3671315422","","0.003723800288","","0.403063379","","","","","","",""
"24","","bandit","217","567249","0.0-179.0-0.0","97087123","wem/bandit_single","A1SH7LQFR0U8FK","gain","7","","72","H","0","img/none_selected.jpg","0","0","1","0.2605380125","","false","142","0.2605380125","","main_expt","0.338830911","","0.003048460602","","0.3916907223","","","","","","",""
"43","","bandit","218","569062","0.0-180.0-0.0","97087123","wem/bandit_single","A1SH7LQFR0U8FK","gain","7","","74","J","1","","0","0","1","0.2709557481","","false","143","0.3030740536","","main_expt","0.2709557481","","0.002664125267","","0.4212357341","","","","","","",""
"120","","bandit","219","570950","0.0-181.0-0.0","97087123","wem/bandit_single","A1SH7LQFR0U8FK","gain","7","","75","K","2","","0","0","1","0.0015633636","","false","144","0.29766321","","main_expt","0.249986241","","0.0015633636","","0.3944164323","","","","","","",""
"40","","bandit","220","572762","0.0-182.0-0.0","97087123","wem/bandit_single","A1SH7LQFR0U8FK","gain","7","","75","K","2","","0","0","1","0.002084593646","","false","145","0.2862291296","","main_expt","0.2694710106","","0.002084593646","","0.4129391908","","","","","","",""
"34","","bandit","221","574565","0.0-183.0-0.0","97087123","wem/bandit_single","A1SH7LQFR0U8FK","gain","7","","75","K","2","","0","0","1","0.0008356934022","","false","146","0.3151642481","","main_expt","0.3099728414","","0.0008356934022","","0.4027876266","","","","","","",""
"127","","bandit","222","576463","0.0-184.0-0.0","97087123","wem/bandit_single","A1SH7LQFR0U8FK","gain","7","","76","L","3","","0","0","1","0.3906291495","","false","147","0.3261334855","","main_expt","0.3010760093","","0.00187417998","","0.3906291495","","","","","","",""
"137","","bandit","223","578371","0.0-185.0-0.0","97087123","wem/bandit_single","A1SH7LQFR0U8FK","gain","7","","76","L","3","","0","0","1","0.3718958907","","false","148","0.3605999671","","main_expt","0.2861733563","","0.001549413081","","0.3718958907","","","","","","",""
"100","","bandit","224","580238","0.0-186.0-0.0","97087123","wem/bandit_single","A1SH7LQFR0U8FK","gain","7","","72","H","0","img/none_selected.jpg","1","0","0","0.3848975894","","false","149","0.3848975894","","main_expt","0.2613296644","","0.002318569837","","0.3513552953","","","","","","",""
"10","","bandit","225","582018","0.0-187.0-0.0","97087123","wem/bandit_single","A1SH7LQFR0U8FK","gain","7","","72","H","0","img/none_selected.jpg","0","0","1","0.3680345664","","false","150","0.3680345664","","main_expt","0.2955554784","","0.002401941109","","0.3796712552","","","","","","",""
"120","","bandit","226","583908","0.0-188.0-0.0","97087123","wem/bandit_single","A1SH7LQFR0U8FK","gain","7","","72","H","0","img/none_selected.jpg","1","0","0","0.3517559312","","false","151","0.3517559312","","main_expt","0.2928365899","","0.002416650241","","0.4275550045","","","","","","",""
"126","","bandit","227","585800","0.0-189.0-0.0","97087123","wem/bandit_single","A1SH7LQFR0U8FK","gain","7","","72","H","0","img/none_selected.jpg","0","0","1","0.3963282571","","false","152","0.3963282571","","main_expt","0.3000067833","","0.002533271813","","0.4266807854","","","","","","",""
"23","","bandit","228","587593","0.0-190.0-0.0","97087123","wem/bandit_single","A1SH7LQFR0U8FK","gain","7","","72","H","0","img/none_selected.jpg","0","0","1","0.432842039","","false","153","0.432842039","","main_expt","0.2757802357","","0.00322942279","","0.4633151701","","","","","","",""
"156","","bandit","229","589516","0.0-191.0-0.0","97087123","wem/bandit_single","A1SH7LQFR0U8FK","gain","7","","72","H","0","img/none_selected.jpg","0","0","1","0.4134551824","","false","154","0.4134551824","","main_expt","0.3252288772","","0.003404333974","","0.4723469507","","","","","","",""
"83","","bandit","230","591370","0.0-192.0-0.0","97087123","wem/bandit_single","A1SH7LQFR0U8FK","gain","7","","75","K","2","","0","0","1","0.008925030754","","false","155","0.426737857","","main_expt","0.2746928085","","0.008925030754","","0.4829251431","","","","","","",""
"49","","bandit","231","593187","0.0-193.0-0.0","97087123","wem/bandit_single","A1SH7LQFR0U8FK","gain","7","","74","J","1","","0","0","1","0.2881451241","","false","156","0.4289541051","","main_expt","0.2881451241","","0.005317619152","","0.4753947098","","","","","","",""
"112","","bandit","232","595067","0.0-194.0-0.0","97087123","wem/bandit_single","A1SH7LQFR0U8FK","gain","7","","74","J","1","","0","0","1","0.2861132768","","false","157","0.4593738684","","main_expt","0.2861132768","","0.002657446392","","0.4686295074","","","","","","",""
"18","","bandit","233","596856","0.0-195.0-0.0","97087123","wem/bandit_single","A1SH7LQFR0U8FK","gain","7","","76","L","3","","0","0","1","0.4746137902","","false","158","0.4716769587","","main_expt","0.2382703247","","0.005349678466","","0.4746137902","","","","","","",""
"119","","bandit","234","598751","0.0-196.0-0.0","97087123","wem/bandit_single","A1SH7LQFR0U8FK","gain","7","","76","L","3","","0","0","1","0.4626257703","","false","159","0.4566829936","","main_expt","0.2650616746","","0.00353293949","","0.4626257703","","","","","","",""
"385","","bandit","235","600906","0.0-197.0-0.0","97087123","wem/bandit_single","A1SH7LQFR0U8FK","gain","7","","75","K","2","","0","0","1","0.004525880368","","false","160","0.4684401337","","main_expt","0.2841227011","","0.004525880368","","0.4690497323","","","","","","",""
"110","","bandit","236","602788","0.0-198.0-0.0","97087123","wem/bandit_single","A1SH7LQFR0U8FK","gain","7","","74","J","1","","0","0","1","0.3103310899","","false","161","0.4327192474","","main_expt","0.3103310899","","0.00364468733","","0.4605728382","","","","","","",""
"1","","bandit","237","604563","0.0-199.0-0.0","97087123","wem/bandit_single","A1SH7LQFR0U8FK","gain","7","","72","H","0","img/none_selected.jpg","1","0","0","0.4158578039","","false","162","0.4158578039","","main_expt","0.2990864795","","0.004567203872","","0.4663204896","","","","","","",""
"90","","bandit","238","606426","0.0-200.0-0.0","97087123","wem/bandit_single","A1SH7LQFR0U8FK","gain","7","","72","H","0","img/none_selected.jpg","0","0","1","0.4206849782","","false","163","0.4206849782","","main_expt","0.2650304997","","0.003538815","","0.4626626357","","","","","","",""
"135","","bandit","239","608331","0.0-201.0-0.0","97087123","wem/bandit_single","A1SH7LQFR0U8FK","gain","7","","72","H","0","img/none_selected.jpg","0","0","1","0.4276923589","","false","164","0.4276923589","","main_expt","0.2877519924","","0.002896615325","","0.4672680551","","","","","","",""
"110","","bandit","240","610213","0.0-202.0-0.0","97087123","wem/bandit_single","A1SH7LQFR0U8FK","gain","7","","76","L","3","","0","0","1","0.455015491","","false","165","0.4204466813","","main_expt","0.2818109827","","0.004500484281","","0.455015491","","","","","","",""
"92","","bandit","241","612073","0.0-203.0-0.0","97087123","wem/bandit_single","A1SH7LQFR0U8FK","gain","7","","76","L","3","","0","0","1","0.4201800218","","false","166","0.4229734844","","main_expt","0.324785045","","0.01017739848","","0.4201800218","","","","","","",""
"22","","bandit","242","613864","0.0-204.0-0.0","97087123","wem/bandit_single","A1SH7LQFR0U8FK","gain","7","","75","K","2","","0","0","1","0.0129517719","","false","167","0.4474449943","","main_expt","0.3339304688","","0.0129517719","","0.4430085171","","","","","","",""
"164","","bandit","243","615795","0.0-205.0-0.0","97087123","wem/bandit_single","A1SH7LQFR0U8FK","gain","7","","72","H","0","img/none_selected.jpg","0","0","1","0.4458086367","","false","168","0.4458086367","","main_expt","0.3351003476","","0.009045291763","","0.4526671473","","","","","","",""
"18","","bandit","244","617583","0.0-206.0-0.0","97087123","wem/bandit_single","A1SH7LQFR0U8FK","gain","7","","72","H","0","img/none_selected.jpg","1","0","0","0.4619433307","","false","169","0.4619433307","","main_expt","0.3556935824","","0.01553154223","","0.4477525289","","","","","","",""
"81","","bandit","245","619434","0.0-207.0-0.0","97087123","wem/bandit_single","A1SH7LQFR0U8FK","gain","7","","72","H","0","img/none_selected.jpg","0","0","1","0.4703570947","","false","170","0.4703570947","","main_expt","0.3690608098","","0.01787531072","","0.41154262","","","","","","",""
"122","","bandit","246","621327","0.0-208.0-0.0","97087123","wem/bandit_single","A1SH7LQFR0U8FK","gain","7","","72","H","0","img/none_selected.jpg","1","0","0","0.474742395","","false","171","0.474742395","","main_expt","0.3631266209","","0.01316551092","","0.37868858","","","","","","",""
"3","","bandit","247","623096","0.0-209.0-0.0","97087123","wem/bandit_single","A1SH7LQFR0U8FK","gain","7","","72","H","0","img/none_selected.jpg","0","0","1","0.4773845315","","false","172","0.4773845315","","main_expt","0.3392191481","","0.0172037691","","0.3971498268","","","","","","",""
"104","","bandit","248","624972","0.0-210.0-0.0","97087123","wem/bandit_single","A1SH7LQFR0U8FK","gain","7","","72","H","0","img/none_selected.jpg","1","0","0","0.4680058345","","false","173","0.4680058345","","main_expt","0.2931772585","","0.01427011775","","0.4319579383","","","","","","",""
"149","","bandit","249","626893","0.0-211.0-0.0","97087123","wem/bandit_single","A1SH7LQFR0U8FK","gain","7","","72","H","0","img/none_selected.jpg","1","0","0","0.4561145842","","false","174","0.4561145842","","main_expt","0.2750831853","","0.01057019218","","0.4174714043","","","","","","",""
"72","","bandit","250","628734","0.0-212.0-0.0","97087123","wem/bandit_single","A1SH7LQFR0U8FK","gain","7","","72","H","0","img/none_selected.jpg","0","0","1","0.472279608","","false","175","0.472279608","","main_expt","0.2997345097","","0.007255369755","","0.3846013355","","","","","","",""
"162","","bandit","251","630662","0.0-213.0-0.0","97087123","wem/bandit_single","A1SH7LQFR0U8FK","gain","7","","72","H","0","img/none_selected.jpg","1","0","0","0.4602447812","","false","176","0.4602447812","","main_expt","0.3402413884","","0.01305273867","","0.4019342833","","","","","","",""
"114","","bandit","252","632549","0.0-214.0-0.0","97087123","wem/bandit_single","A1SH7LQFR0U8FK","gain","7","","72","H","0","img/none_selected.jpg","0","0","1","0.4343313091","","false","177","0.4343313091","","main_expt","0.3099882557","","0.0133150908","","0.4211485366","","","","","","",""
"140","","bandit","253","634458","0.0-215.0-0.0","97087123","wem/bandit_single","A1SH7LQFR0U8FK","gain","7","","75","K","2","","0","0","1","0.01259822705","","false","178","0.4048428007","","main_expt","0.2761175095","","0.01259822705","","0.4133977621","","","","","","",""
"103","","bandit","254","636331","0.0-216.0-0.0","97087123","wem/bandit_single","A1SH7LQFR0U8FK","gain","7","","75","K","2","","0","0","1","0.008971211221","","false","179","0.3826353834","","main_expt","0.3053987856","","0.008971211221","","0.4395013083","","","","","","",""
"86","","bandit","255","638190","0.0-217.0-0.0","97087123","wem/bandit_single","A1SH7LQFR0U8FK","gain","7","","75","K","2","","0","0","1","0.01053614943","","false","180","0.3352628501","","main_expt","0.291880519","","0.01053614943","","0.4385200931","","","","","","",""
"41","","bandit","256","640001","0.0-218.0-0.0","97087123","wem/bandit_single","A1SH7LQFR0U8FK","gain","7","","76","L","3","","0","0","1","0.4225113135","","false","181","0.2990499081","","main_expt","0.298429346","","0.01184041186","","0.4225113135","","","","","","",""
"105","","bandit","257","641878","0.0-219.0-0.0","97087123","wem/bandit_single","A1SH7LQFR0U8FK","gain","7","","76","L","3","","0","0","1","0.3723799893","","false","182","0.3698835663","","main_expt","0.3343264324","","0.03042574256","","0.3723799893","","","","","","",""
"73","","bandit","258","643722","0.0-220.0-0.0","97087123","wem/bandit_single","A1SH7LQFR0U8FK","gain","7","","76","L","3","","1","0","0","0.3790924375","","false","183","0.3849917371","","main_expt","0.2890729732","","0.03286829004","","0.3790924375","","","","","","",""
"76","","bandit","259","645567","0.0-221.0-0.0","97087123","wem/bandit_single","A1SH7LQFR0U8FK","gain","7","","76","L","3","","0","0","1","0.4122006093","","false","184","0.3560661239","","main_expt","0.1975841231","","0.05565884368","","0.4122006093","","","","","","",""
"150","","bandit","260","647485","0.0-222.0-0.0","97087123","wem/bandit_single","A1SH7LQFR0U8FK","gain","7","","76","L","3","","0","0","1","0.3681720139","","false","185","0.3637043243","","main_expt","0.213981158","","0.05703602855","","0.3681720139","","","","","","",""
"53","","bandit","261","649308","0.0-223.0-0.0","97087123","wem/bandit_single","A1SH7LQFR0U8FK","gain","7","","75","K","2","","0","0","1","0.08167625523","","false","186","0.370254809","","main_expt","0.1690135127","","0.08167625523","","0.3735732413","","","","","","",""
"26","","bandit","262","651102","0.0-224.0-0.0","97087123","wem/bandit_single","A1SH7LQFR0U8FK","gain","7","","75","K","2","","0","0","1","0.08146612985","","false","187","0.3451477914","","main_expt","0.2606776113","","0.08146612985","","0.3763431734","","","","","","",""
"56","","bandit","263","652931","0.0-225.0-0.0","97087123","wem/bandit_single","A1SH7LQFR0U8FK","gain","7","","72","H","0","img/none_selected.jpg","1","0","0","0.3939300048","","false","188","0.3939300048","","main_expt","0.2431197375","","0.09365986726","","0.3515668436","","","","","","",""
"19","","bandit","264","654729","0.0-226.0-0.0","97087123","wem/bandit_single","A1SH7LQFR0U8FK","gain","7","","72","H","0","img/none_selected.jpg","0","0","1","0.4136030152","","false","189","0.4136030152","","main_expt","0.2308206277","","0.09268069957","","0.3343836861","","","","","","",""
"65","","bandit","265","656562","0.0-227.0-0.0","97087123","wem/bandit_single","A1SH7LQFR0U8FK","gain","7","","72","H","0","img/none_selected.jpg","1","0","0","0.4261376259","","false","190","0.4261376259","","main_expt","0.2025271702","","0.08594859785","","0.2525345787","","","","","","",""
"110","","bandit","266","658444","0.0-228.0-0.0","97087123","wem/bandit_single","A1SH7LQFR0U8FK","gain","7","","72","H","0","img/none_selected.jpg","0","0","1","0.3908696756","","false","191","0.3908696756","","main_expt","0.2751540988","","0.08932588753","","0.2685183708","","","","","","",""
"71","","bandit","267","660283","0.0-229.0-0.0","97087123","wem/bandit_single","A1SH7LQFR0U8FK","gain","7","","72","H","0","img/none_selected.jpg","1","0","0","0.4106222578","","false","192","0.4106222578","","main_expt","0.2569606715","","0.1064261942","","0.2572514827","","","","","","",""
"90","","bandit","268","662140","0.0-230.0-0.0","97087123","wem/bandit_single","A1SH7LQFR0U8FK","gain","7","","72","H","0","img/none_selected.jpg","0","0","1","0.4282135821","","false","193","0.4282135821","","main_expt","0.2874900681","","0.1536879749","","0.1969756064","","","","","","",""
"76","","bandit","269","663994","0.0-231.0-0.0","97087123","wem/bandit_single","A1SH7LQFR0U8FK","gain","7","","75","K","2","","0","0","1","0.1389913839","","false","194","0.4423695223","","main_expt","0.1735349233","","0.1389913839","","0.2134952627","","","","","","",""
"8","","bandit","270","665775","0.0-232.0-0.0","97087123","wem/bandit_single","A1SH7LQFR0U8FK","gain","7","","74","J","1","","0","0","1","0.1922880567","","false","195","0.4594299266","","main_expt","0.1922880567","","0.1439418744","","0.1620875807","","","","","","",""
"37","","bandit","271","667581","0.0-233.0-0.0","97087123","wem/bandit_single","A1SH7LQFR0U8FK","gain","7","","72","H","0","img/none_selected.jpg","0","0","1","0.4446405127","","false","196","0.4446405127","","main_expt","0.180833075","","0.131143091","","0.166822232","","","","","","",""
"46","","bandit","272","669399","0.0-234.0-0.0","97087123","wem/bandit_single","A1SH7LQFR0U8FK","gain","7","","72","H","0","img/none_selected.jpg","1","0","0","0.4559667881","","false","197","0.4559667881","","main_expt","0.2213655201","","0.1358316141","","0.1951417713","","","","","","",""
"17","","bandit","273","671191","0.0-235.0-0.0","97087123","wem/bandit_single","A1SH7LQFR0U8FK","gain","7","","72","H","0","img/none_selected.jpg","0","0","1","0.4760465659","","false","198","0.4760465659","","main_expt","0.1886922679","","0.1271866158","","0.1946571809","","","","","","",""
"17","","bandit","274","672982","0.0-236.0-0.0","97087123","wem/bandit_single","A1SH7LQFR0U8FK","gain","7","","72","H","0","img/none_selected.jpg","0","0","1","0.4682530898","","false","199","0.4682530898","","main_expt","0.1960792333","","0.1427164763","","0.125569753","","","","","","",""
"55","","bandit","275","674809","0.0-237.0-0.0","97087123","wem/bandit_single","A1SH7LQFR0U8FK","gain","7","","72","H","0","img/none_selected.jpg","1","0","0","0.4722721777","","false","200","0.4722721777","","main_expt","0.2093645874","","0.1465126473","","0.110010897","","","","","","",""
"111","","bandit","276","676697","0.0-238.0-0.0","97087123","wem/bandit_single","A1SH7LQFR0U8FK","gain","7","","72","H","0","img/none_selected.jpg","1","0","0","0.4739800601","","false","201","0.4739800601","","main_expt","0.1673165995","","0.1271257608","","0.1280762957","","","","","","",""
"53","","bandit","277","678517","0.0-239.0-0.0","97087123","wem/bandit_single","A1SH7LQFR0U8FK","gain","7","","72","H","0","img/none_selected.jpg","0","0","1","0.479726886","","false","202","0.479726886","","main_expt","0.2086438453","","0.08657179739","","0.1402913484","","","","","","",""
"15","","bandit","278","680301","0.0-240.0-0.0","97087123","wem/bandit_single","A1SH7LQFR0U8FK","gain","7","","75","K","2","","1","0","0","0.09313456927","","false","203","0.4642372742","","main_expt","0.1973992815","","0.09313456927","","0.2217412738","","","","","","",""
"75","","bandit","279","682149","0.0-241.0-0.0","97087123","wem/bandit_single","A1SH7LQFR0U8FK","gain","7","","75","K","2","","0","0","1","0.1497906572","","false","204","0.4560882558","","main_expt","0.2256674954","","0.1497906572","","0.2231628045","","","","","","",""
"90","","bandit","280","684010","0.0-242.0-0.0","97087123","wem/bandit_single","A1SH7LQFR0U8FK","gain","7","","74","J","1","","0","0","1","0.2163874892","","false","205","0.4525737262","","main_expt","0.2163874892","","0.1829644856","","0.2170181201","","","","","","",""
"16","","bandit","281","685806","0.0-243.0-0.0","97087123","wem/bandit_single","A1SH7LQFR0U8FK","gain","7","","74","J","1","","1","0","0","0.2197086186","","false","206","0.4550624295","","main_expt","0.2197086186","","0.1612057882","","0.2796725078","","","","","","",""
"129","","bandit","282","687706","0.0-244.0-0.0","97087123","wem/bandit_single","A1SH7LQFR0U8FK","gain","7","","74","J","1","","0","0","1","0.2065154411","","false","207","0.4723612306","","main_expt","0.2065154411","","0.1697938272","","0.2817680811","","","","","","",""
"50","","bandit","283","689532","0.0-245.0-0.0","97087123","wem/bandit_single","A1SH7LQFR0U8FK","gain","7","","76","L","3","","0","0","1","0.2823403198","","false","208","0.4766034411","","main_expt","0.1685179651","","0.1559958766","","0.2823403198","","","","","","",""
"134","","bandit","284","691441","0.0-246.0-0.0","97087123","wem/bandit_single","A1SH7LQFR0U8FK","gain","7","","76","L","3","","1","0","0","0.3618902866","","false","209","0.483515399","","main_expt","0.138461816","","0.1446830505","","0.3618902866","","","","","","",""
"115","","bandit","285","693329","0.0-247.0-0.0","97087123","wem/bandit_single","A1SH7LQFR0U8FK","gain","7","","76","L","3","","0","0","1","0.373554641","","false","210","0.4880418707","","main_expt","0.1494322788","","0.1231196185","","0.373554641","","","","","","",""
"165","","bandit","286","695266","0.0-248.0-0.0","97087123","wem/bandit_single","A1SH7LQFR0U8FK","gain","7","","72","H","0","img/none_selected.jpg","1","0","0","0.4802592994","","false","211","0.4802592994","","main_expt","0.1799359977","","0.1456244431","","0.4160488284","","","","","","",""
"64","","bandit","287","697103","0.0-249.0-0.0","97087123","wem/bandit_single","A1SH7LQFR0U8FK","gain","7","","72","H","0","img/none_selected.jpg","0","0","1","0.4738887763","","false","212","0.4738887763","","main_expt","0.1810857181","","0.1656867557","","0.381710399","","","","","","",""
"53","","bandit","288","698928","0.0-250.0-0.0","97087123","wem/bandit_single","A1SH7LQFR0U8FK","gain","7","","75","K","2","","0","0","1","0.224977978","","false","213","0.4808850683","","main_expt","0.1615137558","","0.224977978","","0.3769148707","","","","","","",""
"64","","bandit","289","700765","0.0-251.0-0.0","97087123","wem/bandit_single","A1SH7LQFR0U8FK","gain","7","","75","K","2","","0","0","1","0.307554285","","false","214","0.4825694391","","main_expt","0.1650702933","","0.307554285","","0.3476207329","","","","","","",""
"156","","bandit","290","702695","0.0-252.0-0.0","97087123","wem/bandit_single","A1SH7LQFR0U8FK","gain","7","","76","L","3","","1","0","0","0.3089741626","","false","215","0.4847107186","","main_expt","0.1804791034","","0.3638187162","","0.3089741626","","","","","","",""
"148","","bandit","291","704618","0.0-253.0-0.0","97087123","wem/bandit_single","A1SH7LQFR0U8FK","gain","7","","76","L","3","","0","0","1","0.3674618518","","false","216","0.4809007894","","main_expt","0.1573161505","","0.3543809852","","0.3674618518","","","","","","",""
"72","","bandit","292","706460","0.0-254.0-0.0","97087123","wem/bandit_single","A1SH7LQFR0U8FK","gain","7","","74","J","1","","0","0","1","0.1434716653","","false","217","0.4741770765","","main_expt","0.1434716653","","0.3301156576","","0.3283657719","","","","","","",""
"128","","bandit","293","708364","0.0-255.0-0.0","97087123","wem/bandit_single","A1SH7LQFR0U8FK","gain","7","","74","J","1","","0","0","1","0.1911838451","","false","218","0.4819245576","","main_expt","0.1911838451","","0.3132999057","","0.3302734852","","","","","","",""
"39","","bandit","294","710181","0.0-256.0-0.0","97087123","wem/bandit_single","A1SH7LQFR0U8FK","gain","7","","72","H","0","img/none_selected.jpg","0","0","1","0.4793241995","","false","219","0.4793241995","","main_expt","0.1441129831","","0.2205266592","","0.3554571327","","","","","","",""
"68","","bandit","295","712021","0.0-257.0-0.0","97087123","wem/bandit_single","A1SH7LQFR0U8FK","gain","7","","76","L","3","","0","0","1","0.319330444","","false","220","0.4713672071","","main_expt","0.1920309772","","0.2167078271","","0.319330444","","","","","","",""
"35","","bandit","296","713828","0.0-258.0-0.0","97087123","wem/bandit_single","A1SH7LQFR0U8FK","gain","7","","75","K","2","","0","0","1","0.2038989409","","false","221","0.4728071858","","main_expt","0.1770810464","","0.2038989409","","0.3105046037","","","","","","",""
"119","","bandit","297","715726","0.0-259.0-0.0","97087123","wem/bandit_single","A1SH7LQFR0U8FK","gain","7","","72","H","0","img/none_selected.jpg","0","0","1","0.4742115633","","false","222","0.4742115633","","main_expt","0.1726735039","","0.18760722","","0.2971369975","","","","","","",""
"4","","bandit","298","717508","0.0-260.0-0.0","97087123","wem/bandit_single","A1SH7LQFR0U8FK","gain","7","","74","J","1","","1","0","0","0.1935596247","","false","223","0.4606319974","","main_expt","0.1935596247","","0.1794058889","","0.2924153056","","","","","","",""
"15","","bandit","299","719296","0.0-261.0-0.0","97087123","wem/bandit_single","A1SH7LQFR0U8FK","gain","7","","74","J","1","","0","0","1","0.184290804","","false","224","0.4796626282","","main_expt","0.184290804","","0.1973287288","","0.3251713444","","","","","","",""
"44","","bandit","300","721112","0.0-262.0-0.0","97087123","wem/bandit_single","A1SH7LQFR0U8FK","gain","7","","75","K","2","","0","0","1","0.1657141015","","false","225","0.4770938662","","main_expt","0.1182631535","","0.1657141015","","0.3191667618","","","","","","",""
"105","","bandit","301","722991","0.0-263.0-0.0","97087123","wem/bandit_single","A1SH7LQFR0U8FK","gain","7","","72","H","0","img/none_selected.jpg","1","0","0","0.4753940461","","false","226","0.4753940461","","main_expt","0.1243406576","","0.1333985498","","0.3163975521","","","","","","",""
"13","","bandit","302","724784","0.0-264.0-0.0","97087123","wem/bandit_single","A1SH7LQFR0U8FK","gain","7","","72","H","0","img/none_selected.jpg","1","0","0","0.4692559414","","false","227","0.4692559414","","main_expt","0.1887705619","","0.1426718429","","0.3153023093","","","","","","",""
"100","","bandit","303","726661","0.0-265.0-0.0","97087123","wem/bandit_single","A1SH7LQFR0U8FK","gain","7","","72","H","0","img/none_selected.jpg","0","0","1","0.4549715312","","false","228","0.4549715312","","main_expt","0.1594511678","","0.1510234048","","0.252814401","","","","","","",""
"93","","bandit","304","728532","0.0-266.0-0.0","97087123","wem/bandit_single","A1SH7LQFR0U8FK","gain","7","","76","L","3","","0","0","1","0.2830586582","","false","229","0.4818432606","","main_expt","0.1582092687","","0.1786638104","","0.2830586582","","","","","","",""
"68","","bandit","305","730378","0.0-267.0-0.0","97087123","wem/bandit_single","A1SH7LQFR0U8FK","gain","7","","75","K","2","","1","0","0","0.1564383184","","false","230","0.4542350274","","main_expt","0.149178519","","0.1564383184","","0.2124451555","","","","","","",""
"83","","bandit","306","732239","0.0-268.0-0.0","97087123","wem/bandit_single","A1SH7LQFR0U8FK","gain","7","","72","H","0","img/none_selected.jpg","0","0","1","0.4646494747","","false","231","0.4646494747","","main_expt","0.2063022429","","0.1398607303","","0.1175217461","","","","","","",""
"98","","bandit","307","734112","0.0-269.0-0.0","97087123","wem/bandit_single","A1SH7LQFR0U8FK","gain","7","","75","K","2","","0","0","1","0.1323980205","","false","232","0.4617677548","","main_expt","0.2424934828","","0.1323980205","","0.144677577","","","","","","",""
"43","","bandit","308","735930","0.0-270.0-0.0","97087123","wem/bandit_single","A1SH7LQFR0U8FK","gain","7","","74","J","1","","1","0","0","0.2404462099","","false","233","0.4535872836","","main_expt","0.2404462099","","0.1510374747","","0.1555092754","","","","","","",""
"121","","bandit","309","737828","0.0-271.0-0.0","97087123","wem/bandit_single","A1SH7LQFR0U8FK","gain","7","","72","H","0","img/none_selected.jpg","1","0","0","0.4297764401","","false","234","0.4297764401","","main_expt","0.1830028502","","0.133247495","","0.1250762939","","","","","","",""
"104","","bandit","310","739711","0.0-272.0-0.0","97087123","wem/bandit_single","A1SH7LQFR0U8FK","gain","7","","74","J","1","","0","0","1","0.2197419317","","false","235","0.4335441617","","main_expt","0.2197419317","","0.1666928205","","0.1094925358","","","","","","",""
"55","","bandit","311","741540","0.0-273.0-0.0","97087123","wem/bandit_single","A1SH7LQFR0U8FK","gain","7","","72","H","0","img/none_selected.jpg","0","0","1","0.4390497594","","false","236","0.4390497594","","main_expt","0.2537285896","","0.1772374327","","0.09099935704","","","","","","",""
"44","","bandit","312","743356","0.0-274.0-0.0","97087123","wem/bandit_single","A1SH7LQFR0U8FK","gain","7","","74","J","1","","0","0","1","0.2967198922","","false","237","0.4557250369","","main_expt","0.2967198922","","0.2093850131","","0.07445530481","","","","","","",""
"1","","bandit","313","745134","0.0-275.0-0.0","97087123","wem/bandit_single","A1SH7LQFR0U8FK","gain","7","","76","L","3","","0","0","1","0.1160826651","","false","238","0.4712934341","","main_expt","0.2716881628","","0.2323540058","","0.1160826651","","","","","","",""
"74","","bandit","314","746984","0.0-276.0-0.0","97087123","wem/bandit_single","A1SH7LQFR0U8FK","gain","7","","75","K","2","","0","0","1","0.2527052166","","false","239","0.4744109467","","main_expt","0.2840113657","","0.2527052166","","0.1935594103","","","","","","",""
"143","","bandit","315","748905","0.0-277.0-0.0","97087123","wem/bandit_single","A1SH7LQFR0U8FK","gain","7","","74","J","1","","1","0","0","0.3274134878","","false","240","0.4856904038","","main_expt","0.3274134878","","0.2429338356","","0.2305108235","","","","","","",""
"113","","bandit","316","750791","0.0-278.0-0.0","97087123","wem/bandit_single","A1SH7LQFR0U8FK","gain","7","","72","H","0","img/none_selected.jpg","0","0","1","0.474377245","","false","241","0.474377245","","main_expt","0.3106351565","","0.2422046893","","0.23744922","","","","","","",""
"75","","bandit","317","752643","0.0-279.0-0.0","97087123","wem/bandit_single","A1SH7LQFR0U8FK","gain","7","","74","J","1","","0","0","1","0.276301991","","false","242","0.4699498903","","main_expt","0.276301991","","0.1974588069","","0.2644088126","","","","","","",""
"115","","bandit","318","754533","0.0-280.0-0.0","97087123","wem/bandit_single","A1SH7LQFR0U8FK","gain","7","","75","K","2","","0","0","1","0.1697106736","","false","243","0.4696131401","","main_expt","0.2682550828","","0.1697106736","","0.3029471314","","","","","","",""
"116","","bandit","319","756426","0.0-281.0-0.0","97087123","wem/bandit_single","A1SH7LQFR0U8FK","gain","7","","76","L","3","","0","0","1","0.2869027424","","false","244","0.4519085084","","main_expt","0.2717267912","","0.1495066821","","0.2869027424","","","","","","",""
"3","","bandit","320","758204","0.0-282.0-0.0","97087123","wem/bandit_single","A1SH7LQFR0U8FK","gain","7","","72","H","0","img/none_selected.jpg","0","0","1","0.4620487724","","false","245","0.4620487724","","main_expt","0.2480355477","","0.1664551864","","0.2928347339","","","","","","",""
"143","","bandit","321","760124","0.0-283.0-0.0","97087123","wem/bandit_single","A1SH7LQFR0U8FK","gain","7","","72","H","0","img/none_selected.jpg","1","0","0","0.4553277256","","false","246","0.4553277256","","main_expt","0.2978011657","","0.1660340973","","0.2537870262","","","","","","",""
"75","","bandit","322","761976","0.0-284.0-0.0","97087123","wem/bandit_single","A1SH7LQFR0U8FK","gain","7","","72","H","0","img/none_selected.jpg","0","0","1","0.4470790686","","false","247","0.4470790686","","main_expt","0.3183795364","","0.2232834288","","0.220788829","","","","","","",""
"35","","bandit","323","763782","0.0-285.0-0.0","97087123","wem/bandit_single","A1SH7LQFR0U8FK","gain","7","","74","J","1","","1","0","0","0.3496285813","","false","248","0.4370243233","","main_expt","0.3496285813","","0.2337066106","","0.2260039815","","","","","","",""
"21","","bandit","324","765589","0.0-286.0-0.0","97087123","wem/bandit_single","A1SH7LQFR0U8FK","gain","7","","74","J","1","","0","0","1","0.3450691196","","false","249","0.4344986606","","main_expt","0.3450691196","","0.2555848542","","0.2536259712","","","","","","",""
"42","","bandit","325","767407","0.0-287.0-0.0","97087123","wem/bandit_single","A1SH7LQFR0U8FK","gain","7","","75","K","2","","0","0","1","0.2423579198","","false","250","0.4418367533","","main_expt","0.3451339369","","0.2423579198","","0.2748463286","","","","","","",""
"88","","bandit","326","769272","0.0-288.0-0.0","97087123","wem/bandit_single","A1SH7LQFR0U8FK","gain","7","","76","L","3","","1","0","0","0.2623633266","","false","251","0.4227475224","","main_expt","0.3928119302","","0.2275025436","","0.2623633266","","","","","","",""
"33","","bandit","327","771082","0.0-289.0-0.0","97087123","wem/bandit_single","A1SH7LQFR0U8FK","gain","7","","76","L","3","","0","0","1","0.3173920108","","false","252","0.423648384","","main_expt","0.3926241496","","0.2868871138","","0.3173920108","","","","","","",""
"162","","bandit","328","773028","0.0-290.0-0.0","97087123","wem/bandit_single","A1SH7LQFR0U8FK","gain","7","","72","H","0","img/none_selected.jpg","1","0","0","0.4321428437","","false","253","0.4321428437","","main_expt","0.4074069762","","0.2719675916","","0.3172059241","","","","","","",""
"149","","bandit","329","774954","0.0-291.0-0.0","97087123","wem/bandit_single","A1SH7LQFR0U8FK","gain","7","","72","H","0","img/none_selected.jpg","1","0","0","0.4621147124","","false","254","0.4621147124","","main_expt","0.3831412703","","0.3118638267","","0.3200237469","","","","","","",""
"14","","bandit","330","776745","0.0-292.0-0.0","97087123","wem/bandit_single","A1SH7LQFR0U8FK","gain","7","","72","H","0","img/none_selected.jpg","0","0","1","0.4586218194","","false","255","0.4586218194","","main_expt","0.3639457665","","0.2103897122","","0.3358809316","","","","","","",""
"98","","bandit","331","778618","0.0-293.0-0.0","97087123","wem/bandit_single","A1SH7LQFR0U8FK","gain","7","","75","K","2","","0","0","1","0.2053105091","","false","256","0.4661438042","","main_expt","0.3353936822","","0.2053105091","","0.3288682213","","","","","","",""
"115","","bandit","332","780511","0.0-294.0-0.0","97087123","wem/bandit_single","A1SH7LQFR0U8FK","gain","7","","74","J","1","","1","0","0","0.3457786028","","false","257","0.4746145216","","main_expt","0.3457786028","","0.2101260802","","0.3298558235","","","","","","",""
"111","","bandit","333","782400","0.0-295.0-0.0","97087123","wem/bandit_single","A1SH7LQFR0U8FK","gain","7","","74","J","1","","1","0","0","0.3336199161","","false","258","0.479590246","","main_expt","0.3336199161","","0.251470712","","0.3544886593","","","","","","",""
"73","","bandit","334","784248","0.0-296.0-0.0","97087123","wem/bandit_single","A1SH7LQFR0U8FK","gain","7","","74","J","1","","0","0","1","0.3182937175","","false","259","0.4543592645","","main_expt","0.3182937175","","0.2320991284","","0.3380036538","","","","","","",""
"133","","bandit","335","786160","0.0-297.0-0.0","97087123","wem/bandit_single","A1SH7LQFR0U8FK","gain","7","","75","K","2","","0","0","1","0.2850429488","","false","260","0.4591910344","","main_expt","0.3004718715","","0.2850429488","","0.2797544445","","","","","","",""
"126","","bandit","336","788071","0.0-298.0-0.0","97087123","wem/bandit_single","A1SH7LQFR0U8FK","gain","7","","74","J","1","","1","0","0","0.2969538951","","false","261","0.4416244086","","main_expt","0.2969538951","","0.3396488321","","0.2594239605","","","","","","",""
"5","","bandit","337","789860","0.0-299.0-0.0","97087123","wem/bandit_single","A1SH7LQFR0U8FK","gain","7","","74","J","1","","0","0","1","0.336502974","","false","262","0.410126596","","main_expt","0.336502974","","0.243241633","","0.2804023839","","","","","","",""
"119","","bandit","338","791756","0.0-300.0-0.0","97087123","wem/bandit_single","A1SH7LQFR0U8FK","gain","7","","72","H","0","img/none_selected.jpg","1","0","0","0.3852167719","","false","263","0.3852167719","","main_expt","0.3417757729","","0.221101122","","0.2526654216","","","","","","",""
"10","","bandit","339","793544","0.0-301.0-0.0","97087123","wem/bandit_single","A1SH7LQFR0U8FK","gain","7","","76","L","3","","0","0","1","0.2262009497","","false","264","0.4048243192","","main_expt","0.3288238543","","0.2475963948","","0.2262009497","","","","","","",""
"56","","bandit","340","795377","0.0-302.0-0.0","97087123","wem/bandit_single","A1SH7LQFR0U8FK","gain","7","","72","H","0","img/none_selected.jpg","1","0","0","0.3671025299","","false","265","0.3671025299","","main_expt","0.2661945806","","0.2472156829","","0.2111455706","","","","","","",""
"80","","bandit","341","797232","0.0-303.0-0.0","97087123","wem/bandit_single","A1SH7LQFR0U8FK","gain","7","","72","H","0","img/none_selected.jpg","0","0","1","0.366792141","","false","266","0.366792141","","main_expt","0.2831053071","","0.2257792125","","0.1816972253","","","","","","",""
"137","","bandit","342","799147","0.0-304.0-0.0","97087123","wem/bandit_single","A1SH7LQFR0U8FK","gain","7","","74","J","1","","1","0","0","0.2814616526","","false","267","0.3187551676","","main_expt","0.2814616526","","0.2434052149","","0.08996407949","","","","","","",""
"39","","bandit","343","800964","0.0-305.0-0.0","97087123","wem/bandit_single","A1SH7LQFR0U8FK","gain","7","","75","K","2","","1","0","0","0.2472891614","","false","268","0.2992927481","","main_expt","0.2698532634","","0.2472891614","","0.08316088703","","","","","","",""
"153","","bandit","344","802893","0.0-306.0-0.0","97087123","wem/bandit_single","A1SH7LQFR0U8FK","gain","7","","74","J","1","","0","0","1","0.332936287","","false","269","0.3158706852","","main_expt","0.332936287","","0.2592343403","","0.132755096","","","","","","",""
"10","","bandit","345","804682","0.0-307.0-0.0","97087123","wem/bandit_single","A1SH7LQFR0U8FK","gain","7","","75","K","2","","0","0","1","0.2626766442","","false","270","0.3399881701","","main_expt","0.3520051328","","0.2626766442","","0.1295257529","","","","","","",""
"134","","bandit","346","806594","0.0-308.0-0.0","97087123","wem/bandit_single","A1SH7LQFR0U8FK","gain","7","","76","L","3","","0","0","1","0.1243547369","","false","271","0.3425846673","","main_expt","0.319936882","","0.2889536683","","0.1243547369","","","","","","",""
"132","","bandit","347","808504","0.0-309.0-0.0","97087123","wem/bandit_single","A1SH7LQFR0U8FK","gain","7","","72","H","0","img/none_selected.jpg","0","0","1","0.3661992365","","false","272","0.3661992365","","main_expt","0.3526338178","","0.3519527746","","0.1129401117","","","","","","",""
"112","","bandit","348","810398","0.0-310.0-0.0","97087123","wem/bandit_single","A1SH7LQFR0U8FK","gain","7","","74","J","1","","0","0","1","0.3661190652","","false","273","0.3548292996","","main_expt","0.3661190652","","0.3142239271","","0.07602588951","","","","","","",""
"12","","bandit","349","812190","0.0-311.0-0.0","97087123","wem/bandit_single","A1SH7LQFR0U8FK","gain","7","","75","K","2","","0","0","1","0.2858465014","","false","274","0.3015993901","","main_expt","0.3531355024","","0.2858465014","","0.08326080211","","","","","","",""
"31","","bandit","350","814000","0.0-312.0-0.0","97087123","wem/bandit_single","A1SH7LQFR0U8FK","gain","7","","76","L","3","","0","0","1","0.1117875064","","false","275","0.3074537736","","main_expt","0.3710682781","","0.2833142968","","0.1117875064","","","","","","",""
"32","","bandit","351","815808","0.0-313.0-0.0","97087123","wem/bandit_single","A1SH7LQFR0U8FK","gain","7","","72","H","0","img/none_selected.jpg","0","0","1","0.2995557441","","false","276","0.2995557441","","main_expt","0.3039620657","","0.303505508","","0.1087564456","","","","","","",""
"99","","bandit","352","817680","0.0-314.0-0.0","97087123","wem/bandit_single","A1SH7LQFR0U8FK","gain","7","","74","J","1","","1","0","0","0.3661174243","","false","277","0.3372524479","","main_expt","0.3661174243","","0.2503405658","","0.1402577261","","","","","","",""
"150","","bandit","353","819607","0.0-315.0-0.0","97087123","wem/bandit_single","A1SH7LQFR0U8FK","gain","7","","75","K","2","","0","0","1","0.2575241406","","false","278","0.3941332117","","main_expt","0.3603903852","","0.2575241406","","0.1639331241","","","","","","",""
"170","","bandit","354","821553","0.0-316.0-0.0","97087123","wem/bandit_single","A1SH7LQFR0U8FK","gain","7","","74","J","1","","0","0","1","0.3865241344","","false","279","0.369807449","","main_expt","0.3865241344","","0.2537993043","","0.08855821706","","","","","","",""
"112","","bandit","355","823442","0.0-317.0-0.0","97087123","wem/bandit_single","A1SH7LQFR0U8FK","gain","7","","75","K","2","","0","0","1","0.1734094061","","false","280","0.3726167961","","main_expt","0.3941828848","","0.1734094061","","0.1116659285","","","","","","",""
"70","","bandit","356","825291","0.0-318.0-0.0","97087123","wem/bandit_single","A1SH7LQFR0U8FK","gain","7","","74","J","1","","0","0","1","0.4060440919","","false","281","0.3849966858","","main_expt","0.4060440919","","0.1846732939","","0.1032088387","","","","","","",""
"47","","bandit","357","827118","0.0-319.0-0.0","97087123","wem/bandit_single","A1SH7LQFR0U8FK","gain","7","","72","H","0","img/none_selected.jpg","0","0","1","0.4081920515","","false","282","0.4081920515","","main_expt","0.3855255831","","0.1808782366","","0.1449157137","","","","","","",""
"56","","bandit","358","828953","0.0-320.0-0.0","97087123","wem/bandit_single","A1SH7LQFR0U8FK","gain","7","","76","L","3","","0","0","1","0.1649674285","","false","283","0.3930572229","","main_expt","0.3694157076","","0.1375342675","","0.1649674285","","","","","","",""
"58","","bandit","359","830785","0.0-321.0-0.0","97087123","wem/bandit_single","A1SH7LQFR0U8FK","gain","7","","74","J","1","","1","0","0","0.4137550783","","false","284","0.379410926","","main_expt","0.4137550783","","0.1029306966","","0.1373277791","","","","","","",""
"77","","bandit","360","832638","0.0-322.0-0.0","97087123","wem/bandit_single","A1SH7LQFR0U8FK","gain","7","","74","J","1","","1","0","0","0.4268254387","","false","285","0.3947179778","","main_expt","0.4268254387","","0.08821361919","","0.1616488504","","","","","","",""
"137","","bandit","361","834554","0.0-323.0-0.0","97087123","wem/bandit_single","A1SH7LQFR0U8FK","gain","7","","74","J","1","","0","0","1","0.4115685589","","false","286","0.4036344472","","main_expt","0.4115685589","","0.08321279743","","0.1306737704","","","","","","",""
"117","","bandit","362","836450","0.0-324.0-0.0","97087123","wem/bandit_single","A1SH7LQFR0U8FK","gain","7","","75","K","2","","0","0","1","0.0595967864","","false","287","0.4025981517","","main_expt","0.3828423493","","0.0595967864","","0.2059275786","","","","","","",""
"13","","bandit","363","838240","0.0-325.0-0.0","97087123","wem/bandit_single","A1SH7LQFR0U8FK","gain","7","","76","L","3","","0","0","1","0.1892738114","","false","288","0.4183513528","","main_expt","0.4121581376","","0.06539189492","","0.1892738114","","","","","","",""
"103","","bandit","364","840121","0.0-326.0-0.0","97087123","wem/bandit_single","A1SH7LQFR0U8FK","gain","7","","72","H","0","img/none_selected.jpg","0","0","1","0.4516793017","","false","289","0.4516793017","","main_expt","0.4227758831","","0.06484578344","","0.1656659279","","","","","","",""
"64","","bandit","365","841964","0.0-327.0-0.0","97087123","wem/bandit_single","A1SH7LQFR0U8FK","gain","7","","72","H","0","img/none_selected.jpg","0","0","1","0.4112115972","","false","290","0.4112115972","","main_expt","0.4149367164","","0.06626982825","","0.1814252587","","","","","","",""
"101","","bandit","366","843845","0.0-328.0-0.0","97087123","wem/bandit_single","A1SH7LQFR0U8FK","gain","7","","74","J","1","","0","0","1","0.399757838","","false","291","0.4372982331","","main_expt","0.399757838","","0.1096348163","","0.2385479929","","","","","","",""
"104","","bandit","367","845727","0.0-329.0-0.0","97087123","wem/bandit_single","A1SH7LQFR0U8FK","gain","7","","75","K","2","","0","0","1","0.1604398542","","false","292","0.4238416902","","main_expt","0.3846886596","","0.1604398542","","0.2322046479","","","","","","",""
"20","","bandit","368","847529","0.0-330.0-0.0","97087123","wem/bandit_single","A1SH7LQFR0U8FK","gain","7","","76","L","3","","0","0","1","0.223393304","","false","293","0.4034354509","","main_expt","0.3364000065","","0.1714651471","","0.223393304","","","","","","",""
"32","","bandit","369","849336","0.0-331.0-0.0","97087123","wem/bandit_single","A1SH7LQFR0U8FK","gain","7","","76","L","3","","1","0","0","0.2290093083","","false","294","0.4093667064","","main_expt","0.3545739736","","0.1378543876","","0.2290093083","","","","","","",""
"137","","bandit","370","851248","0.0-332.0-0.0","97087123","wem/bandit_single","A1SH7LQFR0U8FK","gain","7","","76","L","3","","1","0","0","0.2875464899","","false","295","0.4294791191","","main_expt","0.2891777922","","0.1243446737","","0.2875464899","","","","","","",""
"161","","bandit","371","853189","0.0-333.0-0.0","97087123","wem/bandit_single","A1SH7LQFR0U8FK","gain","7","","76","L","3","","1","0","0","0.2880416719","","false","296","0.4289259587","","main_expt","0.2084544567","","0.1831574145","","0.2880416719","","","","","","",""
"65","","bandit","372","855034","0.0-334.0-0.0","97087123","wem/bandit_single","A1SH7LQFR0U8FK","gain","7","","76","L","3","","0","0","1","0.2144640116","","false","297","0.4073385017","","main_expt","0.2481546198","","0.1645554297","","0.2144640116","","","","","","",""
