"rt","responses","trial_type","trial_index","time_elapsed","internal_node_id","subjID","study","MID","cond","drift","key_press","respCharCode","respKey","respChoiceNum","respChoice","gems","bombs","no_reward","GemPrChosen","BombPrChosen","practice","trial_counter","WinPr_0","LosePr_0","trial_label","WinPr_1","LosePr_1","WinPr_2","LosePr_2","WinPr_3","LosePr_3","Q0","Q1","Q2","gender","age","ethnicity"
"22280","{""Q0"":""AG5LZ985CQRRX""}","survey-text","0","22290","0.0-0.0","97971136","wem/bandit_single","AG5LZ985CQRRX","gain","8","","","","","","","","","","","","","","","","","","","","","","","","","","",""
"1327","","text","1","24636","0.0-1.0","97971136","wem/bandit_single","AG5LZ985CQRRX","gain","8","32","","","","","","","","","","","","","","","","","","","","","","","","","",""
"17157","","text","2","41795","0.0-2.0","97971136","wem/bandit_single","AG5LZ985CQRRX","gain","8","32","","","","","","","","","","","","","","","","","","","","","","","","","",""
"25341","","text","3","67139","0.0-3.0","97971136","wem/bandit_single","AG5LZ985CQRRX","gain","8","32","","","","","","","","","","","","","","","","","","","","","","","","","",""
"143781","","text","4","210922","0.0-4.0","97971136","wem/bandit_single","AG5LZ985CQRRX","gain","8","32","","","","","","","","","","","","","","","","","","","","","","","","","",""
"38862","","text","5","249786","0.0-5.0","97971136","wem/bandit_single","AG5LZ985CQRRX","gain","8","32","","","","","","","","","","","","","","","","","","","","","","","","","",""
"3549","","text","6","253336","0.0-6.0","97971136","wem/bandit_single","AG5LZ985CQRRX","gain","8","32","","","","","","","","","","","","","","","","","","","","","","","","","",""
"2614","","text","7","255952","0.0-7.0","97971136","wem/bandit_single","AG5LZ985CQRRX","gain","8","32","","","","","","","","","","","","","","","","","","","","","","","","","",""
"3342","","text","8","259297","0.0-8.0","97971136","wem/bandit_single","AG5LZ985CQRRX","gain","8","32","","","","","","","","","","","","","","","","","","","","","","","","","",""
"2944","","text","9","262242","0.0-9.0","97971136","wem/bandit_single","AG5LZ985CQRRX","gain","8","32","","","","","","","","","","","","","","","","","","","","","","","","","",""
"8398","","text","10","270641","0.0-10.0","97971136","wem/bandit_single","AG5LZ985CQRRX","gain","8","32","","","","","","","","","","","","","","","","","","","","","","","","","",""
"3481","","text","11","274122","0.0-11.0","97971136","wem/bandit_single","AG5LZ985CQRRX","gain","8","32","","","","","","","","","","","","","","","","","","","","","","","","","",""
"1209","","bandit","12","276862","0.0-12.0-0.0","97971136","wem/bandit_single","AG5LZ985CQRRX","gain","8","","74","J","0","img/none_selected_demo.jpg","0","0","1","0","0","true","0","0","0","","","","","","","","","","","","",""
"377","","bandit","13","279013","0.0-13.0-0.0","97971136","wem/bandit_single","AG5LZ985CQRRX","gain","8","","75","K","0","img/none_selected_demo.jpg","0","0","1","0","0","true","0","0","0","","","","","","","","","","","","",""
"2500","","text","14","281770","0.0-14.0","97971136","wem/bandit_single","AG5LZ985CQRRX","gain","8","32","","","","","","","","","","","","","","","","","","","","","","","","","",""
"1326","","text","15","283097","0.0-15.0","97971136","wem/bandit_single","AG5LZ985CQRRX","gain","8","32","","","","","","","","","","","","","","","","","","","","","","","","","",""
"2688","","text","16","285787","0.0-16.0","97971136","wem/bandit_single","AG5LZ985CQRRX","gain","8","32","","","","","","","","","","","","","","","","","","","","","","","","","",""
"2508","","text","17","288297","0.0-17.0","97971136","wem/bandit_single","AG5LZ985CQRRX","gain","8","32","","","","","","","","","","","","","","","","","","","","","","","","","",""
"1086","","bandit","18","290904","0.0-18.0-0.0","97971136","wem/bandit_single","AG5LZ985CQRRX","gain","8","","74","J","0","img/none_selected_demo.jpg","1","0","0","0.8","0","true","0","0.8","0","80_20_practice","0.2","0","","","","","","","","","",""
"632","","bandit","19","293328","0.0-18.0-1.0","97971136","wem/bandit_single","AG5LZ985CQRRX","gain","8","","74","J","0","img/none_selected_demo.jpg","1","0","0","0.8","0","true","0","0.8","0","80_20_practice","0.2","0","","","","","","","","","",""
"380","","bandit","20","295494","0.0-18.0-2.0","97971136","wem/bandit_single","AG5LZ985CQRRX","gain","8","","74","J","0","img/none_selected_demo.jpg","1","0","0","0.8","0","true","0","0.8","0","80_20_practice","0.2","0","","","","","","","","","",""
"466","","bandit","21","297739","0.0-18.0-3.0","97971136","wem/bandit_single","AG5LZ985CQRRX","gain","8","","74","J","0","img/none_selected_demo.jpg","1","0","0","0.8","0","true","0","0.8","0","80_20_practice","0.2","0","","","","","","","","","",""
"446","","bandit","22","299965","0.0-18.0-4.0","97971136","wem/bandit_single","AG5LZ985CQRRX","gain","8","","74","J","0","img/none_selected_demo.jpg","1","0","0","0.8","0","true","0","0.8","0","80_20_practice","0.2","0","","","","","","","","","",""
"621","","bandit","23","302362","0.0-18.0-5.0","97971136","wem/bandit_single","AG5LZ985CQRRX","gain","8","","74","J","0","img/none_selected_demo.jpg","1","0","0","0.8","0","true","0","0.8","0","80_20_practice","0.2","0","","","","","","","","","",""
"422","","bandit","24","304561","0.0-18.0-6.0","97971136","wem/bandit_single","AG5LZ985CQRRX","gain","8","","74","J","0","img/none_selected_demo.jpg","1","0","0","0.8","0","true","0","0.8","0","80_20_practice","0.2","0","","","","","","","","","",""
"438","","bandit","25","306777","0.0-18.0-7.0","97971136","wem/bandit_single","AG5LZ985CQRRX","gain","8","","74","J","0","img/none_selected_demo.jpg","0","0","1","0.8","0","true","0","0.8","0","80_20_practice","0.2","0","","","","","","","","","",""
"303","","bandit","26","308861","0.0-18.0-8.0","97971136","wem/bandit_single","AG5LZ985CQRRX","gain","8","","75","K","1","","0","0","1","0.2","0","true","0","0.8","0","80_20_practice","0.2","0","","","","","","","","","",""
"122","","bandit","27","310761","0.0-18.0-9.0","97971136","wem/bandit_single","AG5LZ985CQRRX","gain","8","","75","K","1","","1","0","0","0.2","0","true","0","0.8","0","80_20_practice","0.2","0","","","","","","","","","",""
"158","","bandit","28","312683","0.0-18.0-10.0","97971136","wem/bandit_single","AG5LZ985CQRRX","gain","8","","75","K","1","","1","0","0","0.2","0","true","0","0.8","0","80_20_practice","0.2","0","","","","","","","","","",""
"114","","bandit","29","314594","0.0-18.0-11.0","97971136","wem/bandit_single","AG5LZ985CQRRX","gain","8","","75","K","1","","0","0","1","0.2","0","true","0","0.8","0","80_20_practice","0.2","0","","","","","","","","","",""
"44","","bandit","30","316412","0.0-18.0-12.0","97971136","wem/bandit_single","AG5LZ985CQRRX","gain","8","","75","K","1","","0","0","1","0.2","0","true","0","0.8","0","80_20_practice","0.2","0","","","","","","","","","",""
"78","","bandit","31","318261","0.0-18.0-13.0","97971136","wem/bandit_single","AG5LZ985CQRRX","gain","8","","74","J","0","img/none_selected_demo.jpg","1","0","0","0.8","0","true","0","0.8","0","80_20_practice","0.2","0","","","","","","","","","",""
"146","","bandit","32","320180","0.0-18.0-14.0","97971136","wem/bandit_single","AG5LZ985CQRRX","gain","8","","74","J","0","img/none_selected_demo.jpg","1","0","0","0.8","0","true","0","0.8","0","80_20_practice","0.2","0","","","","","","","","","",""
"68","","bandit","33","322026","0.0-18.0-15.0","97971136","wem/bandit_single","AG5LZ985CQRRX","gain","8","","74","J","0","img/none_selected_demo.jpg","1","0","0","0.8","0","true","0","0.8","0","80_20_practice","0.2","0","","","","","","","","","",""
"963","","bandit","34","324777","0.0-18.0-16.0","97971136","wem/bandit_single","AG5LZ985CQRRX","gain","8","","74","J","0","img/none_selected_demo.jpg","1","0","0","0.8","0","true","0","0.8","0","80_20_practice","0.2","0","","","","","","","","","",""
"45","","bandit","35","326605","0.0-18.0-17.0","97971136","wem/bandit_single","AG5LZ985CQRRX","gain","8","","74","J","0","img/none_selected_demo.jpg","0","0","1","0.8","0","true","0","0.8","0","80_20_practice","0.2","0","","","","","","","","","",""
"77","","bandit","36","328452","0.0-18.0-18.0","97971136","wem/bandit_single","AG5LZ985CQRRX","gain","8","","74","J","0","img/none_selected_demo.jpg","1","0","0","0.8","0","true","0","0.8","0","80_20_practice","0.2","0","","","","","","","","","",""
"29","","bandit","37","330248","0.0-18.0-19.0","97971136","wem/bandit_single","AG5LZ985CQRRX","gain","8","","74","J","0","img/none_selected_demo.jpg","1","0","0","0.8","0","true","0","0.8","0","80_20_practice","0.2","0","","","","","","","","","",""
"4933","","text","38","335449","0.0-19.0","97971136","wem/bandit_single","AG5LZ985CQRRX","gain","8","32","","","","","","","","","","","","","","","","","","","","","","","","","",""
"1117","","bandit","39","338093","0.0-20.0-0.0","97971136","wem/bandit_single","AG5LZ985CQRRX","gain","8","","74","J","0","img/none_selected_demo.jpg","0","0","1","0","0","true","0","0","0","","0","0","","","","","","","","","",""
"5499","","text","40","343850","0.0-21.0","97971136","wem/bandit_single","AG5LZ985CQRRX","gain","8","32","","","","","","","","","","","","","","","","","","","","","","","","","",""
"3051","","text","41","346905","0.0-22.0","97971136","wem/bandit_single","AG5LZ985CQRRX","gain","8","32","","","","","","","","","","","","","","","","","","","","","","","","","",""
"1662","","text","42","348570","0.0-23.0","97971136","wem/bandit_single","AG5LZ985CQRRX","gain","8","32","","","","","","","","","","","","","","","","","","","","","","","","","",""
"2917","","text","43","351490","0.0-24.0","97971136","wem/bandit_single","AG5LZ985CQRRX","gain","8","32","","","","","","","","","","","","","","","","","","","","","","","","","",""
"13358","","text","44","364851","0.0-25.0","97971136","wem/bandit_single","AG5LZ985CQRRX","gain","8","32","","","","","","","","","","","","","","","","","","","","","","","","","",""
"1532","","text","45","366385","0.0-26.0","97971136","wem/bandit_single","AG5LZ985CQRRX","gain","8","32","","","","","","","","","","","","","","","","","","","","","","","","","",""
"2094","","text","46","368481","0.0-27.0","97971136","wem/bandit_single","AG5LZ985CQRRX","gain","8","32","","","","","","","","","","","","","","","","","","","","","","","","","",""
"1597","","text","47","370081","0.0-28.0","97971136","wem/bandit_single","AG5LZ985CQRRX","gain","8","32","","","","","","","","","","","","","","","","","","","","","","","","","",""
"3917","","text","48","374001","0.0-29.0","97971136","wem/bandit_single","AG5LZ985CQRRX","gain","8","32","","","","","","","","","","","","","","","","","","","","","","","","","",""
"1886","","text","49","375891","0.0-30.0","97971136","wem/bandit_single","AG5LZ985CQRRX","gain","8","32","","","","","","","","","","","","","","","","","","","","","","","","","",""
"2444","","text","50","378337","0.0-31.0","97971136","wem/bandit_single","AG5LZ985CQRRX","gain","8","32","","","","","","","","","","","","","","","","","","","","","","","","","",""
"692","","bandit","51","380561","0.0-32.0-0.0","97971136","wem/bandit_single","AG5LZ985CQRRX","gain","8","","76","L","3","","1","0","0","0.2","0","true","0","0.8","0","full_practice","0.2","0","0.6","0","0.2","0","","","","","",""
"552","","bandit","52","382881","0.0-32.0-1.0","97971136","wem/bandit_single","AG5LZ985CQRRX","gain","8","","76","L","3","","0","0","1","0.2","0","true","0","0.8","0","full_practice","0.2","0","0.6","0","0.2","0","","","","","",""
"213","","bandit","53","384874","0.0-32.0-2.0","97971136","wem/bandit_single","AG5LZ985CQRRX","gain","8","","75","K","2","","1","0","0","0.6","0","true","0","0.8","0","full_practice","0.2","0","0.6","0","0.2","0","","","","","",""
"44","","bandit","54","386691","0.0-32.0-3.0","97971136","wem/bandit_single","AG5LZ985CQRRX","gain","8","","75","K","2","","1","0","0","0.6","0","true","0","0.8","0","full_practice","0.2","0","0.6","0","0.2","0","","","","","",""
"148","","bandit","55","388618","0.0-32.0-4.0","97971136","wem/bandit_single","AG5LZ985CQRRX","gain","8","","75","K","2","","0","0","1","0.6","0","true","0","0.8","0","full_practice","0.2","0","0.6","0","0.2","0","","","","","",""
"248","","bandit","56","390645","0.0-32.0-5.0","97971136","wem/bandit_single","AG5LZ985CQRRX","gain","8","","74","J","1","","0","0","1","0.2","0","true","0","0.8","0","full_practice","0.2","0","0.6","0","0.2","0","","","","","",""
"118","","bandit","57","392541","0.0-32.0-6.0","97971136","wem/bandit_single","AG5LZ985CQRRX","gain","8","","72","H","0","img/none_selected.jpg","1","0","0","0.8","0","true","0","0.8","0","full_practice","0.2","0","0.6","0","0.2","0","","","","","",""
"154","","bandit","58","394474","0.0-32.0-7.0","97971136","wem/bandit_single","AG5LZ985CQRRX","gain","8","","72","H","0","img/none_selected.jpg","1","0","0","0.8","0","true","0","0.8","0","full_practice","0.2","0","0.6","0","0.2","0","","","","","",""
"132","","bandit","59","396390","0.0-32.0-8.0","97971136","wem/bandit_single","AG5LZ985CQRRX","gain","8","","72","H","0","img/none_selected.jpg","1","0","0","0.8","0","true","0","0.8","0","full_practice","0.2","0","0.6","0","0.2","0","","","","","",""
"145","","bandit","60","398307","0.0-32.0-9.0","97971136","wem/bandit_single","AG5LZ985CQRRX","gain","8","","72","H","0","img/none_selected.jpg","1","0","0","0.8","0","true","0","0.8","0","full_practice","0.2","0","0.6","0","0.2","0","","","","","",""
"965","","bandit","61","401061","0.0-32.0-10.0","97971136","wem/bandit_single","AG5LZ985CQRRX","gain","8","","72","H","0","img/none_selected.jpg","1","0","0","0.8","0","true","0","0.8","0","full_practice","0.2","0","0.6","0","0.2","0","","","","","",""
"429","","bandit","62","403257","0.0-32.0-11.0","97971136","wem/bandit_single","AG5LZ985CQRRX","gain","8","","72","H","0","img/none_selected.jpg","0","0","1","0.8","0","true","0","0.8","0","full_practice","0.2","0","0.6","0","0.2","0","","","","","",""
"422","","bandit","63","405456","0.0-32.0-12.0","97971136","wem/bandit_single","AG5LZ985CQRRX","gain","8","","76","L","3","","1","0","0","0.2","0","true","0","0.8","0","full_practice","0.2","0","0.6","0","0.2","0","","","","","",""
"70","","bandit","64","407312","0.0-32.0-13.0","97971136","wem/bandit_single","AG5LZ985CQRRX","gain","8","","76","L","3","","1","0","0","0.2","0","true","0","0.8","0","full_practice","0.2","0","0.6","0","0.2","0","","","","","",""
"61","","bandit","65","409157","0.0-32.0-14.0","97971136","wem/bandit_single","AG5LZ985CQRRX","gain","8","","76","L","3","","0","0","1","0.2","0","true","0","0.8","0","full_practice","0.2","0","0.6","0","0.2","0","","","","","",""
"731","","bandit","66","411653","0.0-32.0-15.0","97971136","wem/bandit_single","AG5LZ985CQRRX","gain","8","","72","H","0","img/none_selected.jpg","1","0","0","0.8","0","true","0","0.8","0","full_practice","0.2","0","0.6","0","0.2","0","","","","","",""
"78","","bandit","67","413506","0.0-32.0-16.0","97971136","wem/bandit_single","AG5LZ985CQRRX","gain","8","","72","H","0","img/none_selected.jpg","1","0","0","0.8","0","true","0","0.8","0","full_practice","0.2","0","0.6","0","0.2","0","","","","","",""
"100","","bandit","68","415390","0.0-32.0-17.0","97971136","wem/bandit_single","AG5LZ985CQRRX","gain","8","","72","H","0","img/none_selected.jpg","0","0","1","0.8","0","true","0","0.8","0","full_practice","0.2","0","0.6","0","0.2","0","","","","","",""
"834","","bandit","69","418007","0.0-32.0-18.0","97971136","wem/bandit_single","AG5LZ985CQRRX","gain","8","","72","H","0","img/none_selected.jpg","1","0","0","0.8","0","true","0","0.8","0","full_practice","0.2","0","0.6","0","0.2","0","","","","","",""
"33","","bandit","70","419822","0.0-32.0-19.0","97971136","wem/bandit_single","AG5LZ985CQRRX","gain","8","","72","H","0","img/none_selected.jpg","1","0","0","0.8","0","true","0","0.8","0","full_practice","0.2","0","0.6","0","0.2","0","","","","","",""
"1748","","text","71","421834","0.0-33.0","97971136","wem/bandit_single","AG5LZ985CQRRX","gain","8","32","","","","","","","","","","","","","","","","","","","","","","","","","",""
"8929","","text","72","431769","0.0-34.0","97971136","wem/bandit_single","AG5LZ985CQRRX","gain","8","32","","","","","","","","","","","","","","","","","","","","","","","","","",""
"6478","","text","73","438251","0.0-35.0","97971136","wem/bandit_single","AG5LZ985CQRRX","gain","8","32","","","","","","","","","","","","","","","","","","","","","","","","","",""
"3411","","text","74","441665","0.0-36.0","97971136","wem/bandit_single","AG5LZ985CQRRX","gain","8","32","","","","","","","","","","","","","","","","","","","","","","","","","",""
"2980","","text","75","444649","0.0-37.0","97971136","wem/bandit_single","AG5LZ985CQRRX","gain","8","32","","","","","","","","","","","","","","","","","","","","","","","","","",""
"1634","","bandit","76","447806","0.0-38.0-0.0","97971136","wem/bandit_single","AG5LZ985CQRRX","gain","8","","76","L","3","","1","0","0","0.4519399214","","false","1","0.2726752288","","main_expt","0.461186604","","0.2895646149","","0.4519399214","","","","","","",""
"384","","bandit","77","449975","0.0-39.0-0.0","97971136","wem/bandit_single","AG5LZ985CQRRX","gain","8","","76","L","3","","1","0","0","0.4414774062","","false","2","0.2373300031","","main_expt","0.4745384616","","0.3162770887","","0.4414774062","","","","","","",""
"171","","bandit","78","451913","0.0-40.0-0.0","97971136","wem/bandit_single","AG5LZ985CQRRX","gain","8","","76","L","3","","0","0","1","0.4248782664","","false","3","0.2268539811","","main_expt","0.476270309","","0.3445892231","","0.4248782664","","","","","","",""
"457","","bandit","79","454138","0.0-41.0-0.0","97971136","wem/bandit_single","AG5LZ985CQRRX","gain","8","","76","L","3","","1","0","0","0.3797460064","","false","4","0.2312911009","","main_expt","0.4750198572","","0.318720175","","0.3797460064","","","","","","",""
"163","","bandit","80","456088","0.0-42.0-0.0","97971136","wem/bandit_single","AG5LZ985CQRRX","gain","8","","76","L","3","","0","0","1","0.3747955817","","false","5","0.1875260819","","main_expt","0.4711191004","","0.2768356494","","0.3747955817","","","","","","",""
"254","","bandit","81","458122","0.0-43.0-0.0","97971136","wem/bandit_single","AG5LZ985CQRRX","gain","8","","72","H","0","img/none_selected.jpg","0","0","1","0.190272436","","false","6","0.190272436","","main_expt","0.4561500297","","0.2660169375","","0.3434652127","","","","","","",""
"517","","bandit","82","460421","0.0-44.0-0.0","97971136","wem/bandit_single","AG5LZ985CQRRX","gain","8","","74","J","1","","0","0","1","0.4549462182","","false","7","0.1912500229","","main_expt","0.4549462182","","0.3364590491","","0.3450192323","","","","","","",""
"74","","bandit","83","462265","0.0-45.0-0.0","97971136","wem/bandit_single","AG5LZ985CQRRX","gain","8","","75","K","2","","1","0","0","0.2814314702","","false","8","0.2317086102","","main_expt","0.4738433377","","0.2814314702","","0.3319287687","","","","","","",""
"127","","bandit","84","464170","0.0-46.0-0.0","97971136","wem/bandit_single","AG5LZ985CQRRX","gain","8","","75","K","2","","0","0","1","0.172204453","","false","9","0.2732709622","","main_expt","0.4719526371","","0.172204453","","0.3592879842","","","","","","",""
"44","","bandit","85","465987","0.0-47.0-0.0","97971136","wem/bandit_single","AG5LZ985CQRRX","gain","8","","76","L","3","","1","0","0","0.4119036765","","false","10","0.2369361721","","main_expt","0.4102917743","","0.1714760066","","0.4119036765","","","","","","",""
"129","","bandit","86","467879","0.0-48.0-0.0","97971136","wem/bandit_single","AG5LZ985CQRRX","gain","8","","76","L","3","","1","0","0","0.440335537","","false","11","0.2428480584","","main_expt","0.4247485268","","0.1477319919","","0.440335537","","","","","","",""
"305","","bandit","87","469960","0.0-49.0-0.0","97971136","wem/bandit_single","AG5LZ985CQRRX","gain","8","","76","L","3","","0","0","1","0.4198069009","","false","12","0.3127978045","","main_expt","0.3805001106","","0.1195530135","","0.4198069009","","","","","","",""
"181","","bandit","88","471911","0.0-50.0-0.0","97971136","wem/bandit_single","AG5LZ985CQRRX","gain","8","","76","L","3","","0","0","1","0.4095272681","","false","13","0.3411181312","","main_expt","0.3922463094","","0.1097065617","","0.4095272681","","","","","","",""
"112","","bandit","89","473803","0.0-51.0-0.0","97971136","wem/bandit_single","AG5LZ985CQRRX","gain","8","","72","H","0","img/none_selected.jpg","1","0","0","0.3547490374","","false","14","0.3547490374","","main_expt","0.3385893542","","0.1146709003","","0.4393311008","","","","","","",""
"178","","bandit","90","475753","0.0-52.0-0.0","97971136","wem/bandit_single","AG5LZ985CQRRX","gain","8","","72","H","0","img/none_selected.jpg","1","0","0","0.3447780093","","false","15","0.3447780093","","main_expt","0.2580729479","","0.105598426","","0.4232641195","","","","","","",""
"189","","bandit","91","477720","0.0-53.0-0.0","97971136","wem/bandit_single","AG5LZ985CQRRX","gain","8","","72","H","0","img/none_selected.jpg","0","0","1","0.3451486401","","false","16","0.3451486401","","main_expt","0.3126944558","","0.1085338479","","0.408879381","","","","","","",""
"94","","bandit","92","479586","0.0-54.0-0.0","97971136","wem/bandit_single","AG5LZ985CQRRX","gain","8","","72","H","0","img/none_selected.jpg","0","0","1","0.3788599072","","false","17","0.3788599072","","main_expt","0.3693960878","","0.1267686316","","0.376774317","","","","","","",""
"851","","bandit","93","482220","0.0-55.0-0.0","97971136","wem/bandit_single","AG5LZ985CQRRX","gain","8","","74","J","1","","0","0","1","0.3881723811","","false","18","0.3977159439","","main_expt","0.3881723811","","0.2161611973","","0.4245824949","","","","","","",""
"3","","bandit","94","484003","0.0-56.0-0.0","97971136","wem/bandit_single","AG5LZ985CQRRX","gain","8","","72","H","0","img/none_selected.jpg","1","0","0","0.3885232362","","false","19","0.3885232362","","main_expt","0.3762380044","","0.2028493804","","0.4391895307","","","","","","",""
"111","","bandit","95","485903","0.0-57.0-0.0","97971136","wem/bandit_single","AG5LZ985CQRRX","gain","8","","72","H","0","img/none_selected.jpg","0","0","1","0.3985462001","","false","20","0.3985462001","","main_expt","0.3842023068","","0.2258994585","","0.4621127774","","","","","","",""
"183","","bandit","96","487869","0.0-58.0-0.0","97971136","wem/bandit_single","AG5LZ985CQRRX","gain","8","","76","L","3","","1","0","0","0.4621164646","","false","21","0.349749023","","main_expt","0.3509270449","","0.1591174119","","0.4621164646","","","","","","",""
"81","","bandit","97","489719","0.0-59.0-0.0","97971136","wem/bandit_single","AG5LZ985CQRRX","gain","8","","76","L","3","","1","0","0","0.4347396303","","false","22","0.3437713834","","main_expt","0.3777441782","","0.1526874152","","0.4347396303","","","","","","",""
"46","","bandit","98","491536","0.0-60.0-0.0","97971136","wem/bandit_single","AG5LZ985CQRRX","gain","8","","76","L","3","","1","0","0","0.43496863","","false","23","0.3608333873","","main_expt","0.3799964268","","0.1461335862","","0.43496863","","","","","","",""
"14","","bandit","99","493320","0.0-61.0-0.0","97971136","wem/bandit_single","AG5LZ985CQRRX","gain","8","","76","L","3","","1","0","0","0.43684491","","false","24","0.3832767268","","main_expt","0.4097073291","","0.194032511","","0.43684491","","","","","","",""
"78","","bandit","100","495169","0.0-62.0-0.0","97971136","wem/bandit_single","AG5LZ985CQRRX","gain","8","","76","L","3","","0","0","1","0.3785768995","","false","25","0.3839685871","","main_expt","0.4196977393","","0.1913779305","","0.3785768995","","","","","","",""
"52","","bandit","101","497002","0.0-63.0-0.0","97971136","wem/bandit_single","AG5LZ985CQRRX","gain","8","","76","L","3","","1","0","0","0.3754964585","","false","26","0.3871157951","","main_expt","0.3798545817","","0.2830828826","","0.3754964585","","","","","","",""
"35","","bandit","102","498804","0.0-64.0-0.0","97971136","wem/bandit_single","AG5LZ985CQRRX","gain","8","","76","L","3","","0","0","1","0.3964499655","","false","27","0.4093540125","","main_expt","0.3531061786","","0.3268824087","","0.3964499655","","","","","","",""
"60","","bandit","103","500636","0.0-65.0-0.0","97971136","wem/bandit_single","AG5LZ985CQRRX","gain","8","","76","L","3","","1","0","0","0.4243602908","","false","28","0.3781829904","","main_expt","0.3327392046","","0.3092871108","","0.4243602908","","","","","","",""
"59","","bandit","104","502469","0.0-66.0-0.0","97971136","wem/bandit_single","AG5LZ985CQRRX","gain","8","","76","L","3","","0","0","1","0.4296462108","","false","29","0.3633234486","","main_expt","0.2799969064","","0.299803321","","0.4296462108","","","","","","",""
"34","","bandit","105","504270","0.0-67.0-0.0","97971136","wem/bandit_single","AG5LZ985CQRRX","gain","8","","76","L","3","","0","0","1","0.4442153724","","false","30","0.395486831","","main_expt","0.225268033","","0.3318792252","","0.4442153724","","","","","","",""
"474","","bandit","106","506515","0.0-68.0-0.0","97971136","wem/bandit_single","AG5LZ985CQRRX","gain","8","","75","K","2","","0","0","1","0.3274080626","","false","31","0.353932484","","main_expt","0.2195205817","","0.3274080626","","0.4425075274","","","","","","",""
"584","","bandit","107","508886","0.0-69.0-0.0","97971136","wem/bandit_single","AG5LZ985CQRRX","gain","8","","72","H","0","img/none_selected.jpg","0","0","1","0.3902442546","","false","32","0.3902442546","","main_expt","0.2569702332","","0.3233555863","","0.4038806219","","","","","","",""
"595","","bandit","108","511253","0.0-70.0-0.0","97971136","wem/bandit_single","AG5LZ985CQRRX","gain","8","","76","L","3","","0","0","1","0.4283701542","","false","33","0.3727342875","","main_expt","0.2914027765","","0.3836123675","","0.4283701542","","","","","","",""
"42","","bandit","109","513069","0.0-71.0-0.0","97971136","wem/bandit_single","AG5LZ985CQRRX","gain","8","","74","J","1","","0","0","1","0.2667004126","","false","34","0.3940120807","","main_expt","0.2667004126","","0.4200589335","","0.4332078231","","","","","","",""
"376","","bandit","110","515219","0.0-72.0-0.0","97971136","wem/bandit_single","AG5LZ985CQRRX","gain","8","","72","H","0","img/none_selected.jpg","0","0","1","0.3682756201","","false","35","0.3682756201","","main_expt","0.3112773703","","0.4280145355","","0.3861361583","","","","","","",""
"340","","bandit","111","517327","0.0-73.0-0.0","97971136","wem/bandit_single","AG5LZ985CQRRX","gain","8","","76","L","3","","0","0","1","0.3176889815","","false","36","0.4136743311","","main_expt","0.3158013471","","0.3696194815","","0.3176889815","","","","","","",""
"90","","bandit","112","519185","0.0-74.0-0.0","97971136","wem/bandit_single","AG5LZ985CQRRX","gain","8","","76","L","3","","0","0","1","0.3333355096","","false","37","0.449594317","","main_expt","0.3348696363","","0.3567242832","","0.3333355096","","","","","","",""
"126","","bandit","113","521086","0.0-75.0-0.0","97971136","wem/bandit_single","AG5LZ985CQRRX","gain","8","","75","K","2","","0","0","1","0.3139752797","","false","38","0.4427192246","","main_expt","0.2967031697","","0.3139752797","","0.3613286773","","","","","","",""
"497","","bandit","114","523351","0.0-76.0-0.0","97971136","wem/bandit_single","AG5LZ985CQRRX","gain","8","","74","J","1","","0","0","1","0.2816090282","","false","39","0.4375360897","","main_expt","0.2816090282","","0.2884672813","","0.3354588101","","","","","","",""
"384","","bandit","115","525518","0.0-77.0-0.0","97971136","wem/bandit_single","AG5LZ985CQRRX","gain","8","","76","L","3","","1","0","0","0.4044898685","","false","40","0.452648821","","main_expt","0.2900329111","","0.3253538103","","0.4044898685","","","","","","",""
"144","","bandit","116","527435","0.0-78.0-0.0","97971136","wem/bandit_single","AG5LZ985CQRRX","gain","8","","76","L","3","","0","0","1","0.3615903795","","false","41","0.4689255384","","main_expt","0.3160732104","","0.2782289032","","0.3615903795","","","","","","",""
"332","","bandit","117","529551","0.0-79.0-0.0","97971136","wem/bandit_single","AG5LZ985CQRRX","gain","8","","72","H","0","img/none_selected.jpg","0","0","1","0.470096522","","false","42","0.470096522","","main_expt","0.370849222","","0.2378060085","","0.3239257876","","","","","","",""
"8","","bandit","118","531335","0.0-80.0-0.0","97971136","wem/bandit_single","AG5LZ985CQRRX","gain","8","","76","L","3","","1","0","0","0.2907144625","","false","43","0.4349244256","","main_expt","0.385301305","","0.2250536993","","0.2907144625","","","","","","",""
"40","","bandit","119","533151","0.0-81.0-0.0","97971136","wem/bandit_single","AG5LZ985CQRRX","gain","8","","76","L","3","","1","0","0","0.2937558929","","false","44","0.4316966947","","main_expt","0.416838688","","0.2132249492","","0.2937558929","","","","","","",""
"62","","bandit","120","534985","0.0-82.0-0.0","97971136","wem/bandit_single","AG5LZ985CQRRX","gain","8","","76","L","3","","1","0","0","0.3667346614","","false","45","0.4526201082","","main_expt","0.3927526088","","0.2669052982","","0.3667346614","","","","","","",""
"0","","bandit","121","536770","0.0-83.0-0.0","97971136","wem/bandit_single","AG5LZ985CQRRX","gain","8","","76","L","3","","0","0","1","0.4084803937","","false","46","0.4696962879","","main_expt","0.3789336214","","0.259601005","","0.4084803937","","","","","","",""
"62","","bandit","122","538594","0.0-84.0-0.0","97971136","wem/bandit_single","AG5LZ985CQRRX","gain","8","","76","L","3","","0","0","1","0.3956447052","","false","47","0.4591824552","","main_expt","0.3994803113","","0.2442503122","","0.3956447052","","","","","","",""
"718","","bandit","123","541103","0.0-85.0-0.0","97971136","wem/bandit_single","AG5LZ985CQRRX","gain","8","","72","H","0","img/none_selected.jpg","1","0","0","0.4548607847","","false","48","0.4548607847","","main_expt","0.3570668153","","0.2427668164","","0.3859230678","","","","","","",""
"40","","bandit","124","542907","0.0-86.0-0.0","97971136","wem/bandit_single","AG5LZ985CQRRX","gain","8","","72","H","0","img/none_selected.jpg","0","0","1","0.4625410341","","false","49","0.4625410341","","main_expt","0.3500417472","","0.218731525","","0.394993817","","","","","","",""
"70","","bandit","125","544751","0.0-87.0-0.0","97971136","wem/bandit_single","AG5LZ985CQRRX","gain","8","","72","H","0","img/none_selected.jpg","0","0","1","0.4620574215","","false","50","0.4620574215","","main_expt","0.3110114061","","0.2187604329","","0.4358915385","","","","","","",""
"496","","bandit","126","547034","0.0-88.0-0.0","97971136","wem/bandit_single","AG5LZ985CQRRX","gain","8","","74","J","1","","1","0","0","0.3165374422","","false","51","0.4573118055","","main_expt","0.3165374422","","0.2764450854","","0.4437026926","","","","","","",""
"87","","bandit","127","548900","0.0-89.0-0.0","97971136","wem/bandit_single","AG5LZ985CQRRX","gain","8","","74","J","1","","0","0","1","0.3212783944","","false","52","0.4577170033","","main_expt","0.3212783944","","0.2735561336","","0.4357441266","","","","","","",""
"129","","bandit","128","550800","0.0-90.0-0.0","97971136","wem/bandit_single","AG5LZ985CQRRX","gain","8","","75","K","2","","0","0","1","0.2558353256","","false","53","0.4599667981","","main_expt","0.3079714244","","0.2558353256","","0.3926545571","","","","","","",""
"23","","bandit","129","552583","0.0-91.0-0.0","97971136","wem/bandit_single","AG5LZ985CQRRX","gain","8","","74","J","1","","0","0","1","0.3538619638","","false","54","0.4598989899","","main_expt","0.3538619638","","0.2856473895","","0.3841940555","","","","","","",""
"0","","bandit","130","554367","0.0-92.0-0.0","97971136","wem/bandit_single","AG5LZ985CQRRX","gain","8","","76","L","3","","1","0","0","0.3733442546","","false","55","0.4371040197","","main_expt","0.3390258849","","0.3110799389","","0.3733442546","","","","","","",""
"8","","bandit","131","556150","0.0-93.0-0.0","97971136","wem/bandit_single","AG5LZ985CQRRX","gain","8","","76","L","3","","0","0","1","0.3500738246","","false","56","0.3889704242","","main_expt","0.3282580673","","0.2862995849","","0.3500738246","","","","","","",""
"25","","bandit","132","557949","0.0-94.0-0.0","97971136","wem/bandit_single","AG5LZ985CQRRX","gain","8","","76","L","3","","0","0","1","0.3265916347","","false","57","0.4089883961","","main_expt","0.3014999451","","0.3029349154","","0.3265916347","","","","","","",""
"63","","bandit","133","559784","0.0-95.0-0.0","97971136","wem/bandit_single","AG5LZ985CQRRX","gain","8","","76","L","3","","0","0","1","0.3203483638","","false","58","0.3682078294","","main_expt","0.2895525025","","0.282602966","","0.3203483638","","","","","","",""
"15","","bandit","134","561566","0.0-96.0-0.0","97971136","wem/bandit_single","AG5LZ985CQRRX","gain","8","","72","H","0","img/none_selected.jpg","0","0","1","0.426053772","","false","59","0.426053772","","main_expt","0.2538740387","","0.3271218703","","0.258324817","","","","","","",""
"55","","bandit","135","563398","0.0-97.0-0.0","97971136","wem/bandit_single","AG5LZ985CQRRX","gain","8","","74","J","1","","0","0","1","0.2509640494","","false","60","0.4175969639","","main_expt","0.2509640494","","0.2978757068","","0.2527557167","","","","","","",""
"31","","bandit","136","565200","0.0-98.0-0.0","97971136","wem/bandit_single","AG5LZ985CQRRX","gain","8","","75","K","2","","0","0","1","0.1922553384","","false","61","0.4124946444","","main_expt","0.1930295055","","0.1922553384","","0.2925705146","","","","","","",""
"78","","bandit","137","567040","0.0-99.0-0.0","97971136","wem/bandit_single","AG5LZ985CQRRX","gain","8","","76","L","3","","0","0","1","0.310648962","","false","62","0.4077217862","","main_expt","0.1259826115","","0.1408400783","","0.310648962","","","","","","",""
"1102","","bandit","138","569928","0.0-100.0-0.0","97971136","wem/bandit_single","AG5LZ985CQRRX","gain","8","","72","H","0","img/none_selected.jpg","1","0","0","0.4258821936","","false","63","0.4258821936","","main_expt","0.1388804293","","0.1779610645","","0.3175489896","","","","","","",""
"33","","bandit","139","571729","0.0-101.0-0.0","97971136","wem/bandit_single","AG5LZ985CQRRX","gain","8","","72","H","0","img/none_selected.jpg","0","0","1","0.4314195329","","false","64","0.4314195329","","main_expt","0.1412297375","","0.1733040919","","0.2756852574","","","","","","",""
"34","","bandit","140","573526","0.0-102.0-0.0","97971136","wem/bandit_single","AG5LZ985CQRRX","gain","8","","72","H","0","img/none_selected.jpg","1","0","0","0.4174082156","","false","65","0.4174082156","","main_expt","0.07856201072","","0.1669650696","","0.2798966648","","","","","","",""
"145","","bandit","141","575449","0.0-103.0-0.0","97971136","wem/bandit_single","AG5LZ985CQRRX","gain","8","","72","H","0","img/none_selected.jpg","0","0","1","0.4396479182","","false","66","0.4396479182","","main_expt","0.04493535693","","0.1439674443","","0.2440426105","","","","","","",""
"460","","bandit","142","577683","0.0-104.0-0.0","97971136","wem/bandit_single","AG5LZ985CQRRX","gain","8","","72","H","0","img/none_selected.jpg","0","0","1","0.4080198752","","false","67","0.4080198752","","main_expt","0.06268984171","","0.1892066175","","0.2630461485","","","","","","",""
"12","","bandit","143","579467","0.0-105.0-0.0","97971136","wem/bandit_single","AG5LZ985CQRRX","gain","8","","74","J","1","","1","0","0","0.0976634122","","false","68","0.4137299856","","main_expt","0.0976634122","","0.1994174399","","0.2456224984","","","","","","",""
"86","","bandit","144","581332","0.0-106.0-0.0","97971136","wem/bandit_single","AG5LZ985CQRRX","gain","8","","74","J","1","","0","0","1","0.1303859095","","false","69","0.3938947582","","main_expt","0.1303859095","","0.1624567358","","0.328759159","","","","","","",""
"33","","bandit","145","583149","0.0-107.0-0.0","97971136","wem/bandit_single","AG5LZ985CQRRX","gain","8","","74","J","1","","0","0","1","0.09159795462","","false","70","0.3876621225","","main_expt","0.09159795462","","0.203142037","","0.3063762308","","","","","","",""
"25","","bandit","146","584948","0.0-108.0-0.0","97971136","wem/bandit_single","AG5LZ985CQRRX","gain","8","","75","K","2","","0","0","1","0.218187973","","false","71","0.3788053019","","main_expt","0.07422050438","","0.218187973","","0.3509026903","","","","","","",""
"409","","bandit","147","587133","0.0-109.0-0.0","97971136","wem/bandit_single","AG5LZ985CQRRX","gain","8","","76","L","3","","1","0","0","0.3695940198","","false","72","0.3632611749","","main_expt","0.05420033029","","0.2357875668","","0.3695940198","","","","","","",""
"33","","bandit","148","588938","0.0-110.0-0.0","97971136","wem/bandit_single","AG5LZ985CQRRX","gain","8","","76","L","3","","1","0","0","0.3532210052","","false","73","0.3121818875","","main_expt","0.04794676006","","0.1951490082","","0.3532210052","","","","","","",""
"8","","bandit","149","590733","0.0-111.0-0.0","97971136","wem/bandit_single","AG5LZ985CQRRX","gain","8","","76","L","3","","0","0","1","0.3780170277","","false","74","0.3385624816","","main_expt","0.03645121522","","0.208621177","","0.3780170277","","","","","","",""
"59","","bandit","150","592565","0.0-112.0-0.0","97971136","wem/bandit_single","AG5LZ985CQRRX","gain","8","","76","L","3","","1","0","0","0.3141643986","","false","75","0.3393964734","","main_expt","0.04346784694","","0.2016482668","","0.3141643986","","","","","","",""
"104","","bandit","151","594449","0.0-113.0-0.0","97971136","wem/bandit_single","AG5LZ985CQRRX","gain","8","","76","L","3","","0","0","1","0.3520496016","","false","76","0.3489067358","","main_expt","0.05697420644","","0.2495615647","","0.3520496016","","","","","","",""
"6","","bandit","152","596232","0.0-114.0-0.0","97971136","wem/bandit_single","AG5LZ985CQRRX","gain","8","","76","L","3","","1","0","0","0.2628688268","","false","77","0.3502211764","","main_expt","0.05831686642","","0.2225386599","","0.2628688268","","","","","","",""
"55","","bandit","153","598065","0.0-115.0-0.0","97971136","wem/bandit_single","AG5LZ985CQRRX","gain","8","","76","L","3","","0","0","1","0.2856335909","","false","78","0.2979424841","","main_expt","0.0396837938","","0.2525784454","","0.2856335909","","","","","","",""
"390","","bandit","154","600233","0.0-116.0-0.0","97971136","wem/bandit_single","AG5LZ985CQRRX","gain","8","","76","L","3","","1","0","0","0.3052483479","","false","79","0.2779986596","","main_expt","0.03651397352","","0.2691825077","","0.3052483479","","","","","","",""
"46","","bandit","155","602061","0.0-117.0-0.0","97971136","wem/bandit_single","AG5LZ985CQRRX","gain","8","","76","L","3","","0","0","1","0.2809417262","","false","80","0.2681941829","","main_expt","0.0570793957","","0.2749696362","","0.2809417262","","","","","","",""
"26","","bandit","156","603865","0.0-118.0-0.0","97971136","wem/bandit_single","AG5LZ985CQRRX","gain","8","","76","L","3","","0","0","1","0.2639407754","","false","81","0.2536714586","","main_expt","0.05597964966","","0.291945729","","0.2639407754","","","","","","",""
"678","","bandit","157","606316","0.0-119.0-0.0","97971136","wem/bandit_single","AG5LZ985CQRRX","gain","8","","76","L","3","","1","0","0","0.3352417475","","false","82","0.1904528106","","main_expt","0.0589745046","","0.2804178179","","0.3352417475","","","","","","",""
"12","","bandit","158","608098","0.0-120.0-0.0","97971136","wem/bandit_single","AG5LZ985CQRRX","gain","8","","76","L","3","","0","0","1","0.3246721101","","false","83","0.2497062266","","main_expt","0.04461225985","","0.2253075454","","0.3246721101","","","","","","",""
"16","","bandit","159","609885","0.0-121.0-0.0","97971136","wem/bandit_single","AG5LZ985CQRRX","gain","8","","76","L","3","","0","0","1","0.3082112656","","false","84","0.2960017758","","main_expt","0.04600221485","","0.2475548924","","0.3082112656","","","","","","",""
"46","","bandit","160","611714","0.0-122.0-0.0","97971136","wem/bandit_single","AG5LZ985CQRRX","gain","8","","76","L","3","","0","0","1","0.2733186338","","false","85","0.2677312645","","main_expt","0.04782026086","","0.2443994903","","0.2733186338","","","","","","",""
"59","","bandit","161","613548","0.0-123.0-0.0","97971136","wem/bandit_single","AG5LZ985CQRRX","gain","8","","72","H","0","img/none_selected.jpg","0","0","1","0.2764415163","","false","86","0.2764415163","","main_expt","0.05551660222","","0.2112262296","","0.2595222796","","","","","","",""
"28","","bandit","162","615348","0.0-124.0-0.0","97971136","wem/bandit_single","AG5LZ985CQRRX","gain","8","","74","J","1","","0","0","1","0.04708869331","","false","87","0.324022149","","main_expt","0.04708869331","","0.2188998383","","0.2256999028","","","","","","",""
"122","","bandit","163","617251","0.0-125.0-0.0","97971136","wem/bandit_single","AG5LZ985CQRRX","gain","8","","75","K","2","","0","0","1","0.2197891412","","false","88","0.3109963835","","main_expt","0.02844544313","","0.2197891412","","0.1990670624","","","","","","",""
"16","","bandit","164","619039","0.0-126.0-0.0","97971136","wem/bandit_single","AG5LZ985CQRRX","gain","8","","76","L","3","","1","0","0","0.2125628639","","false","89","0.324941543","","main_expt","0.02947982339","","0.1264972534","","0.2125628639","","","","","","",""
"53","","bandit","165","620871","0.0-127.0-0.0","97971136","wem/bandit_single","AG5LZ985CQRRX","gain","8","","76","L","3","","0","0","1","0.2335475446","","false","90","0.3309337967","","main_expt","0.01544371513","","0.09492746395","","0.2335475446","","","","","","",""
"46","","bandit","166","622697","0.0-128.0-0.0","97971136","wem/bandit_single","AG5LZ985CQRRX","gain","8","","76","L","3","","0","0","1","0.2803997126","","false","91","0.2419508287","","main_expt","0.02662688154","","0.0779798764","","0.2803997126","","","","","","",""
"51","","bandit","167","624531","0.0-129.0-0.0","97971136","wem/bandit_single","AG5LZ985CQRRX","gain","8","","76","L","3","","1","0","0","0.2771315147","","false","92","0.2040869203","","main_expt","0.03471523835","","0.1178574791","","0.2771315147","","","","","","",""
"60","","bandit","168","626376","0.0-130.0-0.0","97971136","wem/bandit_single","AG5LZ985CQRRX","gain","8","","76","L","3","","0","0","1","0.3069544445","","false","93","0.1936143615","","main_expt","0.0252433293","","0.1199697814","","0.3069544445","","","","","","",""
"10","","bandit","169","628164","0.0-131.0-0.0","97971136","wem/bandit_single","AG5LZ985CQRRX","gain","8","","76","L","3","","0","0","1","0.2585327286","","false","94","0.2296452841","","main_expt","0.02873343753","","0.1351842626","","0.2585327286","","","","","","",""
"51","","bandit","170","629997","0.0-132.0-0.0","97971136","wem/bandit_single","AG5LZ985CQRRX","gain","8","","76","L","3","","1","0","0","0.2043747222","","false","95","0.3009770616","","main_expt","0.03754278977","","0.1229387465","","0.2043747222","","","","","","",""
"152","","bandit","171","631921","0.0-133.0-0.0","97971136","wem/bandit_single","AG5LZ985CQRRX","gain","8","","76","L","3","","0","0","1","0.2149370614","","false","96","0.3664634414","","main_expt","0.02045008397","","0.1341504272","","0.2149370614","","","","","","",""
"45","","bandit","172","633749","0.0-134.0-0.0","97971136","wem/bandit_single","AG5LZ985CQRRX","gain","8","","76","L","3","","1","0","0","0.1294523689","","false","97","0.3476641925","","main_expt","0.01282395838","","0.08646330057","","0.1294523689","","","","","","",""
"59","","bandit","173","635597","0.0-135.0-0.0","97971136","wem/bandit_single","AG5LZ985CQRRX","gain","8","","76","L","3","","0","0","1","0.1653870254","","false","98","0.3885632826","","main_expt","0.02206163243","","0.07731746448","","0.1653870254","","","","","","",""
"3","","bandit","174","637381","0.0-136.0-0.0","97971136","wem/bandit_single","AG5LZ985CQRRX","gain","8","","76","L","3","","0","0","1","0.187235433","","false","99","0.3222143249","","main_expt","0.03016500256","","0.05048608161","","0.187235433","","","","","","",""
"41","","bandit","175","639198","0.0-137.0-0.0","97971136","wem/bandit_single","AG5LZ985CQRRX","gain","8","","76","L","3","","0","0","1","0.1583251777","","false","100","0.3386714995","","main_expt","0.03237578522","","0.03970728334","","0.1583251777","","","","","","",""
"621","","bandit","176","641597","0.0-138.0-0.0","97971136","wem/bandit_single","AG5LZ985CQRRX","gain","8","","76","L","3","","0","0","1","0.1337381207","","false","101","0.3131396166","","main_expt","0.03241037075","","0.02108340439","","0.1337381207","","","","","","",""
"57","","bandit","177","643432","0.0-139.0-0.0","97971136","wem/bandit_single","AG5LZ985CQRRX","gain","8","","72","H","0","img/none_selected.jpg","0","0","1","0.3417288757","","false","102","0.3417288757","","main_expt","0.06000215667","","0.05244648731","","0.1163639012","","","","","","",""
"89","","bandit","178","645313","0.0-140.0-0.0","97971136","wem/bandit_single","AG5LZ985CQRRX","gain","8","","74","J","1","","0","0","1","0.08726741307","","false","103","0.3582654759","","main_expt","0.08726741307","","0.04574159302","","0.1118657557","","","","","","",""
"526","","bandit","179","647630","0.0-141.0-0.0","97971136","wem/bandit_single","AG5LZ985CQRRX","gain","8","","75","K","2","","0","0","1","0.05033190662","","false","104","0.3409136392","","main_expt","0.1067467257","","0.05033190662","","0.1501499683","","","","","","",""
"9","","bandit","180","649413","0.0-142.0-0.0","97971136","wem/bandit_single","AG5LZ985CQRRX","gain","8","","76","L","3","","0","0","1","0.1354733374","","false","105","0.3532992837","","main_expt","0.1004566838","","0.1076128494","","0.1354733374","","","","","","",""
"56","","bandit","181","651246","0.0-143.0-0.0","97971136","wem/bandit_single","AG5LZ985CQRRX","gain","8","","76","L","3","","0","0","1","0.1727398631","","false","106","0.335683565","","main_expt","0.1055318719","","0.06740855405","","0.1727398631","","","","","","",""
"695","","bandit","182","653713","0.0-144.0-0.0","97971136","wem/bandit_single","AG5LZ985CQRRX","gain","8","","76","L","3","","0","0","1","0.1474174257","","false","107","0.3924059951","","main_expt","0.1236328269","","0.06658027063","","0.1474174257","","","","","","",""
"37","","bandit","183","655529","0.0-145.0-0.0","97971136","wem/bandit_single","AG5LZ985CQRRX","gain","8","","72","H","0","img/none_selected.jpg","1","0","0","0.3626054341","","false","108","0.3626054341","","main_expt","0.1301170461","","0.0777756245","","0.1683059408","","","","","","",""
"70","","bandit","184","657379","0.0-146.0-0.0","97971136","wem/bandit_single","AG5LZ985CQRRX","gain","8","","72","H","0","img/none_selected.jpg","1","0","0","0.3806857721","","false","109","0.3806857721","","main_expt","0.1507941036","","0.1117823495","","0.1972223025","","","","","","",""
"68","","bandit","185","659229","0.0-147.0-0.0","97971136","wem/bandit_single","AG5LZ985CQRRX","gain","8","","72","H","0","img/none_selected.jpg","0","0","1","0.3452619283","","false","110","0.3452619283","","main_expt","0.1647590848","","0.08710900622","","0.2085186414","","","","","","",""
"72","","bandit","186","661062","0.0-148.0-0.0","97971136","wem/bandit_single","AG5LZ985CQRRX","gain","8","","72","H","0","img/none_selected.jpg","0","0","1","0.3653509784","","false","111","0.3653509784","","main_expt","0.1574612326","","0.107183683","","0.1811180602","","","","","","",""
"32","","bandit","187","662863","0.0-149.0-0.0","97971136","wem/bandit_single","AG5LZ985CQRRX","gain","8","","72","H","0","img/none_selected.jpg","0","0","1","0.3435522482","","false","112","0.3435522482","","main_expt","0.1406493921","","0.1099425133","","0.222295219","","","","","","",""
"15","","bandit","188","664653","0.0-150.0-0.0","97971136","wem/bandit_single","AG5LZ985CQRRX","gain","8","","72","H","0","img/none_selected.jpg","0","0","1","0.3424956272","","false","113","0.3424956272","","main_expt","0.1367300214","","0.1457634924","","0.254178783","","","","","","",""
"1","","bandit","189","666446","0.0-151.0-0.0","97971136","wem/bandit_single","AG5LZ985CQRRX","gain","8","","72","H","0","img/none_selected.jpg","0","0","1","0.3353894863","","false","114","0.3353894863","","main_expt","0.1534665218","","0.09824844824","","0.2315882939","","","","","","",""
"305","","bandit","190","668529","0.0-152.0-0.0","97971136","wem/bandit_single","AG5LZ985CQRRX","gain","8","","74","J","1","","0","0","1","0.1890238391","","false","115","0.3965113255","","main_expt","0.1890238391","","0.07202874502","","0.2079629003","","","","","","",""
"86","","bandit","191","670395","0.0-153.0-0.0","97971136","wem/bandit_single","AG5LZ985CQRRX","gain","8","","75","K","2","","0","0","1","0.08386797302","","false","116","0.3889101716","","main_expt","0.1480670238","","0.08386797302","","0.2117584369","","","","","","",""
"12","","bandit","192","672168","0.0-154.0-0.0","97971136","wem/bandit_single","AG5LZ985CQRRX","gain","8","","76","L","3","","0","0","1","0.1897465023","","false","117","0.412290601","","main_expt","0.1450369027","","0.1223406282","","0.1897465023","","","","","","",""
"452","","bandit","193","674413","0.0-155.0-0.0","97971136","wem/bandit_single","AG5LZ985CQRRX","gain","8","","74","J","1","","0","0","1","0.1525061225","","false","118","0.4090296977","","main_expt","0.1525061225","","0.1131974311","","0.2162179109","","","","","","",""
"330","","bandit","194","676515","0.0-156.0-0.0","97971136","wem/bandit_single","AG5LZ985CQRRX","gain","8","","72","H","0","img/none_selected.jpg","0","0","1","0.3900906375","","false","119","0.3900906375","","main_expt","0.1327940691","","0.1214903214","","0.1954464435","","","","","","",""
"78","","bandit","195","678363","0.0-157.0-0.0","97971136","wem/bandit_single","AG5LZ985CQRRX","gain","8","","75","K","2","","0","0","1","0.1379734046","","false","120","0.3722828095","","main_expt","0.1517026744","","0.1379734046","","0.2433439763","","","","","","",""
"382","","bandit","196","680518","0.0-158.0-0.0","97971136","wem/bandit_single","AG5LZ985CQRRX","gain","8","","76","L","3","","0","0","1","0.2093375247","","false","121","0.3593952677","","main_expt","0.09770447215","","0.1537473387","","0.2093375247","","","","","","",""
"827","","bandit","197","683128","0.0-159.0-0.0","97971136","wem/bandit_single","AG5LZ985CQRRX","gain","8","","72","H","0","img/none_selected.jpg","1","0","0","0.3670381393","","false","122","0.3670381393","","main_expt","0.1084092314","","0.1654199468","","0.2030857612","","","","","","",""
"141","","bandit","198","685046","0.0-160.0-0.0","97971136","wem/bandit_single","AG5LZ985CQRRX","gain","8","","72","H","0","img/none_selected.jpg","0","0","1","0.3587286137","","false","123","0.3587286137","","main_expt","0.1828660492","","0.1908187881","","0.1810532848","","","","","","",""
"66","","bandit","199","686890","0.0-161.0-0.0","97971136","wem/bandit_single","AG5LZ985CQRRX","gain","8","","72","H","0","img/none_selected.jpg","1","0","0","0.3492740793","","false","124","0.3492740793","","main_expt","0.1743556658","","0.2229551501","","0.1582229448","","","","","","",""
"335","","bandit","200","689001","0.0-162.0-0.0","97971136","wem/bandit_single","AG5LZ985CQRRX","gain","8","","72","H","0","img/none_selected.jpg","0","0","1","0.3031262708","","false","125","0.3031262708","","main_expt","0.2091647646","","0.2354127912","","0.1223239468","","","","","","",""
"78","","bandit","201","690861","0.0-163.0-0.0","97971136","wem/bandit_single","AG5LZ985CQRRX","gain","8","","72","H","0","img/none_selected.jpg","0","0","1","0.3272336491","","false","126","0.3272336491","","main_expt","0.2089783764","","0.25119817","","0.08912034734","","","","","","",""
"208","","bandit","202","692845","0.0-164.0-0.0","97971136","wem/bandit_single","AG5LZ985CQRRX","gain","8","","72","H","0","img/none_selected.jpg","0","0","1","0.3153677968","","false","127","0.3153677968","","main_expt","0.21334071","","0.2312690923","","0.05948163","","","","","","",""
"66","","bandit","203","694708","0.0-165.0-0.0","97971136","wem/bandit_single","AG5LZ985CQRRX","gain","8","","72","H","0","img/none_selected.jpg","0","0","1","0.3317710332","","false","128","0.3317710332","","main_expt","0.1916283041","","0.2741150261","","0.06525821595","","","","","","",""
"366","","bandit","204","696861","0.0-166.0-0.0","97971136","wem/bandit_single","AG5LZ985CQRRX","gain","8","","76","L","3","","0","0","1","0.04677418535","","false","129","0.3818586719","","main_expt","0.1810604207","","0.2804264122","","0.04677418535","","","","","","",""
"97","","bandit","205","698761","0.0-167.0-0.0","97971136","wem/bandit_single","AG5LZ985CQRRX","gain","8","","76","L","3","","0","0","1","0.04931785787","","false","130","0.3778611376","","main_expt","0.1492319935","","0.2746384559","","0.04931785787","","","","","","",""
"36","","bandit","206","700561","0.0-168.0-0.0","97971136","wem/bandit_single","AG5LZ985CQRRX","gain","8","","72","H","0","img/none_selected.jpg","0","0","1","0.3745485054","","false","131","0.3745485054","","main_expt","0.129351286","","0.3052944487","","0.03231589458","","","","","","",""
"101","","bandit","207","702445","0.0-169.0-0.0","97971136","wem/bandit_single","AG5LZ985CQRRX","gain","8","","75","K","2","","0","0","1","0.2871604017","","false","132","0.3901944836","","main_expt","0.1020216346","","0.2871604017","","0.0374336399","","","","","","",""
"42","","bandit","208","704270","0.0-170.0-0.0","97971136","wem/bandit_single","AG5LZ985CQRRX","gain","8","","74","J","1","","0","0","1","0.1100395313","","false","133","0.3245875462","","main_expt","0.1100395313","","0.2262434135","","0.04583961862","","","","","","",""
"64","","bandit","209","706128","0.0-171.0-0.0","97971136","wem/bandit_single","AG5LZ985CQRRX","gain","8","","72","H","0","img/none_selected.jpg","1","0","0","0.2794858075","","false","134","0.2794858075","","main_expt","0.1078381017","","0.2020687113","","0.04150300199","","","","","","",""
"87","","bandit","210","707994","0.0-172.0-0.0","97971136","wem/bandit_single","AG5LZ985CQRRX","gain","8","","72","H","0","img/none_selected.jpg","0","0","1","0.2867414221","","false","135","0.2867414221","","main_expt","0.1093486249","","0.2168620662","","0.04663842542","","","","","","",""
"68","","bandit","211","709861","0.0-173.0-0.0","97971136","wem/bandit_single","AG5LZ985CQRRX","gain","8","","72","H","0","img/none_selected.jpg","0","0","1","0.2388941587","","false","136","0.2388941587","","main_expt","0.1246456113","","0.151139006","","0.06291357963","","","","","","",""
"81","","bandit","212","711706","0.0-174.0-0.0","97971136","wem/bandit_single","AG5LZ985CQRRX","gain","8","","72","H","0","img/none_selected.jpg","0","0","1","0.2301747732","","false","137","0.2301747732","","main_expt","0.1167447495","","0.1452995234","","0.0848669819","","","","","","",""
"9","","bandit","213","713498","0.0-175.0-0.0","97971136","wem/bandit_single","AG5LZ985CQRRX","gain","8","","76","L","3","","0","0","1","0.1250360552","","false","138","0.2344721482","","main_expt","0.1357570265","","0.1599176777","","0.1250360552","","","","","","",""
"49","","bandit","214","715344","0.0-176.0-0.0","97971136","wem/bandit_single","AG5LZ985CQRRX","gain","8","","72","H","0","img/none_selected.jpg","0","0","1","0.2351335283","","false","139","0.2351335283","","main_expt","0.1616689495","","0.1704699841","","0.122190115","","","","","","",""
"70","","bandit","215","717203","0.0-177.0-0.0","97971136","wem/bandit_single","AG5LZ985CQRRX","gain","8","","72","H","0","img/none_selected.jpg","0","0","1","0.2876903143","","false","140","0.2876903143","","main_expt","0.1979747013","","0.1142956015","","0.08666030548","","","","","","",""
"51","","bandit","216","719028","0.0-178.0-0.0","97971136","wem/bandit_single","AG5LZ985CQRRX","gain","8","","72","H","0","img/none_selected.jpg","1","0","0","0.2865732071","","false","141","0.2865732071","","main_expt","0.1708965128","","0.1206890816","","0.09967801986","","","","","","",""
"172","","bandit","217","720993","0.0-179.0-0.0","97971136","wem/bandit_single","AG5LZ985CQRRX","gain","8","","72","H","0","img/none_selected.jpg","0","0","1","0.248943806","","false","142","0.248943806","","main_expt","0.204481367","","0.1324259923","","0.1125289611","","","","","","",""
"76","","bandit","218","722840","0.0-180.0-0.0","97971136","wem/bandit_single","AG5LZ985CQRRX","gain","8","","72","H","0","img/none_selected.jpg","1","0","0","0.2839045407","","false","143","0.2839045407","","main_expt","0.1861099789","","0.09892217097","","0.1467602081","","","","","","",""
"187","","bandit","219","724803","0.0-181.0-0.0","97971136","wem/bandit_single","AG5LZ985CQRRX","gain","8","","72","H","0","img/none_selected.jpg","1","0","0","0.3150250783","","false","144","0.3150250783","","main_expt","0.1956465744","","0.1577744197","","0.1467522766","","","","","","",""
"197","","bandit","220","726776","0.0-182.0-0.0","97971136","wem/bandit_single","AG5LZ985CQRRX","gain","8","","72","H","0","img/none_selected.jpg","0","0","1","0.3090395899","","false","145","0.3090395899","","main_expt","0.2622876922","","0.1392006829","","0.118212248","","","","","","",""
"45","","bandit","221","728594","0.0-183.0-0.0","97971136","wem/bandit_single","AG5LZ985CQRRX","gain","8","","72","H","0","img/none_selected.jpg","0","0","1","0.3122039877","","false","146","0.3122039877","","main_expt","0.304745079","","0.1262993523","","0.1089879874","","","","","","",""
"22","","bandit","222","730393","0.0-184.0-0.0","97971136","wem/bandit_single","AG5LZ985CQRRX","gain","8","","72","H","0","img/none_selected.jpg","0","0","1","0.2959619691","","false","147","0.2959619691","","main_expt","0.2888799162","","0.1970652478","","0.1200469816","","","","","","",""
"685","","bandit","223","732877","0.0-185.0-0.0","97971136","wem/bandit_single","AG5LZ985CQRRX","gain","8","","72","H","0","img/none_selected.jpg","0","0","1","0.2395536641","","false","148","0.2395536641","","main_expt","0.2290209364","","0.2502259542","","0.1276189258","","","","","","",""
"26","","bandit","224","734692","0.0-186.0-0.0","97971136","wem/bandit_single","AG5LZ985CQRRX","gain","8","","72","H","0","img/none_selected.jpg","0","0","1","0.2650868272","","false","149","0.2650868272","","main_expt","0.1626908122","","0.264890558","","0.1280703092","","","","","","",""
"467","","bandit","225","736959","0.0-187.0-0.0","97971136","wem/bandit_single","AG5LZ985CQRRX","gain","8","","74","J","1","","0","0","1","0.1958031623","","false","150","0.2986082654","","main_expt","0.1958031623","","0.2458403893","","0.1260403861","","","","","","",""
"391","","bandit","226","739144","0.0-188.0-0.0","97971136","wem/bandit_single","AG5LZ985CQRRX","gain","8","","75","K","2","","1","0","0","0.3021038309","","false","151","0.2843767109","","main_expt","0.2110526716","","0.3021038309","","0.1472493067","","","","","","",""
"72","","bandit","227","741009","0.0-189.0-0.0","97971136","wem/bandit_single","AG5LZ985CQRRX","gain","8","","75","K","2","","1","0","0","0.2863751765","","false","152","0.2910803031","","main_expt","0.239542308","","0.2863751765","","0.1256460397","","","","","","",""
"141","","bandit","228","742934","0.0-190.0-0.0","97971136","wem/bandit_single","AG5LZ985CQRRX","gain","8","","75","K","2","","1","0","0","0.250244768","","false","153","0.2910028656","","main_expt","0.2781725502","","0.250244768","","0.1567097088","","","","","","",""
"103","","bandit","229","744811","0.0-191.0-0.0","97971136","wem/bandit_single","AG5LZ985CQRRX","gain","8","","75","K","2","","1","0","0","0.2127808211","","false","154","0.2845613835","","main_expt","0.228047793","","0.2127808211","","0.1473662378","","","","","","",""
"36","","bandit","230","746642","0.0-192.0-0.0","97971136","wem/bandit_single","AG5LZ985CQRRX","gain","8","","75","K","2","","0","0","1","0.205053704","","false","155","0.2707345723","","main_expt","0.2683949018","","0.205053704","","0.1466549972","","","","","","",""
"92","","bandit","231","748507","0.0-193.0-0.0","97971136","wem/bandit_single","AG5LZ985CQRRX","gain","8","","75","K","2","","0","0","1","0.1648482415","","false","156","0.3156720475","","main_expt","0.3192141369","","0.1648482415","","0.1127453184","","","","","","",""
"24","","bandit","232","750308","0.0-194.0-0.0","97971136","wem/bandit_single","AG5LZ985CQRRX","gain","8","","75","K","2","","0","0","1","0.1888047422","","false","157","0.3101066834","","main_expt","0.3402823895","","0.1888047422","","0.1577506677","","","","","","",""
"9","","bandit","233","752093","0.0-195.0-0.0","97971136","wem/bandit_single","AG5LZ985CQRRX","gain","8","","75","K","2","","0","0","1","0.1759444775","","false","158","0.3236654942","","main_expt","0.2944958958","","0.1759444775","","0.177177298","","","","","","",""
"560","","bandit","234","754425","0.0-196.0-0.0","97971136","wem/bandit_single","AG5LZ985CQRRX","gain","8","","75","K","2","","1","0","0","0.2066832709","","false","159","0.2735657487","","main_expt","0.3007248388","","0.2066832709","","0.1693510486","","","","","","",""
"36","","bandit","235","756251","0.0-197.0-0.0","97971136","wem/bandit_single","AG5LZ985CQRRX","gain","8","","75","K","2","","1","0","0","0.2570817279","","false","160","0.2384912546","","main_expt","0.3179332055","","0.2570817279","","0.1230292859","","","","","","",""
"35","","bandit","236","758075","0.0-198.0-0.0","97971136","wem/bandit_single","AG5LZ985CQRRX","gain","8","","75","K","2","","1","0","0","0.2244749933","","false","161","0.2615252743","","main_expt","0.2506164635","","0.2244749933","","0.07903667538","","","","","","",""
"28","","bandit","237","759894","0.0-199.0-0.0","97971136","wem/bandit_single","AG5LZ985CQRRX","gain","8","","75","K","2","","1","0","0","0.23263707","","false","162","0.2187643747","","main_expt","0.2858836385","","0.23263707","","0.1136507332","","","","","","",""
"27","","bandit","238","761708","0.0-200.0-0.0","97971136","wem/bandit_single","AG5LZ985CQRRX","gain","8","","75","K","2","","0","0","1","0.2287127565","","false","163","0.1909081127","","main_expt","0.2848163613","","0.2287127565","","0.1137116213","","","","","","",""
"17","","bandit","239","763509","0.0-201.0-0.0","97971136","wem/bandit_single","AG5LZ985CQRRX","gain","8","","75","K","2","","1","0","0","0.2303253206","","false","164","0.1808716434","","main_expt","0.2688566635","","0.2303253206","","0.1254102563","","","","","","",""
"81","","bandit","240","765375","0.0-202.0-0.0","97971136","wem/bandit_single","AG5LZ985CQRRX","gain","8","","75","K","2","","0","0","1","0.2771057403","","false","165","0.2118073572","","main_expt","0.2921202554","","0.2771057403","","0.1216805934","","","","","","",""
"70","","bandit","241","767226","0.0-203.0-0.0","97971136","wem/bandit_single","AG5LZ985CQRRX","gain","8","","75","K","2","","1","0","0","0.2371810998","","false","166","0.2410554973","","main_expt","0.3143591269","","0.2371810998","","0.1291529517","","","","","","",""
"46","","bandit","242","769059","0.0-204.0-0.0","97971136","wem/bandit_single","AG5LZ985CQRRX","gain","8","","75","K","2","","0","0","1","0.2349122652","","false","167","0.2574005288","","main_expt","0.2892924204","","0.2349122652","","0.1535345887","","","","","","",""
"380","","bandit","243","771225","0.0-205.0-0.0","97971136","wem/bandit_single","AG5LZ985CQRRX","gain","8","","75","K","2","","0","0","1","0.1959020284","","false","168","0.2729884233","","main_expt","0.2786305655","","0.1959020284","","0.1435034989","","","","","","",""
"7","","bandit","244","773028","0.0-206.0-0.0","97971136","wem/bandit_single","AG5LZ985CQRRX","gain","8","","75","K","2","","0","0","1","0.1899859579","","false","169","0.2625821735","","main_expt","0.246803054","","0.1899859579","","0.1957458285","","","","","","",""
"61","","bandit","245","774876","0.0-207.0-0.0","97971136","wem/bandit_single","AG5LZ985CQRRX","gain","8","","75","K","2","","0","0","1","0.2213833812","","false","170","0.3100542845","","main_expt","0.2375021307","","0.2213833812","","0.1308867566","","","","","","",""
"147","","bandit","246","776809","0.0-208.0-0.0","97971136","wem/bandit_single","AG5LZ985CQRRX","gain","8","","74","J","1","","0","0","1","0.2965678991","","false","171","0.3083945368","","main_expt","0.2965678991","","0.1589997081","","0.1422271972","","","","","","",""
"71","","bandit","247","778678","0.0-209.0-0.0","97971136","wem/bandit_single","AG5LZ985CQRRX","gain","8","","72","H","0","img/none_selected.jpg","1","0","0","0.3929186772","","false","172","0.3929186772","","main_expt","0.2696718616","","0.1669714507","","0.1541925874","","","","","","",""
"251","","bandit","248","780715","0.0-210.0-0.0","97971136","wem/bandit_single","AG5LZ985CQRRX","gain","8","","72","H","0","img/none_selected.jpg","0","0","1","0.4107736206","","false","173","0.4107736206","","main_expt","0.2576521005","","0.1699847696","","0.1416394444","","","","","","",""
"130","","bandit","249","782625","0.0-211.0-0.0","97971136","wem/bandit_single","AG5LZ985CQRRX","gain","8","","72","H","0","img/none_selected.jpg","0","0","1","0.4267170337","","false","174","0.4267170337","","main_expt","0.2839516933","","0.202136981","","0.1207830423","","","","","","",""
"94","","bandit","250","784507","0.0-212.0-0.0","97971136","wem/bandit_single","AG5LZ985CQRRX","gain","8","","72","H","0","img/none_selected.jpg","0","0","1","0.420504823","","false","175","0.420504823","","main_expt","0.2932452363","","0.1863880777","","0.1636312712","","","","","","",""
"74","","bandit","251","786369","0.0-213.0-0.0","97971136","wem/bandit_single","AG5LZ985CQRRX","gain","8","","75","K","2","","0","0","1","0.1426909825","","false","176","0.3956962169","","main_expt","0.3118313574","","0.1426909825","","0.186569684","","","","","","",""
"1","","bandit","252","788157","0.0-214.0-0.0","97971136","wem/bandit_single","AG5LZ985CQRRX","gain","8","","72","H","0","img/none_selected.jpg","0","0","1","0.3834761318","","false","177","0.3834761318","","main_expt","0.3378695823","","0.1335645184","","0.1089038478","","","","","","",""
"429","","bandit","253","790374","0.0-215.0-0.0","97971136","wem/bandit_single","AG5LZ985CQRRX","gain","8","","76","L","3","","0","0","1","0.08465244813","","false","178","0.4167112469","","main_expt","0.3234122319","","0.09719791569","","0.08465244813","","","","","","",""
"71","","bandit","254","792224","0.0-216.0-0.0","97971136","wem/bandit_single","AG5LZ985CQRRX","gain","8","","74","J","1","","0","0","1","0.3281528324","","false","179","0.4370197561","","main_expt","0.3281528324","","0.07123289457","","0.1015747644","","","","","","",""
"78","","bandit","255","794090","0.0-217.0-0.0","97971136","wem/bandit_single","AG5LZ985CQRRX","gain","8","","75","K","2","","1","0","0","0.05555663239","","false","180","0.3776598584","","main_expt","0.340497037","","0.05555663239","","0.1277953302","","","","","","",""
"132","","bandit","256","796024","0.0-218.0-0.0","97971136","wem/bandit_single","AG5LZ985CQRRX","gain","8","","75","K","2","","0","0","1","0.04396828199","","false","181","0.3636519722","","main_expt","0.3007371283","","0.04396828199","","0.1854921141","","","","","","",""
"127","","bandit","257","797944","0.0-219.0-0.0","97971136","wem/bandit_single","AG5LZ985CQRRX","gain","8","","75","K","2","","0","0","1","0.02691259782","","false","182","0.3246411676","","main_expt","0.3190136055","","0.02691259782","","0.2273529654","","","","","","",""
"58","","bandit","258","799791","0.0-220.0-0.0","97971136","wem/bandit_single","AG5LZ985CQRRX","gain","8","","72","H","0","img/none_selected.jpg","0","0","1","0.3187018958","","false","183","0.3187018958","","main_expt","0.322323442","","0.04807599522","","0.2600234541","","","","","","",""
"2","","bandit","259","801575","0.0-221.0-0.0","97971136","wem/bandit_single","AG5LZ985CQRRX","gain","8","","75","K","2","","0","0","1","0.05076165442","","false","184","0.3497063737","","main_expt","0.3086696071","","0.05076165442","","0.2689652485","","","","","","",""
"32","","bandit","260","803378","0.0-222.0-0.0","97971136","wem/bandit_single","AG5LZ985CQRRX","gain","8","","72","H","0","img/none_selected.jpg","0","0","1","0.3334532315","","false","185","0.3334532315","","main_expt","0.3146814862","","0.1128087831","","0.2646203852","","","","","","",""
"130","","bandit","261","805291","0.0-223.0-0.0","97971136","wem/bandit_single","AG5LZ985CQRRX","gain","8","","75","K","2","","0","0","1","0.1592260056","","false","186","0.3511592443","","main_expt","0.3353274036","","0.1592260056","","0.2038557162","","","","","","",""
"12","","bandit","262","807091","0.0-224.0-0.0","97971136","wem/bandit_single","AG5LZ985CQRRX","gain","8","","74","J","1","","1","0","0","0.331036234","","false","187","0.3758503369","","main_expt","0.331036234","","0.2195828404","","0.2643634763","","","","","","",""
"116","","bandit","263","809007","0.0-225.0-0.0","97971136","wem/bandit_single","AG5LZ985CQRRX","gain","8","","74","J","1","","1","0","0","0.3061178756","","false","188","0.3951098987","","main_expt","0.3061178756","","0.214856838","","0.2137054787","","","","","","",""
"150","","bandit","264","810940","0.0-226.0-0.0","97971136","wem/bandit_single","AG5LZ985CQRRX","gain","8","","74","J","1","","0","0","1","0.3455914038","","false","189","0.3766733461","","main_expt","0.3455914038","","0.2103369464","","0.2349639762","","","","","","",""
"68","","bandit","265","812806","0.0-227.0-0.0","97971136","wem/bandit_single","AG5LZ985CQRRX","gain","8","","74","J","1","","0","0","1","0.3734842368","","false","190","0.3974997784","","main_expt","0.3734842368","","0.1932940482","","0.2067261929","","","","","","",""
"77","","bandit","266","814657","0.0-228.0-0.0","97971136","wem/bandit_single","AG5LZ985CQRRX","gain","8","","76","L","3","","1","0","0","0.275245882","","false","191","0.4174686418","","main_expt","0.3648323685","","0.2285646161","","0.275245882","","","","","","",""
"31","","bandit","267","816470","0.0-229.0-0.0","97971136","wem/bandit_single","AG5LZ985CQRRX","gain","8","","76","L","3","","0","0","1","0.306220044","","false","192","0.3963748123","","main_expt","0.3339781981","","0.2589031043","","0.306220044","","","","","","",""
"76","","bandit","268","818323","0.0-230.0-0.0","97971136","wem/bandit_single","AG5LZ985CQRRX","gain","8","","76","L","3","","1","0","0","0.3035773814","","false","193","0.3921748604","","main_expt","0.3342714415","","0.2195537535","","0.3035773814","","","","","","",""
"277","","bandit","269","820390","0.0-231.0-0.0","97971136","wem/bandit_single","AG5LZ985CQRRX","gain","8","","76","L","3","","0","0","1","0.2510827831","","false","194","0.3580841109","","main_expt","0.3241295504","","0.2027550427","","0.2510827831","","","","","","",""
"10","","bandit","270","822190","0.0-232.0-0.0","97971136","wem/bandit_single","AG5LZ985CQRRX","gain","8","","74","J","1","","0","0","1","0.3116310431","","false","195","0.3508589263","","main_expt","0.3116310431","","0.1862287394","","0.2455858858","","","","","","",""
"33","","bandit","271","824013","0.0-233.0-0.0","97971136","wem/bandit_single","AG5LZ985CQRRX","gain","8","","76","L","3","","0","0","1","0.2514601016","","false","196","0.3580593089","","main_expt","0.3757707762","","0.1892299528","","0.2514601016","","","","","","",""
"127","","bandit","272","825923","0.0-234.0-0.0","97971136","wem/bandit_single","AG5LZ985CQRRX","gain","8","","74","J","1","","0","0","1","0.3510132286","","false","197","0.325214339","","main_expt","0.3510132286","","0.2217707201","","0.2735270373","","","","","","",""
"37","","bandit","273","827756","0.0-235.0-0.0","97971136","wem/bandit_single","AG5LZ985CQRRX","gain","8","","72","H","0","img/none_selected.jpg","0","0","1","0.3214736551","","false","198","0.3214736551","","main_expt","0.3775824693","","0.2622368769","","0.1856542716","","","","","","",""
"67","","bandit","274","829622","0.0-236.0-0.0","97971136","wem/bandit_single","AG5LZ985CQRRX","gain","8","","75","K","2","","1","0","0","0.2566369559","","false","199","0.3134841864","","main_expt","0.3591355879","","0.2566369559","","0.1439471636","","","","","","",""
"95","","bandit","275","831506","0.0-237.0-0.0","97971136","wem/bandit_single","AG5LZ985CQRRX","gain","8","","75","K","2","","0","0","1","0.2405232655","","false","200","0.3484934822","","main_expt","0.4329566742","","0.2405232655","","0.1920673188","","","","","","",""
"60","","bandit","276","833356","0.0-238.0-0.0","97971136","wem/bandit_single","AG5LZ985CQRRX","gain","8","","75","K","2","","1","0","0","0.191632201","","false","201","0.3509587021","","main_expt","0.4316294991","","0.191632201","","0.2139557707","","","","","","",""
"91","","bandit","277","835223","0.0-239.0-0.0","97971136","wem/bandit_single","AG5LZ985CQRRX","gain","8","","75","K","2","","1","0","0","0.1860277461","","false","202","0.3472711197","","main_expt","0.4446061493","","0.1860277461","","0.2411081829","","","","","","",""
"72","","bandit","278","837090","0.0-240.0-0.0","97971136","wem/bandit_single","AG5LZ985CQRRX","gain","8","","75","K","2","","0","0","1","0.1959395152","","false","203","0.3501901851","","main_expt","0.4350640844","","0.1959395152","","0.2229679022","","","","","","",""
"79","","bandit","279","838956","0.0-241.0-0.0","97971136","wem/bandit_single","AG5LZ985CQRRX","gain","8","","75","K","2","","0","0","1","0.1909798814","","false","204","0.4021923856","","main_expt","0.4511953558","","0.1909798814","","0.2094072873","","","","","","",""
"3","","bandit","280","840758","0.0-242.0-0.0","97971136","wem/bandit_single","AG5LZ985CQRRX","gain","8","","75","K","2","","0","0","1","0.1952925147","","false","205","0.4103624794","","main_expt","0.4444608137","","0.1952925147","","0.2061243076","","","","","","",""
"178","","bandit","281","842726","0.0-243.0-0.0","97971136","wem/bandit_single","AG5LZ985CQRRX","gain","8","","75","K","2","","0","0","1","0.2333477628","","false","206","0.3884407208","","main_expt","0.4174874576","","0.2333477628","","0.1830656651","","","","","","",""
"111","","bandit","282","844623","0.0-244.0-0.0","97971136","wem/bandit_single","AG5LZ985CQRRX","gain","8","","75","K","2","","0","0","1","0.2366383375","","false","207","0.4205181933","","main_expt","0.4473837798","","0.2366383375","","0.1806213093","","","","","","",""
"478","","bandit","283","846879","0.0-245.0-0.0","97971136","wem/bandit_single","AG5LZ985CQRRX","gain","8","","76","L","3","","0","0","1","0.1547428587","","false","208","0.39705837","","main_expt","0.4423282801","","0.2588239296","","0.1547428587","","","","","","",""
"134","","bandit","284","848805","0.0-246.0-0.0","97971136","wem/bandit_single","AG5LZ985CQRRX","gain","8","","72","H","0","img/none_selected.jpg","0","0","1","0.3763678409","","false","209","0.3763678409","","main_expt","0.4495798672","","0.2109346514","","0.1633509089","","","","","","",""
"42","","bandit","285","850638","0.0-247.0-0.0","97971136","wem/bandit_single","AG5LZ985CQRRX","gain","8","","74","J","1","","0","0","1","0.4604116181","","false","210","0.329669689","","main_expt","0.4604116181","","0.2352346414","","0.194224154","","","","","","",""
"40","","bandit","286","852472","0.0-248.0-0.0","97971136","wem/bandit_single","AG5LZ985CQRRX","gain","8","","75","K","2","","0","0","1","0.1919095989","","false","211","0.3234151823","","main_expt","0.4515605979","","0.1919095989","","0.1428536625","","","","","","",""
"78","","bandit","287","854339","0.0-249.0-0.0","97971136","wem/bandit_single","AG5LZ985CQRRX","gain","8","","75","K","2","","1","0","0","0.2511997366","","false","212","0.346289724","","main_expt","0.3796359761","","0.2511997366","","0.1876263767","","","","","","",""
"140","","bandit","288","856271","0.0-250.0-0.0","97971136","wem/bandit_single","AG5LZ985CQRRX","gain","8","","75","K","2","","1","0","0","0.2247602752","","false","213","0.3579646626","","main_expt","0.4098311692","","0.2247602752","","0.1767426991","","","","","","",""
"38","","bandit","289","858105","0.0-251.0-0.0","97971136","wem/bandit_single","AG5LZ985CQRRX","gain","8","","75","K","2","","1","0","0","0.2078026042","","false","214","0.3871938136","","main_expt","0.3758430492","","0.2078026042","","0.1997003326","","","","","","",""
"27","","bandit","290","859906","0.0-252.0-0.0","97971136","wem/bandit_single","AG5LZ985CQRRX","gain","8","","75","K","2","","0","0","1","0.2000367883","","false","215","0.4072701047","","main_expt","0.3391734167","","0.2000367883","","0.1753208105","","","","","","",""
"47","","bandit","291","861739","0.0-253.0-0.0","97971136","wem/bandit_single","AG5LZ985CQRRX","gain","8","","75","K","2","","1","0","0","0.1850279066","","false","216","0.4139997029","","main_expt","0.3292806148","","0.1850279066","","0.1526073348","","","","","","",""
"13","","bandit","292","863538","0.0-254.0-0.0","97971136","wem/bandit_single","AG5LZ985CQRRX","gain","8","","75","K","2","","0","0","1","0.1862329662","","false","217","0.4058129166","","main_expt","0.3672552775","","0.1862329662","","0.1885901152","","","","","","",""
"61","","bandit","293","865378","0.0-255.0-0.0","97971136","wem/bandit_single","AG5LZ985CQRRX","gain","8","","75","K","2","","1","0","0","0.2076422808","","false","218","0.3831507141","","main_expt","0.3540988412","","0.2076422808","","0.2068683321","","","","","","",""
"25","","bandit","294","867188","0.0-256.0-0.0","97971136","wem/bandit_single","AG5LZ985CQRRX","gain","8","","75","K","2","","0","0","1","0.1693095695","","false","219","0.3975704748","","main_expt","0.3705907093","","0.1693095695","","0.1830460615","","","","","","",""
"346","","bandit","295","869321","0.0-257.0-0.0","97971136","wem/bandit_single","AG5LZ985CQRRX","gain","8","","76","L","3","","0","0","1","0.1510464272","","false","220","0.420208779","","main_expt","0.4071767116","","0.1643321708","","0.1510464272","","","","","","",""
"5","","bandit","296","871123","0.0-258.0-0.0","97971136","wem/bandit_single","AG5LZ985CQRRX","gain","8","","75","K","2","","0","0","1","0.1755642267","","false","221","0.4277126104","","main_expt","0.4000591573","","0.1755642267","","0.1195154075","","","","","","",""
"38","","bandit","297","872955","0.0-259.0-0.0","97971136","wem/bandit_single","AG5LZ985CQRRX","gain","8","","74","J","1","","0","0","1","0.4257242725","","false","222","0.4098861052","","main_expt","0.4257242725","","0.2047466037","","0.1322821073","","","","","","",""
"133","","bandit","298","874872","0.0-260.0-0.0","97971136","wem/bandit_single","AG5LZ985CQRRX","gain","8","","72","H","0","img/none_selected.jpg","0","0","1","0.3865692481","","false","223","0.3865692481","","main_expt","0.4084538547","","0.1261696039","","0.1634864242","","","","","","",""
"111","","bandit","299","876770","0.0-261.0-0.0","97971136","wem/bandit_single","AG5LZ985CQRRX","gain","8","","75","K","2","","0","0","1","0.1671605087","","false","224","0.3942994903","","main_expt","0.3756333804","","0.1671605087","","0.1927622759","","","","","","",""
"20","","bandit","300","878578","0.0-262.0-0.0","97971136","wem/bandit_single","AG5LZ985CQRRX","gain","8","","75","K","2","","1","0","0","0.1498322393","","false","225","0.3444994861","","main_expt","0.3977261909","","0.1498322393","","0.1949177646","","","","","","",""
"122","","bandit","301","880470","0.0-263.0-0.0","97971136","wem/bandit_single","AG5LZ985CQRRX","gain","8","","75","K","2","","0","0","1","0.106170416","","false","226","0.4042132592","","main_expt","0.3876796808","","0.106170416","","0.1675301724","","","","","","",""
"16","","bandit","302","882270","0.0-264.0-0.0","97971136","wem/bandit_single","AG5LZ985CQRRX","gain","8","","75","K","2","","0","0","1","0.0897934899","","false","227","0.3906229402","","main_expt","0.3213858912","","0.0897934899","","0.163375113","","","","","","",""
"57","","bandit","303","884120","0.0-265.0-0.0","97971136","wem/bandit_single","AG5LZ985CQRRX","gain","8","","75","K","2","","0","0","1","0.09443294629","","false","228","0.3417164876","","main_expt","0.3331191915","","0.09443294629","","0.195474145","","","","","","",""
"454","","bandit","304","886370","0.0-266.0-0.0","97971136","wem/bandit_single","AG5LZ985CQRRX","gain","8","","75","K","2","","0","0","1","0.0848669953","","false","229","0.3222205624","","main_expt","0.308496805","","0.0848669953","","0.2410354958","","","","","","",""
"534","","bandit","305","888703","0.0-267.0-0.0","97971136","wem/bandit_single","AG5LZ985CQRRX","gain","8","","75","K","2","","0","0","1","0.0701458292","","false","230","0.3442672336","","main_expt","0.2734654059","","0.0701458292","","0.2567648542","","","","","","",""
"128","","bandit","306","890620","0.0-268.0-0.0","97971136","wem/bandit_single","AG5LZ985CQRRX","gain","8","","75","K","2","","0","0","1","0.1251282835","","false","231","0.3164459362","","main_expt","0.292212981","","0.1251282835","","0.2304241664","","","","","","",""
"25","","bandit","307","892422","0.0-269.0-0.0","97971136","wem/bandit_single","AG5LZ985CQRRX","gain","8","","76","L","3","","0","0","1","0.2264886823","","false","232","0.3396906789","","main_expt","0.2516656152","","0.1124912266","","0.2264886823","","","","","","",""
"2","","bandit","308","894203","0.0-270.0-0.0","97971136","wem/bandit_single","AG5LZ985CQRRX","gain","8","","74","J","1","","1","0","0","0.2563877418","","false","233","0.3008540409","","main_expt","0.2563877418","","0.1535494164","","0.1892320941","","","","","","",""
"59","","bandit","309","896053","0.0-271.0-0.0","97971136","wem/bandit_single","AG5LZ985CQRRX","gain","8","","74","J","1","","1","0","0","0.283882603","","false","234","0.2767988229","","main_expt","0.283882603","","0.1389628654","","0.1556895318","","","","","","",""
"60","","bandit","310","897886","0.0-272.0-0.0","97971136","wem/bandit_single","AG5LZ985CQRRX","gain","8","","74","J","1","","1","0","0","0.2758852766","","false","235","0.2507781603","","main_expt","0.2758852766","","0.1680793718","","0.1976044491","","","","","","",""
"95","","bandit","311","899770","0.0-273.0-0.0","97971136","wem/bandit_single","AG5LZ985CQRRX","gain","8","","74","J","1","","0","0","1","0.2434452049","","false","236","0.3091667607","","main_expt","0.2434452049","","0.2037097706","","0.1468950029","","","","","","",""
"53","","bandit","312","901603","0.0-274.0-0.0","97971136","wem/bandit_single","AG5LZ985CQRRX","gain","8","","74","J","1","","0","0","1","0.2405517979","","false","237","0.2883211118","","main_expt","0.2405517979","","0.1897176974","","0.1365515699","","","","","","",""
"30","","bandit","313","903412","0.0-275.0-0.0","97971136","wem/bandit_single","AG5LZ985CQRRX","gain","8","","74","J","1","","0","0","1","0.2260832521","","false","238","0.2756444762","","main_expt","0.2260832521","","0.2317710791","","0.1527077476","","","","","","",""
"345","","bandit","314","905537","0.0-276.0-0.0","97971136","wem/bandit_single","AG5LZ985CQRRX","gain","8","","72","H","0","img/none_selected.jpg","1","0","0","0.3061346513","","false","239","0.3061346513","","main_expt","0.2061693665","","0.2206906913","","0.1315224722","","","","","","",""
"14","","bandit","315","907336","0.0-277.0-0.0","97971136","wem/bandit_single","AG5LZ985CQRRX","gain","8","","72","H","0","img/none_selected.jpg","1","0","0","0.3274201615","","false","240","0.3274201615","","main_expt","0.2203195159","","0.2155283076","","0.1398926963","","","","","","",""
"38","","bandit","316","909170","0.0-278.0-0.0","97971136","wem/bandit_single","AG5LZ985CQRRX","gain","8","","72","H","0","img/none_selected.jpg","1","0","0","0.2838770346","","false","241","0.2838770346","","main_expt","0.2230507071","","0.2386015387","","0.1698873683","","","","","","",""
"93","","bandit","317","911052","0.0-279.0-0.0","97971136","wem/bandit_single","AG5LZ985CQRRX","gain","8","","72","H","0","img/none_selected.jpg","0","0","1","0.261873528","","false","242","0.261873528","","main_expt","0.1834748297","","0.2178179326","","0.1693915972","","","","","","",""
"186","","bandit","318","913027","0.0-280.0-0.0","97971136","wem/bandit_single","AG5LZ985CQRRX","gain","8","","72","H","0","img/none_selected.jpg","0","0","1","0.2346518895","","false","243","0.2346518895","","main_expt","0.1450766806","","0.2209910316","","0.2011280514","","","","","","",""
"258","","bandit","319","915069","0.0-281.0-0.0","97971136","wem/bandit_single","AG5LZ985CQRRX","gain","8","","76","L","3","","1","0","0","0.283074141","","false","244","0.2253303202","","main_expt","0.1407015906","","0.2202366047","","0.283074141","","","","","","",""
"96","","bandit","320","916936","0.0-282.0-0.0","97971136","wem/bandit_single","AG5LZ985CQRRX","gain","8","","76","L","3","","1","0","0","0.2960363525","","false","245","0.2379184421","","main_expt","0.1386250556","","0.2369425358","","0.2960363525","","","","","","",""
"79","","bandit","321","918818","0.0-283.0-0.0","97971136","wem/bandit_single","AG5LZ985CQRRX","gain","8","","76","L","3","","0","0","1","0.2985154159","","false","246","0.1704118475","","main_expt","0.1561911267","","0.2437218948","","0.2985154159","","","","","","",""
"59","","bandit","322","920670","0.0-284.0-0.0","97971136","wem/bandit_single","AG5LZ985CQRRX","gain","8","","76","L","3","","0","0","1","0.3159682012","","false","247","0.1520093858","","main_expt","0.251644506","","0.2573167276","","0.3159682012","","","","","","",""
"26","","bandit","323","922484","0.0-285.0-0.0","97971136","wem/bandit_single","AG5LZ985CQRRX","gain","8","","76","L","3","","0","0","1","0.2937445921","","false","248","0.1246217458","","main_expt","0.2541276422","","0.255349996","","0.2937445921","","","","","","",""
"20","","bandit","324","924286","0.0-286.0-0.0","97971136","wem/bandit_single","AG5LZ985CQRRX","gain","8","","76","L","3","","1","0","0","0.2794909668","","false","249","0.1525969556","","main_expt","0.1924412691","","0.2866877344","","0.2794909668","","","","","","",""
"169","","bandit","325","926255","0.0-287.0-0.0","97971136","wem/bandit_single","AG5LZ985CQRRX","gain","8","","76","L","3","","0","0","1","0.2327966623","","false","250","0.1500628479","","main_expt","0.1397358892","","0.2330780591","","0.2327966623","","","","","","",""
"113","","bandit","326","928169","0.0-288.0-0.0","97971136","wem/bandit_single","AG5LZ985CQRRX","gain","8","","76","L","3","","1","0","0","0.2595602212","","false","251","0.1141396938","","main_expt","0.1362233376","","0.2580196572","","0.2595602212","","","","","","",""
"15","","bandit","327","929968","0.0-289.0-0.0","97971136","wem/bandit_single","AG5LZ985CQRRX","gain","8","","76","L","3","","1","0","0","0.2715763176","","false","252","0.1476089834","","main_expt","0.1796418735","","0.2003146692","","0.2715763176","","","","","","",""
"86","","bandit","328","931852","0.0-290.0-0.0","97971136","wem/bandit_single","AG5LZ985CQRRX","gain","8","","76","L","3","","0","0","1","0.3146654463","","false","253","0.175183139","","main_expt","0.1833608075","","0.1651092288","","0.3146654463","","","","","","",""
"556","","bandit","329","934203","0.0-291.0-0.0","97971136","wem/bandit_single","AG5LZ985CQRRX","gain","8","","76","L","3","","0","0","1","0.3037610447","","false","254","0.1916323123","","main_expt","0.1983034343","","0.1413675546","","0.3037610447","","","","","","",""
"413","","bandit","330","936402","0.0-292.0-0.0","97971136","wem/bandit_single","AG5LZ985CQRRX","gain","8","","72","H","0","img/none_selected.jpg","0","0","1","0.1888714334","","false","255","0.1888714334","","main_expt","0.2286544637","","0.1801919014","","0.287825992","","","","","","",""
"46","","bandit","331","938235","0.0-293.0-0.0","97971136","wem/bandit_single","AG5LZ985CQRRX","gain","8","","74","J","1","","0","0","1","0.2502735072","","false","256","0.2338577058","","main_expt","0.2502735072","","0.1883387327","","0.2673332977","","","","","","",""
"59","","bandit","332","940086","0.0-294.0-0.0","97971136","wem/bandit_single","AG5LZ985CQRRX","gain","8","","75","K","2","","1","0","0","0.1757220287","","false","257","0.2235288738","","main_expt","0.2657937058","","0.1757220287","","0.2867614738","","","","","","",""
"144","","bandit","333","942018","0.0-295.0-0.0","97971136","wem/bandit_single","AG5LZ985CQRRX","gain","8","","75","K","2","","0","0","1","0.1817694486","","false","258","0.2256298632","","main_expt","0.2326681124","","0.1817694486","","0.2432485896","","","","","","",""
"84","","bandit","334","943885","0.0-296.0-0.0","97971136","wem/bandit_single","AG5LZ985CQRRX","gain","8","","75","K","2","","0","0","1","0.1938363466","","false","259","0.229367941","","main_expt","0.2128848171","","0.1938363466","","0.2433124215","","","","","","",""
"66","","bandit","335","945734","0.0-297.0-0.0","97971136","wem/bandit_single","AG5LZ985CQRRX","gain","8","","75","K","2","","1","0","0","0.2129025296","","false","260","0.2585863351","","main_expt","0.261065439","","0.2129025296","","0.202057327","","","","","","",""
"136","","bandit","336","947669","0.0-298.0-0.0","97971136","wem/bandit_single","AG5LZ985CQRRX","gain","8","","75","K","2","","0","0","1","0.1931457884","","false","261","0.2748644017","","main_expt","0.2693274395","","0.1931457884","","0.163702413","","","","","","",""
"142","","bandit","337","949585","0.0-299.0-0.0","97971136","wem/bandit_single","AG5LZ985CQRRX","gain","8","","75","K","2","","1","0","0","0.183306516","","false","262","0.288340978","","main_expt","0.3386888623","","0.183306516","","0.1317961998","","","","","","",""
"102","","bandit","338","951485","0.0-300.0-0.0","97971136","wem/bandit_single","AG5LZ985CQRRX","gain","8","","75","K","2","","0","0","1","0.1293037787","","false","263","0.3151532186","","main_expt","0.3645909238","","0.1293037787","","0.09680570831","","","","","","",""
"395","","bandit","339","953667","0.0-301.0-0.0","97971136","wem/bandit_single","AG5LZ985CQRRX","gain","8","","76","L","3","","0","0","1","0.08846786375","","false","264","0.2931268787","","main_expt","0.3437159196","","0.1386072774","","0.08846786375","","","","","","",""
"27","","bandit","340","955484","0.0-302.0-0.0","97971136","wem/bandit_single","AG5LZ985CQRRX","gain","8","","75","K","2","","0","0","1","0.1511252148","","false","265","0.3131275506","","main_expt","0.3644358952","","0.1511252148","","0.08556864258","","","","","","",""
"11","","bandit","341","957285","0.0-303.0-0.0","97971136","wem/bandit_single","AG5LZ985CQRRX","gain","8","","76","L","3","","0","0","1","0.0706515048","","false","266","0.336523231","","main_expt","0.3904852039","","0.2186772706","","0.0706515048","","","","","","",""
"11","","bandit","342","959081","0.0-304.0-0.0","97971136","wem/bandit_single","AG5LZ985CQRRX","gain","8","","75","K","2","","1","0","0","0.2625163009","","false","267","0.2850369317","","main_expt","0.3896615427","","0.2625163009","","0.0747424838","","","","","","",""
"66","","bandit","343","960934","0.0-305.0-0.0","97971136","wem/bandit_single","AG5LZ985CQRRX","gain","8","","75","K","2","","0","0","1","0.3140442454","","false","268","0.3163307124","","main_expt","0.4017278216","","0.3140442454","","0.112617448","","","","","","",""
"2","","bandit","344","962735","0.0-306.0-0.0","97971136","wem/bandit_single","AG5LZ985CQRRX","gain","8","","75","K","2","","0","0","1","0.3069084364","","false","269","0.2956683275","","main_expt","0.370996795","","0.3069084364","","0.1406639307","","","","","","",""
"42","","bandit","345","964551","0.0-307.0-0.0","97971136","wem/bandit_single","AG5LZ985CQRRX","gain","8","","75","K","2","","0","0","1","0.2814908846","","false","270","0.3574655381","","main_expt","0.4255483526","","0.2814908846","","0.1398727949","","","","","","",""
"1","","bandit","346","966350","0.0-308.0-0.0","97971136","wem/bandit_single","AG5LZ985CQRRX","gain","8","","74","J","1","","0","0","1","0.3948114384","","false","271","0.3969117111","","main_expt","0.3948114384","","0.3060786573","","0.1430486157","","","","","","",""
"16","","bandit","347","968151","0.0-309.0-0.0","97971136","wem/bandit_single","AG5LZ985CQRRX","gain","8","","72","H","0","img/none_selected.jpg","0","0","1","0.3938657786","","false","272","0.3938657786","","main_expt","0.3713372483","","0.3555003363","","0.1872928851","","","","","","",""
"384","","bandit","348","970318","0.0-310.0-0.0","97971136","wem/bandit_single","AG5LZ985CQRRX","gain","8","","75","K","2","","0","0","1","0.3980140183","","false","273","0.3903330825","","main_expt","0.3650537767","","0.3980140183","","0.1769074474","","","","","","",""
"312","","bandit","349","972420","0.0-311.0-0.0","97971136","wem/bandit_single","AG5LZ985CQRRX","gain","8","","76","L","3","","1","0","0","0.1820324592","","false","274","0.4236793781","","main_expt","0.3414565802","","0.4077181827","","0.1820324592","","","","","","",""
"115","","bandit","350","974333","0.0-312.0-0.0","97971136","wem/bandit_single","AG5LZ985CQRRX","gain","8","","76","L","3","","0","0","1","0.1923133529","","false","275","0.4320968281","","main_expt","0.3027622838","","0.4142369189","","0.1923133529","","","","","","",""
"73","","bandit","351","976200","0.0-313.0-0.0","97971136","wem/bandit_single","AG5LZ985CQRRX","gain","8","","76","L","3","","0","0","1","0.1917589367","","false","276","0.4017915655","","main_expt","0.3125082267","","0.4250096067","","0.1917589367","","","","","","",""
"8","","bandit","352","978000","0.0-314.0-0.0","97971136","wem/bandit_single","AG5LZ985CQRRX","gain","8","","75","K","2","","0","0","1","0.4378988515","","false","277","0.3548215972","","main_expt","0.348890663","","0.4378988515","","0.1667093518","","","","","","",""
"7","","bandit","353","979800","0.0-315.0-0.0","97971136","wem/bandit_single","AG5LZ985CQRRX","gain","8","","76","L","3","","0","0","1","0.1695638059","","false","278","0.3683165275","","main_expt","0.3341457036","","0.4323676568","","0.1695638059","","","","","","",""
"55","","bandit","354","981650","0.0-316.0-0.0","97971136","wem/bandit_single","AG5LZ985CQRRX","gain","8","","76","L","3","","0","0","1","0.1696283439","","false","279","0.3750953637","","main_expt","0.2341959149","","0.4391545144","","0.1696283439","","","","","","",""
"79","","bandit","355","983516","0.0-317.0-0.0","97971136","wem/bandit_single","AG5LZ985CQRRX","gain","8","","75","K","2","","1","0","0","0.4467207207","","false","280","0.3557095414","","main_expt","0.1839622844","","0.4467207207","","0.09227733008","","","","","","",""
"42","","bandit","356","985350","0.0-318.0-0.0","97971136","wem/bandit_single","AG5LZ985CQRRX","gain","8","","75","K","2","","0","0","1","0.3922333676","","false","281","0.374333358","","main_expt","0.1303375237","","0.3922333676","","0.08059064446","","","","","","",""
"81","","bandit","357","987216","0.0-319.0-0.0","97971136","wem/bandit_single","AG5LZ985CQRRX","gain","8","","75","K","2","","0","0","1","0.4243132136","","false","282","0.3786855632","","main_expt","0.07449941097","","0.4243132136","","0.06236597977","","","","","","",""
"62","","bandit","358","989067","0.0-320.0-0.0","97971136","wem/bandit_single","AG5LZ985CQRRX","gain","8","","75","K","2","","1","0","0","0.4187362854","","false","283","0.437514669","","main_expt","0.08783129911","","0.4187362854","","0.07782340279","","","","","","",""
"129","","bandit","359","990999","0.0-321.0-0.0","97971136","wem/bandit_single","AG5LZ985CQRRX","gain","8","","75","K","2","","1","0","0","0.422543139","","false","284","0.410198323","","main_expt","0.08228152097","","0.422543139","","0.07564660971","","","","","","",""
"151","","bandit","360","992949","0.0-322.0-0.0","97971136","wem/bandit_single","AG5LZ985CQRRX","gain","8","","75","K","2","","0","0","1","0.434302279","","false","285","0.3777139522","","main_expt","0.09246744832","","0.434302279","","0.08237135124","","","","","","",""
"45","","bandit","361","994777","0.0-323.0-0.0","97971136","wem/bandit_single","AG5LZ985CQRRX","gain","8","","75","K","2","","0","0","1","0.4094725029","","false","286","0.3841171753","","main_expt","0.08394792075","","0.4094725029","","0.05670298638","","","","","","",""
"544","","bandit","362","997117","0.0-324.0-0.0","97971136","wem/bandit_single","AG5LZ985CQRRX","gain","8","","75","K","2","","0","0","1","0.3778080042","","false","287","0.3641862554","","main_expt","0.1021913287","","0.3778080042","","0.06647452785","","","","","","",""
"121","","bandit","363","999033","0.0-325.0-0.0","97971136","wem/bandit_single","AG5LZ985CQRRX","gain","8","","74","J","1","","0","0","1","0.1188664616","","false","288","0.3192590496","","main_expt","0.1188664616","","0.3671495563","","0.04859701272","","","","","","",""
"37","","bandit","364","1000869","0.0-326.0-0.0","97971136","wem/bandit_single","AG5LZ985CQRRX","gain","8","","72","H","0","img/none_selected.jpg","1","0","0","0.3384054944","","false","289","0.3384054944","","main_expt","0.1050513492","","0.3622055636","","0.04246321062","","","","","","",""
"75","","bandit","365","1002726","0.0-327.0-0.0","97971136","wem/bandit_single","AG5LZ985CQRRX","gain","8","","72","H","0","img/none_selected.jpg","0","0","1","0.329366118","","false","290","0.329366118","","main_expt","0.1304324694","","0.3616647964","","0.08307379137","","","","","","",""
"89","","bandit","366","1004599","0.0-328.0-0.0","97971136","wem/bandit_single","AG5LZ985CQRRX","gain","8","","72","H","0","img/none_selected.jpg","0","0","1","0.38061917","","false","291","0.38061917","","main_expt","0.09707891459","","0.3521760992","","0.09664054691","","","","","","",""
"137","","bandit","367","1006533","0.0-329.0-0.0","97971136","wem/bandit_single","AG5LZ985CQRRX","gain","8","","72","H","0","img/none_selected.jpg","1","0","0","0.3703624541","","false","292","0.3703624541","","main_expt","0.1166693976","","0.3062989856","","0.1089287446","","","","","","",""
"265","","bandit","368","1008599","0.0-330.0-0.0","97971136","wem/bandit_single","AG5LZ985CQRRX","gain","8","","72","H","0","img/none_selected.jpg","1","0","0","0.3554666564","","false","293","0.3554666564","","main_expt","0.1448282665","","0.2594623792","","0.1426967363","","","","","","",""
"207","","bandit","369","1010598","0.0-331.0-0.0","97971136","wem/bandit_single","AG5LZ985CQRRX","gain","8","","72","H","0","img/none_selected.jpg","0","0","1","0.3976604504","","false","294","0.3976604504","","main_expt","0.1486412875","","0.2666401727","","0.08295656842","","","","","","",""
"88","","bandit","370","1012471","0.0-332.0-0.0","97971136","wem/bandit_single","AG5LZ985CQRRX","gain","8","","72","H","0","img/none_selected.jpg","0","0","1","0.3567340825","","false","295","0.3567340825","","main_expt","0.1266024918","","0.2160621863","","0.07441347029","","","","","","",""
"101","","bandit","371","1014365","0.0-333.0-0.0","97971136","wem/bandit_single","AG5LZ985CQRRX","gain","8","","72","H","0","img/none_selected.jpg","0","0","1","0.3802278382","","false","296","0.3802278382","","main_expt","0.1499702932","","0.1924669582","","0.08167080543","","","","","","",""
"56","","bandit","372","1016215","0.0-334.0-0.0","97971136","wem/bandit_single","AG5LZ985CQRRX","gain","8","","72","H","0","img/none_selected.jpg","1","0","0","0.3764104085","","false","297","0.3764104085","","main_expt","0.1124444021","","0.2572135825","","0.06721412472","","","","","","",""
"71","","bandit","373","1018075","0.0-335.0-0.0","97971136","wem/bandit_single","AG5LZ985CQRRX","gain","8","","72","H","0","img/none_selected.jpg","0","0","1","0.3801851674","","false","298","0.3801851674","","main_expt","0.122133656","","0.2660288188","","0.1106754059","","","","","","",""
"77","","bandit","374","1019944","0.0-336.0-0.0","97971136","wem/bandit_single","AG5LZ985CQRRX","gain","8","","72","H","0","img/none_selected.jpg","0","0","1","0.37372938","","false","299","0.37372938","","main_expt","0.1064281731","","0.2708303459","","0.146580741","","","","","","",""
