"rt","responses","trial_type","trial_index","time_elapsed","internal_node_id","subjID","study","MID","cond","drift","key_press","respCharCode","respKey","respChoiceNum","respChoice","gems","bombs","no_reward","GemPrChosen","BombPrChosen","practice","trial_counter","WinPr_0","LosePr_0","trial_label","WinPr_1","LosePr_1","WinPr_2","LosePr_2","WinPr_3","LosePr_3","Q0","Q1","Q2","gender","age","ethnicity"
"2873","{""Q0"":""A1AQQFJAF8CI4H""}","survey-text","0","2913","0.0-0.0","98280017","wem/bandit_single","A1AQQFJAF8CI4H","gain","5","","","","","","","","","","","","","","","","","","","","","","","","","","",""
"1994","","text","1","5910","0.0-1.0","98280017","wem/bandit_single","A1AQQFJAF8CI4H","gain","5","32","","","","","","","","","","","","","","","","","","","","","","","","","",""
"1068","","text","2","6982","0.0-2.0","98280017","wem/bandit_single","A1AQQFJAF8CI4H","gain","5","32","","","","","","","","","","","","","","","","","","","","","","","","","",""
"2757","","text","3","9741","0.0-3.0","98280017","wem/bandit_single","A1AQQFJAF8CI4H","gain","5","32","","","","","","","","","","","","","","","","","","","","","","","","","",""
"28455","","text","4","38198","0.0-4.0","98280017","wem/bandit_single","A1AQQFJAF8CI4H","gain","5","32","","","","","","","","","","","","","","","","","","","","","","","","","",""
"3245","","text","5","41445","0.0-5.0","98280017","wem/bandit_single","A1AQQFJAF8CI4H","gain","5","32","","","","","","","","","","","","","","","","","","","","","","","","","",""
"1486","","text","6","42933","0.0-6.0","98280017","wem/bandit_single","A1AQQFJAF8CI4H","gain","5","32","","","","","","","","","","","","","","","","","","","","","","","","","",""
"1078","","text","7","44013","0.0-7.0","98280017","wem/bandit_single","A1AQQFJAF8CI4H","gain","5","32","","","","","","","","","","","","","","","","","","","","","","","","","",""
"1620","","text","8","45637","0.0-8.0","98280017","wem/bandit_single","A1AQQFJAF8CI4H","gain","5","32","","","","","","","","","","","","","","","","","","","","","","","","","",""
"750","","text","9","46389","0.0-9.0","98280017","wem/bandit_single","A1AQQFJAF8CI4H","gain","5","32","","","","","","","","","","","","","","","","","","","","","","","","","",""
"861","","text","10","47253","0.0-10.0","98280017","wem/bandit_single","A1AQQFJAF8CI4H","gain","5","32","","","","","","","","","","","","","","","","","","","","","","","","","",""
"790","","text","11","48045","0.0-11.0","98280017","wem/bandit_single","A1AQQFJAF8CI4H","gain","5","32","","","","","","","","","","","","","","","","","","","","","","","","","",""
"1514","","bandit","12","51075","0.0-12.0-0.0","98280017","wem/bandit_single","A1AQQFJAF8CI4H","gain","5","","74","J","0","img/none_selected_demo.jpg","0","0","1","0","0","true","0","0","0","","","","","","","","","","","","",""
"67","","bandit","13","52900","0.0-13.0-0.0","98280017","wem/bandit_single","A1AQQFJAF8CI4H","gain","5","","75","K","0","img/none_selected_demo.jpg","0","0","1","0","0","true","0","0","0","","","","","","","","","","","","",""
"604","","text","14","53757","0.0-14.0","98280017","wem/bandit_single","A1AQQFJAF8CI4H","gain","5","32","","","","","","","","","","","","","","","","","","","","","","","","","",""
"934","","text","15","54693","0.0-15.0","98280017","wem/bandit_single","A1AQQFJAF8CI4H","gain","5","32","","","","","","","","","","","","","","","","","","","","","","","","","",""
"1398","","text","16","56093","0.0-16.0","98280017","wem/bandit_single","A1AQQFJAF8CI4H","gain","5","32","","","","","","","","","","","","","","","","","","","","","","","","","",""
"454","","text","17","56549","0.0-17.0","98280017","wem/bandit_single","A1AQQFJAF8CI4H","gain","5","32","","","","","","","","","","","","","","","","","","","","","","","","","",""
"469","","bandit","18","58524","0.0-18.0-0.0","98280017","wem/bandit_single","A1AQQFJAF8CI4H","gain","5","","74","J","0","img/none_selected_demo.jpg","1","0","0","0.8","0","true","0","0.8","0","80_20_practice","0.2","0","","","","","","","","","",""
"683","","bandit","19","60964","0.0-18.0-1.0","98280017","wem/bandit_single","A1AQQFJAF8CI4H","gain","5","","74","J","0","img/none_selected_demo.jpg","1","0","0","0.8","0","true","0","0.8","0","80_20_practice","0.2","0","","","","","","","","","",""
"265","","bandit","20","62987","0.0-18.0-2.0","98280017","wem/bandit_single","A1AQQFJAF8CI4H","gain","5","","74","J","0","img/none_selected_demo.jpg","1","0","0","0.8","0","true","0","0.8","0","80_20_practice","0.2","0","","","","","","","","","",""
"27","","bandit","21","64771","0.0-18.0-3.0","98280017","wem/bandit_single","A1AQQFJAF8CI4H","gain","5","","74","J","0","img/none_selected_demo.jpg","1","0","0","0.8","0","true","0","0.8","0","80_20_practice","0.2","0","","","","","","","","","",""
"188","","bandit","22","66716","0.0-18.0-4.0","98280017","wem/bandit_single","A1AQQFJAF8CI4H","gain","5","","74","J","0","img/none_selected_demo.jpg","0","0","1","0.8","0","true","0","0.8","0","80_20_practice","0.2","0","","","","","","","","","",""
"153","","bandit","23","68629","0.0-18.0-5.0","98280017","wem/bandit_single","A1AQQFJAF8CI4H","gain","5","","75","K","1","","0","0","1","0.2","0","true","0","0.8","0","80_20_practice","0.2","0","","","","","","","","","",""
"64","","bandit","24","70451","0.0-18.0-6.0","98280017","wem/bandit_single","A1AQQFJAF8CI4H","gain","5","","74","J","0","img/none_selected_demo.jpg","0","0","1","0.8","0","true","0","0.8","0","80_20_practice","0.2","0","","","","","","","","","",""
"114","","bandit","25","72323","0.0-18.0-7.0","98280017","wem/bandit_single","A1AQQFJAF8CI4H","gain","5","","75","K","1","","0","0","1","0.2","0","true","0","0.8","0","80_20_practice","0.2","0","","","","","","","","","",""
"43","","bandit","26","74123","0.0-18.0-8.0","98280017","wem/bandit_single","A1AQQFJAF8CI4H","gain","5","","74","J","0","img/none_selected_demo.jpg","0","0","1","0.8","0","true","0","0.8","0","80_20_practice","0.2","0","","","","","","","","","",""
"379","","bandit","27","76259","0.0-18.0-9.0","98280017","wem/bandit_single","A1AQQFJAF8CI4H","gain","5","","74","J","0","img/none_selected_demo.jpg","1","0","0","0.8","0","true","0","0.8","0","80_20_practice","0.2","0","","","","","","","","","",""
"211","","bandit","28","78227","0.0-18.0-10.0","98280017","wem/bandit_single","A1AQQFJAF8CI4H","gain","5","","74","J","0","img/none_selected_demo.jpg","1","0","0","0.8","0","true","0","0.8","0","80_20_practice","0.2","0","","","","","","","","","",""
"66","","bandit","29","80052","0.0-18.0-11.0","98280017","wem/bandit_single","A1AQQFJAF8CI4H","gain","5","","74","J","0","img/none_selected_demo.jpg","1","0","0","0.8","0","true","0","0.8","0","80_20_practice","0.2","0","","","","","","","","","",""
"210","","bandit","30","82020","0.0-18.0-12.0","98280017","wem/bandit_single","A1AQQFJAF8CI4H","gain","5","","74","J","0","img/none_selected_demo.jpg","1","0","0","0.8","0","true","0","0.8","0","80_20_practice","0.2","0","","","","","","","","","",""
"106","","bandit","31","83883","0.0-18.0-13.0","98280017","wem/bandit_single","A1AQQFJAF8CI4H","gain","5","","74","J","0","img/none_selected_demo.jpg","1","0","0","0.8","0","true","0","0.8","0","80_20_practice","0.2","0","","","","","","","","","",""
"59","","bandit","32","85700","0.0-18.0-14.0","98280017","wem/bandit_single","A1AQQFJAF8CI4H","gain","5","","74","J","0","img/none_selected_demo.jpg","1","0","0","0.8","0","true","0","0.8","0","80_20_practice","0.2","0","","","","","","","","","",""
"18","","bandit","33","87474","0.0-18.0-15.0","98280017","wem/bandit_single","A1AQQFJAF8CI4H","gain","5","","74","J","0","img/none_selected_demo.jpg","1","0","0","0.8","0","true","0","0.8","0","80_20_practice","0.2","0","","","","","","","","","",""
"221","","bandit","34","89452","0.0-18.0-16.0","98280017","wem/bandit_single","A1AQQFJAF8CI4H","gain","5","","74","J","0","img/none_selected_demo.jpg","0","0","1","0.8","0","true","0","0.8","0","80_20_practice","0.2","0","","","","","","","","","",""
"58","","bandit","35","91268","0.0-18.0-17.0","98280017","wem/bandit_single","A1AQQFJAF8CI4H","gain","5","","75","K","1","","0","0","1","0.2","0","true","0","0.8","0","80_20_practice","0.2","0","","","","","","","","","",""
"267","","bandit","36","93292","0.0-18.0-18.0","98280017","wem/bandit_single","A1AQQFJAF8CI4H","gain","5","","74","J","0","img/none_selected_demo.jpg","1","0","0","0.8","0","true","0","0.8","0","80_20_practice","0.2","0","","","","","","","","","",""
"162","","bandit","37","95211","0.0-18.0-19.0","98280017","wem/bandit_single","A1AQQFJAF8CI4H","gain","5","","74","J","0","img/none_selected_demo.jpg","1","0","0","0.8","0","true","0","0.8","0","80_20_practice","0.2","0","","","","","","","","","",""
"2958","","text","38","98421","0.0-19.0","98280017","wem/bandit_single","A1AQQFJAF8CI4H","gain","5","32","","","","","","","","","","","","","","","","","","","","","","","","","",""
"2781","","bandit","39","102707","0.0-20.0-0.0","98280017","wem/bandit_single","A1AQQFJAF8CI4H","gain","5","","74","J","0","img/none_selected_demo.jpg","0","0","1","0","0","true","0","0","0","","0","0","","","","","","","","","",""
"3020","","text","40","105982","0.0-21.0","98280017","wem/bandit_single","A1AQQFJAF8CI4H","gain","5","32","","","","","","","","","","","","","","","","","","","","","","","","","",""
"3973","","text","41","109957","0.0-22.0","98280017","wem/bandit_single","A1AQQFJAF8CI4H","gain","5","32","","","","","","","","","","","","","","","","","","","","","","","","","",""
"605","","text","42","110566","0.0-23.0","98280017","wem/bandit_single","A1AQQFJAF8CI4H","gain","5","32","","","","","","","","","","","","","","","","","","","","","","","","","",""
"381","","text","43","110949","0.0-24.0","98280017","wem/bandit_single","A1AQQFJAF8CI4H","gain","5","32","","","","","","","","","","","","","","","","","","","","","","","","","",""
"486","","text","44","111438","0.0-25.0","98280017","wem/bandit_single","A1AQQFJAF8CI4H","gain","5","32","","","","","","","","","","","","","","","","","","","","","","","","","",""
"877","","text","45","112317","0.0-26.0","98280017","wem/bandit_single","A1AQQFJAF8CI4H","gain","5","32","","","","","","","","","","","","","","","","","","","","","","","","","",""
"910","","text","46","113230","0.0-27.0","98280017","wem/bandit_single","A1AQQFJAF8CI4H","gain","5","32","","","","","","","","","","","","","","","","","","","","","","","","","",""
"2398","","text","47","115630","0.0-28.0","98280017","wem/bandit_single","A1AQQFJAF8CI4H","gain","5","32","","","","","","","","","","","","","","","","","","","","","","","","","",""
"461","","text","48","116094","0.0-29.0","98280017","wem/bandit_single","A1AQQFJAF8CI4H","gain","5","32","","","","","","","","","","","","","","","","","","","","","","","","","",""
"3245","","text","49","119341","0.0-30.0","98280017","wem/bandit_single","A1AQQFJAF8CI4H","gain","5","32","","","","","","","","","","","","","","","","","","","","","","","","","",""
"2390","","text","50","121733","0.0-31.0","98280017","wem/bandit_single","A1AQQFJAF8CI4H","gain","5","32","","","","","","","","","","","","","","","","","","","","","","","","","",""
"541","","bandit","51","123780","0.0-32.0-0.0","98280017","wem/bandit_single","A1AQQFJAF8CI4H","gain","5","","74","J","1","","0","0","1","0.2","0","true","0","0.8","0","full_practice","0.2","0","0.6","0","0.2","0","","","","","",""
"10","","bandit","52","125548","0.0-32.0-1.0","98280017","wem/bandit_single","A1AQQFJAF8CI4H","gain","5","","75","K","2","","1","0","0","0.6","0","true","0","0.8","0","full_practice","0.2","0","0.6","0","0.2","0","","","","","",""
"108","","bandit","53","127413","0.0-32.0-2.0","98280017","wem/bandit_single","A1AQQFJAF8CI4H","gain","5","","76","L","3","","0","0","1","0.2","0","true","0","0.8","0","full_practice","0.2","0","0.6","0","0.2","0","","","","","",""
"192","","bandit","54","129365","0.0-32.0-3.0","98280017","wem/bandit_single","A1AQQFJAF8CI4H","gain","5","","72","H","0","img/none_selected.jpg","1","0","0","0.8","0","true","0","0.8","0","full_practice","0.2","0","0.6","0","0.2","0","","","","","",""
"272","","bandit","55","131396","0.0-32.0-4.0","98280017","wem/bandit_single","A1AQQFJAF8CI4H","gain","5","","75","K","2","","1","0","0","0.6","0","true","0","0.8","0","full_practice","0.2","0","0.6","0","0.2","0","","","","","",""
"194","","bandit","56","133348","0.0-32.0-5.0","98280017","wem/bandit_single","A1AQQFJAF8CI4H","gain","5","","75","K","2","","1","0","0","0.6","0","true","0","0.8","0","full_practice","0.2","0","0.6","0","0.2","0","","","","","",""
"123","","bandit","57","135227","0.0-32.0-6.0","98280017","wem/bandit_single","A1AQQFJAF8CI4H","gain","5","","75","K","2","","0","0","1","0.6","0","true","0","0.8","0","full_practice","0.2","0","0.6","0","0.2","0","","","","","",""
"410","","bandit","58","137396","0.0-32.0-7.0","98280017","wem/bandit_single","A1AQQFJAF8CI4H","gain","5","","75","K","2","","1","0","0","0.6","0","true","0","0.8","0","full_practice","0.2","0","0.6","0","0.2","0","","","","","",""
"114","","bandit","59","139268","0.0-32.0-8.0","98280017","wem/bandit_single","A1AQQFJAF8CI4H","gain","5","","74","J","1","","0","0","1","0.2","0","true","0","0.8","0","full_practice","0.2","0","0.6","0","0.2","0","","","","","",""
"658","","bandit","60","141685","0.0-32.0-9.0","98280017","wem/bandit_single","A1AQQFJAF8CI4H","gain","5","","72","H","0","img/none_selected.jpg","1","0","0","0.8","0","true","0","0.8","0","full_practice","0.2","0","0.6","0","0.2","0","","","","","",""
"42","","bandit","61","143484","0.0-32.0-10.0","98280017","wem/bandit_single","A1AQQFJAF8CI4H","gain","5","","74","J","1","","0","0","1","0.2","0","true","0","0.8","0","full_practice","0.2","0","0.6","0","0.2","0","","","","","",""
"224","","bandit","62","145468","0.0-32.0-11.0","98280017","wem/bandit_single","A1AQQFJAF8CI4H","gain","5","","76","L","3","","0","0","1","0.2","0","true","0","0.8","0","full_practice","0.2","0","0.6","0","0.2","0","","","","","",""
"368","","bandit","63","147597","0.0-32.0-12.0","98280017","wem/bandit_single","A1AQQFJAF8CI4H","gain","5","","72","H","0","img/none_selected.jpg","1","0","0","0.8","0","true","0","0.8","0","full_practice","0.2","0","0.6","0","0.2","0","","","","","",""
"231","","bandit","64","149588","0.0-32.0-13.0","98280017","wem/bandit_single","A1AQQFJAF8CI4H","gain","5","","72","H","0","img/none_selected.jpg","1","0","0","0.8","0","true","0","0.8","0","full_practice","0.2","0","0.6","0","0.2","0","","","","","",""
"26","","bandit","65","151373","0.0-32.0-14.0","98280017","wem/bandit_single","A1AQQFJAF8CI4H","gain","5","","76","L","3","","0","0","1","0.2","0","true","0","0.8","0","full_practice","0.2","0","0.6","0","0.2","0","","","","","",""
"12064","","bandit","66","165199","0.0-32.0-15.0","98280017","wem/bandit_single","A1AQQFJAF8CI4H","gain","5","","75","K","2","","1","0","0","0.6","0","true","0","0.8","0","full_practice","0.2","0","0.6","0","0.2","0","","","","","",""
"64","","bandit","67","167029","0.0-32.0-16.0","98280017","wem/bandit_single","A1AQQFJAF8CI4H","gain","5","","76","L","3","","1","0","0","0.2","0","true","0","0.8","0","full_practice","0.2","0","0.6","0","0.2","0","","","","","",""
"337","","bandit","68","169125","0.0-32.0-17.0","98280017","wem/bandit_single","A1AQQFJAF8CI4H","gain","5","","74","J","1","","0","0","1","0.2","0","true","0","0.8","0","full_practice","0.2","0","0.6","0","0.2","0","","","","","",""
"3048","","bandit","69","173933","0.0-32.0-18.0","98280017","wem/bandit_single","A1AQQFJAF8CI4H","gain","5","","72","H","0","img/none_selected.jpg","0","0","1","0.8","0","true","0","0.8","0","full_practice","0.2","0","0.6","0","0.2","0","","","","","",""
"80","","bandit","70","175773","0.0-32.0-19.0","98280017","wem/bandit_single","A1AQQFJAF8CI4H","gain","5","","74","J","1","","0","0","1","0.2","0","true","0","0.8","0","full_practice","0.2","0","0.6","0","0.2","0","","","","","",""
"2518","","text","71","178550","0.0-33.0","98280017","wem/bandit_single","A1AQQFJAF8CI4H","gain","5","32","","","","","","","","","","","","","","","","","","","","","","","","","",""
"11068","","text","72","190622","0.0-34.0","98280017","wem/bandit_single","A1AQQFJAF8CI4H","gain","5","32","","","","","","","","","","","","","","","","","","","","","","","","","",""
"2981","","text","73","193607","0.0-35.0","98280017","wem/bandit_single","A1AQQFJAF8CI4H","gain","5","32","","","","","","","","","","","","","","","","","","","","","","","","","",""
"1075","","text","74","194687","0.0-36.0","98280017","wem/bandit_single","A1AQQFJAF8CI4H","gain","5","32","","","","","","","","","","","","","","","","","","","","","","","","","",""
"3044","","text","75","197734","0.0-37.0","98280017","wem/bandit_single","A1AQQFJAF8CI4H","gain","5","32","","","","","","","","","","","","","","","","","","","","","","","","","",""
"1708","","bandit","76","200949","0.0-38.0-0.0","98280017","wem/bandit_single","A1AQQFJAF8CI4H","gain","5","","72","H","0","img/none_selected.jpg","1","0","0","0.3811303016","","false","1","0.3811303016","","main_expt","0.04962883862","","0.4657241486","","0.1478184891","","","","","","",""
"32","","bandit","77","202741","0.0-39.0-0.0","98280017","wem/bandit_single","A1AQQFJAF8CI4H","gain","5","","72","H","0","img/none_selected.jpg","0","0","1","0.350111504","","false","2","0.350111504","","main_expt","0.03569255153","","0.4660849779","","0.2081060842","","","","","","",""
"473","","bandit","78","204973","0.0-40.0-0.0","98280017","wem/bandit_single","A1AQQFJAF8CI4H","gain","5","","74","J","1","","0","0","1","0.02901958263","","false","3","0.3436486883","","main_expt","0.02901958263","","0.4687539887","","0.1722167697","","","","","","",""
"25","","bandit","79","206758","0.0-41.0-0.0","98280017","wem/bandit_single","A1AQQFJAF8CI4H","gain","5","","72","H","0","img/none_selected.jpg","0","0","1","0.3419997506","","false","4","0.3419997506","","main_expt","0.04894390993","","0.48401473","","0.1424145416","","","","","","",""
"104","","bandit","80","208621","0.0-42.0-0.0","98280017","wem/bandit_single","A1AQQFJAF8CI4H","gain","5","","74","J","1","","0","0","1","0.04206610475","","false","5","0.3692180445","","main_expt","0.04206610475","","0.4755123677","","0.1446667298","","","","","","",""
"258","","bandit","81","210638","0.0-43.0-0.0","98280017","wem/bandit_single","A1AQQFJAF8CI4H","gain","5","","75","K","2","","0","0","1","0.4802482158","","false","6","0.3602257359","","main_expt","0.04292771587","","0.4802482158","","0.1447199692","","","","","","",""
"80","","bandit","82","212477","0.0-44.0-0.0","98280017","wem/bandit_single","A1AQQFJAF8CI4H","gain","5","","76","L","3","","0","0","1","0.1001258446","","false","7","0.3568498895","","main_expt","0.06035830385","","0.4780438684","","0.1001258446","","","","","","",""
"73","","bandit","83","214308","0.0-45.0-0.0","98280017","wem/bandit_single","A1AQQFJAF8CI4H","gain","5","","75","K","2","","1","0","0","0.4575173044","","false","8","0.294604339","","main_expt","0.09727842944","","0.4575173044","","0.1244671667","","","","","","",""
"355","","bandit","84","216420","0.0-46.0-0.0","98280017","wem/bandit_single","A1AQQFJAF8CI4H","gain","5","","75","K","2","","1","0","0","0.4525933246","","false","9","0.3802768622","","main_expt","0.07952196982","","0.4525933246","","0.1293804987","","","","","","",""
"160","","bandit","85","218341","0.0-47.0-0.0","98280017","wem/bandit_single","A1AQQFJAF8CI4H","gain","5","","75","K","2","","0","0","1","0.4476408152","","false","10","0.3530595227","","main_expt","0.1049852556","","0.4476408152","","0.1606810952","","","","","","",""
"610","","bandit","86","220709","0.0-48.0-0.0","98280017","wem/bandit_single","A1AQQFJAF8CI4H","gain","5","","76","L","3","","0","0","1","0.1585385462","","false","11","0.358648576","","main_expt","0.1118692116","","0.4484644352","","0.1585385462","","","","","","",""
"153","","bandit","87","222620","0.0-49.0-0.0","98280017","wem/bandit_single","A1AQQFJAF8CI4H","gain","5","","72","H","0","img/none_selected.jpg","0","0","1","0.3382469396","","false","12","0.3382469396","","main_expt","0.1270372311","","0.4466341879","","0.1492634201","","","","","","",""
"58","","bandit","88","224437","0.0-50.0-0.0","98280017","wem/bandit_single","A1AQQFJAF8CI4H","gain","5","","74","J","1","","0","0","1","0.1278892577","","false","13","0.3092021245","","main_expt","0.1278892577","","0.4642511008","","0.1106465011","","","","","","",""
"176","","bandit","89","226374","0.0-51.0-0.0","98280017","wem/bandit_single","A1AQQFJAF8CI4H","gain","5","","72","H","0","img/none_selected.jpg","0","0","1","0.3532484784","","false","14","0.3532484784","","main_expt","0.1024725346","","0.4615970843","","0.1232346967","","","","","","",""
"81","","bandit","90","228214","0.0-52.0-0.0","98280017","wem/bandit_single","A1AQQFJAF8CI4H","gain","5","","75","K","2","","1","0","0","0.4692442536","","false","15","0.3371384495","","main_expt","0.1234109619","","0.4692442536","","0.1323340596","","","","","","",""
"225","","bandit","91","230196","0.0-53.0-0.0","98280017","wem/bandit_single","A1AQQFJAF8CI4H","gain","5","","75","K","2","","1","0","0","0.4755425263","","false","16","0.3282622062","","main_expt","0.1360550169","","0.4755425263","","0.1410223318","","","","","","",""
"227","","bandit","92","232181","0.0-54.0-0.0","98280017","wem/bandit_single","A1AQQFJAF8CI4H","gain","5","","75","K","2","","0","0","1","0.4828633911","","false","17","0.3032164303","","main_expt","0.1070219664","","0.4828633911","","0.1498636582","","","","","","",""
"177","","bandit","93","234117","0.0-55.0-0.0","98280017","wem/bandit_single","A1AQQFJAF8CI4H","gain","5","","76","L","3","","0","0","1","0.1132842199","","false","18","0.2834034058","","main_expt","0.09318331203","","0.4784959143","","0.1132842199","","","","","","",""
"71","","bandit","94","235949","0.0-56.0-0.0","98280017","wem/bandit_single","A1AQQFJAF8CI4H","gain","5","","74","J","1","","0","0","1","0.08644374764","","false","19","0.376157017","","main_expt","0.08644374764","","0.4645747316","","0.08554013857","","","","","","",""
"257","","bandit","95","237965","0.0-57.0-0.0","98280017","wem/bandit_single","A1AQQFJAF8CI4H","gain","5","","72","H","0","img/none_selected.jpg","0","0","1","0.3718288413","","false","20","0.3718288413","","main_expt","0.1066513301","","0.4441513352","","0.1176407844","","","","","","",""
"200","","bandit","96","239926","0.0-58.0-0.0","98280017","wem/bandit_single","A1AQQFJAF8CI4H","gain","5","","75","K","2","","0","0","1","0.4281495132","","false","21","0.3755251961","","main_expt","0.1143532382","","0.4281495132","","0.09701455477","","","","","","",""
"368","","bandit","97","242053","0.0-59.0-0.0","98280017","wem/bandit_single","A1AQQFJAF8CI4H","gain","5","","74","J","1","","0","0","1","0.111858438","","false","22","0.3536603278","","main_expt","0.111858438","","0.4374563715","","0.08683592795","","","","","","",""
"368","","bandit","98","244182","0.0-60.0-0.0","98280017","wem/bandit_single","A1AQQFJAF8CI4H","gain","5","","72","H","0","img/none_selected.jpg","1","0","0","0.3908816919","","false","23","0.3908816919","","main_expt","0.09088087914","","0.4408316507","","0.1062952262","","","","","","",""
"270","","bandit","99","246213","0.0-61.0-0.0","98280017","wem/bandit_single","A1AQQFJAF8CI4H","gain","5","","76","L","3","","1","0","0","0.1320295984","","false","24","0.3639752867","","main_expt","0.1045917755","","0.4249736282","","0.1320295984","","","","","","",""
"113","","bandit","100","248085","0.0-62.0-0.0","98280017","wem/bandit_single","A1AQQFJAF8CI4H","gain","5","","76","L","3","","0","0","1","0.18562956","","false","25","0.3569796848","","main_expt","0.107118439","","0.4542404639","","0.18562956","","","","","","",""
"90","","bandit","101","249934","0.0-63.0-0.0","98280017","wem/bandit_single","A1AQQFJAF8CI4H","gain","5","","75","K","2","","0","0","1","0.4707756245","","false","26","0.3466804264","","main_expt","0.08847958778","","0.4707756245","","0.1589772959","","","","","","",""
"39","","bandit","102","251734","0.0-64.0-0.0","98280017","wem/bandit_single","A1AQQFJAF8CI4H","gain","5","","74","J","1","","0","0","1","0.105958259","","false","27","0.3487144915","","main_expt","0.105958259","","0.4492807888","","0.1361305173","","","","","","",""
"39","","bandit","103","253533","0.0-65.0-0.0","98280017","wem/bandit_single","A1AQQFJAF8CI4H","gain","5","","72","H","0","img/none_selected.jpg","0","0","1","0.31872733","","false","28","0.31872733","","main_expt","0.09976229861","","0.4630254912","","0.1517112547","","","","","","",""
"113","","bandit","104","255406","0.0-66.0-0.0","98280017","wem/bandit_single","A1AQQFJAF8CI4H","gain","5","","76","L","3","","0","0","1","0.1207272987","","false","29","0.3351256986","","main_expt","0.1117783291","","0.4582460064","","0.1207272987","","","","","","",""
"129","","bandit","105","257292","0.0-67.0-0.0","98280017","wem/bandit_single","A1AQQFJAF8CI4H","gain","5","","76","L","3","","0","0","1","0.06619286558","","false","30","0.3165147827","","main_expt","0.104708879","","0.44398484","","0.06619286558","","","","","","",""
"73","","bandit","106","259126","0.0-68.0-0.0","98280017","wem/bandit_single","A1AQQFJAF8CI4H","gain","5","","75","K","2","","0","0","1","0.4662875842","","false","31","0.3587164307","","main_expt","0.1168740313","","0.4662875842","","0.08172424971","","","","","","",""
"89","","bandit","107","260973","0.0-69.0-0.0","98280017","wem/bandit_single","A1AQQFJAF8CI4H","gain","5","","72","H","0","img/none_selected.jpg","0","0","1","0.384091524","","false","32","0.384091524","","main_expt","0.1193100679","","0.4823207571","","0.1118972321","","","","","","",""
"209","","bandit","108","262941","0.0-70.0-0.0","98280017","wem/bandit_single","A1AQQFJAF8CI4H","gain","5","","74","J","1","","0","0","1","0.1160378653","","false","33","0.3410562849","","main_expt","0.1160378653","","0.4887640326","","0.07764728595","","","","","","",""
"96","","bandit","109","264797","0.0-71.0-0.0","98280017","wem/bandit_single","A1AQQFJAF8CI4H","gain","5","","76","L","3","","0","0","1","0.1021677232","","false","34","0.3772037995","","main_expt","0.1240203414","","0.4871413525","","0.1021677232","","","","","","",""
"296","","bandit","110","266853","0.0-72.0-0.0","98280017","wem/bandit_single","A1AQQFJAF8CI4H","gain","5","","72","H","0","img/none_selected.jpg","1","0","0","0.3601610849","","false","35","0.3601610849","","main_expt","0.1568527985","","0.472467875","","0.09263198197","","","","","","",""
"56","","bandit","111","268670","0.0-73.0-0.0","98280017","wem/bandit_single","A1AQQFJAF8CI4H","gain","5","","72","H","0","img/none_selected.jpg","0","0","1","0.3199141994","","false","36","0.3199141994","","main_expt","0.1887398002","","0.4801988656","","0.1395706987","","","","","","",""
"61","","bandit","112","270494","0.0-74.0-0.0","98280017","wem/bandit_single","A1AQQFJAF8CI4H","gain","5","","74","J","1","","0","0","1","0.1567271146","","false","37","0.3022128767","","main_expt","0.1567271146","","0.4658101737","","0.1166343238","","","","","","",""
"119","","bandit","113","272374","0.0-75.0-0.0","98280017","wem/bandit_single","A1AQQFJAF8CI4H","gain","5","","75","K","2","","0","0","1","0.4725237643","","false","38","0.220841548","","main_expt","0.1213003185","","0.4725237643","","0.1344783462","","","","","","",""
"13","","bandit","114","274150","0.0-76.0-0.0","98280017","wem/bandit_single","A1AQQFJAF8CI4H","gain","5","","76","L","3","","0","0","1","0.1132701409","","false","39","0.2273815274","","main_expt","0.1129188575","","0.4863678522","","0.1132701409","","","","","","",""
"294","","bandit","115","276206","0.0-77.0-0.0","98280017","wem/bandit_single","A1AQQFJAF8CI4H","gain","5","","72","H","0","img/none_selected.jpg","0","0","1","0.2216047912","","false","40","0.2216047912","","main_expt","0.1490040727","","0.4756100127","","0.1269330716","","","","","","",""
"364","","bandit","116","278334","0.0-78.0-0.0","98280017","wem/bandit_single","A1AQQFJAF8CI4H","gain","5","","74","J","1","","0","0","1","0.20555416","","false","41","0.1790357129","","main_expt","0.20555416","","0.4644843691","","0.1043764639","","","","","","",""
"109","","bandit","117","280206","0.0-79.0-0.0","98280017","wem/bandit_single","A1AQQFJAF8CI4H","gain","5","","75","K","2","","0","0","1","0.4595487669","","false","42","0.1124402831","","main_expt","0.2458082757","","0.4595487669","","0.123259557","","","","","","",""
"364","","bandit","118","282335","0.0-80.0-0.0","98280017","wem/bandit_single","A1AQQFJAF8CI4H","gain","5","","76","L","3","","0","0","1","0.1523094635","","false","43","0.1309909921","","main_expt","0.1980967925","","0.4598563523","","0.1523094635","","","","","","",""
"269","","bandit","119","284366","0.0-81.0-0.0","98280017","wem/bandit_single","A1AQQFJAF8CI4H","gain","5","","75","K","2","","1","0","0","0.4444935065","","false","44","0.1620245532","","main_expt","0.2011817551","","0.4444935065","","0.1438901127","","","","","","",""
"150","","bandit","120","286278","0.0-82.0-0.0","98280017","wem/bandit_single","A1AQQFJAF8CI4H","gain","5","","75","K","2","","1","0","0","0.4201454787","","false","45","0.1962154431","","main_expt","0.1908172103","","0.4201454787","","0.1381896233","","","","","","",""
"104","","bandit","121","288142","0.0-83.0-0.0","98280017","wem/bandit_single","A1AQQFJAF8CI4H","gain","5","","75","K","2","","1","0","0","0.4420567968","","false","46","0.1548021256","","main_expt","0.1682898959","","0.4420567968","","0.08118013389","","","","","","",""
"64","","bandit","122","289966","0.0-84.0-0.0","98280017","wem/bandit_single","A1AQQFJAF8CI4H","gain","5","","75","K","2","","0","0","1","0.4454115659","","false","47","0.155425446","","main_expt","0.114950809","","0.4454115659","","0.08279503272","","","","","","",""
"76","","bandit","123","291807","0.0-85.0-0.0","98280017","wem/bandit_single","A1AQQFJAF8CI4H","gain","5","","74","J","1","","0","0","1","0.1231508501","","false","48","0.2368850053","","main_expt","0.1231508501","","0.4409121906","","0.09757227309","","","","","","",""
"124","","bandit","124","293695","0.0-86.0-0.0","98280017","wem/bandit_single","A1AQQFJAF8CI4H","gain","5","","72","H","0","img/none_selected.jpg","0","0","1","0.1712995484","","false","49","0.1712995484","","main_expt","0.1264715503","","0.4640555105","","0.1407466139","","","","","","",""
"189","","bandit","125","295647","0.0-87.0-0.0","98280017","wem/bandit_single","A1AQQFJAF8CI4H","gain","5","","76","L","3","","0","0","1","0.1128896644","","false","50","0.2371897999","","main_expt","0.1119267987","","0.4619625264","","0.1128896644","","","","","","",""
"108","","bandit","126","297518","0.0-88.0-0.0","98280017","wem/bandit_single","A1AQQFJAF8CI4H","gain","5","","75","K","2","","1","0","0","0.4686499241","","false","51","0.2520952739","","main_expt","0.1192285775","","0.4686499241","","0.1292206793","","","","","","",""
"86","","bandit","127","299367","0.0-89.0-0.0","98280017","wem/bandit_single","A1AQQFJAF8CI4H","gain","5","","75","K","2","","1","0","0","0.4721244997","","false","52","0.2201249325","","main_expt","0.1536714506","","0.4721244997","","0.117204758","","","","","","",""
"13","","bandit","128","301141","0.0-90.0-0.0","98280017","wem/bandit_single","A1AQQFJAF8CI4H","gain","5","","75","K","2","","1","0","0","0.4776765754","","false","53","0.2019083534","","main_expt","0.1817289366","","0.4776765754","","0.1180232867","","","","","","",""
"96","","bandit","129","302997","0.0-91.0-0.0","98280017","wem/bandit_single","A1AQQFJAF8CI4H","gain","5","","75","K","2","","0","0","1","0.4788042678","","false","54","0.2133100918","","main_expt","0.1664376657","","0.4788042678","","0.09503139185","","","","","","",""
"104","","bandit","130","304863","0.0-92.0-0.0","98280017","wem/bandit_single","A1AQQFJAF8CI4H","gain","5","","74","J","1","","0","0","1","0.1219288973","","false","55","0.2210295122","","main_expt","0.1219288973","","0.4852168201","","0.1238025275","","","","","","",""
"61","","bandit","131","306686","0.0-93.0-0.0","98280017","wem/bandit_single","A1AQQFJAF8CI4H","gain","5","","72","H","0","img/none_selected.jpg","0","0","1","0.1728424853","","false","56","0.1728424853","","main_expt","0.1392062569","","0.4860946669","","0.1544257673","","","","","","",""
"118","","bandit","132","308567","0.0-94.0-0.0","98280017","wem/bandit_single","A1AQQFJAF8CI4H","gain","5","","76","L","3","","0","0","1","0.1492478473","","false","57","0.2301797189","","main_expt","0.2060247316","","0.4859962979","","0.1492478473","","","","","","",""
"69","","bandit","133","310398","0.0-95.0-0.0","98280017","wem/bandit_single","A1AQQFJAF8CI4H","gain","5","","75","K","2","","1","0","0","0.4751013025","","false","58","0.2820892606","","main_expt","0.1723567799","","0.4751013025","","0.1392181034","","","","","","",""
"54","","bandit","134","312214","0.0-96.0-0.0","98280017","wem/bandit_single","A1AQQFJAF8CI4H","gain","5","","75","K","2","","1","0","0","0.4816883425","","false","59","0.308641684","","main_expt","0.16345501","","0.4816883425","","0.1854998728","","","","","","",""
"7","","bandit","135","313982","0.0-97.0-0.0","98280017","wem/bandit_single","A1AQQFJAF8CI4H","gain","5","","75","K","2","","0","0","1","0.4846541976","","false","60","0.3012287428","","main_expt","0.1552759559","","0.4846541976","","0.1306651225","","","","","","",""
"145","","bandit","136","315886","0.0-98.0-0.0","98280017","wem/bandit_single","A1AQQFJAF8CI4H","gain","5","","75","K","2","","1","0","0","0.4848840061","","false","61","0.263166603","","main_expt","0.1652193455","","0.4848840061","","0.1567024934","","","","","","",""
"229","","bandit","137","317878","0.0-99.0-0.0","98280017","wem/bandit_single","A1AQQFJAF8CI4H","gain","5","","75","K","2","","1","0","0","0.4856292504","","false","62","0.2428038775","","main_expt","0.1813222976","","0.4856292504","","0.1622246099","","","","","","",""
"221","","bandit","138","319863","0.0-100.0-0.0","98280017","wem/bandit_single","A1AQQFJAF8CI4H","gain","5","","75","K","2","","0","0","1","0.4865153319","","false","63","0.2843805899","","main_expt","0.1727004114","","0.4865153319","","0.2196770705","","","","","","",""
"189","","bandit","139","321814","0.0-101.0-0.0","98280017","wem/bandit_single","A1AQQFJAF8CI4H","gain","5","","75","K","2","","1","0","0","0.4874146034","","false","64","0.2895992306","","main_expt","0.2105999223","","0.4874146034","","0.218319606","","","","","","",""
"104","","bandit","140","323678","0.0-102.0-0.0","98280017","wem/bandit_single","A1AQQFJAF8CI4H","gain","5","","75","K","2","","1","0","0","0.4781609215","","false","65","0.3847688","","main_expt","0.240225816","","0.4781609215","","0.2278721313","","","","","","",""
"142","","bandit","141","325583","0.0-103.0-0.0","98280017","wem/bandit_single","A1AQQFJAF8CI4H","gain","5","","75","K","2","","0","0","1","0.4848714892","","false","66","0.4083751038","","main_expt","0.2924754864","","0.4848714892","","0.1599393353","","","","","","",""
"613","","bandit","142","327959","0.0-104.0-0.0","98280017","wem/bandit_single","A1AQQFJAF8CI4H","gain","5","","75","K","2","","1","0","0","0.4872204599","","false","67","0.4036944211","","main_expt","0.2363072125","","0.4872204599","","0.1647045883","","","","","","",""
"173","","bandit","143","329894","0.0-105.0-0.0","98280017","wem/bandit_single","A1AQQFJAF8CI4H","gain","5","","75","K","2","","0","0","1","0.4749956953","","false","68","0.3910329043","","main_expt","0.264359064","","0.4749956953","","0.1442333851","","","","","","",""
"87","","bandit","144","331743","0.0-106.0-0.0","98280017","wem/bandit_single","A1AQQFJAF8CI4H","gain","5","","75","K","2","","0","0","1","0.4776093432","","false","69","0.3438989047","","main_expt","0.2755227552","","0.4776093432","","0.1757685765","","","","","","",""
"52","","bandit","145","333559","0.0-107.0-0.0","98280017","wem/bandit_single","A1AQQFJAF8CI4H","gain","5","","75","K","2","","1","0","0","0.4550183311","","false","70","0.3282106587","","main_expt","0.2978365432","","0.4550183311","","0.1995177274","","","","","","",""
"172","","bandit","146","335495","0.0-108.0-0.0","98280017","wem/bandit_single","A1AQQFJAF8CI4H","gain","5","","75","K","2","","0","0","1","0.4466984445","","false","71","0.3085852942","","main_expt","0.2788476436","","0.4466984445","","0.2429348876","","","","","","",""
"86","","bandit","147","337342","0.0-109.0-0.0","98280017","wem/bandit_single","A1AQQFJAF8CI4H","gain","5","","75","K","2","","0","0","1","0.453817204","","false","72","0.317066931","","main_expt","0.2983184618","","0.453817204","","0.2134703404","","","","","","",""
"0","","bandit","148","339105","0.0-110.0-0.0","98280017","wem/bandit_single","A1AQQFJAF8CI4H","gain","5","","72","H","0","img/none_selected.jpg","0","0","1","0.3118309255","","false","73","0.3118309255","","main_expt","0.3235064893","","0.4421557619","","0.2779115064","","","","","","",""
"82","","bandit","149","340950","0.0-111.0-0.0","98280017","wem/bandit_single","A1AQQFJAF8CI4H","gain","5","","72","H","0","img/none_selected.jpg","1","0","0","0.3442292265","","false","74","0.3442292265","","main_expt","0.2605282151","","0.4340536998","","0.2696493969","","","","","","",""
"116","","bandit","150","342831","0.0-112.0-0.0","98280017","wem/bandit_single","A1AQQFJAF8CI4H","gain","5","","72","H","0","img/none_selected.jpg","0","0","1","0.3392290825","","false","75","0.3392290825","","main_expt","0.3081503464","","0.4148912722","","0.2929582525","","","","","","",""
"243","","bandit","151","344838","0.0-113.0-0.0","98280017","wem/bandit_single","A1AQQFJAF8CI4H","gain","5","","72","H","0","img/none_selected.jpg","1","0","0","0.3019050266","","false","76","0.3019050266","","main_expt","0.3793773342","","0.4049452856","","0.2925997362","","","","","","",""
"94","","bandit","152","346694","0.0-114.0-0.0","98280017","wem/bandit_single","A1AQQFJAF8CI4H","gain","5","","72","H","0","img/none_selected.jpg","0","0","1","0.3346778491","","false","77","0.3346778491","","main_expt","0.4108459626","","0.3804311168","","0.2402419665","","","","","","",""
"324","","bandit","153","348782","0.0-115.0-0.0","98280017","wem/bandit_single","A1AQQFJAF8CI4H","gain","5","","72","H","0","img/none_selected.jpg","0","0","1","0.2858281516","","false","78","0.2858281516","","main_expt","0.432197644","","0.4076768351","","0.2662288132","","","","","","",""
"167","","bandit","154","350710","0.0-116.0-0.0","98280017","wem/bandit_single","A1AQQFJAF8CI4H","gain","5","","72","H","0","img/none_selected.jpg","0","0","1","0.2601805687","","false","79","0.2601805687","","main_expt","0.4681634707","","0.4322729224","","0.2946750364","","","","","","",""
"12","","bandit","155","352487","0.0-117.0-0.0","98280017","wem/bandit_single","A1AQQFJAF8CI4H","gain","5","","74","J","1","","0","0","1","0.4487514359","","false","80","0.2494540003","","main_expt","0.4487514359","","0.4344903628","","0.3142603933","","","","","","",""
"133","","bandit","156","354382","0.0-118.0-0.0","98280017","wem/bandit_single","A1AQQFJAF8CI4H","gain","5","","76","L","3","","0","0","1","0.3045476359","","false","81","0.2029748002","","main_expt","0.4278748425","","0.4128510282","","0.3045476359","","","","","","",""
"133","","bandit","157","356278","0.0-119.0-0.0","98280017","wem/bandit_single","A1AQQFJAF8CI4H","gain","5","","76","L","3","","0","0","1","0.2481672469","","false","82","0.1459008349","","main_expt","0.3873338363","","0.3473788204","","0.2481672469","","","","","","",""
"48","","bandit","158","358087","0.0-120.0-0.0","98280017","wem/bandit_single","A1AQQFJAF8CI4H","gain","5","","75","K","2","","0","0","1","0.3964685929","","false","83","0.1792892234","","main_expt","0.3676955993","","0.3964685929","","0.2366474468","","","","","","",""
"44","","bandit","159","359894","0.0-121.0-0.0","98280017","wem/bandit_single","A1AQQFJAF8CI4H","gain","5","","75","K","2","","0","0","1","0.4058457219","","false","84","0.1384159538","","main_expt","0.3494013457","","0.4058457219","","0.2327145127","","","","","","",""
"229","","bandit","160","361887","0.0-122.0-0.0","98280017","wem/bandit_single","A1AQQFJAF8CI4H","gain","5","","74","J","1","","0","0","1","0.3484693071","","false","85","0.1569521301","","main_expt","0.3484693071","","0.419702676","","0.2276425053","","","","","","",""
"207","","bandit","161","363855","0.0-123.0-0.0","98280017","wem/bandit_single","A1AQQFJAF8CI4H","gain","5","","72","H","0","img/none_selected.jpg","1","0","0","0.2111509195","","false","86","0.2111509195","","main_expt","0.3738623358","","0.3584641731","","0.1932648708","","","","","","",""
"199","","bandit","162","365814","0.0-124.0-0.0","98280017","wem/bandit_single","A1AQQFJAF8CI4H","gain","5","","72","H","0","img/none_selected.jpg","0","0","1","0.1855749087","","false","87","0.1855749087","","main_expt","0.3635865115","","0.3362954576","","0.1554886006","","","","","","",""
"136","","bandit","163","367710","0.0-125.0-0.0","98280017","wem/bandit_single","A1AQQFJAF8CI4H","gain","5","","72","H","0","img/none_selected.jpg","0","0","1","0.1260067519","","false","88","0.1260067519","","main_expt","0.28993028","","0.3495778317","","0.1288388744","","","","","","",""
"231","","bandit","164","369703","0.0-126.0-0.0","98280017","wem/bandit_single","A1AQQFJAF8CI4H","gain","5","","72","H","0","img/none_selected.jpg","1","0","0","0.1930097593","","false","89","0.1930097593","","main_expt","0.2529053562","","0.3337998134","","0.1672252434","","","","","","",""
"163","","bandit","165","371631","0.0-127.0-0.0","98280017","wem/bandit_single","A1AQQFJAF8CI4H","gain","5","","72","H","0","img/none_selected.jpg","0","0","1","0.2016869017","","false","90","0.2016869017","","main_expt","0.2239223254","","0.3254710898","","0.1379373657","","","","","","",""
"219","","bandit","166","373615","0.0-128.0-0.0","98280017","wem/bandit_single","A1AQQFJAF8CI4H","gain","5","","72","H","0","img/none_selected.jpg","0","0","1","0.2283296651","","false","91","0.2283296651","","main_expt","0.1874521573","","0.3248617863","","0.1296834551","","","","","","",""
"260","","bandit","167","375639","0.0-129.0-0.0","98280017","wem/bandit_single","A1AQQFJAF8CI4H","gain","5","","74","J","1","","0","0","1","0.1464907128","","false","92","0.2253008126","","main_expt","0.1464907128","","0.3290731597","","0.1601432093","","","","","","",""
"182","","bandit","168","377582","0.0-130.0-0.0","98280017","wem/bandit_single","A1AQQFJAF8CI4H","gain","5","","75","K","2","","1","0","0","0.2947126164","","false","93","0.1826671142","","main_expt","0.1817498408","","0.2947126164","","0.1976873148","","","","","","",""
"140","","bandit","169","379487","0.0-131.0-0.0","98280017","wem/bandit_single","A1AQQFJAF8CI4H","gain","5","","75","K","2","","1","0","0","0.2762739163","","false","94","0.1650727581","","main_expt","0.1967130988","","0.2762739163","","0.2296862911","","","","","","",""
"316","","bandit","170","381567","0.0-132.0-0.0","98280017","wem/bandit_single","A1AQQFJAF8CI4H","gain","5","","75","K","2","","0","0","1","0.3184689772","","false","95","0.1971582392","","main_expt","0.2294656294","","0.3184689772","","0.1990842867","","","","","","",""
"51","","bandit","171","383383","0.0-133.0-0.0","98280017","wem/bandit_single","A1AQQFJAF8CI4H","gain","5","","75","K","2","","0","0","1","0.281027734","","false","96","0.1791402521","","main_expt","0.2966343553","","0.281027734","","0.258496532","","","","","","",""
"260","","bandit","172","385425","0.0-134.0-0.0","98280017","wem/bandit_single","A1AQQFJAF8CI4H","gain","5","","75","K","2","","0","0","1","0.2474299406","","false","97","0.1516442175","","main_expt","0.3346257274","","0.2474299406","","0.2766566169","","","","","","",""
"19","","bandit","173","387216","0.0-135.0-0.0","98280017","wem/bandit_single","A1AQQFJAF8CI4H","gain","5","","72","H","0","img/none_selected.jpg","0","0","1","0.2200018313","","false","98","0.2200018313","","main_expt","0.3139493976","","0.2217126022","","0.2377114848","","","","","","",""
"487","","bandit","174","389470","0.0-136.0-0.0","98280017","wem/bandit_single","A1AQQFJAF8CI4H","gain","5","","74","J","1","","0","0","1","0.2478490566","","false","99","0.2752547205","","main_expt","0.2478490566","","0.2677278576","","0.3124158187","","","","","","",""
"56","","bandit","175","391287","0.0-137.0-0.0","98280017","wem/bandit_single","A1AQQFJAF8CI4H","gain","5","","76","L","3","","1","0","0","0.2059987679","","false","100","0.252850905","","main_expt","0.2602221343","","0.3271916833","","0.2059987679","","","","","","",""
"1126","","bandit","176","394175","0.0-138.0-0.0","98280017","wem/bandit_single","A1AQQFJAF8CI4H","gain","5","","76","L","3","","0","0","1","0.1758265216","","false","101","0.1867047362","","main_expt","0.2584762291","","0.3066156257","","0.1758265216","","","","","","",""
"379","","bandit","177","396320","0.0-139.0-0.0","98280017","wem/bandit_single","A1AQQFJAF8CI4H","gain","5","","72","H","0","img/none_selected.jpg","0","0","1","0.1175578895","","false","102","0.1175578895","","main_expt","0.282093771","","0.3260250896","","0.2262322791","","","","","","",""
"546","","bandit","178","398630","0.0-140.0-0.0","98280017","wem/bandit_single","A1AQQFJAF8CI4H","gain","5","","75","K","2","","0","0","1","0.3731136732","","false","103","0.09132094505","","main_expt","0.2725256196","","0.3731136732","","0.2018281434","","","","","","",""
"167","","bandit","179","400559","0.0-141.0-0.0","98280017","wem/bandit_single","A1AQQFJAF8CI4H","gain","5","","74","J","1","","0","0","1","0.2243623384","","false","104","0.1422553795","","main_expt","0.2243623384","","0.3941656488","","0.1447482012","","","","","","",""
"116","","bandit","180","402440","0.0-142.0-0.0","98280017","wem/bandit_single","A1AQQFJAF8CI4H","gain","5","","72","H","0","img/none_selected.jpg","0","0","1","0.1390697773","","false","105","0.1390697773","","main_expt","0.2403200944","","0.4030151573","","0.2104813725","","","","","","",""
"411","","bandit","181","404615","0.0-143.0-0.0","98280017","wem/bandit_single","A1AQQFJAF8CI4H","gain","5","","76","L","3","","0","0","1","0.2492378957","","false","106","0.1155807694","","main_expt","0.2332798071","","0.3715193073","","0.2492378957","","","","","","",""
"35","","bandit","182","406415","0.0-144.0-0.0","98280017","wem/bandit_single","A1AQQFJAF8CI4H","gain","5","","76","L","3","","0","0","1","0.217404121","","false","107","0.105728532","","main_expt","0.181620067","","0.3837270358","","0.217404121","","","","","","",""
"261","","bandit","183","408439","0.0-145.0-0.0","98280017","wem/bandit_single","A1AQQFJAF8CI4H","gain","5","","75","K","2","","0","0","1","0.3908875135","","false","108","0.08831090648","","main_expt","0.2173069915","","0.3908875135","","0.2142202377","","","","","","",""
"35","","bandit","184","410239","0.0-146.0-0.0","98280017","wem/bandit_single","A1AQQFJAF8CI4H","gain","5","","75","K","2","","1","0","0","0.3774052568","","false","109","0.1043724426","","main_expt","0.226697077","","0.3774052568","","0.2683226389","","","","","","",""
"142","","bandit","185","412143","0.0-147.0-0.0","98280017","wem/bandit_single","A1AQQFJAF8CI4H","gain","5","","75","K","2","","0","0","1","0.3601275089","","false","110","0.07530108238","","main_expt","0.2695419639","","0.3601275089","","0.2619142817","","","","","","",""
"133","","bandit","186","414039","0.0-148.0-0.0","98280017","wem/bandit_single","A1AQQFJAF8CI4H","gain","5","","75","K","2","","0","0","1","0.3880855357","","false","111","0.05159845725","","main_expt","0.2635727161","","0.3880855357","","0.2754039507","","","","","","",""
"299","","bandit","187","416104","0.0-149.0-0.0","98280017","wem/bandit_single","A1AQQFJAF8CI4H","gain","5","","74","J","1","","0","0","1","0.3202716687","","false","112","0.08116028731","","main_expt","0.3202716687","","0.3864248384","","0.2721436228","","","","","","",""
"364","","bandit","188","418231","0.0-150.0-0.0","98280017","wem/bandit_single","A1AQQFJAF8CI4H","gain","5","","72","H","0","img/none_selected.jpg","0","0","1","0.08538759299","","false","113","0.08538759299","","main_expt","0.3546461764","","0.339569604","","0.2598768298","","","","","","",""
"35","","bandit","189","420032","0.0-151.0-0.0","98280017","wem/bandit_single","A1AQQFJAF8CI4H","gain","5","","74","J","1","","1","0","0","0.3339806629","","false","114","0.106551095","","main_expt","0.3339806629","","0.3612744832","","0.2271708717","","","","","","",""
"1324","","bandit","190","423119","0.0-152.0-0.0","98280017","wem/bandit_single","A1AQQFJAF8CI4H","gain","5","","74","J","1","","1","0","0","0.3175163572","","false","115","0.1120532439","","main_expt","0.3175163572","","0.3616298021","","0.2382373761","","","","","","",""
"124","","bandit","191","425007","0.0-153.0-0.0","98280017","wem/bandit_single","A1AQQFJAF8CI4H","gain","5","","74","J","1","","0","0","1","0.3626291523","","false","116","0.07206247825","","main_expt","0.3626291523","","0.3886586702","","0.2092397162","","","","","","",""
"83","","bandit","192","426854","0.0-154.0-0.0","98280017","wem/bandit_single","A1AQQFJAF8CI4H","gain","5","","74","J","1","","1","0","0","0.4005972513","","false","117","0.05990892348","","main_expt","0.4005972513","","0.3837198657","","0.1790603663","","","","","","",""
"455","","bandit","193","429070","0.0-155.0-0.0","98280017","wem/bandit_single","A1AQQFJAF8CI4H","gain","5","","74","J","1","","0","0","1","0.3994725347","","false","118","0.07349038746","","main_expt","0.3994725347","","0.3831944796","","0.2515048449","","","","","","",""
"1591","","bandit","194","432423","0.0-156.0-0.0","98280017","wem/bandit_single","A1AQQFJAF8CI4H","gain","5","","74","J","1","","1","0","0","0.3690387214","","false","119","0.0880416307","","main_expt","0.3690387214","","0.3200080389","","0.2591845625","","","","","","",""
"127","","bandit","195","434311","0.0-157.0-0.0","98280017","wem/bandit_single","A1AQQFJAF8CI4H","gain","5","","74","J","1","","0","0","1","0.3553033444","","false","120","0.08832912692","","main_expt","0.3553033444","","0.3498825307","","0.2719994365","","","","","","",""
"18","","bandit","196","436095","0.0-158.0-0.0","98280017","wem/bandit_single","A1AQQFJAF8CI4H","gain","5","","75","K","2","","1","0","0","0.3150568547","","false","121","0.08322673311","","main_expt","0.3558993888","","0.3150568547","","0.2511552987","","","","","","",""
"75","","bandit","197","437935","0.0-159.0-0.0","98280017","wem/bandit_single","A1AQQFJAF8CI4H","gain","5","","75","K","2","","1","0","0","0.332296042","","false","122","0.1027924146","","main_expt","0.3539125929","","0.332296042","","0.246059836","","","","","","",""
"47","","bandit","198","439743","0.0-160.0-0.0","98280017","wem/bandit_single","A1AQQFJAF8CI4H","gain","5","","75","K","2","","0","0","1","0.3023892254","","false","123","0.1112730508","","main_expt","0.2756210624","","0.3023892254","","0.201637063","","","","","","",""
"611","","bandit","199","442120","0.0-161.0-0.0","98280017","wem/bandit_single","A1AQQFJAF8CI4H","gain","5","","76","L","3","","0","0","1","0.2424225803","","false","124","0.1401536705","","main_expt","0.2924451827","","0.2971441903","","0.2424225803","","","","","","",""
"1731","","bandit","200","445615","0.0-162.0-0.0","98280017","wem/bandit_single","A1AQQFJAF8CI4H","gain","5","","74","J","1","","1","0","0","0.3283550958","","false","125","0.170676821","","main_expt","0.3283550958","","0.2989687221","","0.2663511033","","","","","","",""
"150","","bandit","201","447527","0.0-163.0-0.0","98280017","wem/bandit_single","A1AQQFJAF8CI4H","gain","5","","74","J","1","","0","0","1","0.3561713316","","false","126","0.2239131839","","main_expt","0.3561713316","","0.3470717071","","0.2214557307","","","","","","",""
"382","","bandit","202","449672","0.0-164.0-0.0","98280017","wem/bandit_single","A1AQQFJAF8CI4H","gain","5","","74","J","1","","0","0","1","0.3093512765","","false","127","0.1828765327","","main_expt","0.3093512765","","0.3399927284","","0.2274120533","","","","","","",""
"59","","bandit","203","451496","0.0-165.0-0.0","98280017","wem/bandit_single","A1AQQFJAF8CI4H","gain","5","","72","H","0","img/none_selected.jpg","1","0","0","0.2182936746","","false","128","0.2182936746","","main_expt","0.3682433617","","0.3039142281","","0.2035603578","","","","","","",""
"171","","bandit","204","453431","0.0-166.0-0.0","98280017","wem/bandit_single","A1AQQFJAF8CI4H","gain","5","","72","H","0","img/none_selected.jpg","0","0","1","0.2206976306","","false","129","0.2206976306","","main_expt","0.3485983391","","0.331948561","","0.1571118888","","","","","","",""
"45","","bandit","205","455240","0.0-167.0-0.0","98280017","wem/bandit_single","A1AQQFJAF8CI4H","gain","5","","75","K","2","","0","0","1","0.3512730473","","false","130","0.1657145536","","main_expt","0.3907345736","","0.3512730473","","0.08617346002","","","","","","",""
"110","","bandit","206","457112","0.0-168.0-0.0","98280017","wem/bandit_single","A1AQQFJAF8CI4H","gain","5","","74","J","1","","0","0","1","0.3697977754","","false","131","0.2555784817","","main_expt","0.3697977754","","0.3617370935","","0.1196539686","","","","","","",""
"132","","bandit","207","459008","0.0-169.0-0.0","98280017","wem/bandit_single","A1AQQFJAF8CI4H","gain","5","","76","L","3","","0","0","1","0.1111227042","","false","132","0.287060772","","main_expt","0.3916621277","","0.3520165756","","0.1111227042","","","","","","",""
"38","","bandit","208","460807","0.0-170.0-0.0","98280017","wem/bandit_single","A1AQQFJAF8CI4H","gain","5","","75","K","2","","1","0","0","0.3863989014","","false","133","0.238965149","","main_expt","0.3437671512","","0.3863989014","","0.1223368092","","","","","","",""
"679","","bandit","209","463247","0.0-171.0-0.0","98280017","wem/bandit_single","A1AQQFJAF8CI4H","gain","5","","75","K","2","","0","0","1","0.3391859262","","false","134","0.2457001749","","main_expt","0.3636108046","","0.3391859262","","0.1001486166","","","","","","",""
"235","","bandit","210","465247","0.0-172.0-0.0","98280017","wem/bandit_single","A1AQQFJAF8CI4H","gain","5","","74","J","1","","1","0","0","0.3251377881","","false","135","0.2499382958","","main_expt","0.3251377881","","0.3700101905","","0.1179747861","","","","","","",""
"218","","bandit","211","467231","0.0-173.0-0.0","98280017","wem/bandit_single","A1AQQFJAF8CI4H","gain","5","","74","J","1","","1","0","0","0.3838305716","","false","136","0.2553087313","","main_expt","0.3838305716","","0.3002558999","","0.1167775935","","","","","","",""
"83","","bandit","212","469079","0.0-174.0-0.0","98280017","wem/bandit_single","A1AQQFJAF8CI4H","gain","5","","74","J","1","","0","0","1","0.374624825","","false","137","0.2517181947","","main_expt","0.374624825","","0.3242357935","","0.1459170178","","","","","","",""
"303","","bandit","213","471143","0.0-175.0-0.0","98280017","wem/bandit_single","A1AQQFJAF8CI4H","gain","5","","72","H","0","img/none_selected.jpg","1","0","0","0.2531469116","","false","138","0.2531469116","","main_expt","0.36903936","","0.3413485239","","0.1403776257","","","","","","",""
"197","","bandit","214","473104","0.0-176.0-0.0","98280017","wem/bandit_single","A1AQQFJAF8CI4H","gain","5","","72","H","0","img/none_selected.jpg","0","0","1","0.2810662396","","false","139","0.2810662396","","main_expt","0.3757762965","","0.3172825342","","0.1647502834","","","","","","",""
"56","","bandit","215","474928","0.0-177.0-0.0","98280017","wem/bandit_single","A1AQQFJAF8CI4H","gain","5","","74","J","1","","0","0","1","0.3240643918","","false","140","0.2226737135","","main_expt","0.3240643918","","0.3683668128","","0.2135508935","","","","","","",""
"139","","bandit","216","476832","0.0-178.0-0.0","98280017","wem/bandit_single","A1AQQFJAF8CI4H","gain","5","","75","K","2","","0","0","1","0.2976824498","","false","141","0.2330331678","","main_expt","0.342151626","","0.2976824498","","0.2286669107","","","","","","",""
"250","","bandit","217","478847","0.0-179.0-0.0","98280017","wem/bandit_single","A1AQQFJAF8CI4H","gain","5","","76","L","3","","0","0","1","0.1870561284","","false","142","0.1833347363","","main_expt","0.3576151309","","0.3424177608","","0.1870561284","","","","","","",""
"118","","bandit","218","480728","0.0-180.0-0.0","98280017","wem/bandit_single","A1AQQFJAF8CI4H","gain","5","","72","H","0","img/none_selected.jpg","0","0","1","0.2063127673","","false","143","0.2063127673","","main_expt","0.3075624404","","0.3367953268","","0.220851353","","","","","","",""
"89","","bandit","219","482584","0.0-181.0-0.0","98280017","wem/bandit_single","A1AQQFJAF8CI4H","gain","5","","74","J","1","","0","0","1","0.3666812205","","false","144","0.24054226","","main_expt","0.3666812205","","0.3446852995","","0.1581776843","","","","","","",""
"601","","bandit","220","484952","0.0-182.0-0.0","98280017","wem/bandit_single","A1AQQFJAF8CI4H","gain","5","","75","K","2","","1","0","0","0.3569090532","","false","145","0.3397881996","","main_expt","0.373264243","","0.3569090532","","0.1562309797","","","","","","",""
"273","","bandit","221","486992","0.0-183.0-0.0","98280017","wem/bandit_single","A1AQQFJAF8CI4H","gain","5","","74","J","1","","0","0","1","0.3588440804","","false","146","0.334771558","","main_expt","0.3588440804","","0.3546691234","","0.201277092","","","","","","",""
"10","","bandit","222","488768","0.0-184.0-0.0","98280017","wem/bandit_single","A1AQQFJAF8CI4H","gain","5","","72","H","0","img/none_selected.jpg","0","0","1","0.3135854179","","false","147","0.3135854179","","main_expt","0.3848898601","","0.3346193534","","0.2014254916","","","","","","",""
"724","","bandit","223","491256","0.0-185.0-0.0","98280017","wem/bandit_single","A1AQQFJAF8CI4H","gain","5","","76","L","3","","1","0","0","0.1783642851","","false","148","0.2601716543","","main_expt","0.4049875018","","0.3481099765","","0.1783642851","","","","","","",""
"181","","bandit","224","493200","0.0-186.0-0.0","98280017","wem/bandit_single","A1AQQFJAF8CI4H","gain","5","","76","L","3","","0","0","1","0.2394621943","","false","149","0.2449203511","","main_expt","0.3644303146","","0.3473239498","","0.2394621943","","","","","","",""
"421","","bandit","225","495385","0.0-187.0-0.0","98280017","wem/bandit_single","A1AQQFJAF8CI4H","gain","5","","76","L","3","","0","0","1","0.2009439561","","false","150","0.2679682766","","main_expt","0.3820895465","","0.3457177179","","0.2009439561","","","","","","",""
"64","","bandit","226","497217","0.0-188.0-0.0","98280017","wem/bandit_single","A1AQQFJAF8CI4H","gain","5","","75","K","2","","1","0","0","0.3131990842","","false","151","0.2811524043","","main_expt","0.3715335383","","0.3131990842","","0.1783838281","","","","","","",""
"58","","bandit","227","499040","0.0-189.0-0.0","98280017","wem/bandit_single","A1AQQFJAF8CI4H","gain","5","","75","K","2","","1","0","0","0.2632978047","","false","152","0.2320671432","","main_expt","0.3270427106","","0.2632978047","","0.2357029213","","","","","","",""
"114","","bandit","228","500920","0.0-190.0-0.0","98280017","wem/bandit_single","A1AQQFJAF8CI4H","gain","5","","75","K","2","","0","0","1","0.2782579121","","false","153","0.2655606304","","main_expt","0.3117301263","","0.2782579121","","0.1701289497","","","","","","",""
"33","","bandit","229","502720","0.0-191.0-0.0","98280017","wem/bandit_single","A1AQQFJAF8CI4H","gain","5","","74","J","1","","1","0","0","0.2860829053","","false","154","0.3485425359","","main_expt","0.2860829053","","0.2212449789","","0.1613436629","","","","","","",""
"50","","bandit","230","504535","0.0-192.0-0.0","98280017","wem/bandit_single","A1AQQFJAF8CI4H","gain","5","","74","J","1","","0","0","1","0.2412247214","","false","155","0.3302543019","","main_expt","0.2412247214","","0.1944586175","","0.1419994917","","","","","","",""
"974","","bandit","231","507273","0.0-193.0-0.0","98280017","wem/bandit_single","A1AQQFJAF8CI4H","gain","5","","72","H","0","img/none_selected.jpg","0","0","1","0.2696600886","","false","156","0.2696600886","","main_expt","0.2505935016","","0.2035424954","","0.2076402971","","","","","","",""
"458","","bandit","232","509496","0.0-194.0-0.0","98280017","wem/bandit_single","A1AQQFJAF8CI4H","gain","5","","76","L","3","","1","0","0","0.2253974945","","false","157","0.3095791192","","main_expt","0.2677381881","","0.2039725598","","0.2253974945","","","","","","",""
"83","","bandit","233","511344","0.0-195.0-0.0","98280017","wem/bandit_single","A1AQQFJAF8CI4H","gain","5","","76","L","3","","0","0","1","0.3173726248","","false","158","0.3427908005","","main_expt","0.228073272","","0.1610126092","","0.3173726248","","","","","","",""
"337","","bandit","234","513449","0.0-196.0-0.0","98280017","wem/bandit_single","A1AQQFJAF8CI4H","gain","5","","75","K","2","","0","0","1","0.2244023171","","false","159","0.3459652535","","main_expt","0.2181731157","","0.2244023171","","0.2929560982","","","","","","",""
"368","","bandit","235","515585","0.0-197.0-0.0","98280017","wem/bandit_single","A1AQQFJAF8CI4H","gain","5","","76","L","3","","1","0","0","0.2599130114","","false","160","0.3277363444","","main_expt","0.2483475363","","0.2550463449","","0.2599130114","","","","","","",""
"201","","bandit","236","517552","0.0-198.0-0.0","98280017","wem/bandit_single","A1AQQFJAF8CI4H","gain","5","","76","L","3","","0","0","1","0.3006759107","","false","161","0.3043896987","","main_expt","0.2287268475","","0.1988840894","","0.3006759107","","","","","","",""
"1053","","bandit","237","520369","0.0-199.0-0.0","98280017","wem/bandit_single","A1AQQFJAF8CI4H","gain","5","","72","H","0","img/none_selected.jpg","0","0","1","0.3013302692","","false","162","0.3013302692","","main_expt","0.2118340618","","0.3208820199","","0.3359074288","","","","","","",""
"259","","bandit","238","522393","0.0-200.0-0.0","98280017","wem/bandit_single","A1AQQFJAF8CI4H","gain","5","","74","J","1","","0","0","1","0.2467500447","","false","163","0.3359404133","","main_expt","0.2467500447","","0.3416291965","","0.3248254093","","","","","","",""
"103","","bandit","239","524264","0.0-201.0-0.0","98280017","wem/bandit_single","A1AQQFJAF8CI4H","gain","5","","75","K","2","","0","0","1","0.3531125991","","false","164","0.3449747326","","main_expt","0.2745506496","","0.3531125991","","0.2480447101","","","","","","",""
"131","","bandit","240","526161","0.0-202.0-0.0","98280017","wem/bandit_single","A1AQQFJAF8CI4H","gain","5","","76","L","3","","0","0","1","0.2291527929","","false","165","0.3388680014","","main_expt","0.2893970703","","0.3329293945","","0.2291527929","","","","","","",""
"286","","bandit","241","528209","0.0-203.0-0.0","98280017","wem/bandit_single","A1AQQFJAF8CI4H","gain","5","","74","J","1","","0","0","1","0.326956194","","false","166","0.3565097084","","main_expt","0.326956194","","0.368824295","","0.2408823094","","","","","","",""
"296","","bandit","242","530273","0.0-204.0-0.0","98280017","wem/bandit_single","A1AQQFJAF8CI4H","gain","5","","72","H","0","img/none_selected.jpg","1","0","0","0.3807311224","","false","167","0.3807311224","","main_expt","0.2562538154","","0.3528049135","","0.1852653973","","","","","","",""
"147","","bandit","243","532185","0.0-205.0-0.0","98280017","wem/bandit_single","A1AQQFJAF8CI4H","gain","5","","72","H","0","img/none_selected.jpg","0","0","1","0.4157533759","","false","168","0.4157533759","","main_expt","0.259707785","","0.3530437727","","0.1123614246","","","","","","",""
"0","","bandit","244","533953","0.0-206.0-0.0","98280017","wem/bandit_single","A1AQQFJAF8CI4H","gain","5","","74","J","1","","0","0","1","0.305903145","","false","169","0.3990846218","","main_expt","0.305903145","","0.3619584092","","0.1289140747","","","","","","",""
"175","","bandit","245","535897","0.0-207.0-0.0","98280017","wem/bandit_single","A1AQQFJAF8CI4H","gain","5","","75","K","2","","0","0","1","0.3851568221","","false","170","0.3840903594","","main_expt","0.2780458482","","0.3851568221","","0.1082073398","","","","","","",""
"528","","bandit","246","538193","0.0-208.0-0.0","98280017","wem/bandit_single","A1AQQFJAF8CI4H","gain","5","","75","K","2","","0","0","1","0.369821393","","false","171","0.4279034191","","main_expt","0.2754425626","","0.369821393","","0.09560917383","","","","","","",""
"267","","bandit","247","540225","0.0-209.0-0.0","98280017","wem/bandit_single","A1AQQFJAF8CI4H","gain","5","","76","L","3","","0","0","1","0.09002122866","","false","172","0.4277210969","","main_expt","0.2801866594","","0.3238500873","","0.09002122866","","","","","","",""
"448","","bandit","248","542440","0.0-210.0-0.0","98280017","wem/bandit_single","A1AQQFJAF8CI4H","gain","5","","72","H","0","img/none_selected.jpg","0","0","1","0.4177409887","","false","173","0.4177409887","","main_expt","0.2903169923","","0.371178543","","0.06359212806","","","","","","",""
"232","","bandit","249","544441","0.0-211.0-0.0","98280017","wem/bandit_single","A1AQQFJAF8CI4H","gain","5","","75","K","2","","0","0","1","0.364968973","","false","174","0.4149019111","","main_expt","0.3135769273","","0.364968973","","0.07897407323","","","","","","",""
"81","","bandit","250","546288","0.0-212.0-0.0","98280017","wem/bandit_single","A1AQQFJAF8CI4H","gain","5","","74","J","1","","1","0","0","0.3205535054","","false","175","0.3890834012","","main_expt","0.3205535054","","0.4172857806","","0.05374651045","","","","","","",""
"197","","bandit","251","548248","0.0-213.0-0.0","98280017","wem/bandit_single","A1AQQFJAF8CI4H","gain","5","","74","J","1","","0","0","1","0.3548310205","","false","176","0.3775492635","","main_expt","0.3548310205","","0.3931137538","","0.05298342689","","","","","","",""
"9","","bandit","252","550025","0.0-214.0-0.0","98280017","wem/bandit_single","A1AQQFJAF8CI4H","gain","5","","72","H","0","img/none_selected.jpg","1","0","0","0.2763311933","","false","177","0.2763311933","","main_expt","0.3374760958","","0.4118750583","","0.04117570961","","","","","","",""
"167","","bandit","253","551960","0.0-215.0-0.0","98280017","wem/bandit_single","A1AQQFJAF8CI4H","gain","5","","72","H","0","img/none_selected.jpg","0","0","1","0.2117274321","","false","178","0.2117274321","","main_expt","0.3045899674","","0.4019835374","","0.0682688674","","","","","","",""
"208","","bandit","254","553936","0.0-216.0-0.0","98280017","wem/bandit_single","A1AQQFJAF8CI4H","gain","5","","72","H","0","img/none_selected.jpg","1","0","0","0.2071796451","","false","179","0.2071796451","","main_expt","0.2701203387","","0.3943962464","","0.0699035784","","","","","","",""
"119","","bandit","255","555824","0.0-217.0-0.0","98280017","wem/bandit_single","A1AQQFJAF8CI4H","gain","5","","72","H","0","img/none_selected.jpg","0","0","1","0.2237333922","","false","180","0.2237333922","","main_expt","0.3010541938","","0.3879360396","","0.08066818268","","","","","","",""
"80","","bandit","256","557673","0.0-218.0-0.0","98280017","wem/bandit_single","A1AQQFJAF8CI4H","gain","5","","76","L","3","","0","0","1","0.06418194011","","false","181","0.1462221579","","main_expt","0.2685782119","","0.3516035239","","0.06418194011","","","","","","",""
"32","","bandit","257","559472","0.0-219.0-0.0","98280017","wem/bandit_single","A1AQQFJAF8CI4H","gain","5","","74","J","1","","0","0","1","0.2333395507","","false","182","0.1745001591","","main_expt","0.2333395507","","0.3544849886","","0.05948248489","","","","","","",""
"184","","bandit","258","561425","0.0-220.0-0.0","98280017","wem/bandit_single","A1AQQFJAF8CI4H","gain","5","","75","K","2","","0","0","1","0.3239224462","","false","183","0.1840457003","","main_expt","0.1817222791","","0.3239224462","","0.04249263759","","","","","","",""
"492","","bandit","259","563681","0.0-221.0-0.0","98280017","wem/bandit_single","A1AQQFJAF8CI4H","gain","5","","72","H","0","img/none_selected.jpg","0","0","1","0.1684271963","","false","184","0.1684271963","","main_expt","0.1946528514","","0.3437575642","","0.05174265856","","","","","","",""
"92","","bandit","260","565536","0.0-222.0-0.0","98280017","wem/bandit_single","A1AQQFJAF8CI4H","gain","5","","76","L","3","","0","0","1","0.04700335152","","false","185","0.1820742113","","main_expt","0.1998780622","","0.3584643827","","0.04700335152","","","","","","",""
"257","","bandit","261","567561","0.0-223.0-0.0","98280017","wem/bandit_single","A1AQQFJAF8CI4H","gain","5","","74","J","1","","0","0","1","0.2674223733","","false","186","0.2156320388","","main_expt","0.2674223733","","0.3968797112","","0.0651928762","","","","","","",""
"89","","bandit","262","569417","0.0-224.0-0.0","98280017","wem/bandit_single","A1AQQFJAF8CI4H","gain","5","","75","K","2","","0","0","1","0.3851297664","","false","187","0.2805416817","","main_expt","0.2625155344","","0.3851297664","","0.1006801651","","","","","","",""
"327","","bandit","263","571512","0.0-225.0-0.0","98280017","wem/bandit_single","A1AQQFJAF8CI4H","gain","5","","72","H","0","img/none_selected.jpg","1","0","0","0.255869765","","false","188","0.255869765","","main_expt","0.2428845682","","0.3861445831","","0.1650650448","","","","","","",""
"157","","bandit","264","573433","0.0-226.0-0.0","98280017","wem/bandit_single","A1AQQFJAF8CI4H","gain","5","","72","H","0","img/none_selected.jpg","0","0","1","0.1757761595","","false","189","0.1757761595","","main_expt","0.2017656849","","0.3904601473","","0.1545550266","","","","","","",""
"332","","bandit","265","575529","0.0-227.0-0.0","98280017","wem/bandit_single","A1AQQFJAF8CI4H","gain","5","","72","H","0","img/none_selected.jpg","0","0","1","0.1346649685","","false","190","0.1346649685","","main_expt","0.2163316772","","0.430863334","","0.187471884","","","","","","",""
"68","","bandit","266","577360","0.0-228.0-0.0","98280017","wem/bandit_single","A1AQQFJAF8CI4H","gain","5","","75","K","2","","1","0","0","0.4113524325","","false","191","0.1132332922","","main_expt","0.2055350187","","0.4113524325","","0.1611513775","","","","","","",""
"148","","bandit","267","579272","0.0-229.0-0.0","98280017","wem/bandit_single","A1AQQFJAF8CI4H","gain","5","","75","K","2","","0","0","1","0.4039805352","","false","192","0.1208943264","","main_expt","0.1895719249","","0.4039805352","","0.1777959463","","","","","","",""
"59","","bandit","268","581096","0.0-230.0-0.0","98280017","wem/bandit_single","A1AQQFJAF8CI4H","gain","5","","72","H","0","img/none_selected.jpg","1","0","0","0.1939792015","","false","193","0.1939792015","","main_expt","0.1748526562","","0.4245567291","","0.1871499601","","","","","","",""
"92","","bandit","269","582952","0.0-231.0-0.0","98280017","wem/bandit_single","A1AQQFJAF8CI4H","gain","5","","72","H","0","img/none_selected.jpg","0","0","1","0.16637132","","false","194","0.16637132","","main_expt","0.1474168317","","0.3947968319","","0.1876497678","","","","","","",""
"38","","bandit","270","584753","0.0-232.0-0.0","98280017","wem/bandit_single","A1AQQFJAF8CI4H","gain","5","","76","L","3","","0","0","1","0.1091892437","","false","195","0.1730885183","","main_expt","0.192031623","","0.4142863389","","0.1091892437","","","","","","",""
"226","","bandit","271","586744","0.0-233.0-0.0","98280017","wem/bandit_single","A1AQQFJAF8CI4H","gain","5","","74","J","1","","0","0","1","0.2058404012","","false","196","0.215114198","","main_expt","0.2058404012","","0.4233691667","","0.1617114059","","","","","","",""
"21","","bandit","272","588529","0.0-234.0-0.0","98280017","wem/bandit_single","A1AQQFJAF8CI4H","gain","5","","72","H","0","img/none_selected.jpg","0","0","1","0.2080771369","","false","197","0.2080771369","","main_expt","0.2424759238","","0.3910113043","","0.1704243662","","","","","","",""
"143","","bandit","273","590441","0.0-235.0-0.0","98280017","wem/bandit_single","A1AQQFJAF8CI4H","gain","5","","75","K","2","","1","0","0","0.4036427912","","false","198","0.2349601263","","main_expt","0.2209877853","","0.4036427912","","0.1547158464","","","","","","",""
"128","","bandit","274","592336","0.0-236.0-0.0","98280017","wem/bandit_single","A1AQQFJAF8CI4H","gain","5","","75","K","2","","1","0","0","0.4211573591","","false","199","0.2603506135","","main_expt","0.2167038869","","0.4211573591","","0.1871633293","","","","","","",""
"117","","bandit","275","594217","0.0-237.0-0.0","98280017","wem/bandit_single","A1AQQFJAF8CI4H","gain","5","","75","K","2","","0","0","1","0.4279321675","","false","200","0.3238520586","","main_expt","0.1923465651","","0.4279321675","","0.2044595191","","","","","","",""
"30","","bandit","276","596017","0.0-238.0-0.0","98280017","wem/bandit_single","A1AQQFJAF8CI4H","gain","5","","72","H","0","img/none_selected.jpg","0","0","1","0.3006478669","","false","201","0.3006478669","","main_expt","0.2292217674","","0.4164542871","","0.2260370877","","","","","","",""
"220","","bandit","277","598001","0.0-239.0-0.0","98280017","wem/bandit_single","A1AQQFJAF8CI4H","gain","5","","76","L","3","","0","0","1","0.2543806879","","false","202","0.2728804465","","main_expt","0.2458551357","","0.4304584766","","0.2543806879","","","","","","",""
"207","","bandit","278","599977","0.0-240.0-0.0","98280017","wem/bandit_single","A1AQQFJAF8CI4H","gain","5","","74","J","1","","0","0","1","0.2388066436","","false","203","0.3070028205","","main_expt","0.2388066436","","0.4301844238","","0.248330882","","","","","","",""
"258","","bandit","279","602002","0.0-241.0-0.0","98280017","wem/bandit_single","A1AQQFJAF8CI4H","gain","5","","75","K","2","","1","0","0","0.3900297032","","false","204","0.2937269753","","main_expt","0.2087278664","","0.3900297032","","0.272777159","","","","","","",""
"63","","bandit","280","603833","0.0-242.0-0.0","98280017","wem/bandit_single","A1AQQFJAF8CI4H","gain","5","","75","K","2","","0","0","1","0.3928583167","","false","205","0.2378968556","","main_expt","0.1498191458","","0.3928583167","","0.3434557908","","","","","","",""
"454","","bandit","281","606058","0.0-243.0-0.0","98280017","wem/bandit_single","A1AQQFJAF8CI4H","gain","5","","72","H","0","img/none_selected.jpg","1","0","0","0.2621799838","","false","206","0.2621799838","","main_expt","0.1173401749","","0.4066069638","","0.3670462125","","","","","","",""
"47","","bandit","282","607874","0.0-244.0-0.0","98280017","wem/bandit_single","A1AQQFJAF8CI4H","gain","5","","72","H","0","img/none_selected.jpg","1","0","0","0.2751860601","","false","207","0.2751860601","","main_expt","0.131911627","","0.3973448409","","0.3762900352","","","","","","",""
"96","","bandit","283","609737","0.0-245.0-0.0","98280017","wem/bandit_single","A1AQQFJAF8CI4H","gain","5","","72","H","0","img/none_selected.jpg","1","0","0","0.2449975294","","false","208","0.2449975294","","main_expt","0.121614138","","0.4149937731","","0.3619644859","","","","","","",""
"515","","bandit","284","612018","0.0-246.0-0.0","98280017","wem/bandit_single","A1AQQFJAF8CI4H","gain","5","","72","H","0","img/none_selected.jpg","0","0","1","0.2260792918","","false","209","0.2260792918","","main_expt","0.1301565943","","0.4174336027","","0.3487947413","","","","","","",""
"114","","bandit","285","613906","0.0-247.0-0.0","98280017","wem/bandit_single","A1AQQFJAF8CI4H","gain","5","","76","L","3","","1","0","0","0.3019817091","","false","210","0.2506868781","","main_expt","0.09603783024","","0.3969791934","","0.3019817091","","","","","","",""
"283","","bandit","286","615962","0.0-248.0-0.0","98280017","wem/bandit_single","A1AQQFJAF8CI4H","gain","5","","76","L","3","","0","0","1","0.3322841588","","false","211","0.2364470615","","main_expt","0.09853312819","","0.4109689779","","0.3322841588","","","","","","",""
"106","","bandit","287","617834","0.0-249.0-0.0","98280017","wem/bandit_single","A1AQQFJAF8CI4H","gain","5","","74","J","1","","0","0","1","0.08497623984","","false","212","0.2097336517","","main_expt","0.08497623984","","0.3870841375","","0.3257981887","","","","","","",""
"158","","bandit","288","619761","0.0-250.0-0.0","98280017","wem/bandit_single","A1AQQFJAF8CI4H","gain","5","","75","K","2","","1","0","0","0.3702451026","","false","213","0.223293056","","main_expt","0.0690536233","","0.3702451026","","0.299150427","","","","","","",""
"188","","bandit","289","621714","0.0-251.0-0.0","98280017","wem/bandit_single","A1AQQFJAF8CI4H","gain","5","","75","K","2","","1","0","0","0.4052473305","","false","214","0.2797804449","","main_expt","0.05607702273","","0.4052473305","","0.2841516905","","","","","","",""
"212","","bandit","290","623690","0.0-252.0-0.0","98280017","wem/bandit_single","A1AQQFJAF8CI4H","gain","5","","75","K","2","","0","0","1","0.4003088938","","false","215","0.3307304153","","main_expt","0.0612243178","","0.4003088938","","0.2421432752","","","","","","",""
"38","","bandit","291","625497","0.0-253.0-0.0","98280017","wem/bandit_single","A1AQQFJAF8CI4H","gain","5","","72","H","0","img/none_selected.jpg","0","0","1","0.3341057131","","false","216","0.3341057131","","main_expt","0.03010565971","","0.4087675299","","0.1705338946","","","","","","",""
"199","","bandit","292","627465","0.0-254.0-0.0","98280017","wem/bandit_single","A1AQQFJAF8CI4H","gain","5","","76","L","3","","0","0","1","0.219014384","","false","217","0.3086359365","","main_expt","0.05034411961","","0.3947963157","","0.219014384","","","","","","",""
"88","","bandit","293","629321","0.0-255.0-0.0","98280017","wem/bandit_single","A1AQQFJAF8CI4H","gain","5","","74","J","1","","0","0","1","0.03278593655","","false","218","0.370061562","","main_expt","0.03278593655","","0.4200256015","","0.2135739311","","","","","","",""
"160","","bandit","294","631249","0.0-256.0-0.0","98280017","wem/bandit_single","A1AQQFJAF8CI4H","gain","5","","75","K","2","","0","0","1","0.3845181055","","false","219","0.3425962001","","main_expt","0.02968551415","","0.3845181055","","0.1719688778","","","","","","",""
"155","","bandit","295","633170","0.0-257.0-0.0","98280017","wem/bandit_single","A1AQQFJAF8CI4H","gain","5","","72","H","0","img/none_selected.jpg","0","0","1","0.3200162658","","false","220","0.3200162658","","main_expt","0.03392365282","","0.3200105211","","0.1017501311","","","","","","",""
"286","","bandit","296","635225","0.0-258.0-0.0","98280017","wem/bandit_single","A1AQQFJAF8CI4H","gain","5","","76","L","3","","0","0","1","0.1121412156","","false","221","0.3209906652","","main_expt","0.03139192041","","0.297673658","","0.1121412156","","","","","","",""
"221","","bandit","297","637209","0.0-259.0-0.0","98280017","wem/bandit_single","A1AQQFJAF8CI4H","gain","5","","74","J","1","","0","0","1","0.02842311261","","false","222","0.3013890172","","main_expt","0.02842311261","","0.2963768597","","0.1091313961","","","","","","",""
"179","","bandit","298","639153","0.0-260.0-0.0","98280017","wem/bandit_single","A1AQQFJAF8CI4H","gain","5","","75","K","2","","0","0","1","0.2927297303","","false","223","0.2614115174","","main_expt","0.0287580325","","0.2927297303","","0.09983876589","","","","","","",""
"125","","bandit","299","641042","0.0-261.0-0.0","98280017","wem/bandit_single","A1AQQFJAF8CI4H","gain","5","","72","H","0","img/none_selected.jpg","0","0","1","0.2490141009","","false","224","0.2490141009","","main_expt","0.02300930076","","0.2751498343","","0.1018501693","","","","","","",""
"144","","bandit","300","642954","0.0-262.0-0.0","98280017","wem/bandit_single","A1AQQFJAF8CI4H","gain","5","","76","L","3","","0","0","1","0.1222407881","","false","225","0.263459589","","main_expt","0.02989568437","","0.2377617529","","0.1222407881","","","","","","",""
"17","","bandit","301","644737","0.0-263.0-0.0","98280017","wem/bandit_single","A1AQQFJAF8CI4H","gain","5","","74","J","1","","0","0","1","0.04233903912","","false","226","0.2828917593","","main_expt","0.04233903912","","0.2137681397","","0.1332846515","","","","","","",""
"135","","bandit","302","646642","0.0-264.0-0.0","98280017","wem/bandit_single","A1AQQFJAF8CI4H","gain","5","","75","K","2","","0","0","1","0.1830623781","","false","227","0.2635957152","","main_expt","0.0317259717","","0.1830623781","","0.1606351014","","","","","","",""
"90","","bandit","303","648498","0.0-265.0-0.0","98280017","wem/bandit_single","A1AQQFJAF8CI4H","gain","5","","74","J","1","","0","0","1","0.04253553249","","false","228","0.259674247","","main_expt","0.04253553249","","0.1665925442","","0.1292420082","","","","","","",""
"342","","bandit","304","650610","0.0-266.0-0.0","98280017","wem/bandit_single","A1AQQFJAF8CI4H","gain","5","","72","H","0","img/none_selected.jpg","0","0","1","0.2737318667","","false","229","0.2737318667","","main_expt","0.06761640147","","0.2136718414","","0.1281284096","","","","","","",""
"741","","bandit","305","653121","0.0-267.0-0.0","98280017","wem/bandit_single","A1AQQFJAF8CI4H","gain","5","","72","H","0","img/none_selected.jpg","0","0","1","0.3195589589","","false","230","0.3195589589","","main_expt","0.08572380951","","0.2435987791","","0.0791291566","","","","","","",""
"127","","bandit","306","655018","0.0-268.0-0.0","98280017","wem/bandit_single","A1AQQFJAF8CI4H","gain","5","","76","L","3","","0","0","1","0.10920453","","false","231","0.3304270948","","main_expt","0.07272236896","","0.2566168121","","0.10920453","","","","","","",""
"110","","bandit","307","656897","0.0-269.0-0.0","98280017","wem/bandit_single","A1AQQFJAF8CI4H","gain","5","","75","K","2","","0","0","1","0.2152843379","","false","232","0.2806951239","","main_expt","0.0735724775","","0.2152843379","","0.167261158","","","","","","",""
"386","","bandit","308","659050","0.0-270.0-0.0","98280017","wem/bandit_single","A1AQQFJAF8CI4H","gain","5","","74","J","1","","0","0","1","0.06465645962","","false","233","0.3115261247","","main_expt","0.06465645962","","0.2361400262","","0.1078973024","","","","","","",""
"1","","bandit","309","660817","0.0-271.0-0.0","98280017","wem/bandit_single","A1AQQFJAF8CI4H","gain","5","","72","H","0","img/none_selected.jpg","0","0","1","0.3001083946","","false","234","0.3001083946","","main_expt","0.04279198238","","0.2575526348","","0.2366146445","","","","","","",""
"52","","bandit","310","662634","0.0-272.0-0.0","98280017","wem/bandit_single","A1AQQFJAF8CI4H","gain","5","","74","J","1","","0","0","1","0.06672803397","","false","235","0.2768541542","","main_expt","0.06672803397","","0.2828430508","","0.2393051992","","","","","","",""
"147","","bandit","311","664545","0.0-273.0-0.0","98280017","wem/bandit_single","A1AQQFJAF8CI4H","gain","5","","75","K","2","","0","0","1","0.2860482958","","false","236","0.332362789","","main_expt","0.07100342573","","0.2860482958","","0.2976693115","","","","","","",""
"1235","","bandit","312","667545","0.0-274.0-0.0","98280017","wem/bandit_single","A1AQQFJAF8CI4H","gain","5","","76","L","3","","0","0","1","0.2674299269","","false","237","0.3408832027","","main_expt","0.03680589181","","0.2783023894","","0.2674299269","","","","","","",""
"120","","bandit","313","669433","0.0-275.0-0.0","98280017","wem/bandit_single","A1AQQFJAF8CI4H","gain","5","","72","H","0","img/none_selected.jpg","1","0","0","0.362117859","","false","238","0.362117859","","main_expt","0.02733344458","","0.2644861187","","0.2647207175","","","","","","",""
"143","","bandit","314","671345","0.0-276.0-0.0","98280017","wem/bandit_single","A1AQQFJAF8CI4H","gain","5","","72","H","0","img/none_selected.jpg","1","0","0","0.3574250999","","false","239","0.3574250999","","main_expt","0.01831396817","","0.3186717024","","0.1936342125","","","","","","",""
"267","","bandit","315","673377","0.0-277.0-0.0","98280017","wem/bandit_single","A1AQQFJAF8CI4H","gain","5","","72","H","0","img/none_selected.jpg","0","0","1","0.290436356","","false","240","0.290436356","","main_expt","0.01383764992","","0.3360375491","","0.2382432393","","","","","","",""
"59","","bandit","316","675201","0.0-278.0-0.0","98280017","wem/bandit_single","A1AQQFJAF8CI4H","gain","5","","72","H","0","img/none_selected.jpg","0","0","1","0.3414967811","","false","241","0.3414967811","","main_expt","0.0277662638","","0.3386213473","","0.2984572788","","","","","","",""
"199","","bandit","317","677170","0.0-279.0-0.0","98280017","wem/bandit_single","A1AQQFJAF8CI4H","gain","5","","74","J","1","","0","0","1","0.04064120638","","false","242","0.3778608287","","main_expt","0.04064120638","","0.3523037021","","0.2927867707","","","","","","",""
"114","","bandit","318","679049","0.0-280.0-0.0","98280017","wem/bandit_single","A1AQQFJAF8CI4H","gain","5","","75","K","2","","1","0","0","0.360543067","","false","243","0.3552630766","","main_expt","0.04640587852","","0.360543067","","0.2870713985","","","","","","",""
"103","","bandit","319","680922","0.0-281.0-0.0","98280017","wem/bandit_single","A1AQQFJAF8CI4H","gain","5","","75","K","2","","0","0","1","0.3728786331","","false","244","0.3538674815","","main_expt","0.06567084485","","0.3728786331","","0.2882437102","","","","","","",""
"20","","bandit","320","682714","0.0-282.0-0.0","98280017","wem/bandit_single","A1AQQFJAF8CI4H","gain","5","","72","H","0","img/none_selected.jpg","0","0","1","0.3592745223","","false","245","0.3592745223","","main_expt","0.1069305933","","0.3736501537","","0.3125457984","","","","","","",""
"100","","bandit","321","684586","0.0-283.0-0.0","98280017","wem/bandit_single","A1AQQFJAF8CI4H","gain","5","","74","J","1","","0","0","1","0.07318543846","","false","246","0.3784559109","","main_expt","0.07318543846","","0.3880614915","","0.2949331023","","","","","","",""
"188","","bandit","322","686546","0.0-284.0-0.0","98280017","wem/bandit_single","A1AQQFJAF8CI4H","gain","5","","75","K","2","","1","0","0","0.3906355486","","false","247","0.3871101473","","main_expt","0.06866628372","","0.3906355486","","0.3557375168","","","","","","",""
"67","","bandit","323","688378","0.0-285.0-0.0","98280017","wem/bandit_single","A1AQQFJAF8CI4H","gain","5","","75","K","2","","0","0","1","0.3713177951","","false","248","0.366594806","","main_expt","0.06101724449","","0.3713177951","","0.3190142928","","","","","","",""
"69","","bandit","324","690218","0.0-286.0-0.0","98280017","wem/bandit_single","A1AQQFJAF8CI4H","gain","5","","75","K","2","","0","0","1","0.2887643678","","false","249","0.35265903","","main_expt","0.07132197128","","0.2887643678","","0.2946857214","","","","","","",""
"277","","bandit","325","692266","0.0-287.0-0.0","98280017","wem/bandit_single","A1AQQFJAF8CI4H","gain","5","","76","L","3","","1","0","0","0.285145352","","false","250","0.3725690128","","main_expt","0.04991986053","","0.3503459773","","0.285145352","","","","","","",""
"82","","bandit","326","694114","0.0-288.0-0.0","98280017","wem/bandit_single","A1AQQFJAF8CI4H","gain","5","","76","L","3","","0","0","1","0.2572530626","","false","251","0.3516217444","","main_expt","0.087584861","","0.3900307368","","0.2572530626","","","","","","",""
"697","","bandit","327","696578","0.0-289.0-0.0","98280017","wem/bandit_single","A1AQQFJAF8CI4H","gain","5","","76","L","3","","0","0","1","0.206609756","","false","252","0.3478664427","","main_expt","0.1089760904","","0.3998204568","","0.206609756","","","","","","",""
"180","","bandit","328","698529","0.0-290.0-0.0","98280017","wem/bandit_single","A1AQQFJAF8CI4H","gain","5","","76","L","3","","0","0","1","0.2526850855","","false","253","0.2845216812","","main_expt","0.1389783028","","0.4062214202","","0.2526850855","","","","","","",""
"115","","bandit","329","700410","0.0-291.0-0.0","98280017","wem/bandit_single","A1AQQFJAF8CI4H","gain","5","","75","K","2","","1","0","0","0.434330363","","false","254","0.3395138109","","main_expt","0.1438582992","","0.434330363","","0.2143143283","","","","","","",""
"0","","bandit","330","702180","0.0-292.0-0.0","98280017","wem/bandit_single","A1AQQFJAF8CI4H","gain","5","","75","K","2","","0","0","1","0.463361135","","false","255","0.284072963","","main_expt","0.1341592381","","0.463361135","","0.2330346229","","","","","","",""
"169","","bandit","331","704115","0.0-293.0-0.0","98280017","wem/bandit_single","A1AQQFJAF8CI4H","gain","5","","74","J","1","","0","0","1","0.1539827047","","false","256","0.2791977035","","main_expt","0.1539827047","","0.4513325925","","0.1707848091","","","","","","",""
"405","","bandit","332","706290","0.0-294.0-0.0","98280017","wem/bandit_single","A1AQQFJAF8CI4H","gain","5","","75","K","2","","1","0","0","0.4493477618","","false","257","0.2827618753","","main_expt","0.1067893116","","0.4493477618","","0.204762461","","","","","","",""
"161","","bandit","333","708218","0.0-295.0-0.0","98280017","wem/bandit_single","A1AQQFJAF8CI4H","gain","5","","75","K","2","","0","0","1","0.4586876348","","false","258","0.2367173663","","main_expt","0.05021154971","","0.4586876348","","0.1678630312","","","","","","",""
"13","","bandit","334","710002","0.0-296.0-0.0","98280017","wem/bandit_single","A1AQQFJAF8CI4H","gain","5","","72","H","0","img/none_selected.jpg","0","0","1","0.2715647874","","false","259","0.2715647874","","main_expt","0.04357518244","","0.45931789","","0.1739170557","","","","","","",""
"38","","bandit","335","711810","0.0-297.0-0.0","98280017","wem/bandit_single","A1AQQFJAF8CI4H","gain","5","","72","H","0","img/none_selected.jpg","1","0","0","0.2310951927","","false","260","0.2310951927","","main_expt","0.05606835832","","0.4583289396","","0.1848885371","","","","","","",""
"259","","bandit","336","713834","0.0-298.0-0.0","98280017","wem/bandit_single","A1AQQFJAF8CI4H","gain","5","","72","H","0","img/none_selected.jpg","0","0","1","0.2297288133","","false","261","0.2297288133","","main_expt","0.05035703518","","0.4470277171","","0.2258440324","","","","","","",""
"307","","bandit","337","715907","0.0-299.0-0.0","98280017","wem/bandit_single","A1AQQFJAF8CI4H","gain","5","","74","J","1","","0","0","1","0.04352905051","","false","262","0.2072969611","","main_expt","0.04352905051","","0.457772586","","0.2167220908","","","","","","",""
"246","","bandit","338","717923","0.0-300.0-0.0","98280017","wem/bandit_single","A1AQQFJAF8CI4H","gain","5","","75","K","2","","0","0","1","0.417694616","","false","263","0.2427077321","","main_expt","0.0373968872","","0.417694616","","0.2118780444","","","","","","",""
"107","","bandit","339","719803","0.0-301.0-0.0","98280017","wem/bandit_single","A1AQQFJAF8CI4H","gain","5","","76","L","3","","0","0","1","0.1870566281","","false","264","0.3052561595","","main_expt","0.04440415955","","0.4214939516","","0.1870566281","","","","","","",""
"459","","bandit","340","722035","0.0-302.0-0.0","98280017","wem/bandit_single","A1AQQFJAF8CI4H","gain","5","","72","H","0","img/none_selected.jpg","0","0","1","0.3000319327","","false","265","0.3000319327","","main_expt","0.0139225964","","0.413465883","","0.1706127143","","","","","","",""
"133","","bandit","341","723939","0.0-303.0-0.0","98280017","wem/bandit_single","A1AQQFJAF8CI4H","gain","5","","74","J","1","","0","0","1","0.01259799349","","false","266","0.3134404232","","main_expt","0.01259799349","","0.4116424673","","0.1693140566","","","","","","",""
"197","","bandit","342","725907","0.0-304.0-0.0","98280017","wem/bandit_single","A1AQQFJAF8CI4H","gain","5","","75","K","2","","1","0","0","0.3863145418","","false","267","0.3066387991","","main_expt","0.00740451457","","0.3863145418","","0.1753800763","","","","","","",""
"10","","bandit","343","727691","0.0-305.0-0.0","98280017","wem/bandit_single","A1AQQFJAF8CI4H","gain","5","","75","K","2","","0","0","1","0.4265221664","","false","268","0.3058482798","","main_expt","0.004693585052","","0.4265221664","","0.1918786918","","","","","","",""
"84","","bandit","344","729547","0.0-306.0-0.0","98280017","wem/bandit_single","A1AQQFJAF8CI4H","gain","5","","76","L","3","","0","0","1","0.1999989265","","false","269","0.2523051309","","main_expt","0.004824061053","","0.4515898034","","0.1999989265","","","","","","",""
"340","","bandit","345","731659","0.0-307.0-0.0","98280017","wem/bandit_single","A1AQQFJAF8CI4H","gain","5","","75","K","2","","0","0","1","0.4467147125","","false","270","0.2663701485","","main_expt","0.006174480496","","0.4467147125","","0.2211747839","","","","","","",""
"154","","bandit","346","733587","0.0-308.0-0.0","98280017","wem/bandit_single","A1AQQFJAF8CI4H","gain","5","","74","J","1","","0","0","1","0.00832103917","","false","271","0.2485798686","","main_expt","0.00832103917","","0.4582909467","","0.2404792593","","","","","","",""
"160","","bandit","347","735515","0.0-309.0-0.0","98280017","wem/bandit_single","A1AQQFJAF8CI4H","gain","5","","72","H","0","img/none_selected.jpg","0","0","1","0.2345495347","","false","272","0.2345495347","","main_expt","0.00728594366","","0.4709209778","","0.2558589782","","","","","","",""
"26","","bandit","348","737306","0.0-310.0-0.0","98280017","wem/bandit_single","A1AQQFJAF8CI4H","gain","5","","75","K","2","","1","0","0","0.4660917397","","false","273","0.2137032991","","main_expt","0.01114453755","","0.4660917397","","0.1700432942","","","","","","",""
"180","","bandit","349","739251","0.0-311.0-0.0","98280017","wem/bandit_single","A1AQQFJAF8CI4H","gain","5","","75","K","2","","0","0","1","0.4639522763","","false","274","0.2108512091","","main_expt","0.01390500062","","0.4639522763","","0.2452429789","","","","","","",""
"95","","bandit","350","741115","0.0-312.0-0.0","98280017","wem/bandit_single","A1AQQFJAF8CI4H","gain","5","","75","K","2","","0","0","1","0.4559735555","","false","275","0.1817434844","","main_expt","0.01307999715","","0.4559735555","","0.2540496776","","","","","","",""
"79","","bandit","351","742963","0.0-313.0-0.0","98280017","wem/bandit_single","A1AQQFJAF8CI4H","gain","5","","76","L","3","","0","0","1","0.2816965905","","false","276","0.2037179719","","main_expt","0.01650166306","","0.4246507461","","0.2816965905","","","","","","",""
"43","","bandit","352","744778","0.0-314.0-0.0","98280017","wem/bandit_single","A1AQQFJAF8CI4H","gain","5","","76","L","3","","0","0","1","0.2757967379","","false","277","0.211691867","","main_expt","0.02228120093","","0.4061878557","","0.2757967379","","","","","","",""
"3","","bandit","353","746546","0.0-315.0-0.0","98280017","wem/bandit_single","A1AQQFJAF8CI4H","gain","5","","76","L","3","","1","0","0","0.3233086266","","false","278","0.1725584367","","main_expt","0.01609054627","","0.4185559707","","0.3233086266","","","","","","",""
"164","","bandit","354","748482","0.0-316.0-0.0","98280017","wem/bandit_single","A1AQQFJAF8CI4H","gain","5","","76","L","3","","0","0","1","0.3447853064","","false","279","0.1976152383","","main_expt","0.03276024715","","0.4048416859","","0.3447853064","","","","","","",""
"187","","bandit","355","750443","0.0-317.0-0.0","98280017","wem/bandit_single","A1AQQFJAF8CI4H","gain","5","","75","K","2","","1","0","0","0.3930733378","","false","280","0.2245419331","","main_expt","0.045813934","","0.3930733378","","0.2944080033","","","","","","",""
"139","","bandit","356","752354","0.0-318.0-0.0","98280017","wem/bandit_single","A1AQQFJAF8CI4H","gain","5","","75","K","2","","1","0","0","0.3722539572","","false","281","0.2649095144","","main_expt","0.07680660156","","0.3722539572","","0.3455536282","","","","","","",""
"400","","bandit","357","754522","0.0-319.0-0.0","98280017","wem/bandit_single","A1AQQFJAF8CI4H","gain","5","","75","K","2","","0","0","1","0.392640689","","false","282","0.2440542309","","main_expt","0.08989395926","","0.392640689","","0.3002636441","","","","","","",""
"44","","bandit","358","756339","0.0-320.0-0.0","98280017","wem/bandit_single","A1AQQFJAF8CI4H","gain","5","","75","K","2","","1","0","0","0.3657249804","","false","283","0.3074658718","","main_expt","0.1096048843","","0.3657249804","","0.2433385189","","","","","","",""
"94","","bandit","359","758203","0.0-321.0-0.0","98280017","wem/bandit_single","A1AQQFJAF8CI4H","gain","5","","76","L","3","","0","0","1","0.2108667552","","false","284","0.3224089974","","main_expt","0.1082817284","","0.3625644972","","0.2108667552","","","","","","",""
"180","","bandit","360","760155","0.0-322.0-0.0","98280017","wem/bandit_single","A1AQQFJAF8CI4H","gain","5","","76","L","3","","0","0","1","0.2340218901","","false","285","0.3022873968","","main_expt","0.1629804938","","0.3054288932","","0.2340218901","","","","","","",""
"353","","bandit","361","762278","0.0-323.0-0.0","98280017","wem/bandit_single","A1AQQFJAF8CI4H","gain","5","","76","L","3","","0","0","1","0.2499238339","","false","286","0.2889410052","","main_expt","0.1852598429","","0.3391155559","","0.2499238339","","","","","","",""
"101","","bandit","362","764147","0.0-324.0-0.0","98280017","wem/bandit_single","A1AQQFJAF8CI4H","gain","5","","75","K","2","","1","0","0","0.3328791194","","false","287","0.3151816804","","main_expt","0.2065414002","","0.3328791194","","0.2334780882","","","","","","",""
"460","","bandit","363","766379","0.0-325.0-0.0","98280017","wem/bandit_single","A1AQQFJAF8CI4H","gain","5","","75","K","2","","1","0","0","0.3011075564","","false","288","0.3489654206","","main_expt","0.1811366591","","0.3011075564","","0.2784320663","","","","","","",""
"18","","bandit","364","768171","0.0-326.0-0.0","98280017","wem/bandit_single","A1AQQFJAF8CI4H","gain","5","","75","K","2","","0","0","1","0.3326814497","","false","289","0.3673528387","","main_expt","0.1202209304","","0.3326814497","","0.2751214951","","","","","","",""
"83","","bandit","365","770028","0.0-327.0-0.0","98280017","wem/bandit_single","A1AQQFJAF8CI4H","gain","5","","76","L","3","","0","0","1","0.304381699","","false","290","0.3156989172","","main_expt","0.1453470377","","0.3289320066","","0.304381699","","","","","","",""
"202","","bandit","366","772003","0.0-328.0-0.0","98280017","wem/bandit_single","A1AQQFJAF8CI4H","gain","5","","76","L","3","","0","0","1","0.2447169523","","false","291","0.3731423443","","main_expt","0.1477070836","","0.3074380044","","0.2447169523","","","","","","",""
"2747","","bandit","367","776524","0.0-329.0-0.0","98280017","wem/bandit_single","A1AQQFJAF8CI4H","gain","5","","72","H","0","img/none_selected.jpg","0","0","1","0.3819638953","","false","292","0.3819638953","","main_expt","0.1442574827","","0.247625386","","0.2422140582","","","","","","",""
"498","","bandit","368","778795","0.0-330.0-0.0","98280017","wem/bandit_single","A1AQQFJAF8CI4H","gain","5","","75","K","2","","0","0","1","0.2438381571","","false","293","0.3709780048","","main_expt","0.1219757373","","0.2438381571","","0.1480972705","","","","","","",""
"25","","bandit","369","780587","0.0-331.0-0.0","98280017","wem/bandit_single","A1AQQFJAF8CI4H","gain","5","","76","L","3","","0","0","1","0.1338078997","","false","294","0.4013541824","","main_expt","0.149249144","","0.2772308066","","0.1338078997","","","","","","",""
"367","","bandit","370","782724","0.0-332.0-0.0","98280017","wem/bandit_single","A1AQQFJAF8CI4H","gain","5","","76","L","3","","0","0","1","0.1452417655","","false","295","0.4203470877","","main_expt","0.1066825056","","0.2386370059","","0.1452417655","","","","","","",""
"10","","bandit","371","784506","0.0-333.0-0.0","98280017","wem/bandit_single","A1AQQFJAF8CI4H","gain","5","","76","L","3","","1","0","0","0.12995508","","false","296","0.4006598815","","main_expt","0.06692503618","","0.2322267342","","0.12995508","","","","","","",""
"386","","bandit","372","786658","0.0-334.0-0.0","98280017","wem/bandit_single","A1AQQFJAF8CI4H","gain","5","","76","L","3","","0","0","1","0.1079814357","","false","297","0.4189250697","","main_expt","0.08806334149","","0.2930795043","","0.1079814357","","","","","","",""
"12","","bandit","373","788443","0.0-335.0-0.0","98280017","wem/bandit_single","A1AQQFJAF8CI4H","gain","5","","72","H","0","img/none_selected.jpg","0","0","1","0.4204303011","","false","298","0.4204303011","","main_expt","0.0708541643","","0.3168190842","","0.08396844466","","","","","","",""
