"rt","responses","trial_type","trial_index","time_elapsed","internal_node_id","subjID","study","MID","cond","drift","key_press","respCharCode","respKey","respChoiceNum","respChoice","gems","bombs","no_reward","GemPrChosen","BombPrChosen","practice","trial_counter","WinPr_0","LosePr_0","trial_label","WinPr_1","LosePr_1","WinPr_2","LosePr_2","WinPr_3","LosePr_3","Q0","Q1","Q2","gender","age","ethnicity"
"3775","{""Q0"":""A3F6SDO4GYBE4Y""}","survey-text","0","3786","0.0-0.0","99756179","wem/bandit_single","A3F6SDO4GYBE4Y","gain","1","","","","","","","","","","","","","","","","","","","","","","","","","","",""
"3620","","text","1","8414","0.0-1.0","99756179","wem/bandit_single","A3F6SDO4GYBE4Y","gain","1","32","","","","","","","","","","","","","","","","","","","","","","","","","",""
"6885","","text","2","15301","0.0-2.0","99756179","wem/bandit_single","A3F6SDO4GYBE4Y","gain","1","32","","","","","","","","","","","","","","","","","","","","","","","","","",""
"18499","","text","3","33805","0.0-3.0","99756179","wem/bandit_single","A3F6SDO4GYBE4Y","gain","1","32","","","","","","","","","","","","","","","","","","","","","","","","","",""
"14125","","text","4","47932","0.0-4.0","99756179","wem/bandit_single","A3F6SDO4GYBE4Y","gain","1","32","","","","","","","","","","","","","","","","","","","","","","","","","",""
"7591","","text","5","55525","0.0-5.0","99756179","wem/bandit_single","A3F6SDO4GYBE4Y","gain","1","32","","","","","","","","","","","","","","","","","","","","","","","","","",""
"6303","","text","6","61830","0.0-6.0","99756179","wem/bandit_single","A3F6SDO4GYBE4Y","gain","1","32","","","","","","","","","","","","","","","","","","","","","","","","","",""
"5372","","text","7","67204","0.0-7.0","99756179","wem/bandit_single","A3F6SDO4GYBE4Y","gain","1","32","","","","","","","","","","","","","","","","","","","","","","","","","",""
"3975","","text","8","71181","0.0-8.0","99756179","wem/bandit_single","A3F6SDO4GYBE4Y","gain","1","32","","","","","","","","","","","","","","","","","","","","","","","","","",""
"1831","","text","9","73014","0.0-9.0","99756179","wem/bandit_single","A3F6SDO4GYBE4Y","gain","1","32","","","","","","","","","","","","","","","","","","","","","","","","","",""
"5285","","text","10","78301","0.0-10.0","99756179","wem/bandit_single","A3F6SDO4GYBE4Y","gain","1","32","","","","","","","","","","","","","","","","","","","","","","","","","",""
"2581","","text","11","80885","0.0-11.0","99756179","wem/bandit_single","A3F6SDO4GYBE4Y","gain","1","32","","","","","","","","","","","","","","","","","","","","","","","","","",""
"907","","bandit","12","83328","0.0-12.0-0.0","99756179","wem/bandit_single","A3F6SDO4GYBE4Y","gain","1","","74","J","0","img/none_selected_demo.jpg","0","0","1","0","0","true","0","0","0","","","","","","","","","","","","",""
"1321","","bandit","13","86438","0.0-13.0-0.0","99756179","wem/bandit_single","A3F6SDO4GYBE4Y","gain","1","","75","K","0","img/none_selected_demo.jpg","0","0","1","0","0","true","0","0","0","","","","","","","","","","","","",""
"2807","","text","14","89501","0.0-14.0","99756179","wem/bandit_single","A3F6SDO4GYBE4Y","gain","1","32","","","","","","","","","","","","","","","","","","","","","","","","","",""
"1678","","text","15","91182","0.0-15.0","99756179","wem/bandit_single","A3F6SDO4GYBE4Y","gain","1","32","","","","","","","","","","","","","","","","","","","","","","","","","",""
"3101","","text","16","94284","0.0-16.0","99756179","wem/bandit_single","A3F6SDO4GYBE4Y","gain","1","32","","","","","","","","","","","","","","","","","","","","","","","","","",""
"2359","","text","17","96645","0.0-17.0","99756179","wem/bandit_single","A3F6SDO4GYBE4Y","gain","1","32","","","","","","","","","","","","","","","","","","","","","","","","","",""
"1051","","bandit","18","99221","0.0-18.0-0.0","99756179","wem/bandit_single","A3F6SDO4GYBE4Y","gain","1","","74","J","0","img/none_selected_demo.jpg","1","0","0","0.8","0","true","0","0.8","0","80_20_practice","0.2","0","","","","","","","","","",""
"78","","bandit","19","101072","0.0-18.0-1.0","99756179","wem/bandit_single","A3F6SDO4GYBE4Y","gain","1","","75","K","1","","1","0","0","0.2","0","true","0","0.8","0","80_20_practice","0.2","0","","","","","","","","","",""
"13","","bandit","20","102846","0.0-18.0-2.0","99756179","wem/bandit_single","A3F6SDO4GYBE4Y","gain","1","","74","J","0","img/none_selected_demo.jpg","0","0","1","0.8","0","true","0","0.8","0","80_20_practice","0.2","0","","","","","","","","","",""
"52","","bandit","21","104673","0.0-18.0-3.0","99756179","wem/bandit_single","A3F6SDO4GYBE4Y","gain","1","","75","K","1","","1","0","0","0.2","0","true","0","0.8","0","80_20_practice","0.2","0","","","","","","","","","",""
"54","","bandit","22","106517","0.0-18.0-4.0","99756179","wem/bandit_single","A3F6SDO4GYBE4Y","gain","1","","75","K","1","","1","0","0","0.2","0","true","0","0.8","0","80_20_practice","0.2","0","","","","","","","","","",""
"53","","bandit","23","108353","0.0-18.0-5.0","99756179","wem/bandit_single","A3F6SDO4GYBE4Y","gain","1","","75","K","1","","0","0","1","0.2","0","true","0","0.8","0","80_20_practice","0.2","0","","","","","","","","","",""
"234","","bandit","24","110351","0.0-18.0-6.0","99756179","wem/bandit_single","A3F6SDO4GYBE4Y","gain","1","","75","K","1","","1","0","0","0.2","0","true","0","0.8","0","80_20_practice","0.2","0","","","","","","","","","",""
"422","","bandit","25","112538","0.0-18.0-7.0","99756179","wem/bandit_single","A3F6SDO4GYBE4Y","gain","1","","75","K","1","","0","0","1","0.2","0","true","0","0.8","0","80_20_practice","0.2","0","","","","","","","","","",""
"153","","bandit","26","114473","0.0-18.0-8.0","99756179","wem/bandit_single","A3F6SDO4GYBE4Y","gain","1","","75","K","1","","1","0","0","0.2","0","true","0","0.8","0","80_20_practice","0.2","0","","","","","","","","","",""
"123","","bandit","27","116365","0.0-18.0-9.0","99756179","wem/bandit_single","A3F6SDO4GYBE4Y","gain","1","","75","K","1","","0","0","1","0.2","0","true","0","0.8","0","80_20_practice","0.2","0","","","","","","","","","",""
"103","","bandit","28","118244","0.0-18.0-10.0","99756179","wem/bandit_single","A3F6SDO4GYBE4Y","gain","1","","75","K","1","","0","0","1","0.2","0","true","0","0.8","0","80_20_practice","0.2","0","","","","","","","","","",""
"28","","bandit","29","120045","0.0-18.0-11.0","99756179","wem/bandit_single","A3F6SDO4GYBE4Y","gain","1","","74","J","0","img/none_selected_demo.jpg","1","0","0","0.8","0","true","0","0.8","0","80_20_practice","0.2","0","","","","","","","","","",""
"32","","bandit","30","121846","0.0-18.0-12.0","99756179","wem/bandit_single","A3F6SDO4GYBE4Y","gain","1","","74","J","0","img/none_selected_demo.jpg","1","0","0","0.8","0","true","0","0.8","0","80_20_practice","0.2","0","","","","","","","","","",""
"31","","bandit","31","123646","0.0-18.0-13.0","99756179","wem/bandit_single","A3F6SDO4GYBE4Y","gain","1","","74","J","0","img/none_selected_demo.jpg","1","0","0","0.8","0","true","0","0.8","0","80_20_practice","0.2","0","","","","","","","","","",""
"30","","bandit","32","125439","0.0-18.0-14.0","99756179","wem/bandit_single","A3F6SDO4GYBE4Y","gain","1","","74","J","0","img/none_selected_demo.jpg","1","0","0","0.8","0","true","0","0.8","0","80_20_practice","0.2","0","","","","","","","","","",""
"97","","bandit","33","127315","0.0-18.0-15.0","99756179","wem/bandit_single","A3F6SDO4GYBE4Y","gain","1","","74","J","0","img/none_selected_demo.jpg","1","0","0","0.8","0","true","0","0.8","0","80_20_practice","0.2","0","","","","","","","","","",""
"6","","bandit","34","129087","0.0-18.0-16.0","99756179","wem/bandit_single","A3F6SDO4GYBE4Y","gain","1","","74","J","0","img/none_selected_demo.jpg","1","0","0","0.8","0","true","0","0.8","0","80_20_practice","0.2","0","","","","","","","","","",""
"77","","bandit","35","130961","0.0-18.0-17.0","99756179","wem/bandit_single","A3F6SDO4GYBE4Y","gain","1","","74","J","0","img/none_selected_demo.jpg","1","0","0","0.8","0","true","0","0.8","0","80_20_practice","0.2","0","","","","","","","","","",""
"954","","bandit","36","133696","0.0-18.0-18.0","99756179","wem/bandit_single","A3F6SDO4GYBE4Y","gain","1","","74","J","0","img/none_selected_demo.jpg","1","0","0","0.8","0","true","0","0.8","0","80_20_practice","0.2","0","","","","","","","","","",""
"278","","bandit","37","135743","0.0-18.0-19.0","99756179","wem/bandit_single","A3F6SDO4GYBE4Y","gain","1","","74","J","0","img/none_selected_demo.jpg","1","0","0","0.8","0","true","0","0.8","0","80_20_practice","0.2","0","","","","","","","","","",""
"3865","","text","38","139862","0.0-19.0","99756179","wem/bandit_single","A3F6SDO4GYBE4Y","gain","1","32","","","","","","","","","","","","","","","","","","","","","","","","","",""
"1577","","bandit","39","142957","0.0-20.0-0.0","99756179","wem/bandit_single","A3F6SDO4GYBE4Y","gain","1","","74","J","0","img/none_selected_demo.jpg","0","0","1","0","0","true","0","0","0","","0","0","","","","","","","","","",""
"4282","","text","40","147509","0.0-21.0","99756179","wem/bandit_single","A3F6SDO4GYBE4Y","gain","1","32","","","","","","","","","","","","","","","","","","","","","","","","","",""
"4829","","text","41","152342","0.0-22.0","99756179","wem/bandit_single","A3F6SDO4GYBE4Y","gain","1","32","","","","","","","","","","","","","","","","","","","","","","","","","",""
"2827","","text","42","155173","0.0-23.0","99756179","wem/bandit_single","A3F6SDO4GYBE4Y","gain","1","32","","","","","","","","","","","","","","","","","","","","","","","","","",""
"2315","","text","43","157493","0.0-24.0","99756179","wem/bandit_single","A3F6SDO4GYBE4Y","gain","1","32","","","","","","","","","","","","","","","","","","","","","","","","","",""
"4788","","text","44","162285","0.0-25.0","99756179","wem/bandit_single","A3F6SDO4GYBE4Y","gain","1","32","","","","","","","","","","","","","","","","","","","","","","","","","",""
"3677","","text","45","165966","0.0-26.0","99756179","wem/bandit_single","A3F6SDO4GYBE4Y","gain","1","32","","","","","","","","","","","","","","","","","","","","","","","","","",""
"2586","","text","46","168557","0.0-27.0","99756179","wem/bandit_single","A3F6SDO4GYBE4Y","gain","1","32","","","","","","","","","","","","","","","","","","","","","","","","","",""
"2220","","text","47","170781","0.0-28.0","99756179","wem/bandit_single","A3F6SDO4GYBE4Y","gain","1","32","","","","","","","","","","","","","","","","","","","","","","","","","",""
"7436","","text","48","178221","0.0-29.0","99756179","wem/bandit_single","A3F6SDO4GYBE4Y","gain","1","32","","","","","","","","","","","","","","","","","","","","","","","","","",""
"1779","","text","49","180004","0.0-30.0","99756179","wem/bandit_single","A3F6SDO4GYBE4Y","gain","1","32","","","","","","","","","","","","","","","","","","","","","","","","","",""
"1675","","text","50","181684","0.0-31.0","99756179","wem/bandit_single","A3F6SDO4GYBE4Y","gain","1","32","","","","","","","","","","","","","","","","","","","","","","","","","",""
"1753","","bandit","51","184955","0.0-32.0-0.0","99756179","wem/bandit_single","A3F6SDO4GYBE4Y","gain","1","","72","H","0","img/none_selected.jpg","1","0","0","0.8","0","true","0","0.8","0","full_practice","0.2","0","0.6","0","0.2","0","","","","","",""
"76","","bandit","52","186802","0.0-32.0-1.0","99756179","wem/bandit_single","A3F6SDO4GYBE4Y","gain","1","","72","H","0","img/none_selected.jpg","1","0","0","0.8","0","true","0","0.8","0","full_practice","0.2","0","0.6","0","0.2","0","","","","","",""
"58","","bandit","53","188627","0.0-32.0-2.0","99756179","wem/bandit_single","A3F6SDO4GYBE4Y","gain","1","","72","H","0","img/none_selected.jpg","1","0","0","0.8","0","true","0","0.8","0","full_practice","0.2","0","0.6","0","0.2","0","","","","","",""
"68","","bandit","54","190466","0.0-32.0-3.0","99756179","wem/bandit_single","A3F6SDO4GYBE4Y","gain","1","","72","H","0","img/none_selected.jpg","1","0","0","0.8","0","true","0","0.8","0","full_practice","0.2","0","0.6","0","0.2","0","","","","","",""
"68","","bandit","55","192311","0.0-32.0-4.0","99756179","wem/bandit_single","A3F6SDO4GYBE4Y","gain","1","","72","H","0","img/none_selected.jpg","1","0","0","0.8","0","true","0","0.8","0","full_practice","0.2","0","0.6","0","0.2","0","","","","","",""
"30","","bandit","56","194119","0.0-32.0-5.0","99756179","wem/bandit_single","A3F6SDO4GYBE4Y","gain","1","","72","H","0","img/none_selected.jpg","1","0","0","0.8","0","true","0","0.8","0","full_practice","0.2","0","0.6","0","0.2","0","","","","","",""
"63","","bandit","57","195961","0.0-32.0-6.0","99756179","wem/bandit_single","A3F6SDO4GYBE4Y","gain","1","","72","H","0","img/none_selected.jpg","1","0","0","0.8","0","true","0","0.8","0","full_practice","0.2","0","0.6","0","0.2","0","","","","","",""
"1098","","bandit","58","198841","0.0-32.0-7.0","99756179","wem/bandit_single","A3F6SDO4GYBE4Y","gain","1","","72","H","0","img/none_selected.jpg","1","0","0","0.8","0","true","0","0.8","0","full_practice","0.2","0","0.6","0","0.2","0","","","","","",""
"112","","bandit","59","200734","0.0-32.0-8.0","99756179","wem/bandit_single","A3F6SDO4GYBE4Y","gain","1","","72","H","0","img/none_selected.jpg","1","0","0","0.8","0","true","0","0.8","0","full_practice","0.2","0","0.6","0","0.2","0","","","","","",""
"28","","bandit","60","202522","0.0-32.0-9.0","99756179","wem/bandit_single","A3F6SDO4GYBE4Y","gain","1","","72","H","0","img/none_selected.jpg","1","0","0","0.8","0","true","0","0.8","0","full_practice","0.2","0","0.6","0","0.2","0","","","","","",""
"1034","","bandit","61","205331","0.0-32.0-10.0","99756179","wem/bandit_single","A3F6SDO4GYBE4Y","gain","1","","72","H","0","img/none_selected.jpg","0","0","1","0.8","0","true","0","0.8","0","full_practice","0.2","0","0.6","0","0.2","0","","","","","",""
"824","","bandit","62","207947","0.0-32.0-11.0","99756179","wem/bandit_single","A3F6SDO4GYBE4Y","gain","1","","74","J","1","","1","0","0","0.2","0","true","0","0.8","0","full_practice","0.2","0","0.6","0","0.2","0","","","","","",""
"47","","bandit","63","209787","0.0-32.0-12.0","99756179","wem/bandit_single","A3F6SDO4GYBE4Y","gain","1","","74","J","1","","0","0","1","0.2","0","true","0","0.8","0","full_practice","0.2","0","0.6","0","0.2","0","","","","","",""
"108","","bandit","64","211665","0.0-32.0-13.0","99756179","wem/bandit_single","A3F6SDO4GYBE4Y","gain","1","","75","K","2","","1","0","0","0.6","0","true","0","0.8","0","full_practice","0.2","0","0.6","0","0.2","0","","","","","",""
"17","","bandit","65","213461","0.0-32.0-14.0","99756179","wem/bandit_single","A3F6SDO4GYBE4Y","gain","1","","75","K","2","","1","0","0","0.6","0","true","0","0.8","0","full_practice","0.2","0","0.6","0","0.2","0","","","","","",""
"66","","bandit","66","215309","0.0-32.0-15.0","99756179","wem/bandit_single","A3F6SDO4GYBE4Y","gain","1","","75","K","2","","0","0","1","0.6","0","true","0","0.8","0","full_practice","0.2","0","0.6","0","0.2","0","","","","","",""
"31","","bandit","67","217125","0.0-32.0-16.0","99756179","wem/bandit_single","A3F6SDO4GYBE4Y","gain","1","","76","L","3","","0","0","1","0.2","0","true","0","0.8","0","full_practice","0.2","0","0.6","0","0.2","0","","","","","",""
"28","","bandit","68","218921","0.0-32.0-17.0","99756179","wem/bandit_single","A3F6SDO4GYBE4Y","gain","1","","76","L","3","","0","0","1","0.2","0","true","0","0.8","0","full_practice","0.2","0","0.6","0","0.2","0","","","","","",""
"49","","bandit","69","220744","0.0-32.0-18.0","99756179","wem/bandit_single","A3F6SDO4GYBE4Y","gain","1","","75","K","2","","1","0","0","0.6","0","true","0","0.8","0","full_practice","0.2","0","0.6","0","0.2","0","","","","","",""
"0","","bandit","70","222531","0.0-32.0-19.0","99756179","wem/bandit_single","A3F6SDO4GYBE4Y","gain","1","","75","K","2","","0","0","1","0.6","0","true","0","0.8","0","full_practice","0.2","0","0.6","0","0.2","0","","","","","",""
"2174","","text","71","224972","0.0-33.0","99756179","wem/bandit_single","A3F6SDO4GYBE4Y","gain","1","32","","","","","","","","","","","","","","","","","","","","","","","","","",""
"12273","","text","72","238261","0.0-34.0","99756179","wem/bandit_single","A3F6SDO4GYBE4Y","gain","1","32","","","","","","","","","","","","","","","","","","","","","","","","","",""
"5002","","text","73","243268","0.0-35.0","99756179","wem/bandit_single","A3F6SDO4GYBE4Y","gain","1","32","","","","","","","","","","","","","","","","","","","","","","","","","",""
"5659","","text","74","248933","0.0-36.0","99756179","wem/bandit_single","A3F6SDO4GYBE4Y","gain","1","32","","","","","","","","","","","","","","","","","","","","","","","","","",""
"4458","","text","75","253395","0.0-37.0","99756179","wem/bandit_single","A3F6SDO4GYBE4Y","gain","1","32","","","","","","","","","","","","","","","","","","","","","","","","","",""
"813","","bandit","76","255729","0.0-38.0-0.0","99756179","wem/bandit_single","A3F6SDO4GYBE4Y","gain","1","","72","H","0","img/none_selected.jpg","0","0","1","0.433486002","","false","1","0.433486002","","main_expt","0.1765468105","","0.1079408374","","0.04371116513","","","","","","",""
"167","","bandit","77","257677","0.0-39.0-0.0","99756179","wem/bandit_single","A3F6SDO4GYBE4Y","gain","1","","74","J","1","","0","0","1","0.1569258514","","false","2","0.4446307222","","main_expt","0.1569258514","","0.1605706499","","0.0204546363","","","","","","",""
"744","","bandit","78","260192","0.0-40.0-0.0","99756179","wem/bandit_single","A3F6SDO4GYBE4Y","gain","1","","75","K","2","","0","0","1","0.1829447669","","false","3","0.4522438858","","main_expt","0.1639246388","","0.1829447669","","0.02109221713","","","","","","",""
"46","","bandit","79","262011","0.0-41.0-0.0","99756179","wem/bandit_single","A3F6SDO4GYBE4Y","gain","1","","76","L","3","","0","0","1","0.04448829896","","false","4","0.4330109471","","main_expt","0.2130332657","","0.1756642407","","0.04448829896","","","","","","",""
"72","","bandit","80","263860","0.0-42.0-0.0","99756179","wem/bandit_single","A3F6SDO4GYBE4Y","gain","1","","72","H","0","img/none_selected.jpg","1","0","0","0.4678508314","","false","5","0.4678508314","","main_expt","0.1939577492","","0.1349544936","","0.03824555068","","","","","","",""
"53","","bandit","81","265689","0.0-43.0-0.0","99756179","wem/bandit_single","A3F6SDO4GYBE4Y","gain","1","","72","H","0","img/none_selected.jpg","0","0","1","0.4644602632","","false","6","0.4644602632","","main_expt","0.2419857306","","0.1356037804","","0.03028715703","","","","","","",""
"61","","bandit","82","267536","0.0-44.0-0.0","99756179","wem/bandit_single","A3F6SDO4GYBE4Y","gain","1","","74","J","1","","0","0","1","0.2437977828","","false","7","0.4575746565","","main_expt","0.2437977828","","0.1731738011","","0.0280090558","","","","","","",""
"10","","bandit","83","269322","0.0-45.0-0.0","99756179","wem/bandit_single","A3F6SDO4GYBE4Y","gain","1","","74","J","1","","1","0","0","0.2910779813","","false","8","0.4508833002","","main_expt","0.2910779813","","0.1697830552","","0.01994926529","","","","","","",""
"10","","bandit","84","271105","0.0-46.0-0.0","99756179","wem/bandit_single","A3F6SDO4GYBE4Y","gain","1","","74","J","1","","0","0","1","0.3043628405","","false","9","0.446295775","","main_expt","0.3043628405","","0.1792782501","","0.02255652904","","","","","","",""
"43","","bandit","85","272937","0.0-47.0-0.0","99756179","wem/bandit_single","A3F6SDO4GYBE4Y","gain","1","","75","K","2","","0","0","1","0.1705688187","","false","10","0.4564580261","","main_expt","0.3568141906","","0.1705688187","","0.02794315976","","","","","","",""
"2","","bandit","86","274722","0.0-48.0-0.0","99756179","wem/bandit_single","A3F6SDO4GYBE4Y","gain","1","","76","L","3","","0","0","1","0.02289966844","","false","11","0.4233437492","","main_expt","0.3439843329","","0.1974022207","","0.02289966844","","","","","","",""
"715","","bandit","87","277221","0.0-49.0-0.0","99756179","wem/bandit_single","A3F6SDO4GYBE4Y","gain","1","","72","H","0","img/none_selected.jpg","0","0","1","0.4129107721","","false","12","0.4129107721","","main_expt","0.2959247237","","0.1753487428","","0.01510656417","","","","","","",""
"11","","bandit","88","279003","0.0-50.0-0.0","99756179","wem/bandit_single","A3F6SDO4GYBE4Y","gain","1","","74","J","1","","0","0","1","0.2711511111","","false","13","0.4188058581","","main_expt","0.2711511111","","0.1858973774","","0.01475809492","","","","","","",""
"974","","bandit","89","281755","0.0-51.0-0.0","99756179","wem/bandit_single","A3F6SDO4GYBE4Y","gain","1","","75","K","2","","0","0","1","0.1873997244","","false","14","0.4542155744","","main_expt","0.2351285692","","0.1873997244","","0.00909265887","","","","","","",""
"31","","bandit","90","283568","0.0-52.0-0.0","99756179","wem/bandit_single","A3F6SDO4GYBE4Y","gain","1","","76","L","3","","0","0","1","0.004683339805","","false","15","0.4436127815","","main_expt","0.3299180318","","0.2079034381","","0.004683339805","","","","","","",""
"11","","bandit","91","285364","0.0-53.0-0.0","99756179","wem/bandit_single","A3F6SDO4GYBE4Y","gain","1","","72","H","0","img/none_selected.jpg","1","0","0","0.4255220112","","false","16","0.4255220112","","main_expt","0.3382291528","","0.2116662278","","0.007493295572","","","","","","",""
"240","","bandit","92","287392","0.0-54.0-0.0","99756179","wem/bandit_single","A3F6SDO4GYBE4Y","gain","1","","72","H","0","img/none_selected.jpg","0","0","1","0.4221090449","","false","17","0.4221090449","","main_expt","0.3890963744","","0.2460799228","","0.009835384986","","","","","","",""
"46","","bandit","93","289212","0.0-55.0-0.0","99756179","wem/bandit_single","A3F6SDO4GYBE4Y","gain","1","","74","J","1","","1","0","0","0.3102907615","","false","18","0.4157246332","","main_expt","0.3102907615","","0.2725156425","","0.01282838009","","","","","","",""
"23","","bandit","94","291013","0.0-56.0-0.0","99756179","wem/bandit_single","A3F6SDO4GYBE4Y","gain","1","","74","J","1","","0","0","1","0.2734902963","","false","19","0.4000612909","","main_expt","0.2734902963","","0.319312936","","0.03935122736","","","","","","",""
"71","","bandit","95","292862","0.0-57.0-0.0","99756179","wem/bandit_single","A3F6SDO4GYBE4Y","gain","1","","75","K","2","","0","0","1","0.3449168397","","false","20","0.4116546581","","main_expt","0.2157414593","","0.3449168397","","0.03712672215","","","","","","",""
"1","","bandit","96","294643","0.0-58.0-0.0","99756179","wem/bandit_single","A3F6SDO4GYBE4Y","gain","1","","75","K","2","","0","0","1","0.2668327531","","false","21","0.4276829816","","main_expt","0.2148325275","","0.2668327531","","0.02631596187","","","","","","",""
"446","","bandit","97","296858","0.0-59.0-0.0","99756179","wem/bandit_single","A3F6SDO4GYBE4Y","gain","1","","76","L","3","","1","0","0","0.0338100911","","false","22","0.3861543943","","main_expt","0.1819582271","","0.2786929748","","0.0338100911","","","","","","",""
"14","","bandit","98","298662","0.0-60.0-0.0","99756179","wem/bandit_single","A3F6SDO4GYBE4Y","gain","1","","76","L","3","","1","0","0","0.06132921526","","false","23","0.3815006395","","main_expt","0.1776669961","","0.2012253143","","0.06132921526","","","","","","",""
"1030","","bandit","99","301482","0.0-61.0-0.0","99756179","wem/bandit_single","A3F6SDO4GYBE4Y","gain","1","","76","L","3","","0","0","1","0.06546003458","","false","24","0.4063144844","","main_expt","0.2595803745","","0.1363446769","","0.06546003458","","","","","","",""
"78","","bandit","100","303344","0.0-62.0-0.0","99756179","wem/bandit_single","A3F6SDO4GYBE4Y","gain","1","","72","H","0","img/none_selected.jpg","0","0","1","0.3218764758","","false","25","0.3218764758","","main_expt","0.2184946748","","0.1395957504","","0.08327489459","","","","","","",""
"48","","bandit","101","305194","0.0-63.0-0.0","99756179","wem/bandit_single","A3F6SDO4GYBE4Y","gain","1","","74","J","1","","0","0","1","0.2382025465","","false","26","0.3190898414","","main_expt","0.2382025465","","0.1095431569","","0.06117167893","","","","","","",""
"98","","bandit","102","307081","0.0-64.0-0.0","99756179","wem/bandit_single","A3F6SDO4GYBE4Y","gain","1","","75","K","2","","0","0","1","0.1290148999","","false","27","0.361309168","","main_expt","0.2249508913","","0.1290148999","","0.03494965278","","","","","","",""
"29","","bandit","103","308884","0.0-65.0-0.0","99756179","wem/bandit_single","A3F6SDO4GYBE4Y","gain","1","","76","L","3","","0","0","1","0.02964638986","","false","28","0.3247985582","","main_expt","0.2388683754","","0.09304199486","","0.02964638986","","","","","","",""
"44","","bandit","104","310713","0.0-66.0-0.0","99756179","wem/bandit_single","A3F6SDO4GYBE4Y","gain","1","","72","H","0","img/none_selected.jpg","1","0","0","0.3358989687","","false","29","0.3358989687","","main_expt","0.238121012","","0.1042487788","","0.03498116837","","","","","","",""
"30","","bandit","105","312513","0.0-67.0-0.0","99756179","wem/bandit_single","A3F6SDO4GYBE4Y","gain","1","","72","H","0","img/none_selected.jpg","0","0","1","0.3833706669","","false","30","0.3833706669","","main_expt","0.2995264376","","0.1177759499","","0.04244048525","","","","","","",""
"310","","bandit","106","314613","0.0-68.0-0.0","99756179","wem/bandit_single","A3F6SDO4GYBE4Y","gain","1","","74","J","1","","1","0","0","0.2738636663","","false","31","0.365606812","","main_expt","0.2738636663","","0.1177925617","","0.06152315655","","","","","","",""
"820","","bandit","107","317210","0.0-69.0-0.0","99756179","wem/bandit_single","A3F6SDO4GYBE4Y","gain","1","","74","J","1","","1","0","0","0.3185168498","","false","32","0.3376656117","","main_expt","0.3185168498","","0.08495919706","","0.04890303061","","","","","","",""
"43","","bandit","108","319032","0.0-70.0-0.0","99756179","wem/bandit_single","A3F6SDO4GYBE4Y","gain","1","","74","J","1","","0","0","1","0.3160257618","","false","33","0.3632929272","","main_expt","0.3160257618","","0.09918690981","","0.06913310411","","","","","","",""
"22","","bandit","109","320840","0.0-71.0-0.0","99756179","wem/bandit_single","A3F6SDO4GYBE4Y","gain","1","","75","K","2","","0","0","1","0.1267106232","","false","34","0.4008603673","","main_expt","0.3411570355","","0.1267106232","","0.07311713639","","","","","","",""
"48","","bandit","110","322673","0.0-72.0-0.0","99756179","wem/bandit_single","A3F6SDO4GYBE4Y","gain","1","","76","L","3","","0","0","1","0.08374615962","","false","35","0.4024879816","","main_expt","0.3190481916","","0.1076928618","","0.08374615962","","","","","","",""
"26","","bandit","111","324478","0.0-73.0-0.0","99756179","wem/bandit_single","A3F6SDO4GYBE4Y","gain","1","","72","H","0","img/none_selected.jpg","0","0","1","0.3740303516","","false","36","0.3740303516","","main_expt","0.3264142162","","0.1298816773","","0.08182693844","","","","","","",""
"477","","bandit","112","326736","0.0-74.0-0.0","99756179","wem/bandit_single","A3F6SDO4GYBE4Y","gain","1","","74","J","1","","0","0","1","0.3198880486","","false","37","0.3728306432","","main_expt","0.3198880486","","0.1459487567","","0.1343371601","","","","","","",""
"21","","bandit","113","328544","0.0-75.0-0.0","99756179","wem/bandit_single","A3F6SDO4GYBE4Y","gain","1","","75","K","2","","0","0","1","0.1339045699","","false","38","0.3805434418","","main_expt","0.3683112265","","0.1339045699","","0.155986589","","","","","","",""
"26","","bandit","114","330369","0.0-76.0-0.0","99756179","wem/bandit_single","A3F6SDO4GYBE4Y","gain","1","","76","L","3","","0","0","1","0.1477757124","","false","39","0.3969568822","","main_expt","0.3427238384","","0.1345127174","","0.1477757124","","","","","","",""
"42","","bandit","115","332201","0.0-77.0-0.0","99756179","wem/bandit_single","A3F6SDO4GYBE4Y","gain","1","","72","H","0","img/none_selected.jpg","0","0","1","0.3988554294","","false","40","0.3988554294","","main_expt","0.3218453083","","0.1283460502","","0.1673850924","","","","","","",""
"727","","bandit","116","334708","0.0-78.0-0.0","99756179","wem/bandit_single","A3F6SDO4GYBE4Y","gain","1","","74","J","1","","1","0","0","0.3085515908","","false","41","0.4510691137","","main_expt","0.3085515908","","0.120913883","","0.1798739011","","","","","","",""
"21","","bandit","117","336505","0.0-79.0-0.0","99756179","wem/bandit_single","A3F6SDO4GYBE4Y","gain","1","","74","J","1","","0","0","1","0.3072415044","","false","42","0.4575220824","","main_expt","0.3072415044","","0.1045942129","","0.1559165864","","","","","","",""
"117","","bandit","118","338394","0.0-80.0-0.0","99756179","wem/bandit_single","A3F6SDO4GYBE4Y","gain","1","","76","L","3","","0","0","1","0.1058033922","","false","43","0.4425049573","","main_expt","0.272500382","","0.09432917568","","0.1058033922","","","","","","",""
"578","","bandit","119","340748","0.0-81.0-0.0","99756179","wem/bandit_single","A3F6SDO4GYBE4Y","gain","1","","72","H","0","img/none_selected.jpg","1","0","0","0.4232077065","","false","44","0.4232077065","","main_expt","0.2865836788","","0.07221407183","","0.08489334424","","","","","","",""
"50","","bandit","120","342573","0.0-82.0-0.0","99756179","wem/bandit_single","A3F6SDO4GYBE4Y","gain","1","","72","H","0","img/none_selected.jpg","1","0","0","0.4098430077","","false","45","0.4098430077","","main_expt","0.2991622886","","0.05666738762","","0.05905190464","","","","","","",""
"11","","bandit","121","344364","0.0-83.0-0.0","99756179","wem/bandit_single","A3F6SDO4GYBE4Y","gain","1","","72","H","0","img/none_selected.jpg","1","0","0","0.4038708701","","false","46","0.4038708701","","main_expt","0.2531917612","","0.03432969329","","0.06331323714","","","","","","",""
"23","","bandit","122","346172","0.0-84.0-0.0","99756179","wem/bandit_single","A3F6SDO4GYBE4Y","gain","1","","72","H","0","img/none_selected.jpg","0","0","1","0.4162646915","","false","47","0.4162646915","","main_expt","0.174020607","","0.03955917442","","0.05657329797","","","","","","",""
"58","","bandit","123","348009","0.0-85.0-0.0","99756179","wem/bandit_single","A3F6SDO4GYBE4Y","gain","1","","74","J","1","","1","0","0","0.1890064997","","false","48","0.4188900116","","main_expt","0.1890064997","","0.02792503423","","0.04718629669","","","","","","",""
"895","","bandit","124","350682","0.0-86.0-0.0","99756179","wem/bandit_single","A3F6SDO4GYBE4Y","gain","1","","74","J","1","","0","0","1","0.218442061","","false","49","0.4566014176","","main_expt","0.218442061","","0.03726959289","","0.03289244517","","","","","","",""
"68","","bandit","125","352543","0.0-87.0-0.0","99756179","wem/bandit_single","A3F6SDO4GYBE4Y","gain","1","","76","L","3","","0","0","1","0.03266450512","","false","50","0.4447058567","","main_expt","0.1635183119","","0.03358305353","","0.03266450512","","","","","","",""
"13","","bandit","126","354336","0.0-88.0-0.0","99756179","wem/bandit_single","A3F6SDO4GYBE4Y","gain","1","","72","H","0","img/none_selected.jpg","1","0","0","0.4304926469","","false","51","0.4304926469","","main_expt","0.1366577914","","0.03344521258","","0.03026904774","","","","","","",""
"19","","bandit","127","356132","0.0-89.0-0.0","99756179","wem/bandit_single","A3F6SDO4GYBE4Y","gain","1","","72","H","0","img/none_selected.jpg","0","0","1","0.4221781581","","false","52","0.4221781581","","main_expt","0.1797398031","","0.04269272659","","0.03251993274","","","","","","",""
"629","","bandit","128","358546","0.0-90.0-0.0","99756179","wem/bandit_single","A3F6SDO4GYBE4Y","gain","1","","74","J","1","","0","0","1","0.2893410322","","false","53","0.3687481665","","main_expt","0.2893410322","","0.023815337","","0.03960602941","","","","","","",""
"28","","bandit","129","360352","0.0-91.0-0.0","99756179","wem/bandit_single","A3F6SDO4GYBE4Y","gain","1","","72","H","0","img/none_selected.jpg","1","0","0","0.3458934235","","false","54","0.3458934235","","main_expt","0.2985665456","","0.02455785224","","0.05707063203","","","","","","",""
"2","","bandit","130","362136","0.0-92.0-0.0","99756179","wem/bandit_single","A3F6SDO4GYBE4Y","gain","1","","72","H","0","img/none_selected.jpg","1","0","0","0.4042580408","","false","55","0.4042580408","","main_expt","0.3336948264","","0.03998391886","","0.04044117434","","","","","","",""
"48","","bandit","131","363969","0.0-93.0-0.0","99756179","wem/bandit_single","A3F6SDO4GYBE4Y","gain","1","","72","H","0","img/none_selected.jpg","1","0","0","0.4471112694","","false","56","0.4471112694","","main_expt","0.282194417","","0.06538112884","","0.05627119328","","","","","","",""
"13","","bandit","132","365758","0.0-94.0-0.0","99756179","wem/bandit_single","A3F6SDO4GYBE4Y","gain","1","","72","H","0","img/none_selected.jpg","0","0","1","0.4640351361","","false","57","0.4640351361","","main_expt","0.3239389597","","0.08662171517","","0.06172895681","","","","","","",""
"59","","bandit","133","367599","0.0-95.0-0.0","99756179","wem/bandit_single","A3F6SDO4GYBE4Y","gain","1","","74","J","1","","1","0","0","0.3114288274","","false","58","0.4654795878","","main_expt","0.3114288274","","0.08191290536","","0.0708730922","","","","","","",""
"983","","bandit","134","370376","0.0-96.0-0.0","99756179","wem/bandit_single","A3F6SDO4GYBE4Y","gain","1","","74","J","1","","1","0","0","0.3090129124","","false","59","0.477644797","","main_expt","0.3090129124","","0.06359390603","","0.06307994893","","","","","","",""
"60","","bandit","135","372224","0.0-97.0-0.0","99756179","wem/bandit_single","A3F6SDO4GYBE4Y","gain","1","","74","J","1","","1","0","0","0.3273240357","","false","60","0.4637057102","","main_expt","0.3273240357","","0.1113565871","","0.06865221942","","","","","","",""
"3","","bandit","136","374013","0.0-98.0-0.0","99756179","wem/bandit_single","A3F6SDO4GYBE4Y","gain","1","","74","J","1","","1","0","0","0.333760802","","false","61","0.4575353452","","main_expt","0.333760802","","0.1224908949","","0.04710261487","","","","","","",""
"2","","bandit","137","375799","0.0-99.0-0.0","99756179","wem/bandit_single","A3F6SDO4GYBE4Y","gain","1","","74","J","1","","1","0","0","0.3721083552","","false","62","0.4511824808","","main_expt","0.3721083552","","0.1011510181","","0.04180279512","","","","","","",""
"15","","bandit","138","377585","0.0-100.0-0.0","99756179","wem/bandit_single","A3F6SDO4GYBE4Y","gain","1","","74","J","1","","1","0","0","0.3366911892","","false","63","0.4522744543","","main_expt","0.3366911892","","0.1241823521","","0.04669584184","","","","","","",""
"2","","bandit","139","379373","0.0-101.0-0.0","99756179","wem/bandit_single","A3F6SDO4GYBE4Y","gain","1","","74","J","1","","0","0","1","0.352845708","","false","64","0.4534383651","","main_expt","0.352845708","","0.1277445844","","0.04699929359","","","","","","",""
"30","","bandit","140","381189","0.0-102.0-0.0","99756179","wem/bandit_single","A3F6SDO4GYBE4Y","gain","1","","72","H","0","img/none_selected.jpg","1","0","0","0.4578128414","","false","65","0.4578128414","","main_expt","0.3797865956","","0.1594820305","","0.06422912444","","","","","","",""
"5","","bandit","141","382975","0.0-103.0-0.0","99756179","wem/bandit_single","A3F6SDO4GYBE4Y","gain","1","","72","H","0","img/none_selected.jpg","0","0","1","0.4675149648","","false","66","0.4675149648","","main_expt","0.3776123686","","0.1902728197","","0.09107067683","","","","","","",""
"11","","bandit","142","384767","0.0-104.0-0.0","99756179","wem/bandit_single","A3F6SDO4GYBE4Y","gain","1","","74","J","1","","0","0","1","0.3520302909","","false","67","0.4801185054","","main_expt","0.3520302909","","0.1915604568","","0.1295134299","","","","","","",""
"36","","bandit","143","386590","0.0-105.0-0.0","99756179","wem/bandit_single","A3F6SDO4GYBE4Y","gain","1","","72","H","0","img/none_selected.jpg","0","0","1","0.4853911876","","false","68","0.4853911876","","main_expt","0.3563070861","","0.2292904293","","0.1501953896","","","","","","",""
"37","","bandit","144","388401","0.0-106.0-0.0","99756179","wem/bandit_single","A3F6SDO4GYBE4Y","gain","1","","74","J","1","","1","0","0","0.3773129781","","false","69","0.45952887","","main_expt","0.3773129781","","0.2982444272","","0.2120393587","","","","","","",""
"723","","bandit","145","390896","0.0-107.0-0.0","99756179","wem/bandit_single","A3F6SDO4GYBE4Y","gain","1","","74","J","1","","0","0","1","0.3620092878","","false","70","0.4519788387","","main_expt","0.3620092878","","0.2038928517","","0.2046372205","","","","","","",""
"677","","bandit","146","393363","0.0-108.0-0.0","99756179","wem/bandit_single","A3F6SDO4GYBE4Y","gain","1","","76","L","3","","0","0","1","0.1711657315","","false","71","0.4644284496","","main_expt","0.3689610789","","0.2470144531","","0.1711657315","","","","","","",""
"13","","bandit","147","395154","0.0-109.0-0.0","99756179","wem/bandit_single","A3F6SDO4GYBE4Y","gain","1","","75","K","2","","0","0","1","0.2339224101","","false","72","0.4275080271","","main_expt","0.335535794","","0.2339224101","","0.1804367846","","","","","","",""
"42","","bandit","148","396983","0.0-110.0-0.0","99756179","wem/bandit_single","A3F6SDO4GYBE4Y","gain","1","","72","H","0","img/none_selected.jpg","1","0","0","0.4333248441","","false","73","0.4333248441","","main_expt","0.3669127126","","0.198403553","","0.1582310148","","","","","","",""
"34","","bandit","149","398797","0.0-111.0-0.0","99756179","wem/bandit_single","A3F6SDO4GYBE4Y","gain","1","","72","H","0","img/none_selected.jpg","0","0","1","0.4272577829","","false","74","0.4272577829","","main_expt","0.3360165716","","0.2162510441","","0.1300952354","","","","","","",""
"83","","bandit","150","400673","0.0-112.0-0.0","99756179","wem/bandit_single","A3F6SDO4GYBE4Y","gain","1","","74","J","1","","0","0","1","0.3379177146","","false","75","0.353629049","","main_expt","0.3379177146","","0.2467290531","","0.1414689969","","","","","","",""
"10","","bandit","151","402453","0.0-113.0-0.0","99756179","wem/bandit_single","A3F6SDO4GYBE4Y","gain","1","","72","H","0","img/none_selected.jpg","0","0","1","0.3526453175","","false","76","0.3526453175","","main_expt","0.3489784935","","0.2199510863","","0.1315789974","","","","","","",""
"785","","bandit","152","405008","0.0-114.0-0.0","99756179","wem/bandit_single","A3F6SDO4GYBE4Y","gain","1","","74","J","1","","0","0","1","0.2843927136","","false","77","0.397337216","","main_expt","0.2843927136","","0.1600424727","","0.1054244057","","","","","","",""
"51","","bandit","153","406843","0.0-115.0-0.0","99756179","wem/bandit_single","A3F6SDO4GYBE4Y","gain","1","","72","H","0","img/none_selected.jpg","0","0","1","0.3747850168","","false","78","0.3747850168","","main_expt","0.2585585406","","0.1366877547","","0.1028875903","","","","","","",""
"21","","bandit","154","408642","0.0-116.0-0.0","99756179","wem/bandit_single","A3F6SDO4GYBE4Y","gain","1","","74","J","1","","0","0","1","0.2211992803","","false","79","0.3500135026","","main_expt","0.2211992803","","0.1608027171","","0.1010795136","","","","","","",""
"69","","bandit","155","410487","0.0-117.0-0.0","99756179","wem/bandit_single","A3F6SDO4GYBE4Y","gain","1","","76","L","3","","0","0","1","0.09661145037","","false","80","0.3362224365","","main_expt","0.1670678668","","0.2004121585","","0.09661145037","","","","","","",""
"606","","bandit","156","412884","0.0-118.0-0.0","99756179","wem/bandit_single","A3F6SDO4GYBE4Y","gain","1","","75","K","2","","0","0","1","0.2100463009","","false","81","0.3626400229","","main_expt","0.1536487801","","0.2100463009","","0.06079528701","","","","","","",""
"26","","bandit","157","414684","0.0-119.0-0.0","99756179","wem/bandit_single","A3F6SDO4GYBE4Y","gain","1","","72","H","0","img/none_selected.jpg","1","0","0","0.3433004166","","false","82","0.3433004166","","main_expt","0.164055667","","0.2313995655","","0.0561923849","","","","","","",""
"24","","bandit","158","416502","0.0-120.0-0.0","99756179","wem/bandit_single","A3F6SDO4GYBE4Y","gain","1","","72","H","0","img/none_selected.jpg","0","0","1","0.3564809269","","false","83","0.3564809269","","main_expt","0.1795096781","","0.1805974068","","0.05471979201","","","","","","",""
"53","","bandit","159","418344","0.0-121.0-0.0","99756179","wem/bandit_single","A3F6SDO4GYBE4Y","gain","1","","74","J","1","","0","0","1","0.1568762326","","false","84","0.3403656385","","main_expt","0.1568762326","","0.1351257884","","0.04961315052","","","","","","",""
"48","","bandit","160","420184","0.0-122.0-0.0","99756179","wem/bandit_single","A3F6SDO4GYBE4Y","gain","1","","74","J","1","","0","0","1","0.1857208284","","false","85","0.3009252634","","main_expt","0.1857208284","","0.1372280885","","0.05195310968","","","","","","",""
"12","","bandit","161","421962","0.0-123.0-0.0","99756179","wem/bandit_single","A3F6SDO4GYBE4Y","gain","1","","72","H","0","img/none_selected.jpg","0","0","1","0.3067316121","","false","86","0.3067316121","","main_expt","0.2180329602","","0.1685840628","","0.05385113756","","","","","","",""
"604","","bandit","162","424368","0.0-124.0-0.0","99756179","wem/bandit_single","A3F6SDO4GYBE4Y","gain","1","","72","H","0","img/none_selected.jpg","0","0","1","0.3073916088","","false","87","0.3073916088","","main_expt","0.1893737279","","0.1654340797","","0.08202519069","","","","","","",""
"15","","bandit","163","426178","0.0-125.0-0.0","99756179","wem/bandit_single","A3F6SDO4GYBE4Y","gain","1","","72","H","0","img/none_selected.jpg","0","0","1","0.301504441","","false","88","0.301504441","","main_expt","0.2309201776","","0.1870328522","","0.04873944257","","","","","","",""
"17","","bandit","164","427975","0.0-126.0-0.0","99756179","wem/bandit_single","A3F6SDO4GYBE4Y","gain","1","","74","J","1","","0","0","1","0.2368651839","","false","89","0.3324072184","","main_expt","0.2368651839","","0.1786415591","","0.05553778571","","","","","","",""
"38","","bandit","165","429798","0.0-127.0-0.0","99756179","wem/bandit_single","A3F6SDO4GYBE4Y","gain","1","","75","K","2","","0","0","1","0.2293974223","","false","90","0.3245139686","","main_expt","0.2459093935","","0.2293974223","","0.04980790846","","","","","","",""
"487","","bandit","166","432067","0.0-128.0-0.0","99756179","wem/bandit_single","A3F6SDO4GYBE4Y","gain","1","","76","L","3","","0","0","1","0.05804880768","","false","91","0.3310751299","","main_expt","0.2371609774","","0.2407797963","","0.05804880768","","","","","","",""
"11","","bandit","167","433872","0.0-129.0-0.0","99756179","wem/bandit_single","A3F6SDO4GYBE4Y","gain","1","","72","H","0","img/none_selected.jpg","0","0","1","0.3717444616","","false","92","0.3717444616","","main_expt","0.260478489","","0.2337544695","","0.0614883172","","","","","","",""
"28","","bandit","168","435682","0.0-130.0-0.0","99756179","wem/bandit_single","A3F6SDO4GYBE4Y","gain","1","","74","J","1","","0","0","1","0.2595992258","","false","93","0.3846532122","","main_expt","0.2595992258","","0.2589688886","","0.0764333552","","","","","","",""
"540","","bandit","169","438028","0.0-131.0-0.0","99756179","wem/bandit_single","A3F6SDO4GYBE4Y","gain","1","","76","L","3","","0","0","1","0.1280824273","","false","94","0.4017211595","","main_expt","0.206568391","","0.2699529923","","0.1280824273","","","","","","",""
"12","","bandit","170","439823","0.0-132.0-0.0","99756179","wem/bandit_single","A3F6SDO4GYBE4Y","gain","1","","72","H","0","img/none_selected.jpg","0","0","1","0.3736639641","","false","95","0.3736639641","","main_expt","0.1846794781","","0.2626559999","","0.1191245721","","","","","","",""
"14","","bandit","171","441617","0.0-133.0-0.0","99756179","wem/bandit_single","A3F6SDO4GYBE4Y","gain","1","","74","J","1","","0","0","1","0.2484851932","","false","96","0.3220453652","","main_expt","0.2484851932","","0.2196428224","","0.08526153109","","","","","","",""
"368","","bandit","172","443773","0.0-134.0-0.0","99756179","wem/bandit_single","A3F6SDO4GYBE4Y","gain","1","","72","H","0","img/none_selected.jpg","1","0","0","0.2964534367","","false","97","0.2964534367","","main_expt","0.198145661","","0.1922289922","","0.0775518538","","","","","","",""
"12","","bandit","173","445569","0.0-135.0-0.0","99756179","wem/bandit_single","A3F6SDO4GYBE4Y","gain","1","","72","H","0","img/none_selected.jpg","0","0","1","0.3388366936","","false","98","0.3388366936","","main_expt","0.1738253929","","0.2328023708","","0.08824897118","","","","","","",""
"93","","bandit","174","447467","0.0-136.0-0.0","99756179","wem/bandit_single","A3F6SDO4GYBE4Y","gain","1","","74","J","1","","0","0","1","0.1261523865","","false","99","0.4233536788","","main_expt","0.1261523865","","0.2606341713","","0.08912321317","","","","","","",""
"675","","bandit","175","449928","0.0-137.0-0.0","99756179","wem/bandit_single","A3F6SDO4GYBE4Y","gain","1","","75","K","2","","0","0","1","0.310387162","","false","100","0.3799029244","","main_expt","0.1368684177","","0.310387162","","0.1217067293","","","","","","",""
"610","","bandit","176","452318","0.0-138.0-0.0","99756179","wem/bandit_single","A3F6SDO4GYBE4Y","gain","1","","76","L","3","","0","0","1","0.08537200695","","false","101","0.3644029447","","main_expt","0.1262970555","","0.3802628165","","0.08537200695","","","","","","",""
"498","","bandit","177","454604","0.0-139.0-0.0","99756179","wem/bandit_single","A3F6SDO4GYBE4Y","gain","1","","72","H","0","img/none_selected.jpg","1","0","0","0.3414838768","","false","102","0.3414838768","","main_expt","0.1022564356","","0.4133848668","","0.09606980913","","","","","","",""
"44","","bandit","178","456433","0.0-140.0-0.0","99756179","wem/bandit_single","A3F6SDO4GYBE4Y","gain","1","","72","H","0","img/none_selected.jpg","0","0","1","0.3691073091","","false","103","0.3691073091","","main_expt","0.07046703442","","0.4352089555","","0.09968925047","","","","","","",""
"66","","bandit","179","458274","0.0-141.0-0.0","99756179","wem/bandit_single","A3F6SDO4GYBE4Y","gain","1","","74","J","1","","0","0","1","0.08582175226","","false","104","0.3386210986","","main_expt","0.08582175226","","0.4248252031","","0.1070137741","","","","","","",""
"536","","bandit","180","460588","0.0-142.0-0.0","99756179","wem/bandit_single","A3F6SDO4GYBE4Y","gain","1","","74","J","1","","0","0","1","0.08910626196","","false","105","0.3517858304","","main_expt","0.08910626196","","0.4382512542","","0.1086060941","","","","","","",""
"14","","bandit","181","462372","0.0-143.0-0.0","99756179","wem/bandit_single","A3F6SDO4GYBE4Y","gain","1","","72","H","0","img/none_selected.jpg","1","0","0","0.4016578568","","false","106","0.4016578568","","main_expt","0.09380004764","","0.4551412652","","0.1006724549","","","","","","",""
"11","","bandit","182","464175","0.0-144.0-0.0","99756179","wem/bandit_single","A3F6SDO4GYBE4Y","gain","1","","72","H","0","img/none_selected.jpg","0","0","1","0.3951748439","","false","107","0.3951748439","","main_expt","0.08916311959","","0.4481373055","","0.07769839914","","","","","","",""
"32","","bandit","183","465981","0.0-145.0-0.0","99756179","wem/bandit_single","A3F6SDO4GYBE4Y","gain","1","","72","H","0","img/none_selected.jpg","1","0","0","0.3933810371","","false","108","0.3933810371","","main_expt","0.1635033392","","0.4611843773","","0.09470950607","","","","","","",""
"22","","bandit","184","467772","0.0-146.0-0.0","99756179","wem/bandit_single","A3F6SDO4GYBE4Y","gain","1","","72","H","0","img/none_selected.jpg","1","0","0","0.3961603237","","false","109","0.3961603237","","main_expt","0.1923408453","","0.416280782","","0.1117426234","","","","","","",""
"31","","bandit","185","469578","0.0-147.0-0.0","99756179","wem/bandit_single","A3F6SDO4GYBE4Y","gain","1","","72","H","0","img/none_selected.jpg","1","0","0","0.3933476799","","false","110","0.3933476799","","main_expt","0.1668397223","","0.3959176693","","0.1190643529","","","","","","",""
"30","","bandit","186","471392","0.0-148.0-0.0","99756179","wem/bandit_single","A3F6SDO4GYBE4Y","gain","1","","72","H","0","img/none_selected.jpg","0","0","1","0.3953313537","","false","111","0.3953313537","","main_expt","0.1254506171","","0.3881072513","","0.1605091549","","","","","","",""
"654","","bandit","187","473829","0.0-149.0-0.0","99756179","wem/bandit_single","A3F6SDO4GYBE4Y","gain","1","","72","H","0","img/none_selected.jpg","0","0","1","0.3398422341","","false","112","0.3398422341","","main_expt","0.1596839241","","0.3430735849","","0.1531505469","","","","","","",""
"853","","bandit","188","476469","0.0-150.0-0.0","99756179","wem/bandit_single","A3F6SDO4GYBE4Y","gain","1","","72","H","0","img/none_selected.jpg","1","0","0","0.375538402","","false","113","0.375538402","","main_expt","0.1986187203","","0.3036143476","","0.1796188848","","","","","","",""
"23","","bandit","189","478258","0.0-151.0-0.0","99756179","wem/bandit_single","A3F6SDO4GYBE4Y","gain","1","","72","H","0","img/none_selected.jpg","0","0","1","0.3629483147","","false","114","0.3629483147","","main_expt","0.2334514198","","0.3581708668","","0.1820080726","","","","","","",""
"47","","bandit","190","480078","0.0-152.0-0.0","99756179","wem/bandit_single","A3F6SDO4GYBE4Y","gain","1","","72","H","0","img/none_selected.jpg","1","0","0","0.2969550108","","false","115","0.2969550108","","main_expt","0.1892672839","","0.2948471219","","0.2050936175","","","","","","",""
"334","","bandit","191","482215","0.0-153.0-0.0","99756179","wem/bandit_single","A3F6SDO4GYBE4Y","gain","1","","72","H","0","img/none_selected.jpg","0","0","1","0.260261953","","false","116","0.260261953","","main_expt","0.1507180646","","0.2711132382","","0.2071503316","","","","","","",""
"150","","bandit","192","484148","0.0-154.0-0.0","99756179","wem/bandit_single","A3F6SDO4GYBE4Y","gain","1","","74","J","1","","0","0","1","0.1830546279","","false","117","0.2626326191","","main_expt","0.1830546279","","0.3124997295","","0.2359882763","","","","","","",""
"55","","bandit","193","485996","0.0-155.0-0.0","99756179","wem/bandit_single","A3F6SDO4GYBE4Y","gain","1","","72","H","0","img/none_selected.jpg","1","0","0","0.2933310536","","false","118","0.2933310536","","main_expt","0.1415506149","","0.3888019654","","0.2388261631","","","","","","",""
"35","","bandit","194","487817","0.0-156.0-0.0","99756179","wem/bandit_single","A3F6SDO4GYBE4Y","gain","1","","72","H","0","img/none_selected.jpg","0","0","1","0.2469992957","","false","119","0.2469992957","","main_expt","0.1814909568","","0.3695751837","","0.2470137322","","","","","","",""
"11","","bandit","195","489615","0.0-157.0-0.0","99756179","wem/bandit_single","A3F6SDO4GYBE4Y","gain","1","","72","H","0","img/none_selected.jpg","1","0","0","0.2186909282","","false","120","0.2186909282","","main_expt","0.1900691043","","0.3471196364","","0.209676098","","","","","","",""
"36","","bandit","196","491447","0.0-158.0-0.0","99756179","wem/bandit_single","A3F6SDO4GYBE4Y","gain","1","","72","H","0","img/none_selected.jpg","0","0","1","0.1915374776","","false","121","0.1915374776","","main_expt","0.2002257321","","0.3164400491","","0.2058519679","","","","","","",""
"36","","bandit","197","493251","0.0-159.0-0.0","99756179","wem/bandit_single","A3F6SDO4GYBE4Y","gain","1","","72","H","0","img/none_selected.jpg","1","0","0","0.1666700693","","false","122","0.1666700693","","main_expt","0.2000360786","","0.3565888941","","0.1409467191","","","","","","",""
"1","","bandit","198","495019","0.0-160.0-0.0","99756179","wem/bandit_single","A3F6SDO4GYBE4Y","gain","1","","72","H","0","img/none_selected.jpg","0","0","1","0.1779758636","","false","123","0.1779758636","","main_expt","0.1656706666","","0.3293983066","","0.08785727187","","","","","","",""
"13","","bandit","199","496819","0.0-161.0-0.0","99756179","wem/bandit_single","A3F6SDO4GYBE4Y","gain","1","","72","H","0","img/none_selected.jpg","0","0","1","0.2483730269","","false","124","0.2483730269","","main_expt","0.2433115295","","0.3202360925","","0.1153756664","","","","","","",""
"1363","","bandit","200","499972","0.0-162.0-0.0","99756179","wem/bandit_single","A3F6SDO4GYBE4Y","gain","1","","72","H","0","img/none_selected.jpg","0","0","1","0.2274485556","","false","125","0.2274485556","","main_expt","0.1810024247","","0.3478690395","","0.1211147435","","","","","","",""
"3","","bandit","201","501759","0.0-163.0-0.0","99756179","wem/bandit_single","A3F6SDO4GYBE4Y","gain","1","","74","J","1","","0","0","1","0.2138299762","","false","126","0.2506805994","","main_expt","0.2138299762","","0.3312811416","","0.1434737457","","","","","","",""
"576","","bandit","202","504124","0.0-164.0-0.0","99756179","wem/bandit_single","A3F6SDO4GYBE4Y","gain","1","","76","L","3","","0","0","1","0.1970801631","","false","127","0.2520497492","","main_expt","0.1993304114","","0.2641060438","","0.1970801631","","","","","","",""
"25","","bandit","203","505918","0.0-165.0-0.0","99756179","wem/bandit_single","A3F6SDO4GYBE4Y","gain","1","","75","K","2","","0","0","1","0.2239657692","","false","128","0.1948091286","","main_expt","0.2602773644","","0.2239657692","","0.2891253811","","","","","","",""
"2","","bandit","204","507713","0.0-166.0-0.0","99756179","wem/bandit_single","A3F6SDO4GYBE4Y","gain","1","","72","H","0","img/none_selected.jpg","0","0","1","0.1749799719","","false","129","0.1749799719","","main_expt","0.2960784606","","0.2243581634","","0.2389970352","","","","","","",""
"50","","bandit","205","509570","0.0-167.0-0.0","99756179","wem/bandit_single","A3F6SDO4GYBE4Y","gain","1","","72","H","0","img/none_selected.jpg","0","0","1","0.1950546205","","false","130","0.1950546205","","main_expt","0.2720271615","","0.2215765871","","0.2613596901","","","","","","",""
"35","","bandit","206","511386","0.0-168.0-0.0","99756179","wem/bandit_single","A3F6SDO4GYBE4Y","gain","1","","72","H","0","img/none_selected.jpg","0","0","1","0.2501377387","","false","131","0.2501377387","","main_expt","0.2403459828","","0.1796651873","","0.2254289723","","","","","","",""
"862","","bandit","207","514026","0.0-169.0-0.0","99756179","wem/bandit_single","A3F6SDO4GYBE4Y","gain","1","","72","H","0","img/none_selected.jpg","0","0","1","0.2275015869","","false","132","0.2275015869","","main_expt","0.2261584059","","0.1946412172","","0.2759434303","","","","","","",""
"23","","bandit","208","515826","0.0-170.0-0.0","99756179","wem/bandit_single","A3F6SDO4GYBE4Y","gain","1","","74","J","1","","0","0","1","0.225512635","","false","133","0.1961271051","","main_expt","0.225512635","","0.2390261597","","0.3153186182","","","","","","",""
"322","","bandit","209","517941","0.0-171.0-0.0","99756179","wem/bandit_single","A3F6SDO4GYBE4Y","gain","1","","74","J","1","","0","0","1","0.2119287539","","false","134","0.2508816485","","main_expt","0.2119287539","","0.227958871","","0.2950667763","","","","","","",""
"81","","bandit","210","519809","0.0-172.0-0.0","99756179","wem/bandit_single","A3F6SDO4GYBE4Y","gain","1","","72","H","0","img/none_selected.jpg","0","0","1","0.3394706536","","false","135","0.3394706536","","main_expt","0.1980603764","","0.2312014448","","0.3307223606","","","","","","",""
"62","","bandit","211","521656","0.0-173.0-0.0","99756179","wem/bandit_single","A3F6SDO4GYBE4Y","gain","1","","72","H","0","img/none_selected.jpg","0","0","1","0.2837829406","","false","136","0.2837829406","","main_expt","0.2325476757","","0.27599984","","0.3298223854","","","","","","",""
"50","","bandit","212","523487","0.0-174.0-0.0","99756179","wem/bandit_single","A3F6SDO4GYBE4Y","gain","1","","76","L","3","","0","0","1","0.3330531331","","false","137","0.3024244849","","main_expt","0.2334264213","","0.2313694212","","0.3330531331","","","","","","",""
"124","","bandit","213","525408","0.0-175.0-0.0","99756179","wem/bandit_single","A3F6SDO4GYBE4Y","gain","1","","74","J","1","","0","0","1","0.3107735177","","false","138","0.3473265679","","main_expt","0.3107735177","","0.1816115857","","0.292929501","","","","","","",""
"1","","bandit","214","527199","0.0-176.0-0.0","99756179","wem/bandit_single","A3F6SDO4GYBE4Y","gain","1","","72","H","0","img/none_selected.jpg","0","0","1","0.2828336224","","false","139","0.2828336224","","main_expt","0.3374098654","","0.1658496667","","0.2849421758","","","","","","",""
"32","","bandit","215","529018","0.0-177.0-0.0","99756179","wem/bandit_single","A3F6SDO4GYBE4Y","gain","1","","72","H","0","img/none_selected.jpg","0","0","1","0.3238397914","","false","140","0.3238397914","","main_expt","0.3401298673","","0.1644365985","","0.3149573531","","","","","","",""
"61","","bandit","216","530869","0.0-178.0-0.0","99756179","wem/bandit_single","A3F6SDO4GYBE4Y","gain","1","","75","K","2","","0","0","1","0.16055167","","false","141","0.3490905252","","main_expt","0.363539884","","0.16055167","","0.2937847178","","","","","","",""
"542","","bandit","217","533204","0.0-179.0-0.0","99756179","wem/bandit_single","A3F6SDO4GYBE4Y","gain","1","","75","K","2","","0","0","1","0.1426499966","","false","142","0.337853111","","main_expt","0.3207651517","","0.1426499966","","0.2695919138","","","","","","",""
"17","","bandit","218","535002","0.0-180.0-0.0","99756179","wem/bandit_single","A3F6SDO4GYBE4Y","gain","1","","72","H","0","img/none_selected.jpg","0","0","1","0.3475703167","","false","143","0.3475703167","","main_expt","0.2976941359","","0.1133276474","","0.206179854","","","","","","",""
"47","","bandit","219","536836","0.0-181.0-0.0","99756179","wem/bandit_single","A3F6SDO4GYBE4Y","gain","1","","72","H","0","img/none_selected.jpg","1","0","0","0.3809945211","","false","144","0.3809945211","","main_expt","0.2405576463","","0.1351054788","","0.2123329462","","","","","","",""
"16","","bandit","220","538626","0.0-182.0-0.0","99756179","wem/bandit_single","A3F6SDO4GYBE4Y","gain","1","","72","H","0","img/none_selected.jpg","0","0","1","0.3842622547","","false","145","0.3842622547","","main_expt","0.2513929943","","0.1703546958","","0.2144195617","","","","","","",""
"50","","bandit","221","540460","0.0-183.0-0.0","99756179","wem/bandit_single","A3F6SDO4GYBE4Y","gain","1","","72","H","0","img/none_selected.jpg","1","0","0","0.4068715463","","false","146","0.4068715463","","main_expt","0.2665850657","","0.1382352341","","0.2264269311","","","","","","",""
"476","","bandit","222","542722","0.0-184.0-0.0","99756179","wem/bandit_single","A3F6SDO4GYBE4Y","gain","1","","72","H","0","img/none_selected.jpg","1","0","0","0.3690267696","","false","147","0.3690267696","","main_expt","0.2742171136","","0.1111211324","","0.2458089499","","","","","","",""
"628","","bandit","223","545134","0.0-185.0-0.0","99756179","wem/bandit_single","A3F6SDO4GYBE4Y","gain","1","","72","H","0","img/none_selected.jpg","1","0","0","0.3999465919","","false","148","0.3999465919","","main_expt","0.2504516377","","0.1046256567","","0.2581131455","","","","","","",""
"50","","bandit","224","546983","0.0-186.0-0.0","99756179","wem/bandit_single","A3F6SDO4GYBE4Y","gain","1","","72","H","0","img/none_selected.jpg","1","0","0","0.3823047489","","false","149","0.3823047489","","main_expt","0.2749888299","","0.09450025474","","0.2055420423","","","","","","",""
"43","","bandit","225","548809","0.0-187.0-0.0","99756179","wem/bandit_single","A3F6SDO4GYBE4Y","gain","1","","72","H","0","img/none_selected.jpg","0","0","1","0.3970301866","","false","150","0.3970301866","","main_expt","0.2199302859","","0.08682851814","","0.2196547661","","","","","","",""
"221","","bandit","226","550809","0.0-188.0-0.0","99756179","wem/bandit_single","A3F6SDO4GYBE4Y","gain","1","","72","H","0","img/none_selected.jpg","0","0","1","0.4141828336","","false","151","0.4141828336","","main_expt","0.228921305","","0.0775356828","","0.2311854424","","","","","","",""
"1475","","bandit","227","554055","0.0-189.0-0.0","99756179","wem/bandit_single","A3F6SDO4GYBE4Y","gain","1","","72","H","0","img/none_selected.jpg","1","0","0","0.4233092002","","false","152","0.4233092002","","main_expt","0.1858313389","","0.08719832593","","0.2692750042","","","","","","",""
"48","","bandit","228","555895","0.0-190.0-0.0","99756179","wem/bandit_single","A3F6SDO4GYBE4Y","gain","1","","72","H","0","img/none_selected.jpg","1","0","0","0.3961827626","","false","153","0.3961827626","","main_expt","0.2253380596","","0.06950392785","","0.3209664266","","","","","","",""
"438","","bandit","229","558116","0.0-191.0-0.0","99756179","wem/bandit_single","A3F6SDO4GYBE4Y","gain","1","","72","H","0","img/none_selected.jpg","1","0","0","0.4023640633","","false","154","0.4023640633","","main_expt","0.1787374968","","0.09734883616","","0.2633096479","","","","","","",""
"69","","bandit","230","559983","0.0-192.0-0.0","99756179","wem/bandit_single","A3F6SDO4GYBE4Y","gain","1","","72","H","0","img/none_selected.jpg","0","0","1","0.3927422998","","false","155","0.3927422998","","main_expt","0.1026625787","","0.1078867986","","0.2611493198","","","","","","",""
"17","","bandit","231","561779","0.0-193.0-0.0","99756179","wem/bandit_single","A3F6SDO4GYBE4Y","gain","1","","72","H","0","img/none_selected.jpg","1","0","0","0.3696188161","","false","156","0.3696188161","","main_expt","0.1201393653","","0.09294383108","","0.2556392324","","","","","","",""
"359","","bandit","232","563937","0.0-194.0-0.0","99756179","wem/bandit_single","A3F6SDO4GYBE4Y","gain","1","","72","H","0","img/none_selected.jpg","1","0","0","0.3562863837","","false","157","0.3562863837","","main_expt","0.1601810659","","0.1344904143","","0.2237912435","","","","","","",""
"33","","bandit","233","565769","0.0-195.0-0.0","99756179","wem/bandit_single","A3F6SDO4GYBE4Y","gain","1","","72","H","0","img/none_selected.jpg","0","0","1","0.3891013447","","false","158","0.3891013447","","main_expt","0.2178666355","","0.1682501471","","0.2269937079","","","","","","",""
"51","","bandit","234","567610","0.0-196.0-0.0","99756179","wem/bandit_single","A3F6SDO4GYBE4Y","gain","1","","72","H","0","img/none_selected.jpg","0","0","1","0.3771509201","","false","159","0.3771509201","","main_expt","0.2088119712","","0.1859978291","","0.2244600926","","","","","","",""
"937","","bandit","235","570345","0.0-197.0-0.0","99756179","wem/bandit_single","A3F6SDO4GYBE4Y","gain","1","","72","H","0","img/none_selected.jpg","0","0","1","0.3677966378","","false","160","0.3677966378","","main_expt","0.2853399033","","0.1169857497","","0.231654425","","","","","","",""
"391","","bandit","236","572527","0.0-198.0-0.0","99756179","wem/bandit_single","A3F6SDO4GYBE4Y","gain","1","","72","H","0","img/none_selected.jpg","0","0","1","0.3691576932","","false","161","0.3691576932","","main_expt","0.2755093387","","0.1131976547","","0.2415747561","","","","","","",""
"141","","bandit","237","574461","0.0-199.0-0.0","99756179","wem/bandit_single","A3F6SDO4GYBE4Y","gain","1","","72","H","0","img/none_selected.jpg","0","0","1","0.3102253273","","false","162","0.3102253273","","main_expt","0.2706635439","","0.1560378341","","0.1807921844","","","","","","",""
"204","","bandit","238","576456","0.0-200.0-0.0","99756179","wem/bandit_single","A3F6SDO4GYBE4Y","gain","1","","72","H","0","img/none_selected.jpg","0","0","1","0.3361037566","","false","163","0.3361037566","","main_expt","0.2856851073","","0.1200759877","","0.1986212186","","","","","","",""
"240","","bandit","239","578508","0.0-201.0-0.0","99756179","wem/bandit_single","A3F6SDO4GYBE4Y","gain","1","","72","H","0","img/none_selected.jpg","0","0","1","0.3097300036","","false","164","0.3097300036","","main_expt","0.3188827228","","0.1198838954","","0.1799022971","","","","","","",""
"455","","bandit","240","580747","0.0-202.0-0.0","99756179","wem/bandit_single","A3F6SDO4GYBE4Y","gain","1","","72","H","0","img/none_selected.jpg","0","0","1","0.3234169084","","false","165","0.3234169084","","main_expt","0.3258940933","","0.1397308529","","0.2610149466","","","","","","",""
"33","","bandit","241","582558","0.0-203.0-0.0","99756179","wem/bandit_single","A3F6SDO4GYBE4Y","gain","1","","74","J","1","","0","0","1","0.3525092479","","false","166","0.3201458278","","main_expt","0.3525092479","","0.1506282743","","0.2673729835","","","","","","",""
"84","","bandit","242","584442","0.0-204.0-0.0","99756179","wem/bandit_single","A3F6SDO4GYBE4Y","gain","1","","72","H","0","img/none_selected.jpg","0","0","1","0.366643239","","false","167","0.366643239","","main_expt","0.3919017073","","0.1407574557","","0.169486101","","","","","","",""
"702","","bandit","243","586946","0.0-205.0-0.0","99756179","wem/bandit_single","A3F6SDO4GYBE4Y","gain","1","","72","H","0","img/none_selected.jpg","1","0","0","0.3877512758","","false","168","0.3877512758","","main_expt","0.3855955566","","0.1217255528","","0.1997030364","","","","","","",""
"66","","bandit","244","588822","0.0-206.0-0.0","99756179","wem/bandit_single","A3F6SDO4GYBE4Y","gain","1","","72","H","0","img/none_selected.jpg","1","0","0","0.3733196812","","false","169","0.3733196812","","main_expt","0.3882436634","","0.118108524","","0.2391799942","","","","","","",""
"15","","bandit","245","590616","0.0-207.0-0.0","99756179","wem/bandit_single","A3F6SDO4GYBE4Y","gain","1","","72","H","0","img/none_selected.jpg","1","0","0","0.3616719183","","false","170","0.3616719183","","main_expt","0.4096789578","","0.0750780909","","0.2239577552","","","","","","",""
"28","","bandit","246","592428","0.0-208.0-0.0","99756179","wem/bandit_single","A3F6SDO4GYBE4Y","gain","1","","72","H","0","img/none_selected.jpg","0","0","1","0.3222484871","","false","171","0.3222484871","","main_expt","0.4326257363","","0.07048665386","","0.2175962327","","","","","","",""
"17","","bandit","247","594234","0.0-209.0-0.0","99756179","wem/bandit_single","A3F6SDO4GYBE4Y","gain","1","","72","H","0","img/none_selected.jpg","1","0","0","0.2849842628","","false","172","0.2849842628","","main_expt","0.4381189537","","0.09439478605","","0.2061205584","","","","","","",""
"19","","bandit","248","596043","0.0-210.0-0.0","99756179","wem/bandit_single","A3F6SDO4GYBE4Y","gain","1","","72","H","0","img/none_selected.jpg","1","0","0","0.2896949147","","false","173","0.2896949147","","main_expt","0.3823577146","","0.05932603211","","0.1787022686","","","","","","",""
"10","","bandit","249","597829","0.0-211.0-0.0","99756179","wem/bandit_single","A3F6SDO4GYBE4Y","gain","1","","72","H","0","img/none_selected.jpg","0","0","1","0.260829927","","false","174","0.260829927","","main_expt","0.4155511425","","0.1019229976","","0.1782801474","","","","","","",""
"130","","bandit","250","599748","0.0-212.0-0.0","99756179","wem/bandit_single","A3F6SDO4GYBE4Y","gain","1","","72","H","0","img/none_selected.jpg","0","0","1","0.1608433896","","false","175","0.1608433896","","main_expt","0.4391025654","","0.1270031357","","0.1723114597","","","","","","",""
"67","","bandit","251","601596","0.0-213.0-0.0","99756179","wem/bandit_single","A3F6SDO4GYBE4Y","gain","1","","72","H","0","img/none_selected.jpg","0","0","1","0.1924323662","","false","176","0.1924323662","","main_expt","0.4654332747","","0.1519507126","","0.1714247165","","","","","","",""
"2316","","bandit","252","605697","0.0-214.0-0.0","99756179","wem/bandit_single","A3F6SDO4GYBE4Y","gain","1","","72","H","0","img/none_selected.jpg","0","0","1","0.1942299772","","false","177","0.1942299772","","main_expt","0.4862166952","","0.2645819263","","0.2003569552","","","","","","",""
"88","","bandit","253","607583","0.0-215.0-0.0","99756179","wem/bandit_single","A3F6SDO4GYBE4Y","gain","1","","72","H","0","img/none_selected.jpg","0","0","1","0.2266891382","","false","178","0.2266891382","","main_expt","0.4878504479","","0.2497033982","","0.1848954505","","","","","","",""
"117","","bandit","254","609497","0.0-216.0-0.0","99756179","wem/bandit_single","A3F6SDO4GYBE4Y","gain","1","","72","H","0","img/none_selected.jpg","1","0","0","0.193755509","","false","179","0.193755509","","main_expt","0.4925433574","","0.2464833147","","0.120488448","","","","","","",""
"1862","","bandit","255","613163","0.0-217.0-0.0","99756179","wem/bandit_single","A3F6SDO4GYBE4Y","gain","1","","72","H","0","img/none_selected.jpg","0","0","1","0.2143300014","","false","180","0.2143300014","","main_expt","0.4863546804","","0.191435525","","0.09518531587","","","","","","",""
"205","","bandit","256","615157","0.0-218.0-0.0","99756179","wem/bandit_single","A3F6SDO4GYBE4Y","gain","1","","72","H","0","img/none_selected.jpg","1","0","0","0.1996101457","","false","181","0.1996101457","","main_expt","0.4898831258","","0.2095150634","","0.1110105533","","","","","","",""
"368","","bandit","257","617316","0.0-219.0-0.0","99756179","wem/bandit_single","A3F6SDO4GYBE4Y","gain","1","","72","H","0","img/none_selected.jpg","0","0","1","0.220362663","","false","182","0.220362663","","main_expt","0.4702328405","","0.2238619417","","0.1321710188","","","","","","",""
"565","","bandit","258","619657","0.0-220.0-0.0","99756179","wem/bandit_single","A3F6SDO4GYBE4Y","gain","1","","72","H","0","img/none_selected.jpg","1","0","0","0.2087999581","","false","183","0.2087999581","","main_expt","0.4443650637","","0.172430875","","0.07205074818","","","","","","",""
"568","","bandit","259","622014","0.0-221.0-0.0","99756179","wem/bandit_single","A3F6SDO4GYBE4Y","gain","1","","72","H","0","img/none_selected.jpg","1","0","0","0.2693368533","","false","184","0.2693368533","","main_expt","0.4395551327","","0.1537152065","","0.08140980564","","","","","","",""
"446","","bandit","260","624256","0.0-222.0-0.0","99756179","wem/bandit_single","A3F6SDO4GYBE4Y","gain","1","","72","H","0","img/none_selected.jpg","1","0","0","0.3177788722","","false","185","0.3177788722","","main_expt","0.427498872","","0.1089078126","","0.07005875891","","","","","","",""
"96","","bandit","261","626135","0.0-223.0-0.0","99756179","wem/bandit_single","A3F6SDO4GYBE4Y","gain","1","","72","H","0","img/none_selected.jpg","0","0","1","0.3093747324","","false","186","0.3093747324","","main_expt","0.4126395781","","0.1150542287","","0.04712836877","","","","","","",""
"117","","bandit","262","628027","0.0-224.0-0.0","99756179","wem/bandit_single","A3F6SDO4GYBE4Y","gain","1","","72","H","0","img/none_selected.jpg","1","0","0","0.3361469263","","false","187","0.3361469263","","main_expt","0.4059631444","","0.07877539194","","0.07097221374","","","","","","",""
"177","","bandit","263","630002","0.0-225.0-0.0","99756179","wem/bandit_single","A3F6SDO4GYBE4Y","gain","1","","72","H","0","img/none_selected.jpg","0","0","1","0.3096611705","","false","188","0.3096611705","","main_expt","0.4007853126","","0.06234325246","","0.04255461481","","","","","","",""
"552","","bandit","264","632350","0.0-226.0-0.0","99756179","wem/bandit_single","A3F6SDO4GYBE4Y","gain","1","","72","H","0","img/none_selected.jpg","0","0","1","0.298651231","","false","189","0.298651231","","main_expt","0.4208201059","","0.07748383332","","0.03834091028","","","","","","",""
"191","","bandit","265","634343","0.0-227.0-0.0","99756179","wem/bandit_single","A3F6SDO4GYBE4Y","gain","1","","72","H","0","img/none_selected.jpg","0","0","1","0.3361123746","","false","190","0.3361123746","","main_expt","0.4249824956","","0.08864116925","","0.03101500858","","","","","","",""
"31","","bandit","266","636168","0.0-228.0-0.0","99756179","wem/bandit_single","A3F6SDO4GYBE4Y","gain","1","","72","H","0","img/none_selected.jpg","0","0","1","0.3529126189","","false","191","0.3529126189","","main_expt","0.4519194686","","0.1114019665","","0.05137759752","","","","","","",""
"37","","bandit","267","638000","0.0-229.0-0.0","99756179","wem/bandit_single","A3F6SDO4GYBE4Y","gain","1","","74","J","1","","1","0","0","0.449072141","","false","192","0.3806900048","","main_expt","0.449072141","","0.0944181321","","0.05101019331","","","","","","",""
"1","","bandit","268","639781","0.0-230.0-0.0","99756179","wem/bandit_single","A3F6SDO4GYBE4Y","gain","1","","74","J","1","","0","0","1","0.4069092802","","false","193","0.3191299148","","main_expt","0.4069092802","","0.09015445577","","0.0408087357","","","","","","",""
"11","","bandit","269","641587","0.0-231.0-0.0","99756179","wem/bandit_single","A3F6SDO4GYBE4Y","gain","1","","74","J","1","","0","0","1","0.399300076","","false","194","0.3350705725","","main_expt","0.399300076","","0.09569888082","","0.04787233925","","","","","","",""
"469","","bandit","270","643854","0.0-232.0-0.0","99756179","wem/bandit_single","A3F6SDO4GYBE4Y","gain","1","","72","H","0","img/none_selected.jpg","0","0","1","0.3579412151","","false","195","0.3579412151","","main_expt","0.4028519225","","0.1521563302","","0.07297342555","","","","","","",""
"20","","bandit","271","645656","0.0-233.0-0.0","99756179","wem/bandit_single","A3F6SDO4GYBE4Y","gain","1","","76","L","3","","0","0","1","0.1090796252","","false","196","0.4135102269","","main_expt","0.3708283831","","0.1612876033","","0.1090796252","","","","","","",""
"477","","bandit","272","647925","0.0-234.0-0.0","99756179","wem/bandit_single","A3F6SDO4GYBE4Y","gain","1","","72","H","0","img/none_selected.jpg","1","0","0","0.4368922102","","false","197","0.4368922102","","main_expt","0.3992028251","","0.1818980103","","0.1141593934","","","","","","",""
"56","","bandit","273","649774","0.0-235.0-0.0","99756179","wem/bandit_single","A3F6SDO4GYBE4Y","gain","1","","72","H","0","img/none_selected.jpg","1","0","0","0.4329908538","","false","198","0.4329908538","","main_expt","0.3662313723","","0.1426991491","","0.1247063377","","","","","","",""
"6","","bandit","274","651597","0.0-236.0-0.0","99756179","wem/bandit_single","A3F6SDO4GYBE4Y","gain","1","","72","H","0","img/none_selected.jpg","0","0","1","0.4458308372","","false","199","0.4458308372","","main_expt","0.3667285709","","0.1339470975","","0.1324590526","","","","","","",""
"476","","bandit","275","653865","0.0-237.0-0.0","99756179","wem/bandit_single","A3F6SDO4GYBE4Y","gain","1","","72","H","0","img/none_selected.jpg","1","0","0","0.4535445428","","false","200","0.4535445428","","main_expt","0.365396467","","0.1615481579","","0.1062358191","","","","","","",""
"123","","bandit","276","655771","0.0-238.0-0.0","99756179","wem/bandit_single","A3F6SDO4GYBE4Y","gain","1","","72","H","0","img/none_selected.jpg","1","0","0","0.4258040833","","false","201","0.4258040833","","main_expt","0.3413602931","","0.1889616495","","0.1027729413","","","","","","",""
"65","","bandit","277","657619","0.0-239.0-0.0","99756179","wem/bandit_single","A3F6SDO4GYBE4Y","gain","1","","72","H","0","img/none_selected.jpg","0","0","1","0.413157784","","false","202","0.413157784","","main_expt","0.3655369163","","0.2043886565","","0.09207086273","","","","","","",""
"108","","bandit","278","659528","0.0-240.0-0.0","99756179","wem/bandit_single","A3F6SDO4GYBE4Y","gain","1","","72","H","0","img/none_selected.jpg","1","0","0","0.358983575","","false","203","0.358983575","","main_expt","0.3301706169","","0.2274570119","","0.1409949376","","","","","","",""
"544","","bandit","279","661869","0.0-241.0-0.0","99756179","wem/bandit_single","A3F6SDO4GYBE4Y","gain","1","","72","H","0","img/none_selected.jpg","1","0","0","0.3354839288","","false","204","0.3354839288","","main_expt","0.3305557625","","0.1795680912","","0.2067441942","","","","","","",""
"108","","bandit","280","663780","0.0-242.0-0.0","99756179","wem/bandit_single","A3F6SDO4GYBE4Y","gain","1","","72","H","0","img/none_selected.jpg","0","0","1","0.3814446138","","false","205","0.3814446138","","main_expt","0.3332543728","","0.1823506393","","0.2171549514","","","","","","",""
"6","","bandit","281","665572","0.0-243.0-0.0","99756179","wem/bandit_single","A3F6SDO4GYBE4Y","gain","1","","72","H","0","img/none_selected.jpg","1","0","0","0.4069937863","","false","206","0.4069937863","","main_expt","0.270761893","","0.1401809595","","0.1399251859","","","","","","",""
"18","","bandit","282","667374","0.0-244.0-0.0","99756179","wem/bandit_single","A3F6SDO4GYBE4Y","gain","1","","72","H","0","img/none_selected.jpg","1","0","0","0.4261201247","","false","207","0.4261201247","","main_expt","0.2595670132","","0.1651993972","","0.1700254018","","","","","","",""
"564","","bandit","283","669744","0.0-245.0-0.0","99756179","wem/bandit_single","A3F6SDO4GYBE4Y","gain","1","","72","H","0","img/none_selected.jpg","1","0","0","0.4105702951","","false","208","0.4105702951","","main_expt","0.2772442529","","0.1803987852","","0.1831619311","","","","","","",""
"32","","bandit","284","671561","0.0-246.0-0.0","99756179","wem/bandit_single","A3F6SDO4GYBE4Y","gain","1","","72","H","0","img/none_selected.jpg","1","0","0","0.402481318","","false","209","0.402481318","","main_expt","0.2654441326","","0.1470434113","","0.151215806","","","","","","",""
"31","","bandit","285","673388","0.0-247.0-0.0","99756179","wem/bandit_single","A3F6SDO4GYBE4Y","gain","1","","72","H","0","img/none_selected.jpg","1","0","0","0.4378094136","","false","210","0.4378094136","","main_expt","0.2475709295","","0.1375860563","","0.1841878728","","","","","","",""
"1","","bandit","286","675162","0.0-248.0-0.0","99756179","wem/bandit_single","A3F6SDO4GYBE4Y","gain","1","","72","H","0","img/none_selected.jpg","0","0","1","0.4174257438","","false","211","0.4174257438","","main_expt","0.1836637302","","0.1181257803","","0.190591144","","","","","","",""
"95","","bandit","287","677044","0.0-249.0-0.0","99756179","wem/bandit_single","A3F6SDO4GYBE4Y","gain","1","","72","H","0","img/none_selected.jpg","0","0","1","0.4235695044","","false","212","0.4235695044","","main_expt","0.2018671691","","0.1284194295","","0.2024219406","","","","","","",""
"603","","bandit","288","679423","0.0-250.0-0.0","99756179","wem/bandit_single","A3F6SDO4GYBE4Y","gain","1","","72","H","0","img/none_selected.jpg","1","0","0","0.4112054282","","false","213","0.4112054282","","main_expt","0.1807811906","","0.1088774305","","0.1985525674","","","","","","",""
"54","","bandit","289","681261","0.0-251.0-0.0","99756179","wem/bandit_single","A3F6SDO4GYBE4Y","gain","1","","72","H","0","img/none_selected.jpg","0","0","1","0.3986702209","","false","214","0.3986702209","","main_expt","0.2432807767","","0.07230623063","","0.1940352924","","","","","","",""
"34","","bandit","290","683068","0.0-252.0-0.0","99756179","wem/bandit_single","A3F6SDO4GYBE4Y","gain","1","","72","H","0","img/none_selected.jpg","1","0","0","0.4379561577","","false","215","0.4379561577","","main_expt","0.2167976264","","0.07963887701","","0.1155678072","","","","","","",""
"604","","bandit","291","685468","0.0-253.0-0.0","99756179","wem/bandit_single","A3F6SDO4GYBE4Y","gain","1","","72","H","0","img/none_selected.jpg","0","0","1","0.425003275","","false","216","0.425003275","","main_expt","0.2963745884","","0.0792987172","","0.08288275022","","","","","","",""
"114","","bandit","292","687375","0.0-254.0-0.0","99756179","wem/bandit_single","A3F6SDO4GYBE4Y","gain","1","","72","H","0","img/none_selected.jpg","0","0","1","0.4398514333","","false","217","0.4398514333","","main_expt","0.2704200786","","0.07576557353","","0.1108164962","","","","","","",""
"54","","bandit","293","689209","0.0-255.0-0.0","99756179","wem/bandit_single","A3F6SDO4GYBE4Y","gain","1","","74","J","1","","0","0","1","0.2057322541","","false","218","0.4307107256","","main_expt","0.2057322541","","0.05946619603","","0.1166222362","","","","","","",""
"66","","bandit","294","691056","0.0-256.0-0.0","99756179","wem/bandit_single","A3F6SDO4GYBE4Y","gain","1","","72","H","0","img/none_selected.jpg","0","0","1","0.4236121262","","false","219","0.4236121262","","main_expt","0.2143414454","","0.07419684477","","0.1441412427","","","","","","",""
"71","","bandit","295","692911","0.0-257.0-0.0","99756179","wem/bandit_single","A3F6SDO4GYBE4Y","gain","1","","74","J","1","","0","0","1","0.1630835619","","false","220","0.4020148519","","main_expt","0.1630835619","","0.09297922461","","0.1460318591","","","","","","",""
"404","","bandit","296","695113","0.0-258.0-0.0","99756179","wem/bandit_single","A3F6SDO4GYBE4Y","gain","1","","72","H","0","img/none_selected.jpg","1","0","0","0.4073181559","","false","221","0.4073181559","","main_expt","0.1536312793","","0.1429286242","","0.1068666799","","","","","","",""
"11","","bandit","297","696906","0.0-259.0-0.0","99756179","wem/bandit_single","A3F6SDO4GYBE4Y","gain","1","","72","H","0","img/none_selected.jpg","0","0","1","0.3651123295","","false","222","0.3651123295","","main_expt","0.2214617817","","0.1708286753","","0.1101844092","","","","","","",""
"68","","bandit","298","698781","0.0-260.0-0.0","99756179","wem/bandit_single","A3F6SDO4GYBE4Y","gain","1","","74","J","1","","1","0","0","0.2273662723","","false","223","0.3836441325","","main_expt","0.2273662723","","0.1461267001","","0.0707480467","","","","","","",""
"508","","bandit","299","701062","0.0-261.0-0.0","99756179","wem/bandit_single","A3F6SDO4GYBE4Y","gain","1","","74","J","1","","0","0","1","0.1894352557","","false","224","0.3982756155","","main_expt","0.1894352557","","0.144808321","","0.06117493494","","","","","","",""
"80","","bandit","300","702931","0.0-262.0-0.0","99756179","wem/bandit_single","A3F6SDO4GYBE4Y","gain","1","","72","H","0","img/none_selected.jpg","0","0","1","0.3942448394","","false","225","0.3942448394","","main_expt","0.1292085382","","0.1890777341","","0.0615688762","","","","","","",""
"202","","bandit","301","704930","0.0-263.0-0.0","99756179","wem/bandit_single","A3F6SDO4GYBE4Y","gain","1","","72","H","0","img/none_selected.jpg","0","0","1","0.4169515918","","false","226","0.4169515918","","main_expt","0.1530858041","","0.1442837472","","0.05052633559","","","","","","",""
"66","","bandit","302","706791","0.0-264.0-0.0","99756179","wem/bandit_single","A3F6SDO4GYBE4Y","gain","1","","74","J","1","","0","0","1","0.1593334253","","false","227","0.4204191544","","main_expt","0.1593334253","","0.1425852804","","0.05726050712","","","","","","",""
"42","","bandit","303","708615","0.0-265.0-0.0","99756179","wem/bandit_single","A3F6SDO4GYBE4Y","gain","1","","72","H","0","img/none_selected.jpg","0","0","1","0.4091886","","false","228","0.4091886","","main_expt","0.1247523642","","0.1116716659","","0.0758768547","","","","","","",""
"57","","bandit","304","710482","0.0-266.0-0.0","99756179","wem/bandit_single","A3F6SDO4GYBE4Y","gain","1","","72","H","0","img/none_selected.jpg","1","0","0","0.407276644","","false","229","0.407276644","","main_expt","0.1463700977","","0.1206121499","","0.07022353505","","","","","","",""
"6","","bandit","305","712272","0.0-267.0-0.0","99756179","wem/bandit_single","A3F6SDO4GYBE4Y","gain","1","","72","H","0","img/none_selected.jpg","0","0","1","0.4254558538","","false","230","0.4254558538","","main_expt","0.1402324221","","0.1168532629","","0.06577032649","","","","","","",""
"41","","bandit","306","714108","0.0-268.0-0.0","99756179","wem/bandit_single","A3F6SDO4GYBE4Y","gain","1","","74","J","1","","0","0","1","0.1914784592","","false","231","0.4259586803","","main_expt","0.1914784592","","0.0916199044","","0.06313303242","","","","","","",""
"36","","bandit","307","715926","0.0-269.0-0.0","99756179","wem/bandit_single","A3F6SDO4GYBE4Y","gain","1","","72","H","0","img/none_selected.jpg","1","0","0","0.4429649496","","false","232","0.4429649496","","main_expt","0.1507361932","","0.09573807812","","0.05490827263","","","","","","",""
"225","","bandit","308","717952","0.0-270.0-0.0","99756179","wem/bandit_single","A3F6SDO4GYBE4Y","gain","1","","74","J","1","","0","0","1","0.1902650793","","false","233","0.4456598826","","main_expt","0.1902650793","","0.1246926578","","0.04200611561","","","","","","",""
"655","","bandit","309","720396","0.0-271.0-0.0","99756179","wem/bandit_single","A3F6SDO4GYBE4Y","gain","1","","72","H","0","img/none_selected.jpg","0","0","1","0.4504169918","","false","234","0.4504169918","","main_expt","0.2663902881","","0.122457211","","0.0550058871","","","","","","",""
"105","","bandit","310","722289","0.0-272.0-0.0","99756179","wem/bandit_single","A3F6SDO4GYBE4Y","gain","1","","74","J","1","","0","0","1","0.257874652","","false","235","0.4255816076","","main_expt","0.257874652","","0.1561374187","","0.06273227262","","","","","","",""
"67","","bandit","311","724159","0.0-273.0-0.0","99756179","wem/bandit_single","A3F6SDO4GYBE4Y","gain","1","","72","H","0","img/none_selected.jpg","0","0","1","0.4262424011","","false","236","0.4262424011","","main_expt","0.2134416149","","0.1726763947","","0.09869136657","","","","","","",""
"22","","bandit","312","725978","0.0-274.0-0.0","99756179","wem/bandit_single","A3F6SDO4GYBE4Y","gain","1","","74","J","1","","0","0","1","0.1655180868","","false","237","0.4314914545","","main_expt","0.1655180868","","0.163453789","","0.06464195797","","","","","","",""
"40","","bandit","313","727816","0.0-275.0-0.0","99756179","wem/bandit_single","A3F6SDO4GYBE4Y","gain","1","","72","H","0","img/none_selected.jpg","0","0","1","0.4580147213","","false","238","0.4580147213","","main_expt","0.1528926348","","0.1511244057","","0.1092425733","","","","","","",""
"142","","bandit","314","729753","0.0-276.0-0.0","99756179","wem/bandit_single","A3F6SDO4GYBE4Y","gain","1","","72","H","0","img/none_selected.jpg","0","0","1","0.4437162142","","false","239","0.4437162142","","main_expt","0.1594670864","","0.1170855371","","0.08920017271","","","","","","",""
"42","","bandit","315","731572","0.0-277.0-0.0","99756179","wem/bandit_single","A3F6SDO4GYBE4Y","gain","1","","74","J","1","","0","0","1","0.104293197","","false","240","0.4423909474","","main_expt","0.104293197","","0.1281478965","","0.138477068","","","","","","",""
"407","","bandit","316","733778","0.0-278.0-0.0","99756179","wem/bandit_single","A3F6SDO4GYBE4Y","gain","1","","72","H","0","img/none_selected.jpg","1","0","0","0.4542424264","","false","241","0.4542424264","","main_expt","0.07968297136","","0.1579661802","","0.1249513709","","","","","","",""
"23","","bandit","317","735570","0.0-279.0-0.0","99756179","wem/bandit_single","A3F6SDO4GYBE4Y","gain","1","","72","H","0","img/none_selected.jpg","0","0","1","0.4659063812","","false","242","0.4659063812","","main_expt","0.07079416442","","0.1345462726","","0.09754639251","","","","","","",""
"581","","bandit","318","737948","0.0-280.0-0.0","99756179","wem/bandit_single","A3F6SDO4GYBE4Y","gain","1","","76","L","3","","0","0","1","0.1223474156","","false","243","0.4702771719","","main_expt","0.08709770617","","0.1793426478","","0.1223474156","","","","","","",""
"22","","bandit","319","739746","0.0-281.0-0.0","99756179","wem/bandit_single","A3F6SDO4GYBE4Y","gain","1","","72","H","0","img/none_selected.jpg","1","0","0","0.4678480784","","false","244","0.4678480784","","main_expt","0.08252109256","","0.1623289848","","0.1004902073","","","","","","",""
"21","","bandit","320","741565","0.0-282.0-0.0","99756179","wem/bandit_single","A3F6SDO4GYBE4Y","gain","1","","72","H","0","img/none_selected.jpg","1","0","0","0.4608336118","","false","245","0.4608336118","","main_expt","0.07130924754","","0.1638267454","","0.09372717231","","","","","","",""
"19","","bandit","321","743360","0.0-283.0-0.0","99756179","wem/bandit_single","A3F6SDO4GYBE4Y","gain","1","","72","H","0","img/none_selected.jpg","0","0","1","0.4455928316","","false","246","0.4455928316","","main_expt","0.06886742221","","0.1794660524","","0.1004977064","","","","","","",""
"260","","bandit","322","745425","0.0-284.0-0.0","99756179","wem/bandit_single","A3F6SDO4GYBE4Y","gain","1","","74","J","1","","0","0","1","0.064138504","","false","247","0.4322927154","","main_expt","0.064138504","","0.1751092572","","0.09336015453","","","","","","",""
"365","","bandit","323","747571","0.0-285.0-0.0","99756179","wem/bandit_single","A3F6SDO4GYBE4Y","gain","1","","72","H","0","img/none_selected.jpg","0","0","1","0.4293825987","","false","248","0.4293825987","","main_expt","0.05051083443","","0.188480637","","0.09552903486","","","","","","",""
"24","","bandit","324","749379","0.0-286.0-0.0","99756179","wem/bandit_single","A3F6SDO4GYBE4Y","gain","1","","72","H","0","img/none_selected.jpg","0","0","1","0.4338924945","","false","249","0.4338924945","","main_expt","0.05514480776","","0.1718025207","","0.1087111068","","","","","","",""
"505","","bandit","325","751680","0.0-287.0-0.0","99756179","wem/bandit_single","A3F6SDO4GYBE4Y","gain","1","","72","H","0","img/none_selected.jpg","0","0","1","0.4356531551","","false","250","0.4356531551","","main_expt","0.02780796002","","0.1377417152","","0.08296073337","","","","","","",""
"29","","bandit","326","753497","0.0-288.0-0.0","99756179","wem/bandit_single","A3F6SDO4GYBE4Y","gain","1","","74","J","1","","0","0","1","0.02786711831","","false","251","0.4561881598","","main_expt","0.02786711831","","0.1623098307","","0.08988728922","","","","","","",""
"57","","bandit","327","755356","0.0-289.0-0.0","99756179","wem/bandit_single","A3F6SDO4GYBE4Y","gain","1","","72","H","0","img/none_selected.jpg","0","0","1","0.4517263236","","false","252","0.4517263236","","main_expt","0.03881205422","","0.1702242208","","0.07043490844","","","","","","",""
"504","","bandit","328","757672","0.0-290.0-0.0","99756179","wem/bandit_single","A3F6SDO4GYBE4Y","gain","1","","75","K","2","","0","0","1","0.1571297736","","false","253","0.4280730872","","main_expt","0.03211176865","","0.1571297736","","0.06648959932","","","","","","",""
"62","","bandit","329","759522","0.0-291.0-0.0","99756179","wem/bandit_single","A3F6SDO4GYBE4Y","gain","1","","72","H","0","img/none_selected.jpg","0","0","1","0.3976691957","","false","254","0.3976691957","","main_expt","0.02501863174","","0.1311762281","","0.04750248463","","","","","","",""
"61","","bandit","330","761387","0.0-292.0-0.0","99756179","wem/bandit_single","A3F6SDO4GYBE4Y","gain","1","","76","L","3","","0","0","1","0.0685067328","","false","255","0.3920211634","","main_expt","0.03845468041","","0.1262313745","","0.0685067328","","","","","","",""
"510","","bandit","331","763679","0.0-293.0-0.0","99756179","wem/bandit_single","A3F6SDO4GYBE4Y","gain","1","","72","H","0","img/none_selected.jpg","0","0","1","0.3802568344","","false","256","0.3802568344","","main_expt","0.03093107714","","0.08888936201","","0.06106940649","","","","","","",""
"3","","bandit","332","765473","0.0-294.0-0.0","99756179","wem/bandit_single","A3F6SDO4GYBE4Y","gain","1","","72","H","0","img/none_selected.jpg","0","0","1","0.4153547565","","false","257","0.4153547565","","main_expt","0.02284381284","","0.1016624202","","0.03925251802","","","","","","",""
"501","","bandit","333","767757","0.0-295.0-0.0","99756179","wem/bandit_single","A3F6SDO4GYBE4Y","gain","1","","72","H","0","img/none_selected.jpg","0","0","1","0.412770775","","false","258","0.412770775","","main_expt","0.01195927332","","0.1201960749","","0.07528758783","","","","","","",""
"86","","bandit","334","769637","0.0-296.0-0.0","99756179","wem/bandit_single","A3F6SDO4GYBE4Y","gain","1","","72","H","0","img/none_selected.jpg","0","0","1","0.4364469878","","false","259","0.4364469878","","main_expt","0.009837890866","","0.09869940493","","0.06168900656","","","","","","",""
"47","","bandit","335","771490","0.0-297.0-0.0","99756179","wem/bandit_single","A3F6SDO4GYBE4Y","gain","1","","72","H","0","img/none_selected.jpg","1","0","0","0.4143686848","","false","260","0.4143686848","","main_expt","0.01652501309","","0.140367269","","0.05358732337","","","","","","",""
"44","","bandit","336","773327","0.0-298.0-0.0","99756179","wem/bandit_single","A3F6SDO4GYBE4Y","gain","1","","72","H","0","img/none_selected.jpg","1","0","0","0.3932103286","","false","261","0.3932103286","","main_expt","0.0246934762","","0.107121031","","0.05974294151","","","","","","",""
"14","","bandit","337","775133","0.0-299.0-0.0","99756179","wem/bandit_single","A3F6SDO4GYBE4Y","gain","1","","72","H","0","img/none_selected.jpg","1","0","0","0.4299042069","","false","262","0.4299042069","","main_expt","0.02217338967","","0.142880744","","0.0656558392","","","","","","",""
"2","","bandit","338","776920","0.0-300.0-0.0","99756179","wem/bandit_single","A3F6SDO4GYBE4Y","gain","1","","72","H","0","img/none_selected.jpg","1","0","0","0.3864913748","","false","263","0.3864913748","","main_expt","0.02538488248","","0.1398656543","","0.08006927963","","","","","","",""
"497","","bandit","339","779200","0.0-301.0-0.0","99756179","wem/bandit_single","A3F6SDO4GYBE4Y","gain","1","","72","H","0","img/none_selected.jpg","1","0","0","0.3721946297","","false","264","0.3721946297","","main_expt","0.03542132602","","0.185630342","","0.07803510261","","","","","","",""
"41","","bandit","340","781046","0.0-302.0-0.0","99756179","wem/bandit_single","A3F6SDO4GYBE4Y","gain","1","","72","H","0","img/none_selected.jpg","0","0","1","0.3326379545","","false","265","0.3326379545","","main_expt","0.03052618628","","0.1483619715","","0.08917846028","","","","","","",""
"154","","bandit","341","782998","0.0-303.0-0.0","99756179","wem/bandit_single","A3F6SDO4GYBE4Y","gain","1","","72","H","0","img/none_selected.jpg","0","0","1","0.3337002386","","false","266","0.3337002386","","main_expt","0.02388326919","","0.1677753502","","0.1562168236","","","","","","",""
"3","","bandit","342","784809","0.0-304.0-0.0","99756179","wem/bandit_single","A3F6SDO4GYBE4Y","gain","1","","72","H","0","img/none_selected.jpg","1","0","0","0.3044940876","","false","267","0.3044940876","","main_expt","0.01496915784","","0.1748953786","","0.1873085091","","","","","","",""
"533","","bandit","343","787144","0.0-305.0-0.0","99756179","wem/bandit_single","A3F6SDO4GYBE4Y","gain","1","","72","H","0","img/none_selected.jpg","0","0","1","0.2966269971","","false","268","0.2966269971","","main_expt","0.01735494223","","0.152215306","","0.1850807086","","","","","","",""
"447","","bandit","344","789384","0.0-306.0-0.0","99756179","wem/bandit_single","A3F6SDO4GYBE4Y","gain","1","","72","H","0","img/none_selected.jpg","0","0","1","0.2617435325","","false","269","0.2617435325","","main_expt","0.01365938384","","0.1420691147","","0.1461958128","","","","","","",""
"15","","bandit","345","791200","0.0-307.0-0.0","99756179","wem/bandit_single","A3F6SDO4GYBE4Y","gain","1","","74","J","1","","0","0","1","0.01871615964","","false","270","0.2599280147","","main_expt","0.01871615964","","0.1338049101","","0.1348565207","","","","","","",""
"11","","bandit","346","792998","0.0-308.0-0.0","99756179","wem/bandit_single","A3F6SDO4GYBE4Y","gain","1","","72","H","0","img/none_selected.jpg","1","0","0","0.2499936179","","false","271","0.2499936179","","main_expt","0.01663887187","","0.1178923734","","0.1588166083","","","","","","",""
"449","","bandit","347","795245","0.0-309.0-0.0","99756179","wem/bandit_single","A3F6SDO4GYBE4Y","gain","1","","72","H","0","img/none_selected.jpg","0","0","1","0.2703142459","","false","272","0.2703142459","","main_expt","0.01973971225","","0.1436833609","","0.1288650497","","","","","","",""
"241","","bandit","348","797274","0.0-310.0-0.0","99756179","wem/bandit_single","A3F6SDO4GYBE4Y","gain","1","","72","H","0","img/none_selected.jpg","0","0","1","0.2835249431","","false","273","0.2835249431","","main_expt","0.01954424634","","0.1917782062","","0.1414039315","","","","","","",""
"521","","bandit","349","799589","0.0-311.0-0.0","99756179","wem/bandit_single","A3F6SDO4GYBE4Y","gain","1","","72","H","0","img/none_selected.jpg","1","0","0","0.2906451875","","false","274","0.2906451875","","main_expt","0.008862655739","","0.1657285368","","0.1132613661","","","","","","",""
"82","","bandit","350","801465","0.0-312.0-0.0","99756179","wem/bandit_single","A3F6SDO4GYBE4Y","gain","1","","72","H","0","img/none_selected.jpg","0","0","1","0.2670480505","","false","275","0.2670480505","","main_expt","0.0094605031","","0.1420329436","","0.1396690899","","","","","","",""
"10","","bandit","351","803273","0.0-313.0-0.0","99756179","wem/bandit_single","A3F6SDO4GYBE4Y","gain","1","","72","H","0","img/none_selected.jpg","0","0","1","0.2358592403","","false","276","0.2358592403","","main_expt","0.01191149084","","0.1369756733","","0.1109816737","","","","","","",""
"24","","bandit","352","805087","0.0-314.0-0.0","99756179","wem/bandit_single","A3F6SDO4GYBE4Y","gain","1","","72","H","0","img/none_selected.jpg","0","0","1","0.1877967456","","false","277","0.1877967456","","main_expt","0.00904810236","","0.1781068979","","0.08046464388","","","","","","",""
"69","","bandit","353","806943","0.0-315.0-0.0","99756179","wem/bandit_single","A3F6SDO4GYBE4Y","gain","1","","74","J","1","","0","0","1","0.007795284796","","false","278","0.1537245983","","main_expt","0.007795284796","","0.248352092","","0.07407019324","","","","","","",""
"37","","bandit","354","808761","0.0-316.0-0.0","99756179","wem/bandit_single","A3F6SDO4GYBE4Y","gain","1","","72","H","0","img/none_selected.jpg","0","0","1","0.1662011111","","false","279","0.1662011111","","main_expt","0.01747653863","","0.263219496","","0.06478755197","","","","","","",""
"500","","bandit","355","811070","0.0-317.0-0.0","99756179","wem/bandit_single","A3F6SDO4GYBE4Y","gain","1","","72","H","0","img/none_selected.jpg","0","0","1","0.1622625537","","false","280","0.1622625537","","main_expt","0.02326096521","","0.210776847","","0.04895059186","","","","","","",""
"10","","bandit","356","812873","0.0-318.0-0.0","99756179","wem/bandit_single","A3F6SDO4GYBE4Y","gain","1","","72","H","0","img/none_selected.jpg","0","0","1","0.2160365104","","false","281","0.2160365104","","main_expt","0.03290281633","","0.1901401854","","0.04598133094","","","","","","",""
"315","","bandit","357","814976","0.0-319.0-0.0","99756179","wem/bandit_single","A3F6SDO4GYBE4Y","gain","1","","72","H","0","img/none_selected.jpg","1","0","0","0.2031844556","","false","282","0.2031844556","","main_expt","0.03647511751","","0.1692674388","","0.0454431083","","","","","","",""
"427","","bandit","358","817207","0.0-320.0-0.0","99756179","wem/bandit_single","A3F6SDO4GYBE4Y","gain","1","","72","H","0","img/none_selected.jpg","0","0","1","0.236778666","","false","283","0.236778666","","main_expt","0.0381479171","","0.1697823826","","0.0377119091","","","","","","",""
"0","","bandit","359","819003","0.0-321.0-0.0","99756179","wem/bandit_single","A3F6SDO4GYBE4Y","gain","1","","72","H","0","img/none_selected.jpg","1","0","0","0.2082896542","","false","284","0.2082896542","","main_expt","0.04237273713","","0.1647860582","","0.0346676025","","","","","","",""
"463","","bandit","360","821280","0.0-322.0-0.0","99756179","wem/bandit_single","A3F6SDO4GYBE4Y","gain","1","","72","H","0","img/none_selected.jpg","0","0","1","0.1682052712","","false","285","0.1682052712","","main_expt","0.08736605616","","0.2346467376","","0.03394591187","","","","","","",""
"465","","bandit","361","823530","0.0-323.0-0.0","99756179","wem/bandit_single","A3F6SDO4GYBE4Y","gain","1","","72","H","0","img/none_selected.jpg","0","0","1","0.1287852917","","false","286","0.1287852917","","main_expt","0.149418319","","0.1651037306","","0.03437308726","","","","","","",""
"534","","bandit","362","825860","0.0-324.0-0.0","99756179","wem/bandit_single","A3F6SDO4GYBE4Y","gain","1","","72","H","0","img/none_selected.jpg","0","0","1","0.0739145169","","false","287","0.0739145169","","main_expt","0.2149685411","","0.113933185","","0.043905831","","","","","","",""
"56","","bandit","363","827724","0.0-325.0-0.0","99756179","wem/bandit_single","A3F6SDO4GYBE4Y","gain","1","","72","H","0","img/none_selected.jpg","0","0","1","0.08295252225","","false","288","0.08295252225","","main_expt","0.181398065","","0.08260993421","","0.02064047927","","","","","","",""
"6","","bandit","364","829542","0.0-326.0-0.0","99756179","wem/bandit_single","A3F6SDO4GYBE4Y","gain","1","","72","H","0","img/none_selected.jpg","0","0","1","0.0479508895","","false","289","0.0479508895","","main_expt","0.1523032639","","0.07260323305","","0.0250169619","","","","","","",""
