"consent","trial_type","trial_index","time_elapsed","internal_node_id","subjID","study","MID","cond","drift","rt","responses","button_pressed","key_press","like","value","connected","gems","bombs","no_reward","GemPrChosen","BombPrChosen","GainOverPainPr_0","GainOverPainPr_1","GainOverPainPr_2","GainOverPainPr_3","LosePr_0","LosePr_1","LosePr_2","LosePr_3","WinPr_0","WinPr_1","WinPr_2","WinPr_3","Q0","Q1","Q2","gender","age","ethnicity","label","expt_phase","target","respCharCode","respKey","respChoiceNum","respChoice","practice","trial_counter","trial_label","Q0_index"
"GDM/GDM_behavioral_consent_30min_online.html","consent","0","12456","0.0-0.0","00996911","wem/bandit_party_1","ACAJFF4MF5S5X","either","5","","","","","","","","","","","","","","","","","","","","","","","","","","","","","","","","","","","","","","","","",""
"","survey-text","1","18443","0.0-1.0","00996911","wem/bandit_party_1","ACAJFF4MF5S5X","either","5","4967","{""Q0"":""ACAJFF4MF5S5X""}","","","","","","","","","","","","","","","","","","","","","","","","","","","","","","","","","","","","","","",""
"","button-response","2","21252","0.0-2.0","00996911","wem/bandit_party_1","ACAJFF4MF5S5X","either","5","1800","","1","","","","","","","","","","","","","","","","","","","","","","","","","","","","","","","","","","","","","",""
"","text-replacement","3","31564","0.0-3.0","00996911","wem/bandit_party_1","ACAJFF4MF5S5X","either","5","9305","","","32","","","","","","","","","","","","","","","","","","","","","","","","","","","","","","","","","","","","",""
"","text-replacement","4","96891","0.0-4.0","00996911","wem/bandit_party_1","ACAJFF4MF5S5X","either","5","65324","","","32","","","","","","","","","","","","","","","","","","","","","","","","","","","","","","","","","","","","",""
"","identification","5","105069","0.0-6.0-0.0","00996911","wem/bandit_party_1","ACAJFF4MF5S5X","either","5","8118","","","","5","6","5","","","","","","","","","","","","","","","","","","","","","","","","pre","identification_pre","the Democratic Party","","","","","","","",""
"","identification","6","112559","0.0-6.0-1.0","00996911","wem/bandit_party_1","ACAJFF4MF5S5X","either","5","6447","","","","0","0","0","","","","","","","","","","","","","","","","","","","","","","","","pre","identification_pre","the Republican party","","","","","","","",""
"","text-replacement","7","121387","0.0-7.0","00996911","wem/bandit_party_1","ACAJFF4MF5S5X","either","5","7825","","","32","","","","","","","","","","","","","","","","","","","","","","","","","","","","","","","","","","","","",""
"","text-replacement","8","129354","0.0-8.0","00996911","wem/bandit_party_1","ACAJFF4MF5S5X","either","5","7963","","","32","","","","","","","","","","","","","","","","","","","","","","","","","","","","","","","","","","","","",""
"","text-replacement","9","136264","0.0-9.0","00996911","wem/bandit_party_1","ACAJFF4MF5S5X","either","5","6906","","","32","","","","","","","","","","","","","","","","","","","","","","","","","","","","","","","","","","","","",""
"","text-replacement","10","139021","0.0-10.0","00996911","wem/bandit_party_1","ACAJFF4MF5S5X","either","5","2753","","","32","","","","","","","","","","","","","","","","","","","","","","","","","","","","","","","","","","","","",""
"","text-replacement","11","143242","0.0-11.0","00996911","wem/bandit_party_1","ACAJFF4MF5S5X","either","5","4216","","","32","","","","","","","","","","","","","","","","","","","","","","","","","","","","","","","","","","","","",""
"","bandit","12","145718","0.0-12.0-0.0","00996911","wem/bandit_party_1","ACAJFF4MF5S5X","either","5","957","","","","","","","0","0","1","0","0","","","","","0","","","","0","","","","","","","","","","","","","74","J","0","img/none_selected_demo.jpg","true","0","",""
"","bandit","13","149067","0.0-13.0-0.0","00996911","wem/bandit_party_1","ACAJFF4MF5S5X","either","5","1839","","","","","","","0","0","1","0","0","","","","","0","","","","0","","","","","","","","","","","","","75","K","0","img/none_selected_demo.jpg","true","0","",""
"","text-replacement","14","157210","0.0-14.0","00996911","wem/bandit_party_1","ACAJFF4MF5S5X","either","5","8136","","","32","","","","","","","","","","","","","","","","","","","","","","","","","","","","","","","","","","","","",""
"","text-replacement","15","161366","0.0-15.0","00996911","wem/bandit_party_1","ACAJFF4MF5S5X","either","5","4152","","","32","","","","","","","","","","","","","","","","","","","","","","","","","","","","","","","","","","","","",""
"","text-replacement","16","166916","0.0-16.0","00996911","wem/bandit_party_1","ACAJFF4MF5S5X","either","5","5545","","","32","","","","","","","","","","","","","","","","","","","","","","","","","","","","","","","","","","","","",""
"","text-replacement","17","170131","0.0-17.0","00996911","wem/bandit_party_1","ACAJFF4MF5S5X","either","5","3211","","","32","","","","","","","","","","","","","","","","","","","","","","","","","","","","","","","","","","","","",""
"","bandit","18","172229","0.0-18.0-0.0","00996911","wem/bandit_party_1","ACAJFF4MF5S5X","either","5","587","","","","","","","1","0","0","0.8","","0.5","0.5","","","","","","","0.8","0.2","","","","","","","","","","","","74","J","0","img/none_selected_demo.jpg","true","0","80_20_practice",""
"","bandit","19","173803","0.0-18.0-1.0","00996911","wem/bandit_party_1","ACAJFF4MF5S5X","either","5","52","","","","","","","0","0","1","0.2","","0.5","0.5","","","","","","","0.8","0.2","","","","","","","","","","","","75","K","1","","true","0","80_20_practice",""
"","bandit","20","175419","0.0-18.0-2.0","00996911","wem/bandit_party_1","ACAJFF4MF5S5X","either","5","104","","","","","","","0","1","0","","0.8","0.5","0.5","","","0.8","0.2","","","","","","","","","","","","","","","","74","J","0","img/none_selected_demo.jpg","true","0","80_20_practice",""
"","bandit","21","177346","0.0-18.0-3.0","00996911","wem/bandit_party_1","ACAJFF4MF5S5X","either","5","415","","","","","","","0","0","1","","0.2","0.5","0.5","","","0.8","0.2","","","","","","","","","","","","","","","","75","K","1","","true","0","80_20_practice",""
"","bandit","22","179245","0.0-18.0-4.0","00996911","wem/bandit_party_1","ACAJFF4MF5S5X","either","5","386","","","","","","","1","0","0","0.2","","0.5","0.5","","","","","","","0.8","0.2","","","","","","","","","","","","75","K","1","","true","0","80_20_practice",""
"","bandit","23","181076","0.0-18.0-5.0","00996911","wem/bandit_party_1","ACAJFF4MF5S5X","either","5","317","","","","","","","1","0","0","0.8","","0.5","0.5","","","","","","","0.8","0.2","","","","","","","","","","","","74","J","0","img/none_selected_demo.jpg","true","0","80_20_practice",""
"","bandit","24","182803","0.0-18.0-6.0","00996911","wem/bandit_party_1","ACAJFF4MF5S5X","either","5","212","","","","","","","0","0","1","","0.2","0.5","0.5","","","0.8","0.2","","","","","","","","","","","","","","","","75","K","1","","true","0","80_20_practice",""
"","bandit","25","184332","0.0-18.0-7.0","00996911","wem/bandit_party_1","ACAJFF4MF5S5X","either","5","16","","","","","","","1","0","0","0.8","","0.5","0.5","","","","","","","0.8","0.2","","","","","","","","","","","","74","J","0","img/none_selected_demo.jpg","true","0","80_20_practice",""
"","bandit","26","185849","0.0-18.0-8.0","00996911","wem/bandit_party_1","ACAJFF4MF5S5X","either","5","0","","","","","","","0","1","0","","0.8","0.5","0.5","","","0.8","0.2","","","","","","","","","","","","","","","","74","J","0","img/none_selected_demo.jpg","true","0","80_20_practice",""
"","bandit","27","187732","0.0-18.0-9.0","00996911","wem/bandit_party_1","ACAJFF4MF5S5X","either","5","360","","","","","","","0","0","1","","0.2","0.5","0.5","","","0.8","0.2","","","","","","","","","","","","","","","","75","K","1","","true","0","80_20_practice",""
"","bandit","28","190285","0.0-18.0-10.0","00996911","wem/bandit_party_1","ACAJFF4MF5S5X","either","5","1040","","","","","","","0","1","0","","0.8","0.5","0.5","","","0.8","0.2","","","","","","","","","","","","","","","","74","J","0","img/none_selected_demo.jpg","true","0","80_20_practice",""
"","bandit","29","192092","0.0-18.0-11.0","00996911","wem/bandit_party_1","ACAJFF4MF5S5X","either","5","293","","","","","","","0","0","1","0.2","","0.5","0.5","","","","","","","0.8","0.2","","","","","","","","","","","","75","K","1","","true","0","80_20_practice",""
"","bandit","30","193975","0.0-18.0-12.0","00996911","wem/bandit_party_1","ACAJFF4MF5S5X","either","5","366","","","","","","","0","1","0","","0.2","0.5","0.5","","","0.8","0.2","","","","","","","","","","","","","","","","75","K","1","","true","0","80_20_practice",""
"","bandit","31","195874","0.0-18.0-13.0","00996911","wem/bandit_party_1","ACAJFF4MF5S5X","either","5","377","","","","","","","0","0","1","0.2","","0.5","0.5","","","","","","","0.8","0.2","","","","","","","","","","","","75","K","1","","true","0","80_20_practice",""
"","bandit","32","197834","0.0-18.0-14.0","00996911","wem/bandit_party_1","ACAJFF4MF5S5X","either","5","447","","","","","","","1","0","0","0.8","","0.5","0.5","","","","","","","0.8","0.2","","","","","","","","","","","","74","J","0","img/none_selected_demo.jpg","true","0","80_20_practice",""
"","bandit","33","199590","0.0-18.0-15.0","00996911","wem/bandit_party_1","ACAJFF4MF5S5X","either","5","244","","","","","","","0","1","0","","0.8","0.5","0.5","","","0.8","0.2","","","","","","","","","","","","","","","","74","J","0","img/none_selected_demo.jpg","true","0","80_20_practice",""
"","bandit","34","201515","0.0-18.0-16.0","00996911","wem/bandit_party_1","ACAJFF4MF5S5X","either","5","400","","","","","","","1","0","0","0.8","","0.5","0.5","","","","","","","0.8","0.2","","","","","","","","","","","","74","J","0","img/none_selected_demo.jpg","true","0","80_20_practice",""
"","bandit","35","203444","0.0-18.0-17.0","00996911","wem/bandit_party_1","ACAJFF4MF5S5X","either","5","415","","","","","","","0","0","1","0.2","","0.5","0.5","","","","","","","0.8","0.2","","","","","","","","","","","","75","K","1","","true","0","80_20_practice",""
"","bandit","36","205060","0.0-18.0-18.0","00996911","wem/bandit_party_1","ACAJFF4MF5S5X","either","5","102","","","","","","","0","1","0","","0.8","0.5","0.5","","","0.8","0.2","","","","","","","","","","","","","","","","74","J","0","img/none_selected_demo.jpg","true","0","80_20_practice",""
"","bandit","37","206970","0.0-18.0-19.0","00996911","wem/bandit_party_1","ACAJFF4MF5S5X","either","5","396","","","","","","","0","1","0","","0.8","0.5","0.5","","","0.8","0.2","","","","","","","","","","","","","","","","74","J","0","img/none_selected_demo.jpg","true","0","80_20_practice",""
"","text-replacement","38","210964","0.0-19.0","00996911","wem/bandit_party_1","ACAJFF4MF5S5X","either","5","3981","","","32","","","","","","","","","","","","","","","","","","","","","","","","","","","","","","","","","","","","",""
"","bandit","39","213386","0.0-20.0-0.0","00996911","wem/bandit_party_1","ACAJFF4MF5S5X","either","5","907","","","","","","","1","0","0","1","0","","","","","0","1","","","1","0","","","","","","","","","","","","74","J","0","img/none_selected_demo.jpg","true","0","",""
"","text-replacement","40","271892","0.0-21.0","00996911","wem/bandit_party_1","ACAJFF4MF5S5X","either","5","58500","","","32","","","","","","","","","","","","","","","","","","","","","","","","","","","","","","","","","","","","",""
"","text-replacement","41","274213","0.0-22.0","00996911","wem/bandit_party_1","ACAJFF4MF5S5X","either","5","2317","","","32","","","","","","","","","","","","","","","","","","","","","","","","","","","","","","","","","","","","",""
"","text-replacement","42","276324","0.0-23.0","00996911","wem/bandit_party_1","ACAJFF4MF5S5X","either","5","2106","","","32","","","","","","","","","","","","","","","","","","","","","","","","","","","","","","","","","","","","",""
"","text-replacement","43","281399","0.0-24.0","00996911","wem/bandit_party_1","ACAJFF4MF5S5X","either","5","5070","","","32","","","","","","","","","","","","","","","","","","","","","","","","","","","","","","","","","","","","",""
"","text-replacement","44","293280","0.0-25.0","00996911","wem/bandit_party_1","ACAJFF4MF5S5X","either","5","11876","","","32","","","","","","","","","","","","","","","","","","","","","","","","","","","","","","","","","","","","",""
"","text-replacement","45","296678","0.0-26.0","00996911","wem/bandit_party_1","ACAJFF4MF5S5X","either","5","3392","","","32","","","","","","","","","","","","","","","","","","","","","","","","","","","","","","","","","","","","",""
"","text-replacement","46","301880","0.0-27.0","00996911","wem/bandit_party_1","ACAJFF4MF5S5X","either","5","5198","","","32","","","","","","","","","","","","","","","","","","","","","","","","","","","","","","","","","","","","",""
"","text-replacement","47","307408","0.0-28.0","00996911","wem/bandit_party_1","ACAJFF4MF5S5X","either","5","5521","","","32","","","","","","","","","","","","","","","","","","","","","","","","","","","","","","","","","","","","",""
"","text-replacement","48","311318","0.0-29.0","00996911","wem/bandit_party_1","ACAJFF4MF5S5X","either","5","3906","","","32","","","","","","","","","","","","","","","","","","","","","","","","","","","","","","","","","","","","",""
"","text-replacement","49","314603","0.0-30.0","00996911","wem/bandit_party_1","ACAJFF4MF5S5X","either","5","3280","","","32","","","","","","","","","","","","","","","","","","","","","","","","","","","","","","","","","","","","",""
"","text-replacement","50","318257","0.0-31.0","00996911","wem/bandit_party_1","ACAJFF4MF5S5X","either","5","3648","","","32","","","","","","","","","","","","","","","","","","","","","","","","","","","","","","","","","","","","",""
"","bandit","51","320541","0.0-32.0-0.0","00996911","wem/bandit_party_1","ACAJFF4MF5S5X","either","5","766","","","","","","","0","1","0","","0.8","0.5","0.5","0.5","0.5","0.8","0.2","0.6","0.2","","","","","","","","","","","","","","72","H","0","img/none_selected.jpg","true","0","full_practice",""
"","bandit","52","322584","0.0-32.0-1.0","00996911","wem/bandit_party_1","ACAJFF4MF5S5X","either","5","519","","","","","","","0","0","1","","0.8","0.5","0.5","0.5","0.5","0.8","0.2","0.6","0.2","","","","","","","","","","","","","","72","H","0","img/none_selected.jpg","true","0","full_practice",""
"","bandit","53","324472","0.0-32.0-2.0","00996911","wem/bandit_party_1","ACAJFF4MF5S5X","either","5","376","","","","","","","0","0","1","","0.2","0.5","0.5","0.5","0.5","0.8","0.2","0.6","0.2","","","","","","","","","","","","","","74","J","1","","true","0","full_practice",""
"","bandit","54","326302","0.0-32.0-3.0","00996911","wem/bandit_party_1","ACAJFF4MF5S5X","either","5","314","","","","","","","0","0","1","","0.2","0.5","0.5","0.5","0.5","0.8","0.2","0.6","0.2","","","","","","","","","","","","","","74","J","1","","true","0","full_practice",""
"","bandit","55","328528","0.0-32.0-4.0","00996911","wem/bandit_party_1","ACAJFF4MF5S5X","either","5","709","","","","","","","1","0","0","0.6","","0.5","0.5","0.5","0.5","","","","","0.8","0.2","0.6","0.2","","","","","","","","","","75","K","2","","true","0","full_practice",""
"","bandit","56","330321","0.0-32.0-5.0","00996911","wem/bandit_party_1","ACAJFF4MF5S5X","either","5","279","","","","","","","0","1","0","","0.6","0.5","0.5","0.5","0.5","0.8","0.2","0.6","0.2","","","","","","","","","","","","","","75","K","2","","true","0","full_practice",""
"","bandit","57","332379","0.0-32.0-6.0","00996911","wem/bandit_party_1","ACAJFF4MF5S5X","either","5","531","","","","","","","0","0","1","0.2","","0.5","0.5","0.5","0.5","","","","","0.8","0.2","0.6","0.2","","","","","","","","","","76","L","3","","true","0","full_practice",""
"","bandit","58","334233","0.0-32.0-7.0","00996911","wem/bandit_party_1","ACAJFF4MF5S5X","either","5","342","","","","","","","0","0","1","","0.2","0.5","0.5","0.5","0.5","0.8","0.2","0.6","0.2","","","","","","","","","","","","","","76","L","3","","true","0","full_practice",""
"","bandit","59","336684","0.0-32.0-8.0","00996911","wem/bandit_party_1","ACAJFF4MF5S5X","either","5","933","","","","","","","0","0","1","0.6","","0.5","0.5","0.5","0.5","","","","","0.8","0.2","0.6","0.2","","","","","","","","","","75","K","2","","true","0","full_practice",""
"","bandit","60","338506","0.0-32.0-9.0","00996911","wem/bandit_party_1","ACAJFF4MF5S5X","either","5","310","","","","","","","0","1","0","","0.6","0.5","0.5","0.5","0.5","0.8","0.2","0.6","0.2","","","","","","","","","","","","","","75","K","2","","true","0","full_practice",""
"","bandit","61","340740","0.0-32.0-10.0","00996911","wem/bandit_party_1","ACAJFF4MF5S5X","either","5","714","","","","","","","0","0","1","","0.2","0.5","0.5","0.5","0.5","0.8","0.2","0.6","0.2","","","","","","","","","","","","","","74","J","1","","true","0","full_practice",""
"","bandit","62","343024","0.0-32.0-11.0","00996911","wem/bandit_party_1","ACAJFF4MF5S5X","either","5","764","","","","","","","0","0","1","0.2","","0.5","0.5","0.5","0.5","","","","","0.8","0.2","0.6","0.2","","","","","","","","","","74","J","1","","true","0","full_practice",""
"","bandit","63","344642","0.0-32.0-12.0","00996911","wem/bandit_party_1","ACAJFF4MF5S5X","either","5","94","","","","","","","0","1","0","","0.8","0.5","0.5","0.5","0.5","0.8","0.2","0.6","0.2","","","","","","","","","","","","","","72","H","0","img/none_selected.jpg","true","0","full_practice",""
"","bandit","64","346551","0.0-32.0-13.0","00996911","wem/bandit_party_1","ACAJFF4MF5S5X","either","5","395","","","","","","","0","1","0","","0.8","0.5","0.5","0.5","0.5","0.8","0.2","0.6","0.2","","","","","","","","","","","","","","72","H","0","img/none_selected.jpg","true","0","full_practice",""
"","bandit","65","348432","0.0-32.0-14.0","00996911","wem/bandit_party_1","ACAJFF4MF5S5X","either","5","363","","","","","","","0","1","0","","0.8","0.5","0.5","0.5","0.5","0.8","0.2","0.6","0.2","","","","","","","","","","","","","","72","H","0","img/none_selected.jpg","true","0","full_practice",""
"","bandit","66","350236","0.0-32.0-15.0","00996911","wem/bandit_party_1","ACAJFF4MF5S5X","either","5","284","","","","","","","1","0","0","0.8","","0.5","0.5","0.5","0.5","","","","","0.8","0.2","0.6","0.2","","","","","","","","","","72","H","0","img/none_selected.jpg","true","0","full_practice",""
"","bandit","67","352205","0.0-32.0-16.0","00996911","wem/bandit_party_1","ACAJFF4MF5S5X","either","5","451","","","","","","","0","1","0","","0.8","0.5","0.5","0.5","0.5","0.8","0.2","0.6","0.2","","","","","","","","","","","","","","72","H","0","img/none_selected.jpg","true","0","full_practice",""
"","bandit","68","353993","0.0-32.0-17.0","00996911","wem/bandit_party_1","ACAJFF4MF5S5X","either","5","271","","","","","","","1","0","0","0.2","","0.5","0.5","0.5","0.5","","","","","0.8","0.2","0.6","0.2","","","","","","","","","","76","L","3","","true","0","full_practice",""
"","bandit","69","355770","0.0-32.0-18.0","00996911","wem/bandit_party_1","ACAJFF4MF5S5X","either","5","257","","","","","","","0","0","1","","0.2","0.5","0.5","0.5","0.5","0.8","0.2","0.6","0.2","","","","","","","","","","","","","","76","L","3","","true","0","full_practice",""
"","bandit","70","357712","0.0-32.0-19.0","00996911","wem/bandit_party_1","ACAJFF4MF5S5X","either","5","416","","","","","","","0","1","0","","0.8","0.5","0.5","0.5","0.5","0.8","0.2","0.6","0.2","","","","","","","","","","","","","","72","H","0","img/none_selected.jpg","true","0","full_practice",""
"","text","71","361835","0.0-33.0","00996911","wem/bandit_party_1","ACAJFF4MF5S5X","either","5","4084","","","32","","","","","","","","","","","","","","","","","","","","","","","","","","","","","","","","","","","","",""
"","text-replacement","72","372597","0.0-34.0","00996911","wem/bandit_party_1","ACAJFF4MF5S5X","either","5","9750","","","32","","","","","","","","","","","","","","","","","","","","","","","","","","","","","","","","","","","","",""
"","text-replacement","73","382756","0.0-35.0","00996911","wem/bandit_party_1","ACAJFF4MF5S5X","either","5","10149","","","32","","","","","","","","","","","","","","","","","","","","","","","","","","","","","","","","","","","","",""
"","text-replacement","74","388304","0.0-36.0","00996911","wem/bandit_party_1","ACAJFF4MF5S5X","either","5","5541","","","32","","","","","","","","","","","","","","","","","","","","","","","","","","","","","","","","","","","","",""
"","text-replacement","75","393372","0.0-37.0","00996911","wem/bandit_party_1","ACAJFF4MF5S5X","either","5","5061","","","32","","","","","","","","","","","","","","","","","","","","","","","","","","","","","","","","","","","","",""
"","text-replacement","76","396796","0.0-38.0","00996911","wem/bandit_party_1","ACAJFF4MF5S5X","either","5","3416","","","32","","","","","","","","","","","","","","","","","","","","","","","","","","","","","","","","","","","","",""
"","survey-multi-choice-replacement","77","401084","0.0-39.0-0.0","00996911","wem/bandit_party_1","ACAJFF4MF5S5X","either","5","4266","","","","","","","","","","","","","","","","","","","","","","","","Money will be added to the pool for <span style='color:blue;'>DEMOCRATS</span>","","","","","","","attn_check","","","","","","","","","0"
"","survey-multi-choice-replacement","78","404973","0.0-40.0-0.0","00996911","wem/bandit_party_1","ACAJFF4MF5S5X","either","5","2848","","","","","","","","","","","","","","","","","","","","","","","","Equal amounts of money will be added to the pool for <span style='color:blue;'>DEMOCRATS</span> and subtracted from the pool for <span style='color:red;'>REPUBLICANS</span>","","","","","","","attn_check","","","","","","","","","2"
"","survey-multi-choice-replacement","79","408357","0.0-41.0-0.0","00996911","wem/bandit_party_1","ACAJFF4MF5S5X","either","5","2362","","","","","","","","","","","","","","","","","","","","","","","","No money will be added to either pool","","","","","","","attn_check","","","","","","","","","3"
"","bandit","80","413348","0.0-42.0-0.0","00996911","wem/bandit_party_1","ACAJFF4MF5S5X","either","5","2462","","","","","","","0","0","1","","0.4265570961","0.2","0.4","0.8","0.6","0.4265570961","0.1165465043","0.3340388524","0.3897275569","","","","","","","","","","","","","","72","H","0","img/none_selected.jpg","","1","main_expt",""
"","bandit","81","415180","0.0-43.0-0.0","00996911","wem/bandit_party_1","ACAJFF4MF5S5X","either","5","320","","","","","","","0","0","1","","0.08371899021","0.2","0.4","0.8","0.6","0.4177099958","0.08371899021","0.3223834482","0.3911966266","","","","","","","","","","","","","","74","J","1","","","2","main_expt",""
"","bandit","82","416983","0.0-44.0-0.0","00996911","wem/bandit_party_1","ACAJFF4MF5S5X","either","5","286","","","","","","","0","0","1","0.3585509001","","0.2","0.4","0.8","0.6","","","","","0.4192185534","0.04339790364","0.3585509001","0.4074861021","","","","","","","","","","75","K","2","","","3","main_expt",""
"","bandit","83","418797","0.0-45.0-0.0","00996911","wem/bandit_party_1","ACAJFF4MF5S5X","either","5","292","","","","","","","0","0","1","","0.3965638453","0.2","0.4","0.8","0.6","0.4241610434","0.04073472785","0.3416436242","0.3965638453","","","","","","","","","","","","","","76","L","3","","","4","main_expt",""
"","bandit","84","420558","0.0-46.0-0.0","00996911","wem/bandit_party_1","ACAJFF4MF5S5X","either","5","246","","","","","","","0","0","1","","0.3688269119","0.2","0.4","0.8","0.6","0.4284837315","0.04731773769","0.3444758892","0.3688269119","","","","","","","","","","","","","","76","L","3","","","5","main_expt",""
"","bandit","85","422378","0.0-47.0-0.0","00996911","wem/bandit_party_1","ACAJFF4MF5S5X","either","5","303","","","","","","","0","1","0","","0.4328708062","0.2","0.4","0.8","0.6","0.4328708062","0.05617088868","0.3574177426","0.3865867917","","","","","","","","","","","","","","72","H","0","img/none_selected.jpg","","6","main_expt",""
"","bandit","86","424153","0.0-48.0-0.0","00996911","wem/bandit_party_1","ACAJFF4MF5S5X","either","5","262","","","","","","","0","0","1","","0.4176545671","0.2","0.4","0.8","0.6","0.4176545671","0.05606577856","0.3634052143","0.4294719924","","","","","","","","","","","","","","72","H","0","img/none_selected.jpg","","7","main_expt",""
"","bandit","87","425945","0.0-49.0-0.0","00996911","wem/bandit_party_1","ACAJFF4MF5S5X","either","5","277","","","","","","","0","1","0","","0.3675420607","0.2","0.4","0.8","0.6","0.4022395488","0.09244853328","0.3675420607","0.4210378118","","","","","","","","","","","","","","75","K","2","","","8","main_expt",""
"","bandit","88","427608","0.0-50.0-0.0","00996911","wem/bandit_party_1","ACAJFF4MF5S5X","either","5","147","","","","","","","1","0","0","0.3921196104","","0.2","0.4","0.8","0.6","","","","","0.3929004949","0.1271341085","0.3921196104","0.4502112583","","","","","","","","","","75","K","2","","","9","main_expt",""
"","bandit","89","429369","0.0-51.0-0.0","00996911","wem/bandit_party_1","ACAJFF4MF5S5X","either","5","230","","","","","","","0","1","0","","0.4026182126","0.2","0.4","0.8","0.6","0.3863711448","0.1370717255","0.4026182126","0.4452653155","","","","","","","","","","","","","","75","K","2","","","10","main_expt",""
"","bandit","90","431080","0.0-52.0-0.0","00996911","wem/bandit_party_1","ACAJFF4MF5S5X","either","5","195","","","","","","","0","0","1","0.3543069494","","0.2","0.4","0.8","0.6","","","","","0.4205849279","0.1275050207","0.3543069494","0.4352349267","","","","","","","","","","75","K","2","","","11","main_expt",""
"","bandit","91","432951","0.0-53.0-0.0","00996911","wem/bandit_party_1","ACAJFF4MF5S5X","either","5","344","","","","","","","0","0","1","0.122317004","","0.2","0.4","0.8","0.6","","","","","0.4525069231","0.122317004","0.3504097904","0.4029030639","","","","","","","","","","74","J","1","","","12","main_expt",""
"","bandit","92","434750","0.0-54.0-0.0","00996911","wem/bandit_party_1","ACAJFF4MF5S5X","either","5","277","","","","","","","0","1","0","","0.4485799753","0.2","0.4","0.8","0.6","0.4485799753","0.1251711411","0.2787441393","0.4198147105","","","","","","","","","","","","","","72","H","0","img/none_selected.jpg","","13","main_expt",""
"","bandit","93","436575","0.0-55.0-0.0","00996911","wem/bandit_party_1","ACAJFF4MF5S5X","either","5","301","","","","","","","0","0","1","","0.4504049656","0.2","0.4","0.8","0.6","0.4504049656","0.1380641988","0.2723245106","0.3761312174","","","","","","","","","","","","","","72","H","0","img/none_selected.jpg","","14","main_expt",""
"","bandit","94","438290","0.0-56.0-0.0","00996911","wem/bandit_party_1","ACAJFF4MF5S5X","either","5","198","","","","","","","0","0","1","0.4017507227","","0.2","0.4","0.8","0.6","","","","","0.4281165459","0.2010812313","0.3687644442","0.4017507227","","","","","","","","","","76","L","3","","","15","main_expt",""
"","bandit","95","439863","0.0-57.0-0.0","00996911","wem/bandit_party_1","ACAJFF4MF5S5X","either","5","61","","","","","","","1","0","0","0.3992289848","","0.2","0.4","0.8","0.6","","","","","0.4035101098","0.1747275657","0.3992289848","0.3859888637","","","","","","","","","","75","K","2","","","16","main_expt",""
"","bandit","96","441383","0.0-58.0-0.0","00996911","wem/bandit_party_1","ACAJFF4MF5S5X","either","5","1","","","","","","","0","0","1","","0.4067061876","0.2","0.4","0.8","0.6","0.4063691663","0.1816524112","0.4067061876","0.3706978481","","","","","","","","","","","","","","75","K","2","","","17","main_expt",""
"","bandit","97","443619","0.0-59.0-0.0","00996911","wem/bandit_party_1","ACAJFF4MF5S5X","either","5","713","","","","","","","0","0","1","","0.1700798448","0.2","0.4","0.8","0.6","0.4201618032","0.1700798448","0.3969002131","0.3323991027","","","","","","","","","","","","","","74","J","1","","","18","main_expt",""
"","bandit","98","445581","0.0-60.0-0.0","00996911","wem/bandit_party_1","ACAJFF4MF5S5X","either","5","441","","","","","","","0","1","0","","0.3868389751","0.2","0.4","0.8","0.6","0.3868389751","0.1998500639","0.3930099592","0.3301718366","","","","","","","","","","","","","","72","H","0","img/none_selected.jpg","","19","main_expt",""
"","bandit","99","447791","0.0-61.0-0.0","00996911","wem/bandit_party_1","ACAJFF4MF5S5X","either","5","675","","","","","","","0","0","1","","0.3714618997","0.2","0.4","0.8","0.6","0.3868875991","0.2418808817","0.3791602553","0.3714618997","","","","","","","","","","","","","","76","L","3","","","20","main_expt",""
"","bandit","100","449639","0.0-62.0-0.0","00996911","wem/bandit_party_1","ACAJFF4MF5S5X","either","5","334","","","","","","","0","0","1","0.4253770554","","0.2","0.4","0.8","0.6","","","","","0.4253770554","0.2293341009","0.4127515201","0.3621694591","","","","","","","","","","72","H","0","img/none_selected.jpg","","21","main_expt",""
"","bandit","101","451453","0.0-63.0-0.0","00996911","wem/bandit_party_1","ACAJFF4MF5S5X","either","5","293","","","","","","","0","0","1","0.4164833055","","0.2","0.4","0.8","0.6","","","","","0.4285762007","0.2074184163","0.4164833055","0.3648829928","","","","","","","","","","75","K","2","","","22","main_expt",""
"","bandit","102","453012","0.0-64.0-0.0","00996911","wem/bandit_party_1","ACAJFF4MF5S5X","either","5","42","","","","","","","0","0","1","","0.1832507358","0.2","0.4","0.8","0.6","0.4082522222","0.1832507358","0.4143027846","0.2856994719","","","","","","","","","","","","","","74","J","1","","","23","main_expt",""
"","bandit","103","454960","0.0-65.0-0.0","00996911","wem/bandit_party_1","ACAJFF4MF5S5X","either","5","432","","","","","","","0","1","0","","0.3152516524","0.2","0.4","0.8","0.6","0.4027270218","0.1469425149","0.3649270698","0.3152516524","","","","","","","","","","","","","","76","L","3","","","24","main_expt",""
"","bandit","104","456770","0.0-66.0-0.0","00996911","wem/bandit_party_1","ACAJFF4MF5S5X","either","5","288","","","","","","","0","0","1","0.2778145345","","0.2","0.4","0.8","0.6","","","","","0.4100212433","0.102794739","0.392676409","0.2778145345","","","","","","","","","","76","L","3","","","25","main_expt",""
"","bandit","105","458641","0.0-67.0-0.0","00996911","wem/bandit_party_1","ACAJFF4MF5S5X","either","5","351","","","","","","","0","0","1","","0.3170506137","0.2","0.4","0.8","0.6","0.4190791169","0.1173732637","0.4031565401","0.3170506137","","","","","","","","","","","","","","76","L","3","","","26","main_expt",""
"","bandit","106","460449","0.0-68.0-0.0","00996911","wem/bandit_party_1","ACAJFF4MF5S5X","either","5","290","","","","","","","1","0","0","0.4245959001","","0.2","0.4","0.8","0.6","","","","","0.4527212376","0.08835016803","0.4245959001","0.3223143746","","","","","","","","","","75","K","2","","","27","main_expt",""
"","bandit","107","462317","0.0-69.0-0.0","00996911","wem/bandit_party_1","ACAJFF4MF5S5X","either","5","351","","","","","","","1","0","0","0.4232885055","","0.2","0.4","0.8","0.6","","","","","0.4480998813","0.1134440288","0.4232885055","0.3234472479","","","","","","","","","","75","K","2","","","28","main_expt",""
"","bandit","108","464100","0.0-70.0-0.0","00996911","wem/bandit_party_1","ACAJFF4MF5S5X","either","5","268","","","","","","","0","1","0","","0.4495512981","0.2","0.4","0.8","0.6","0.4628669208","0.1982905849","0.4495512981","0.2881425904","","","","","","","","","","","","","","75","K","2","","","29","main_expt",""
"","bandit","109","465927","0.0-71.0-0.0","00996911","wem/bandit_party_1","ACAJFF4MF5S5X","either","5","312","","","","","","","0","0","1","0.4485299892","","0.2","0.4","0.8","0.6","","","","","0.4565655028","0.2366655967","0.4485299892","0.2326555855","","","","","","","","","","75","K","2","","","30","main_expt",""
"","bandit","110","467788","0.0-72.0-0.0","00996911","wem/bandit_party_1","ACAJFF4MF5S5X","either","5","342","","","","","","","0","0","1","","0.1622470467","0.2","0.4","0.8","0.6","0.4686031056","0.1622470467","0.4599237238","0.2364604256","","","","","","","","","","","","","","74","J","1","","","31","main_expt",""
"","bandit","111","469629","0.0-73.0-0.0","00996911","wem/bandit_party_1","ACAJFF4MF5S5X","either","5","326","","","","","","","0","1","0","","0.4508116693","0.2","0.4","0.8","0.6","0.4659582456","0.1771911602","0.4508116693","0.2451982598","","","","","","","","","","","","","","75","K","2","","","32","main_expt",""
"","bandit","112","471380","0.0-74.0-0.0","00996911","wem/bandit_party_1","ACAJFF4MF5S5X","either","5","232","","","","","","","0","0","1","0.45101727","","0.2","0.4","0.8","0.6","","","","","0.4810757035","0.1622836308","0.45101727","0.2360369815","","","","","","","","","","75","K","2","","","33","main_expt",""
"","bandit","113","473174","0.0-75.0-0.0","00996911","wem/bandit_party_1","ACAJFF4MF5S5X","either","5","274","","","","","","","0","0","1","","0.4842727378","0.2","0.4","0.8","0.6","0.4842727378","0.1655985557","0.4340174653","0.2317763892","","","","","","","","","","","","","","72","H","0","img/none_selected.jpg","","34","main_expt",""
"","bandit","114","474979","0.0-76.0-0.0","00996911","wem/bandit_party_1","ACAJFF4MF5S5X","either","5","286","","","","","","","0","0","1","0.4040147441","","0.2","0.4","0.8","0.6","","","","","0.4745470136","0.1492797185","0.4040147441","0.2527891731","","","","","","","","","","75","K","2","","","35","main_expt",""
"","bandit","115","476811","0.0-77.0-0.0","00996911","wem/bandit_party_1","ACAJFF4MF5S5X","either","5","308","","","","","","","0","0","1","0.2641283143","","0.2","0.4","0.8","0.6","","","","","0.4440965139","0.1504543003","0.4268829696","0.2641283143","","","","","","","","","","76","L","3","","","36","main_expt",""
"","bandit","116","478596","0.0-78.0-0.0","00996911","wem/bandit_party_1","ACAJFF4MF5S5X","either","5","264","","","","","","","0","0","1","0.1064249526","","0.2","0.4","0.8","0.6","","","","","0.4544425755","0.1064249526","0.4562327564","0.2309310423","","","","","","","","","","74","J","1","","","37","main_expt",""
"","bandit","117","480371","0.0-79.0-0.0","00996911","wem/bandit_party_1","ACAJFF4MF5S5X","either","5","259","","","","","","","0","0","1","","0.4700138218","0.2","0.4","0.8","0.6","0.4700138218","0.1346530267","0.4481627861","0.2093170459","","","","","","","","","","","","","","72","H","0","img/none_selected.jpg","","38","main_expt",""
"","bandit","118","482202","0.0-80.0-0.0","00996911","wem/bandit_party_1","ACAJFF4MF5S5X","either","5","306","","","","","","","1","0","0","0.4475890948","","0.2","0.4","0.8","0.6","","","","","0.466948448","0.1303494481","0.4475890948","0.1398625959","","","","","","","","","","75","K","2","","","39","main_expt",""
"","bandit","119","483963","0.0-81.0-0.0","00996911","wem/bandit_party_1","ACAJFF4MF5S5X","either","5","243","","","","","","","0","0","1","0.4501575696","","0.2","0.4","0.8","0.6","","","","","0.4679256248","0.1492074344","0.4501575696","0.09690087606","","","","","","","","","","75","K","2","","","40","main_expt",""
"","bandit","120","486791","0.0-82.0-0.0","00996911","wem/bandit_party_1","ACAJFF4MF5S5X","either","5","1311","","","","","","","0","1","0","","0.4121884666","0.2","0.4","0.8","0.6","0.445537573","0.1370672299","0.4121884666","0.1129569356","","","","","","","","","","","","","","75","K","2","","","41","main_expt",""
"","bandit","121","490236","0.0-83.0-0.0","00996911","wem/bandit_party_1","ACAJFF4MF5S5X","either","5","1933","","","","","","","0","0","1","0.4379939247","","0.2","0.4","0.8","0.6","","","","","0.4521531226","0.08144147181","0.4379939247","0.1227033228","","","","","","","","","","75","K","2","","","42","main_expt",""
"","bandit","122","492281","0.0-84.0-0.0","00996911","wem/bandit_party_1","ACAJFF4MF5S5X","either","5","528","","","","","","","0","0","1","0.4271747655","","0.2","0.4","0.8","0.6","","","","","0.4695072217","0.06793865388","0.4271747655","0.08393287497","","","","","","","","","","75","K","2","","","43","main_expt",""
"","bandit","123","494047","0.0-85.0-0.0","00996911","wem/bandit_party_1","ACAJFF4MF5S5X","either","5","247","","","","","","","0","0","1","","0.06260074275","0.2","0.4","0.8","0.6","0.4807409838","0.05295344446","0.4480494518","0.06260074275","","","","","","","","","","","","","","76","L","3","","","44","main_expt",""
"","bandit","124","495840","0.0-86.0-0.0","00996911","wem/bandit_party_1","ACAJFF4MF5S5X","either","5","276","","","","","","","1","0","0","0.08062123592","","0.2","0.4","0.8","0.6","","","","","0.4507048108","0.02744239742","0.4269729589","0.08062123592","","","","","","","","","","76","L","3","","","45","main_expt",""
"","bandit","125","497649","0.0-87.0-0.0","00996911","wem/bandit_party_1","ACAJFF4MF5S5X","either","5","294","","","","","","","0","0","1","0.1110847749","","0.2","0.4","0.8","0.6","","","","","0.4382321206","0.02347437243","0.4475746277","0.1110847749","","","","","","","","","","76","L","3","","","46","main_expt",""
"","bandit","126","499494","0.0-88.0-0.0","00996911","wem/bandit_party_1","ACAJFF4MF5S5X","either","5","326","","","","","","","0","0","1","0.05346849493","","0.2","0.4","0.8","0.6","","","","","0.4393937913","0.02418160198","0.4295618238","0.05346849493","","","","","","","","","","76","L","3","","","47","main_expt",""
"","bandit","127","501307","0.0-89.0-0.0","00996911","wem/bandit_party_1","ACAJFF4MF5S5X","either","5","297","","","","","","","0","0","1","","0.440318131","0.2","0.4","0.8","0.6","0.440318131","0.01182676654","0.4431907244","0.04499733497","","","","","","","","","","","","","","72","H","0","img/none_selected.jpg","","48","main_expt",""
"","bandit","128","503462","0.0-90.0-0.0","00996911","wem/bandit_party_1","ACAJFF4MF5S5X","either","5","637","","","","","","","0","0","1","","0.4362102412","0.2","0.4","0.8","0.6","0.4362102412","0.0186287842","0.4187732916","0.07378534534","","","","","","","","","","","","","","72","H","0","img/none_selected.jpg","","49","main_expt",""
"","bandit","129","505456","0.0-91.0-0.0","00996911","wem/bandit_party_1","ACAJFF4MF5S5X","either","5","480","","","","","","","1","0","0","0.356579213","","0.2","0.4","0.8","0.6","","","","","0.44488671","0.02550629551","0.356579213","0.06168845619","","","","","","","","","","75","K","2","","","50","main_expt",""
"","bandit","130","507229","0.0-92.0-0.0","00996911","wem/bandit_party_1","ACAJFF4MF5S5X","either","5","254","","","","","","","0","0","1","0.2629404955","","0.2","0.4","0.8","0.6","","","","","0.4633405548","0.04366809707","0.2629404955","0.1062028567","","","","","","","","","","75","K","2","","","51","main_expt",""
"","bandit","131","509121","0.0-93.0-0.0","00996911","wem/bandit_party_1","ACAJFF4MF5S5X","either","5","372","","","","","","","0","0","1","","0.04357168116","0.2","0.4","0.8","0.6","0.4528043762","0.04357168116","0.2919747068","0.1379608546","","","","","","","","","","","","","","74","J","1","","","52","main_expt",""
"","bandit","132","510923","0.0-94.0-0.0","00996911","wem/bandit_party_1","ACAJFF4MF5S5X","either","5","284","","","","","","","0","0","1","","0.03899227154","0.2","0.4","0.8","0.6","0.4390431751","0.03899227154","0.3809901122","0.1356826849","","","","","","","","","","","","","","74","J","1","","","53","main_expt",""
"","bandit","133","512757","0.0-95.0-0.0","00996911","wem/bandit_party_1","ACAJFF4MF5S5X","either","5","313","","","","","","","0","0","1","","0.3452518694","0.2","0.4","0.8","0.6","0.4549270822","0.04009146386","0.3452518694","0.1038772241","","","","","","","","","","","","","","75","K","2","","","54","main_expt",""
"","bandit","134","514765","0.0-96.0-0.0","00996911","wem/bandit_party_1","ACAJFF4MF5S5X","either","5","485","","","","","","","0","1","0","","0.4710341864","0.2","0.4","0.8","0.6","0.4710341864","0.0155768565","0.3263112327","0.1689791829","","","","","","","","","","","","","","72","H","0","img/none_selected.jpg","","55","main_expt",""
"","bandit","135","516576","0.0-97.0-0.0","00996911","wem/bandit_party_1","ACAJFF4MF5S5X","either","5","293","","","","","","","0","1","0","","0.4745834276","0.2","0.4","0.8","0.6","0.4745834276","0.02112461672","0.3308963945","0.1108888145","","","","","","","","","","","","","","72","H","0","img/none_selected.jpg","","56","main_expt",""
"","bandit","136","518409","0.0-98.0-0.0","00996911","wem/bandit_party_1","ACAJFF4MF5S5X","either","5","316","","","","","","","0","1","0","","0.489318572","0.2","0.4","0.8","0.6","0.489318572","0.0126553198","0.3150326571","0.1206542402","","","","","","","","","","","","","","72","H","0","img/none_selected.jpg","","57","main_expt",""
"","bandit","137","520238","0.0-99.0-0.0","00996911","wem/bandit_party_1","ACAJFF4MF5S5X","either","5","312","","","","","","","0","1","0","","0.480037986","0.2","0.4","0.8","0.6","0.480037986","0.01131359515","0.3049116772","0.09707343937","","","","","","","","","","","","","","72","H","0","img/none_selected.jpg","","58","main_expt",""
"","bandit","138","522254","0.0-100.0-0.0","00996911","wem/bandit_party_1","ACAJFF4MF5S5X","either","5","496","","","","","","","0","1","0","","0.4593461039","0.2","0.4","0.8","0.6","0.4593461039","0.01030075821","0.3050987947","0.1044384952","","","","","","","","","","","","","","72","H","0","img/none_selected.jpg","","59","main_expt",""
"","bandit","139","524160","0.0-101.0-0.0","00996911","wem/bandit_party_1","ACAJFF4MF5S5X","either","5","388","","","","","","","0","1","0","","0.446051488","0.2","0.4","0.8","0.6","0.446051488","0.005868957973","0.3274009355","0.08890369623","","","","","","","","","","","","","","72","H","0","img/none_selected.jpg","","60","main_expt",""
"","bandit","140","526165","0.0-102.0-0.0","00996911","wem/bandit_party_1","ACAJFF4MF5S5X","either","5","481","","","","","","","0","0","1","","0.4391285327","0.2","0.4","0.8","0.6","0.4391285327","0.004361943215","0.3428943983","0.08921221942","","","","","","","","","","","","","","72","H","0","img/none_selected.jpg","","61","main_expt",""
"","bandit","141","528006","0.0-103.0-0.0","00996911","wem/bandit_party_1","ACAJFF4MF5S5X","either","5","321","","","","","","","0","0","1","0.4063883723","","0.2","0.4","0.8","0.6","","","","","0.4063883723","0.005208412743","0.3549763931","0.09812025034","","","","","","","","","","72","H","0","img/none_selected.jpg","","62","main_expt",""
"","bandit","142","529816","0.0-104.0-0.0","00996911","wem/bandit_party_1","ACAJFF4MF5S5X","either","5","275","","","","","","","0","0","1","0.3496678451","","0.2","0.4","0.8","0.6","","","","","0.4330387396","0.006461011255","0.3496678451","0.09006279409","","","","","","","","","","75","K","2","","","63","main_expt",""
"","bandit","143","531657","0.0-105.0-0.0","00996911","wem/bandit_party_1","ACAJFF4MF5S5X","either","5","322","","","","","","","0","0","1","","0.01267926231","0.2","0.4","0.8","0.6","0.4207902426","0.01267926231","0.3188537263","0.1118976224","","","","","","","","","","","","","","74","J","1","","","64","main_expt",""
"","bandit","144","533479","0.0-106.0-0.0","00996911","wem/bandit_party_1","ACAJFF4MF5S5X","either","5","305","","","","","","","0","0","1","0.3191795336","","0.2","0.4","0.8","0.6","","","","","0.3719582347","0.009732787917","0.3191795336","0.1053817613","","","","","","","","","","75","K","2","","","65","main_expt",""
"","bandit","145","535275","0.0-107.0-0.0","00996911","wem/bandit_party_1","ACAJFF4MF5S5X","either","5","279","","","","","","","0","0","1","","0.1307356695","0.2","0.4","0.8","0.6","0.3748569955","0.01092542651","0.268616347","0.1307356695","","","","","","","","","","","","","","76","L","3","","","66","main_expt",""
"","bandit","146","537120","0.0-108.0-0.0","00996911","wem/bandit_party_1","ACAJFF4MF5S5X","either","5","326","","","","","","","0","0","1","0.02125534741","","0.2","0.4","0.8","0.6","","","","","0.335252031","0.02125534741","0.259194563","0.1418436428","","","","","","","","","","74","J","1","","","67","main_expt",""
"","bandit","147","538957","0.0-109.0-0.0","00996911","wem/bandit_party_1","ACAJFF4MF5S5X","either","5","313","","","","","","","0","1","0","","0.3199157278","0.2","0.4","0.8","0.6","0.3199157278","0.02360283027","0.2281204868","0.1459089566","","","","","","","","","","","","","","72","H","0","img/none_selected.jpg","","68","main_expt",""
"","bandit","148","540790","0.0-110.0-0.0","00996911","wem/bandit_party_1","ACAJFF4MF5S5X","either","5","299","","","","","","","0","0","1","","0.3068525281","0.2","0.4","0.8","0.6","0.3068525281","0.02539305756","0.2195844169","0.1809721424","","","","","","","","","","","","","","72","H","0","img/none_selected.jpg","","69","main_expt",""
"","bandit","149","542540","0.0-111.0-0.0","00996911","wem/bandit_party_1","ACAJFF4MF5S5X","either","5","234","","","","","","","0","0","1","0.1883338509","","0.2","0.4","0.8","0.6","","","","","0.3181076016","0.05014388586","0.1883338509","0.1784068974","","","","","","","","","","75","K","2","","","70","main_expt",""
"","bandit","150","544533","0.0-112.0-0.0","00996911","wem/bandit_party_1","ACAJFF4MF5S5X","either","5","475","","","","","","","1","0","0","0.2926426422","","0.2","0.4","0.8","0.6","","","","","0.2926426422","0.04209054697","0.1639708178","0.1973023396","","","","","","","","","","72","H","0","img/none_selected.jpg","","71","main_expt",""
"","bandit","151","546315","0.0-113.0-0.0","00996911","wem/bandit_party_1","ACAJFF4MF5S5X","either","5","261","","","","","","","0","0","1","","0.2380263643","0.2","0.4","0.8","0.6","0.2380263643","0.05611199342","0.1312842785","0.2436342847","","","","","","","","","","","","","","72","H","0","img/none_selected.jpg","","72","main_expt",""
"","bandit","152","548107","0.0-114.0-0.0","00996911","wem/bandit_party_1","ACAJFF4MF5S5X","either","5","272","","","","","","","0","0","1","0.05293238473","","0.2","0.4","0.8","0.6","","","","","0.2407197948","0.05293238473","0.1805041857","0.1992173182","","","","","","","","","","74","J","1","","","73","main_expt",""
"","bandit","153","549896","0.0-115.0-0.0","00996911","wem/bandit_party_1","ACAJFF4MF5S5X","either","5","272","","","","","","","1","0","0","0.2347098304","","0.2","0.4","0.8","0.6","","","","","0.2317468449","0.0318456884","0.1739557812","0.2347098304","","","","","","","","","","76","L","3","","","74","main_expt",""
"","bandit","154","551822","0.0-116.0-0.0","00996911","wem/bandit_party_1","ACAJFF4MF5S5X","either","5","407","","","","","","","0","0","1","0.2641442137","","0.2","0.4","0.8","0.6","","","","","0.2545997551","0.03873230677","0.2434916027","0.2641442137","","","","","","","","","","76","L","3","","","75","main_expt",""
"","bandit","155","553640","0.0-117.0-0.0","00996911","wem/bandit_party_1","ACAJFF4MF5S5X","either","5","301","","","","","","","0","1","0","","0.2890845388","0.2","0.4","0.8","0.6","0.2890845388","0.03304947682","0.2438468568","0.3192644053","","","","","","","","","","","","","","72","H","0","img/none_selected.jpg","","76","main_expt",""
"","bandit","156","555566","0.0-118.0-0.0","00996911","wem/bandit_party_1","ACAJFF4MF5S5X","either","5","408","","","","","","","0","0","1","","0.3351132613","0.2","0.4","0.8","0.6","0.2386362654","0.02607887458","0.2425324642","0.3351132613","","","","","","","","","","","","","","76","L","3","","","77","main_expt",""
"","bandit","157","557351","0.0-119.0-0.0","00996911","wem/bandit_party_1","ACAJFF4MF5S5X","either","5","267","","","","","","","0","0","1","","0.2673679704","0.2","0.4","0.8","0.6","0.2673679704","0.02492981692","0.205588479","0.3086784207","","","","","","","","","","","","","","72","H","0","img/none_selected.jpg","","78","main_expt",""
"","bandit","158","559234","0.0-120.0-0.0","00996911","wem/bandit_party_1","ACAJFF4MF5S5X","either","5","365","","","","","","","0","0","1","","0.213062191","0.2","0.4","0.8","0.6","0.2813811921","0.01824110002","0.213062191","0.3076482073","","","","","","","","","","","","","","75","K","2","","","79","main_expt",""
"","bandit","159","561439","0.0-121.0-0.0","00996911","wem/bandit_party_1","ACAJFF4MF5S5X","either","5","687","","","","","","","0","0","1","","0.1852926048","0.2","0.4","0.8","0.6","0.2419447949","0.0202176162","0.1852926048","0.3605025214","","","","","","","","","","","","","","75","K","2","","","80","main_expt",""
"","bandit","160","563305","0.0-122.0-0.0","00996911","wem/bandit_party_1","ACAJFF4MF5S5X","either","5","346","","","","","","","0","0","1","","0.323481111","0.2","0.4","0.8","0.6","0.323481111","0.0252752587","0.2332942271","0.3286166321","","","","","","","","","","","","","","72","H","0","img/none_selected.jpg","","81","main_expt",""
"","bandit","161","565122","0.0-123.0-0.0","00996911","wem/bandit_party_1","ACAJFF4MF5S5X","either","5","296","","","","","","","0","0","1","0.3459677762","","0.2","0.4","0.8","0.6","","","","","0.3097244961","0.05668457717","0.2087797338","0.3459677762","","","","","","","","","","76","L","3","","","82","main_expt",""
"","bandit","162","566978","0.0-124.0-0.0","00996911","wem/bandit_party_1","ACAJFF4MF5S5X","either","5","339","","","","","","","0","0","1","0.07760530004","","0.2","0.4","0.8","0.6","","","","","0.2787498647","0.07760530004","0.2049979043","0.3092751195","","","","","","","","","","74","J","1","","","83","main_expt",""
"","bandit","163","568855","0.0-125.0-0.0","00996911","wem/bandit_party_1","ACAJFF4MF5S5X","either","5","358","","","","","","","0","0","1","0.03696005566","","0.2","0.4","0.8","0.6","","","","","0.2589524449","0.03696005566","0.2151780091","0.3044630387","","","","","","","","","","74","J","1","","","84","main_expt",""
"","bandit","164","570682","0.0-126.0-0.0","00996911","wem/bandit_party_1","ACAJFF4MF5S5X","either","5","306","","","","","","","1","0","0","0.2812480587","","0.2","0.4","0.8","0.6","","","","","0.2769318636","0.04177257934","0.1497615914","0.2812480587","","","","","","","","","","76","L","3","","","85","main_expt",""
"","bandit","165","572499","0.0-127.0-0.0","00996911","wem/bandit_party_1","ACAJFF4MF5S5X","either","5","296","","","","","","","0","0","1","0.2506532223","","0.2","0.4","0.8","0.6","","","","","0.2849222391","0.0385770192","0.1223687677","0.2506532223","","","","","","","","","","76","L","3","","","86","main_expt",""
"","bandit","166","574301","0.0-128.0-0.0","00996911","wem/bandit_party_1","ACAJFF4MF5S5X","either","5","280","","","","","","","0","0","1","","0.2269900387","0.2","0.4","0.8","0.6","0.3131087309","0.03720252147","0.1472857413","0.2269900387","","","","","","","","","","","","","","76","L","3","","","87","main_expt",""
"","bandit","167","576208","0.0-129.0-0.0","00996911","wem/bandit_party_1","ACAJFF4MF5S5X","either","5","383","","","","","","","0","0","1","0.1252586248","","0.2","0.4","0.8","0.6","","","","","0.3038587512","0.06746059371","0.1252586248","0.1504729919","","","","","","","","","","75","K","2","","","88","main_expt",""
"","bandit","168","578149","0.0-130.0-0.0","00996911","wem/bandit_party_1","ACAJFF4MF5S5X","either","5","417","","","","","","","0","0","1","0.1194927994","","0.2","0.4","0.8","0.6","","","","","0.3308022157","0.04069757945","0.1194927994","0.1382070302","","","","","","","","","","75","K","2","","","89","main_expt",""
"","bandit","169","580022","0.0-131.0-0.0","00996911","wem/bandit_party_1","ACAJFF4MF5S5X","either","5","344","","","","","","","0","1","0","","0.3574922351","0.2","0.4","0.8","0.6","0.3574922351","0.07325379503","0.1589750007","0.1364765349","","","","","","","","","","","","","","72","H","0","img/none_selected.jpg","","90","main_expt",""
"","bandit","170","581936","0.0-132.0-0.0","00996911","wem/bandit_party_1","ACAJFF4MF5S5X","either","5","393","","","","","","","0","0","1","0.3729517688","","0.2","0.4","0.8","0.6","","","","","0.3729517688","0.06877471811","0.1859960426","0.09318196272","","","","","","","","","","72","H","0","img/none_selected.jpg","","91","main_expt",""
"","bandit","171","584137","0.0-133.0-0.0","00996911","wem/bandit_party_1","ACAJFF4MF5S5X","either","5","681","","","","","","","0","0","1","","0.398352994","0.2","0.4","0.8","0.6","0.398352994","0.04115987362","0.192419488","0.06946097624","","","","","","","","","","","","","","72","H","0","img/none_selected.jpg","","92","main_expt",""
"","bandit","172","586123","0.0-134.0-0.0","00996911","wem/bandit_party_1","ACAJFF4MF5S5X","either","5","463","","","","","","","0","0","1","","0.08102832817","0.2","0.4","0.8","0.6","0.4135860398","0.07078892783","0.1716033463","0.08102832817","","","","","","","","","","","","","","76","L","3","","","93","main_expt",""
"","bandit","173","589031","0.0-135.0-0.0","00996911","wem/bandit_party_1","ACAJFF4MF5S5X","either","5","1386","","","","","","","0","0","1","","0.05572868433","0.2","0.4","0.8","0.6","0.3786880174","0.05572868433","0.1935897604","0.1271360848","","","","","","","","","","","","","","74","J","1","","","94","main_expt",""
"","bandit","174","591070","0.0-136.0-0.0","00996911","wem/bandit_party_1","ACAJFF4MF5S5X","either","5","519","","","","","","","0","0","1","0.05056929995","","0.2","0.4","0.8","0.6","","","","","0.3823424718","0.05056929995","0.2193228015","0.1097592989","","","","","","","","","","74","J","1","","","95","main_expt",""
"","bandit","175","592955","0.0-137.0-0.0","00996911","wem/bandit_party_1","ACAJFF4MF5S5X","either","5","348","","","","","","","0","0","1","0.3262643469","","0.2","0.4","0.8","0.6","","","","","0.3642725552","0.04159874267","0.3262643469","0.1085490834","","","","","","","","","","75","K","2","","","96","main_expt",""
"","bandit","176","594956","0.0-138.0-0.0","00996911","wem/bandit_party_1","ACAJFF4MF5S5X","either","5","463","","","","","","","0","1","0","","0.3207405496","0.2","0.4","0.8","0.6","0.3197717944","0.03654451862","0.3207405496","0.1049812554","","","","","","","","","","","","","","75","K","2","","","97","main_expt",""
"","bandit","177","596898","0.0-139.0-0.0","00996911","wem/bandit_party_1","ACAJFF4MF5S5X","either","5","423","","","","","","","0","0","1","0.3712856991","","0.2","0.4","0.8","0.6","","","","","0.2514424369","0.04190300095","0.3712856991","0.08177978443","","","","","","","","","","75","K","2","","","98","main_expt",""
"","bandit","178","598848","0.0-140.0-0.0","00996911","wem/bandit_party_1","ACAJFF4MF5S5X","either","5","432","","","","","","","0","0","1","0.07574087804","","0.2","0.4","0.8","0.6","","","","","0.2926772137","0.08742990617","0.3740145378","0.07574087804","","","","","","","","","","76","L","3","","","99","main_expt",""
"","bandit","179","601495","0.0-141.0-0.0","00996911","wem/bandit_party_1","ACAJFF4MF5S5X","either","5","1112","","","","","","","0","0","1","0.07829319678","","0.2","0.4","0.8","0.6","","","","","0.234485335","0.08966523481","0.3776295542","0.07829319678","","","","","","","","","","76","L","3","","","100","main_expt",""
"","bandit","180","603376","0.0-142.0-0.0","00996911","wem/bandit_party_1","ACAJFF4MF5S5X","either","5","344","","","","","","","0","0","1","","0.250352175","0.2","0.4","0.8","0.6","0.250352175","0.07849065771","0.3592666398","0.07919243683","","","","","","","","","","","","","","72","H","0","img/none_selected.jpg","","101","main_expt",""
"","bandit","181","605244","0.0-143.0-0.0","00996911","wem/bandit_party_1","ACAJFF4MF5S5X","either","5","344","","","","","","","0","0","1","0.1054267613","","0.2","0.4","0.8","0.6","","","","","0.2139972863","0.1054267613","0.3412191773","0.1052753188","","","","","","","","","","74","J","1","","","102","main_expt",""
"","bandit","182","607125","0.0-144.0-0.0","00996911","wem/bandit_party_1","ACAJFF4MF5S5X","either","5","358","","","","","","","1","0","0","0.3133100433","","0.2","0.4","0.8","0.6","","","","","0.20092706","0.1120981937","0.3133100433","0.1248526142","","","","","","","","","","75","K","2","","","103","main_expt",""
"","bandit","183","609117","0.0-145.0-0.0","00996911","wem/bandit_party_1","ACAJFF4MF5S5X","either","5","468","","","","","","","0","0","1","0.3219148419","","0.2","0.4","0.8","0.6","","","","","0.2305366804","0.1034740879","0.3219148419","0.142969925","","","","","","","","","","75","K","2","","","104","main_expt",""
"","bandit","184","611175","0.0-146.0-0.0","00996911","wem/bandit_party_1","ACAJFF4MF5S5X","either","5","541","","","","","","","1","0","0","0.3300892518","","0.2","0.4","0.8","0.6","","","","","0.2102135581","0.07597240327","0.3300892518","0.13947254","","","","","","","","","","75","K","2","","","105","main_expt",""
"","bandit","185","612928","0.0-147.0-0.0","00996911","wem/bandit_party_1","ACAJFF4MF5S5X","either","5","235","","","","","","","0","0","1","0.3401839058","","0.2","0.4","0.8","0.6","","","","","0.2219457329","0.1124257427","0.3401839058","0.1329526997","","","","","","","","","","75","K","2","","","106","main_expt",""
"","bandit","186","614717","0.0-148.0-0.0","00996911","wem/bandit_party_1","ACAJFF4MF5S5X","either","5","270","","","","","","","1","0","0","0.3784706915","","0.2","0.4","0.8","0.6","","","","","0.3048423019","0.1133168519","0.3784706915","0.1727290233","","","","","","","","","","75","K","2","","","107","main_expt",""
"","bandit","187","616811","0.0-149.0-0.0","00996911","wem/bandit_party_1","ACAJFF4MF5S5X","either","5","576","","","","","","","0","0","1","0.3945753887","","0.2","0.4","0.8","0.6","","","","","0.258150515","0.1752395656","0.3945753887","0.1864487031","","","","","","","","","","75","K","2","","","108","main_expt",""
"","bandit","188","618601","0.0-150.0-0.0","00996911","wem/bandit_party_1","ACAJFF4MF5S5X","either","5","272","","","","","","","0","0","1","0.356827327","","0.2","0.4","0.8","0.6","","","","","0.1859129148","0.1862973424","0.356827327","0.2463216238","","","","","","","","","","75","K","2","","","109","main_expt",""
"","bandit","189","620385","0.0-151.0-0.0","00996911","wem/bandit_party_1","ACAJFF4MF5S5X","either","5","258","","","","","","","0","0","1","0.2431522628","","0.2","0.4","0.8","0.6","","","","","0.1371624404","0.2015845776","0.2344179837","0.2431522628","","","","","","","","","","76","L","3","","","110","main_expt",""
"","bandit","190","622185","0.0-152.0-0.0","00996911","wem/bandit_party_1","ACAJFF4MF5S5X","either","5","283","","","","","","","0","0","1","","0.1757476643","0.2","0.4","0.8","0.6","0.1258232978","0.2003651753","0.2644823096","0.1757476643","","","","","","","","","","","","","","76","L","3","","","111","main_expt",""
"","bandit","191","624220","0.0-153.0-0.0","00996911","wem/bandit_party_1","ACAJFF4MF5S5X","either","5","517","","","","","","","0","0","1","","0.1529967373","0.2","0.4","0.8","0.6","0.1529967373","0.21392293","0.28311182","0.2451518953","","","","","","","","","","","","","","72","H","0","img/none_selected.jpg","","112","main_expt",""
"","bandit","192","626790","0.0-154.0-0.0","00996911","wem/bandit_party_1","ACAJFF4MF5S5X","either","5","1047","","","","","","","0","0","1","","0.148248117","0.2","0.4","0.8","0.6","0.148248117","0.1606798039","0.2413269532","0.2407836715","","","","","","","","","","","","","","72","H","0","img/none_selected.jpg","","113","main_expt",""
"","bandit","193","628734","0.0-155.0-0.0","00996911","wem/bandit_party_1","ACAJFF4MF5S5X","either","5","424","","","","","","","0","0","1","","0.2095980235","0.2","0.4","0.8","0.6","0.1562208239","0.2095980235","0.3100969134","0.3099317417","","","","","","","","","","","","","","74","J","1","","","114","main_expt",""
"","bandit","194","630652","0.0-156.0-0.0","00996911","wem/bandit_party_1","ACAJFF4MF5S5X","either","5","375","","","","","","","0","0","1","","0.2550279667","0.2","0.4","0.8","0.6","0.2138032898","0.2550279667","0.329842252","0.3180754701","","","","","","","","","","","","","","74","J","1","","","115","main_expt",""
"","bandit","195","632434","0.0-157.0-0.0","00996911","wem/bandit_party_1","ACAJFF4MF5S5X","either","5","262","","","","","","","0","0","1","0.3223706096","","0.2","0.4","0.8","0.6","","","","","0.2331260325","0.2471764387","0.3223706096","0.2919742107","","","","","","","","","","75","K","2","","","116","main_expt",""
"","bandit","196","634271","0.0-158.0-0.0","00996911","wem/bandit_party_1","ACAJFF4MF5S5X","either","5","311","","","","","","","0","0","1","0.3098408215","","0.2","0.4","0.8","0.6","","","","","0.1826309729","0.2730878341","0.3098408215","0.2799774295","","","","","","","","","","75","K","2","","","117","main_expt",""
"","bandit","197","636184","0.0-159.0-0.0","00996911","wem/bandit_party_1","ACAJFF4MF5S5X","either","5","390","","","","","","","0","0","1","0.2974554567","","0.2","0.4","0.8","0.6","","","","","0.1511269107","0.2071462199","0.2974554567","0.2646714695","","","","","","","","","","75","K","2","","","118","main_expt",""
"","bandit","198","638054","0.0-160.0-0.0","00996911","wem/bandit_party_1","ACAJFF4MF5S5X","either","5","347","","","","","","","0","0","1","0.3179839519","","0.2","0.4","0.8","0.6","","","","","0.1559979654","0.2275232499","0.3598468986","0.3179839519","","","","","","","","","","76","L","3","","","119","main_expt",""
"","bandit","199","639834","0.0-161.0-0.0","00996911","wem/bandit_party_1","ACAJFF4MF5S5X","either","5","260","","","","","","","0","0","1","","0.3302262658","0.2","0.4","0.8","0.6","0.1463004055","0.2767559596","0.2984373086","0.3302262658","","","","","","","","","","","","","","76","L","3","","","120","main_expt",""
"","bandit","200","641708","0.0-162.0-0.0","00996911","wem/bandit_party_1","ACAJFF4MF5S5X","either","5","354","","","","","","","0","0","1","","0.3500549905","0.2","0.4","0.8","0.6","0.1418195479","0.3448590315","0.2973090059","0.3500549905","","","","","","","","","","","","","","76","L","3","","","121","main_expt",""
"","bandit","201","643552","0.0-163.0-0.0","00996911","wem/bandit_party_1","ACAJFF4MF5S5X","either","5","323","","","","","","","0","0","1","","0.3593301016","0.2","0.4","0.8","0.6","0.1270782113","0.3593301016","0.3382791822","0.2686616284","","","","","","","","","","","","","","74","J","1","","","122","main_expt",""
"","bandit","202","645356","0.0-164.0-0.0","00996911","wem/bandit_party_1","ACAJFF4MF5S5X","either","5","285","","","","","","","0","0","1","","0.3680529171","0.2","0.4","0.8","0.6","0.1207154071","0.3680529171","0.3154347028","0.2277230314","","","","","","","","","","","","","","74","J","1","","","123","main_expt",""
"","bandit","203","647613","0.0-165.0-0.0","00996911","wem/bandit_party_1","ACAJFF4MF5S5X","either","5","733","","","","","","","0","0","1","","0.3476523483","0.2","0.4","0.8","0.6","0.1229329119","0.3476523483","0.2966737815","0.3287090939","","","","","","","","","","","","","","74","J","1","","","124","main_expt",""
"","bandit","204","649423","0.0-166.0-0.0","00996911","wem/bandit_party_1","ACAJFF4MF5S5X","either","5","287","","","","","","","0","0","1","","0.09241122996","0.2","0.4","0.8","0.6","0.09241122996","0.3564603465","0.3094831126","0.3687339586","","","","","","","","","","","","","","72","H","0","img/none_selected.jpg","","125","main_expt",""
"","bandit","205","651288","0.0-167.0-0.0","00996911","wem/bandit_party_1","ACAJFF4MF5S5X","either","5","344","","","","","","","0","0","1","","0.08418962236","0.2","0.4","0.8","0.6","0.08418962236","0.3550684458","0.2488993205","0.3836195774","","","","","","","","","","","","","","72","H","0","img/none_selected.jpg","","126","main_expt",""
"","bandit","206","652833","0.0-168.0-0.0","00996911","wem/bandit_party_1","ACAJFF4MF5S5X","either","5","13","","","","","","","0","0","1","","0.154715772","0.2","0.4","0.8","0.6","0.154715772","0.3235559827","0.1953487027","0.3617365958","","","","","","","","","","","","","","72","H","0","img/none_selected.jpg","","127","main_expt",""
"","bandit","207","654874","0.0-169.0-0.0","00996911","wem/bandit_party_1","ACAJFF4MF5S5X","either","5","517","","","","","","","0","0","1","","0.1556709078","0.2","0.4","0.8","0.6","0.1556709078","0.312087491","0.2171889907","0.3235283493","","","","","","","","","","","","","","72","H","0","img/none_selected.jpg","","128","main_expt",""
"","bandit","208","656780","0.0-170.0-0.0","00996911","wem/bandit_party_1","ACAJFF4MF5S5X","either","5","383","","","","","","","0","1","0","","0.2843272188","0.2","0.4","0.8","0.6","0.1214200615","0.2843272188","0.2467699801","0.3453830546","","","","","","","","","","","","","","74","J","1","","","129","main_expt",""
"","bandit","209","658577","0.0-171.0-0.0","00996911","wem/bandit_party_1","ACAJFF4MF5S5X","either","5","258","","","","","","","0","0","1","","0.2128416856","0.2","0.4","0.8","0.6","0.1377283829","0.2128416856","0.2814443482","0.3242747857","","","","","","","","","","","","","","74","J","1","","","130","main_expt",""
"","bandit","210","660434","0.0-172.0-0.0","00996911","wem/bandit_party_1","ACAJFF4MF5S5X","either","5","333","","","","","","","0","0","1","0.2403879813","","0.2","0.4","0.8","0.6","","","","","0.1397421628","0.2403879813","0.2834176508","0.3417201858","","","","","","","","","","74","J","1","","","131","main_expt",""
"","bandit","211","662228","0.0-173.0-0.0","00996911","wem/bandit_party_1","ACAJFF4MF5S5X","either","5","269","","","","","","","0","0","1","0.2429908031","","0.2","0.4","0.8","0.6","","","","","0.1061875113","0.2811421594","0.2429908031","0.3498614837","","","","","","","","","","75","K","2","","","132","main_expt",""
"","bandit","212","664033","0.0-174.0-0.0","00996911","wem/bandit_party_1","ACAJFF4MF5S5X","either","5","284","","","","","","","0","0","1","0.3002858371","","0.2","0.4","0.8","0.6","","","","","0.07774811701","0.3002858371","0.3053559495","0.3134828643","","","","","","","","","","74","J","1","","","133","main_expt",""
"","bandit","213","665735","0.0-175.0-0.0","00996911","wem/bandit_party_1","ACAJFF4MF5S5X","either","5","181","","","","","","","0","1","0","","0.3554593188","0.2","0.4","0.8","0.6","0.08211281178","0.277406375","0.2693478067","0.3554593188","","","","","","","","","","","","","","76","L","3","","","134","main_expt",""
"","bandit","214","667574","0.0-176.0-0.0","00996911","wem/bandit_party_1","ACAJFF4MF5S5X","either","5","297","","","","","","","0","0","1","","0.3150900126","0.2","0.4","0.8","0.6","0.1123817552","0.2897147582","0.3369166079","0.3150900126","","","","","","","","","","","","","","76","L","3","","","135","main_expt",""
"","bandit","215","669440","0.0-177.0-0.0","00996911","wem/bandit_party_1","ACAJFF4MF5S5X","either","5","343","","","","","","","0","0","1","0.3199395785","","0.2","0.4","0.8","0.6","","","","","0.1478339482","0.3590576628","0.268603144","0.3199395785","","","","","","","","","","76","L","3","","","136","main_expt",""
"","bandit","216","671242","0.0-178.0-0.0","00996911","wem/bandit_party_1","ACAJFF4MF5S5X","either","5","277","","","","","","","0","0","1","0.2373427956","","0.2","0.4","0.8","0.6","","","","","0.1374936615","0.3822427384","0.2373427956","0.33362357","","","","","","","","","","75","K","2","","","137","main_expt",""
"","bandit","217","673322","0.0-179.0-0.0","00996911","wem/bandit_party_1","ACAJFF4MF5S5X","either","5","341","","","","","","","1","0","0","0.3611324022","","0.2","0.4","0.8","0.6","","","","","0.159761955","0.3410071165","0.2206869265","0.3611324022","","","","","","","","","","76","L","3","","","138","main_expt",""
"","bandit","218","675290","0.0-180.0-0.0","00996911","wem/bandit_party_1","ACAJFF4MF5S5X","either","5","411","","","","","","","0","1","0","","0.3504145086","0.2","0.4","0.8","0.6","0.1363721132","0.3738014659","0.2177966349","0.3504145086","","","","","","","","","","","","","","76","L","3","","","139","main_expt",""
"","bandit","219","677270","0.0-181.0-0.0","00996911","wem/bandit_party_1","ACAJFF4MF5S5X","either","5","449","","","","","","","1","0","0","0.309774603","","0.2","0.4","0.8","0.6","","","","","0.1031445192","0.422575493","0.2387685432","0.309774603","","","","","","","","","","76","L","3","","","140","main_expt",""
"","bandit","220","679461","0.0-182.0-0.0","00996911","wem/bandit_party_1","ACAJFF4MF5S5X","either","5","666","","","","","","","1","0","0","0.3506531288","","0.2","0.4","0.8","0.6","","","","","0.09805286369","0.4439129864","0.2575087366","0.3506531288","","","","","","","","","","76","L","3","","","141","main_expt",""
"","bandit","221","681359","0.0-183.0-0.0","00996911","wem/bandit_party_1","ACAJFF4MF5S5X","either","5","370","","","","","","","0","0","1","0.2965027242","","0.2","0.4","0.8","0.6","","","","","0.1149002948","0.4323802182","0.2392038972","0.2965027242","","","","","","","","","","76","L","3","","","142","main_expt",""
"","bandit","222","683172","0.0-184.0-0.0","00996911","wem/bandit_party_1","ACAJFF4MF5S5X","either","5","293","","","","","","","0","0","1","","0.4358412593","0.2","0.4","0.8","0.6","0.1209542099","0.4358412593","0.2216470548","0.2087517366","","","","","","","","","","","","","","74","J","1","","","143","main_expt",""
"","bandit","223","684985","0.0-185.0-0.0","00996911","wem/bandit_party_1","ACAJFF4MF5S5X","either","5","289","","","","","","","0","0","1","0.2313605626","","0.2","0.4","0.8","0.6","","","","","0.1202521083","0.4407373256","0.2224896139","0.2313605626","","","","","","","","","","76","L","3","","","144","main_expt",""
"","bandit","224","686821","0.0-186.0-0.0","00996911","wem/bandit_party_1","ACAJFF4MF5S5X","either","5","318","","","","","","","0","0","1","","0.4661091035","0.2","0.4","0.8","0.6","0.1619743669","0.4661091035","0.1925605464","0.1785565547","","","","","","","","","","","","","","74","J","1","","","145","main_expt",""
"","bandit","225","688639","0.0-187.0-0.0","00996911","wem/bandit_party_1","ACAJFF4MF5S5X","either","5","297","","","","","","","0","0","1","","0.1664631043","0.2","0.4","0.8","0.6","0.1664631043","0.4637097668","0.2069800611","0.1770660648","","","","","","","","","","","","","","72","H","0","img/none_selected.jpg","","146","main_expt",""
"","bandit","226","690505","0.0-188.0-0.0","00996911","wem/bandit_party_1","ACAJFF4MF5S5X","either","5","345","","","","","","","0","0","1","","0.1063371611","0.2","0.4","0.8","0.6","0.1669241763","0.4700491642","0.2489662189","0.1063371611","","","","","","","","","","","","","","76","L","3","","","147","main_expt",""
"","bandit","227","692300","0.0-189.0-0.0","00996911","wem/bandit_party_1","ACAJFF4MF5S5X","either","5","275","","","","","","","0","0","1","0.1946464158","","0.2","0.4","0.8","0.6","","","","","0.1581456949","0.4648109734","0.1946464158","0.1216370817","","","","","","","","","","75","K","2","","","148","main_expt",""
"","bandit","228","694081","0.0-190.0-0.0","00996911","wem/bandit_party_1","ACAJFF4MF5S5X","either","5","260","","","","","","","0","0","1","0.4635511513","","0.2","0.4","0.8","0.6","","","","","0.1698392466","0.4635511513","0.1826562491","0.1024256959","","","","","","","","","","74","J","1","","","149","main_expt",""
"","bandit","229","695930","0.0-191.0-0.0","00996911","wem/bandit_party_1","ACAJFF4MF5S5X","either","5","325","","","","","","","0","0","1","0.1371094633","","0.2","0.4","0.8","0.6","","","","","0.2140114634","0.4445017148","0.1750473563","0.1371094633","","","","","","","","","","76","L","3","","","150","main_expt",""
"","bandit","230","697754","0.0-192.0-0.0","00996911","wem/bandit_party_1","ACAJFF4MF5S5X","either","5","298","","","","","","","0","0","1","0.1109536645","","0.2","0.4","0.8","0.6","","","","","0.2392960001","0.4434799742","0.1109536645","0.1702433702","","","","","","","","","","75","K","2","","","151","main_expt",""
"","bandit","231","699554","0.0-193.0-0.0","00996911","wem/bandit_party_1","ACAJFF4MF5S5X","either","5","253","","","","","","","0","0","1","0.1143086707","","0.2","0.4","0.8","0.6","","","","","0.2095863317","0.4451665291","0.1143086707","0.1860489046","","","","","","","","","","75","K","2","","","152","main_expt",""
"","bandit","232","701412","0.0-194.0-0.0","00996911","wem/bandit_party_1","ACAJFF4MF5S5X","either","5","336","","","","","","","0","0","1","0.4401532833","","0.2","0.4","0.8","0.6","","","","","0.2543258611","0.4401532833","0.1236290712","0.2117094388","","","","","","","","","","74","J","1","","","153","main_expt",""
"","bandit","233","703324","0.0-195.0-0.0","00996911","wem/bandit_party_1","ACAJFF4MF5S5X","either","5","386","","","","","","","0","0","1","","0.4516855879","0.2","0.4","0.8","0.6","0.2602259906","0.4516855879","0.1600695342","0.2072389033","","","","","","","","","","","","","","74","J","1","","","154","main_expt",""
"","bandit","234","705178","0.0-196.0-0.0","00996911","wem/bandit_party_1","ACAJFF4MF5S5X","either","5","331","","","","","","","0","0","1","0.2750581274","","0.2","0.4","0.8","0.6","","","","","0.2750581274","0.4480264808","0.1770288166","0.1986333914","","","","","","","","","","72","H","0","img/none_selected.jpg","","155","main_expt",""
"","bandit","235","707013","0.0-197.0-0.0","00996911","wem/bandit_party_1","ACAJFF4MF5S5X","either","5","312","","","","","","","0","0","1","","0.2438045727","0.2","0.4","0.8","0.6","0.2438045727","0.4260414265","0.1761817894","0.2054640346","","","","","","","","","","","","","","72","H","0","img/none_selected.jpg","","156","main_expt",""
"","bandit","236","708956","0.0-198.0-0.0","00996911","wem/bandit_party_1","ACAJFF4MF5S5X","either","5","423","","","","","","","0","0","1","0.1810715383","","0.2","0.4","0.8","0.6","","","","","0.2857025143","0.4365201507","0.1998830888","0.1810715383","","","","","","","","","","76","L","3","","","157","main_expt",""
"","bandit","237","710767","0.0-199.0-0.0","00996911","wem/bandit_party_1","ACAJFF4MF5S5X","either","5","285","","","","","","","0","0","1","","0.2118906364","0.2","0.4","0.8","0.6","0.2887719476","0.4076244479","0.2150354531","0.2118906364","","","","","","","","","","","","","","76","L","3","","","158","main_expt",""
"","bandit","238","712575","0.0-200.0-0.0","00996911","wem/bandit_party_1","ACAJFF4MF5S5X","either","5","285","","","","","","","1","0","0","0.2293976715","","0.2","0.4","0.8","0.6","","","","","0.2859462397","0.403953851","0.2221069796","0.2293976715","","","","","","","","","","76","L","3","","","159","main_expt",""
"","bandit","239","714546","0.0-201.0-0.0","00996911","wem/bandit_party_1","ACAJFF4MF5S5X","either","5","438","","","","","","","0","0","1","0.2186051381","","0.2","0.4","0.8","0.6","","","","","0.207432816","0.4282135537","0.2627335039","0.2186051381","","","","","","","","","","76","L","3","","","160","main_expt",""
"","bandit","240","716394","0.0-202.0-0.0","00996911","wem/bandit_party_1","ACAJFF4MF5S5X","either","5","328","","","","","","","0","0","1","0.2922457848","","0.2","0.4","0.8","0.6","","","","","0.1611694724","0.4479073124","0.2922457848","0.2175927206","","","","","","","","","","75","K","2","","","161","main_expt",""
"","bandit","241","718256","0.0-203.0-0.0","00996911","wem/bandit_party_1","ACAJFF4MF5S5X","either","5","336","","","","","","","0","0","1","0.2370404117","","0.2","0.4","0.8","0.6","","","","","0.14378348","0.4456201243","0.3040212123","0.2370404117","","","","","","","","","","76","L","3","","","162","main_expt",""
"","bandit","242","720112","0.0-204.0-0.0","00996911","wem/bandit_party_1","ACAJFF4MF5S5X","either","5","334","","","","","","","0","1","0","","0.4384930657","0.2","0.4","0.8","0.6","0.1707099899","0.4384930657","0.2933359027","0.2778780432","","","","","","","","","","","","","","74","J","1","","","163","main_expt",""
"","bandit","243","721932","0.0-205.0-0.0","00996911","wem/bandit_party_1","ACAJFF4MF5S5X","either","5","299","","","","","","","0","1","0","","0.4231568034","0.2","0.4","0.8","0.6","0.1933693166","0.4231568034","0.2388203062","0.2643388611","","","","","","","","","","","","","","74","J","1","","","164","main_expt",""
"","bandit","244","723732","0.0-206.0-0.0","00996911","wem/bandit_party_1","ACAJFF4MF5S5X","either","5","279","","","","","","","0","1","0","","0.4412535734","0.2","0.4","0.8","0.6","0.2406324952","0.4412535734","0.2646204916","0.1967204453","","","","","","","","","","","","","","74","J","1","","","165","main_expt",""
"","bandit","245","725643","0.0-207.0-0.0","00996911","wem/bandit_party_1","ACAJFF4MF5S5X","either","5","357","","","","","","","0","0","1","","0.438364003","0.2","0.4","0.8","0.6","0.2650462377","0.438364003","0.2591758032","0.1567937345","","","","","","","","","","","","","","74","J","1","","","166","main_expt",""
"","bandit","246","727547","0.0-208.0-0.0","00996911","wem/bandit_party_1","ACAJFF4MF5S5X","either","5","382","","","","","","","0","0","1","","0.1201482918","0.2","0.4","0.8","0.6","0.245875583","0.4290991351","0.1955934818","0.1201482918","","","","","","","","","","","","","","76","L","3","","","167","main_expt",""
"","bandit","247","729353","0.0-209.0-0.0","00996911","wem/bandit_party_1","ACAJFF4MF5S5X","either","5","283","","","","","","","0","1","0","","0.4510860662","0.2","0.4","0.8","0.6","0.257303599","0.4510860662","0.2090603634","0.0936051119","","","","","","","","","","","","","","74","J","1","","","168","main_expt",""
"","bandit","248","731190","0.0-210.0-0.0","00996911","wem/bandit_party_1","ACAJFF4MF5S5X","either","5","313","","","","","","","0","1","0","","0.4491424364","0.2","0.4","0.8","0.6","0.2993732043","0.4491424364","0.2678479696","0.08775096918","","","","","","","","","","","","","","74","J","1","","","169","main_expt",""
"","bandit","249","733030","0.0-211.0-0.0","00996911","wem/bandit_party_1","ACAJFF4MF5S5X","either","5","315","","","","","","","0","0","1","","0.4332244901","0.2","0.4","0.8","0.6","0.3388977639","0.4332244901","0.2532125956","0.06743429675","","","","","","","","","","","","","","74","J","1","","","170","main_expt",""
"","bandit","250","734817","0.0-212.0-0.0","00996911","wem/bandit_party_1","ACAJFF4MF5S5X","either","5","256","","","","","","","0","0","1","","0.05979118822","0.2","0.4","0.8","0.6","0.2947926635","0.4405036994","0.2568627054","0.05979118822","","","","","","","","","","","","","","76","L","3","","","171","main_expt",""
"","bandit","251","736945","0.0-213.0-0.0","00996911","wem/bandit_party_1","ACAJFF4MF5S5X","either","5","597","","","","","","","0","0","1","0.4358521759","","0.2","0.4","0.8","0.6","","","","","0.2892529657","0.4358521759","0.2451563353","0.03200499914","","","","","","","","","","74","J","1","","","172","main_expt",""
"","bandit","252","738844","0.0-214.0-0.0","00996911","wem/bandit_party_1","ACAJFF4MF5S5X","either","5","320","","","","","","","0","0","1","0.3003395367","","0.2","0.4","0.8","0.6","","","","","0.2571917514","0.4471617722","0.3003395367","0.04613358223","","","","","","","","","","75","K","2","","","173","main_expt",""
"","bandit","253","740480","0.0-215.0-0.0","00996911","wem/bandit_party_1","ACAJFF4MF5S5X","either","5","101","","","","","","","0","0","1","0.05969677181","","0.2","0.4","0.8","0.6","","","","","0.244173221","0.4560251174","0.2545998681","0.05969677181","","","","","","","","","","76","L","3","","","174","main_expt",""
"","bandit","254","742304","0.0-216.0-0.0","00996911","wem/bandit_party_1","ACAJFF4MF5S5X","either","5","297","","","","","","","0","1","0","","0.4379349024","0.2","0.4","0.8","0.6","0.2038098688","0.4379349024","0.3383135611","0.05930066603","","","","","","","","","","","","","","74","J","1","","","175","main_expt",""
"","bandit","255","744116","0.0-217.0-0.0","00996911","wem/bandit_party_1","ACAJFF4MF5S5X","either","5","263","","","","","","","0","1","0","","0.08110879181","0.2","0.4","0.8","0.6","0.2053823003","0.4328841116","0.3880627729","0.08110879181","","","","","","","","","","","","","","76","L","3","","","176","main_expt",""
"","bandit","256","745900","0.0-218.0-0.0","00996911","wem/bandit_party_1","ACAJFF4MF5S5X","either","5","261","","","","","","","0","0","1","","0.3965365967","0.2","0.4","0.8","0.6","0.2193083282","0.3965365967","0.3920994557","0.07611568943","","","","","","","","","","","","","","74","J","1","","","177","main_expt",""
"","bandit","257","747653","0.0-219.0-0.0","00996911","wem/bandit_party_1","ACAJFF4MF5S5X","either","5","229","","","","","","","1","0","0","0.1220467165","","0.2","0.4","0.8","0.6","","","","","0.1904263594","0.3899234309","0.3882277994","0.1220467165","","","","","","","","","","76","L","3","","","178","main_expt",""
"","bandit","258","749428","0.0-220.0-0.0","00996911","wem/bandit_party_1","ACAJFF4MF5S5X","either","5","250","","","","","","","0","0","1","0.1698853315","","0.2","0.4","0.8","0.6","","","","","0.2212788648","0.4238443777","0.3939691408","0.1698853315","","","","","","","","","","76","L","3","","","179","main_expt",""
"","bandit","259","751006","0.0-221.0-0.0","00996911","wem/bandit_party_1","ACAJFF4MF5S5X","either","5","49","","","","","","","0","0","1","","0.2640717145","0.2","0.4","0.8","0.6","0.2640717145","0.4487400994","0.4074656662","0.1374762061","","","","","","","","","","","","","","72","H","0","img/none_selected.jpg","","180","main_expt",""
"","bandit","260","752808","0.0-222.0-0.0","00996911","wem/bandit_party_1","ACAJFF4MF5S5X","either","5","268","","","","","","","0","0","1","","0.09961924189","0.2","0.4","0.8","0.6","0.2426483564","0.4314573438","0.3724421945","0.09961924189","","","","","","","","","","","","","","76","L","3","","","181","main_expt",""
"","bandit","261","754779","0.0-223.0-0.0","00996911","wem/bandit_party_1","ACAJFF4MF5S5X","either","5","435","","","","","","","1","0","0","0.2998177931","","0.2","0.4","0.8","0.6","","","","","0.2001563476","0.4458059303","0.2998177931","0.1391043194","","","","","","","","","","75","K","2","","","182","main_expt",""
"","bandit","262","756569","0.0-224.0-0.0","00996911","wem/bandit_party_1","ACAJFF4MF5S5X","either","5","260","","","","","","","0","0","1","","0.3629728763","0.2","0.4","0.8","0.6","0.2167094124","0.4485460149","0.3629728763","0.1336424596","","","","","","","","","","","","","","75","K","2","","","183","main_expt",""
"","bandit","263","758285","0.0-225.0-0.0","00996911","wem/bandit_party_1","ACAJFF4MF5S5X","either","5","192","","","","","","","0","1","0","","0.115911235","0.2","0.4","0.8","0.6","0.2402813617","0.4078350507","0.3763603645","0.115911235","","","","","","","","","","","","","","76","L","3","","","184","main_expt",""
"","bandit","264","760037","0.0-226.0-0.0","00996911","wem/bandit_party_1","ACAJFF4MF5S5X","either","5","228","","","","","","","0","0","1","0.3472982705","","0.2","0.4","0.8","0.6","","","","","0.2745112141","0.3805788675","0.3472982705","0.1394203739","","","","","","","","","","75","K","2","","","185","main_expt",""
"","bandit","265","761626","0.0-227.0-0.0","00996911","wem/bandit_party_1","ACAJFF4MF5S5X","either","5","65","","","","","","","0","0","1","","0.4236809331","0.2","0.4","0.8","0.6","0.2774566956","0.4236809331","0.3095995051","0.1557479742","","","","","","","","","","","","","","74","J","1","","","186","main_expt",""
"","bandit","266","763349","0.0-228.0-0.0","00996911","wem/bandit_party_1","ACAJFF4MF5S5X","either","5","196","","","","","","","0","0","1","0.1823611596","","0.2","0.4","0.8","0.6","","","","","0.2876011691","0.4058627081","0.2567332284","0.1823611596","","","","","","","","","","76","L","3","","","187","main_expt",""
"","bandit","267","765125","0.0-229.0-0.0","00996911","wem/bandit_party_1","ACAJFF4MF5S5X","either","5","252","","","","","","","1","0","0","0.1854179297","","0.2","0.4","0.8","0.6","","","","","0.2947112378","0.3913346521","0.2555256861","0.1854179297","","","","","","","","","","76","L","3","","","188","main_expt",""
"","bandit","268","766982","0.0-230.0-0.0","00996911","wem/bandit_party_1","ACAJFF4MF5S5X","either","5","325","","","","","","","0","0","1","0.1875645599","","0.2","0.4","0.8","0.6","","","","","0.2581494","0.3760164219","0.2009875262","0.1875645599","","","","","","","","","","76","L","3","","","189","main_expt",""
"","bandit","269","769068","0.0-231.0-0.0","00996911","wem/bandit_party_1","ACAJFF4MF5S5X","either","5","563","","","","","","","0","0","1","0.2018323604","","0.2","0.4","0.8","0.6","","","","","0.1756323468","0.3327352817","0.2055488595","0.2018323604","","","","","","","","","","76","L","3","","","190","main_expt",""
"","bandit","270","770802","0.0-232.0-0.0","00996911","wem/bandit_party_1","ACAJFF4MF5S5X","either","5","203","","","","","","","0","0","1","","0.1506387864","0.2","0.4","0.8","0.6","0.2521570866","0.3015177445","0.1506387864","0.221094727","","","","","","","","","","","","","","75","K","2","","","191","main_expt",""
"","bandit","271","772596","0.0-233.0-0.0","00996911","wem/bandit_party_1","ACAJFF4MF5S5X","either","5","263","","","","","","","1","0","0","0.2320570195","","0.2","0.4","0.8","0.6","","","","","0.2964739449","0.2773298268","0.2027442266","0.2320570195","","","","","","","","","","76","L","3","","","192","main_expt",""
"","bandit","272","774447","0.0-234.0-0.0","00996911","wem/bandit_party_1","ACAJFF4MF5S5X","either","5","324","","","","","","","1","0","0","0.2948950962","","0.2","0.4","0.8","0.6","","","","","0.2612966838","0.2836613797","0.1969137872","0.2948950962","","","","","","","","","","76","L","3","","","193","main_expt",""
"","bandit","273","776570","0.0-235.0-0.0","00996911","wem/bandit_party_1","ACAJFF4MF5S5X","either","5","594","","","","","","","0","0","1","0.2602906927","","0.2","0.4","0.8","0.6","","","","","0.3292914436","0.2799350415","0.2114994946","0.2602906927","","","","","","","","","","76","L","3","","","194","main_expt",""
"","bandit","274","778219","0.0-236.0-0.0","00996911","wem/bandit_party_1","ACAJFF4MF5S5X","either","5","124","","","","","","","0","0","1","","0.2068597772","0.2","0.4","0.8","0.6","0.4070308407","0.2068597772","0.2467939011","0.1771499101","","","","","","","","","","","","","","74","J","1","","","195","main_expt",""
"","bandit","275","780036","0.0-237.0-0.0","00996911","wem/bandit_party_1","ACAJFF4MF5S5X","either","5","291","","","","","","","0","0","1","0.1746274925","","0.2","0.4","0.8","0.6","","","","","0.3494820729","0.2679469531","0.2731811988","0.1746274925","","","","","","","","","","76","L","3","","","196","main_expt",""
"","bandit","276","781843","0.0-238.0-0.0","00996911","wem/bandit_party_1","ACAJFF4MF5S5X","either","5","282","","","","","","","0","0","1","","0.3571939809","0.2","0.4","0.8","0.6","0.3571939809","0.2448078588","0.2512114903","0.193224684","","","","","","","","","","","","","","72","H","0","img/none_selected.jpg","","197","main_expt",""
"","bandit","277","783525","0.0-239.0-0.0","00996911","wem/bandit_party_1","ACAJFF4MF5S5X","either","5","155","","","","","","","0","0","1","0.2433987968","","0.2","0.4","0.8","0.6","","","","","0.382430028","0.2433987968","0.190651112","0.1771509929","","","","","","","","","","74","J","1","","","198","main_expt",""
"","bandit","278","785462","0.0-240.0-0.0","00996911","wem/bandit_party_1","ACAJFF4MF5S5X","either","5","410","","","","","","","1","0","0","0.2466668772","","0.2","0.4","0.8","0.6","","","","","0.3353474301","0.2653624242","0.1701189695","0.2466668772","","","","","","","","","","76","L","3","","","199","main_expt",""
"","bandit","279","787440","0.0-241.0-0.0","00996911","wem/bandit_party_1","ACAJFF4MF5S5X","either","5","451","","","","","","","0","0","1","0.2477816141","","0.2","0.4","0.8","0.6","","","","","0.3321976498","0.2551376492","0.1656975488","0.2477816141","","","","","","","","","","76","L","3","","","200","main_expt",""
"","bandit","280","789340","0.0-242.0-0.0","00996911","wem/bandit_party_1","ACAJFF4MF5S5X","either","5","374","","","","","","","0","0","1","0.2744817861","","0.2","0.4","0.8","0.6","","","","","0.3218117355","0.2660639347","0.1647298582","0.2744817861","","","","","","","","","","76","L","3","","","201","main_expt",""
"","bandit","281","791048","0.0-243.0-0.0","00996911","wem/bandit_party_1","ACAJFF4MF5S5X","either","5","179","","","","","","","1","0","0","0.1242041815","","0.2","0.4","0.8","0.6","","","","","0.2949214693","0.2220900594","0.1242041815","0.3043062986","","","","","","","","","","75","K","2","","","202","main_expt",""
"","bandit","282","792994","0.0-244.0-0.0","00996911","wem/bandit_party_1","ACAJFF4MF5S5X","either","5","415","","","","","","","0","0","1","0.1684487429","","0.2","0.4","0.8","0.6","","","","","0.300077299","0.1543353204","0.1684487429","0.272185569","","","","","","","","","","75","K","2","","","203","main_expt",""
"","bandit","283","794994","0.0-245.0-0.0","00996911","wem/bandit_party_1","ACAJFF4MF5S5X","either","5","465","","","","","","","0","0","1","0.2610767704","","0.2","0.4","0.8","0.6","","","","","0.2866085977","0.1605482003","0.1666409686","0.2610767704","","","","","","","","","","76","L","3","","","204","main_expt",""
"","bandit","284","796827","0.0-246.0-0.0","00996911","wem/bandit_party_1","ACAJFF4MF5S5X","either","5","303","","","","","","","1","0","0","0.2832615928","","0.2","0.4","0.8","0.6","","","","","0.2695546272","0.1406914754","0.2197286508","0.2832615928","","","","","","","","","","76","L","3","","","205","main_expt",""
"","bandit","285","799649","0.0-247.0-0.0","00996911","wem/bandit_party_1","ACAJFF4MF5S5X","either","5","1293","","","","","","","1","0","0","0.300913322","","0.2","0.4","0.8","0.6","","","","","0.2622178416","0.1138947463","0.2754509052","0.300913322","","","","","","","","","","76","L","3","","","206","main_expt",""
"","bandit","286","801670","0.0-248.0-0.0","00996911","wem/bandit_party_1","ACAJFF4MF5S5X","either","5","492","","","","","","","1","0","0","0.3260258847","","0.2","0.4","0.8","0.6","","","","","0.2498186578","0.1096702189","0.2664869377","0.3260258847","","","","","","","","","","76","L","3","","","207","main_expt",""
"","bandit","287","804076","0.0-249.0-0.0","00996911","wem/bandit_party_1","ACAJFF4MF5S5X","either","5","870","","","","","","","0","0","1","0.3173829003","","0.2","0.4","0.8","0.6","","","","","0.2335358635","0.09922356593","0.2686565688","0.3173829003","","","","","","","","","","76","L","3","","","208","main_expt",""
"","bandit","288","811112","0.0-250.0-0.0","00996911","wem/bandit_party_1","ACAJFF4MF5S5X","either","5","5508","","","","","","","0","0","1","0.101567507","","0.2","0.4","0.8","0.6","","","","","0.2638942681","0.101567507","0.2380255957","0.3153846937","","","","","","","","","","74","J","1","","","209","main_expt",""
"","bandit","289","813044","0.0-251.0-0.0","00996911","wem/bandit_party_1","ACAJFF4MF5S5X","either","5","406","","","","","","","0","0","1","","0.2526926237","0.2","0.4","0.8","0.6","0.2526926237","0.08675379402","0.2507768727","0.3010876552","","","","","","","","","","","","","","72","H","0","img/none_selected.jpg","","210","main_expt",""
"","bandit","290","816027","0.0-252.0-0.0","00996911","wem/bandit_party_1","ACAJFF4MF5S5X","either","5","1457","","","","","","","0","0","1","0.2685142319","","0.2","0.4","0.8","0.6","","","","","0.2740367769","0.07512021269","0.2685142319","0.2864900033","","","","","","","","","","75","K","2","","","211","main_expt",""
"","bandit","291","817953","0.0-253.0-0.0","00996911","wem/bandit_party_1","ACAJFF4MF5S5X","either","5","383","","","","","","","0","0","1","0.08144254236","","0.2","0.4","0.8","0.6","","","","","0.2440836191","0.08144254236","0.260511483","0.3163372434","","","","","","","","","","74","J","1","","","212","main_expt",""
"","bandit","292","819916","0.0-254.0-0.0","00996911","wem/bandit_party_1","ACAJFF4MF5S5X","either","5","437","","","","","","","1","0","0","0.2701305136","","0.2","0.4","0.8","0.6","","","","","0.2341903104","0.06585574052","0.2579605047","0.2701305136","","","","","","","","","","76","L","3","","","213","main_expt",""
"","bandit","293","822386","0.0-255.0-0.0","00996911","wem/bandit_party_1","ACAJFF4MF5S5X","either","5","947","","","","","","","0","0","1","","0.2097526345","0.2","0.4","0.8","0.6","0.2097526345","0.08686614453","0.2470456849","0.302599165","","","","","","","","","","","","","","72","H","0","img/none_selected.jpg","","214","main_expt",""
"","bandit","294","824994","0.0-256.0-0.0","00996911","wem/bandit_party_1","ACAJFF4MF5S5X","either","5","1083","","","","","","","0","0","1","0.1796882487","","0.2","0.4","0.8","0.6","","","","","0.1796882487","0.1068548489","0.3285383036","0.2968005471","","","","","","","","","","72","H","0","img/none_selected.jpg","","215","main_expt",""
"","bandit","295","830385","0.0-257.0-0.0","00996911","wem/bandit_party_1","ACAJFF4MF5S5X","either","5","3866","","","","","","","0","0","1","","0.2237900511","0.2","0.4","0.8","0.6","0.2237900511","0.1211736082","0.3780044773","0.2835536598","","","","","","","","","","","","","","72","H","0","img/none_selected.jpg","","216","main_expt",""
"","bandit","296","832113","0.0-258.0-0.0","00996911","wem/bandit_party_1","ACAJFF4MF5S5X","either","5","202","","","","","","","0","0","1","0.2265358539","","0.2","0.4","0.8","0.6","","","","","0.2265358539","0.09343701815","0.3939228946","0.2520762718","","","","","","","","","","72","H","0","img/none_selected.jpg","","217","main_expt",""
"","bandit","297","834021","0.0-259.0-0.0","00996911","wem/bandit_party_1","ACAJFF4MF5S5X","either","5","383","","","","","","","0","0","1","","0.1001055386","0.2","0.4","0.8","0.6","0.2364013437","0.1001055386","0.3198270803","0.2562699476","","","","","","","","","","","","","","74","J","1","","","218","main_expt",""
"","bandit","298","835824","0.0-260.0-0.0","00996911","wem/bandit_party_1","ACAJFF4MF5S5X","either","5","278","","","","","","","0","0","1","","0.09524874014","0.2","0.4","0.8","0.6","0.2810560361","0.09524874014","0.3502502288","0.3002431464","","","","","","","","","","","","","","74","J","1","","","219","main_expt",""
"","bandit","299","837612","0.0-261.0-0.0","00996911","wem/bandit_party_1","ACAJFF4MF5S5X","either","5","261","","","","","","","0","0","1","0.3402456168","","0.2","0.4","0.8","0.6","","","","","0.3027429446","0.1304899995","0.3402456168","0.3365413303","","","","","","","","","","75","K","2","","","220","main_expt",""
"","bandit","300","839425","0.0-262.0-0.0","00996911","wem/bandit_party_1","ACAJFF4MF5S5X","either","5","287","","","","","","","0","0","1","0.3770059732","","0.2","0.4","0.8","0.6","","","","","0.3132134988","0.1272814923","0.3770059732","0.2946103072","","","","","","","","","","75","K","2","","","221","main_expt",""
"","bandit","301","841249","0.0-263.0-0.0","00996911","wem/bandit_party_1","ACAJFF4MF5S5X","either","5","295","","","","","","","1","0","0","0.3267284332","","0.2","0.4","0.8","0.6","","","","","0.2424821827","0.1654407056","0.3864421123","0.3267284332","","","","","","","","","","76","L","3","","","222","main_expt",""
"","bandit","302","842973","0.0-264.0-0.0","00996911","wem/bandit_party_1","ACAJFF4MF5S5X","either","5","185","","","","","","","0","0","1","0.3175152631","","0.2","0.4","0.8","0.6","","","","","0.2595367495","0.1788325852","0.4205211408","0.3175152631","","","","","","","","","","76","L","3","","","223","main_expt",""
"","bandit","303","844780","0.0-265.0-0.0","00996911","wem/bandit_party_1","ACAJFF4MF5S5X","either","5","277","","","","","","","0","0","1","0.3192400935","","0.2","0.4","0.8","0.6","","","","","0.328819141","0.1736623033","0.4131889957","0.3192400935","","","","","","","","","","76","L","3","","","224","main_expt",""
"","bandit","304","846592","0.0-266.0-0.0","00996911","wem/bandit_party_1","ACAJFF4MF5S5X","either","5","285","","","","","","","0","0","1","0.3096750449","","0.2","0.4","0.8","0.6","","","","","0.356121412","0.1721911447","0.4001513574","0.3096750449","","","","","","","","","","76","L","3","","","225","main_expt",""
"","bandit","305","848390","0.0-267.0-0.0","00996911","wem/bandit_party_1","ACAJFF4MF5S5X","either","5","271","","","","","","","1","0","0","0.3963688582","","0.2","0.4","0.8","0.6","","","","","0.3394019192","0.2133818582","0.3963688582","0.3142833063","","","","","","","","","","75","K","2","","","226","main_expt",""
"","bandit","306","850198","0.0-268.0-0.0","00996911","wem/bandit_party_1","ACAJFF4MF5S5X","either","5","281","","","","","","","0","0","1","0.3979714495","","0.2","0.4","0.8","0.6","","","","","0.2860553004","0.2620007467","0.3979714495","0.3096885674","","","","","","","","","","75","K","2","","","227","main_expt",""
"","bandit","307","851985","0.0-269.0-0.0","00996911","wem/bandit_party_1","ACAJFF4MF5S5X","either","5","262","","","","","","","0","0","1","0.3811043637","","0.2","0.4","0.8","0.6","","","","","0.2967856672","0.2961930455","0.3811043637","0.3048295172","","","","","","","","","","75","K","2","","","228","main_expt",""
"","bandit","308","854124","0.0-270.0-0.0","00996911","wem/bandit_party_1","ACAJFF4MF5S5X","either","5","611","","","","","","","0","0","1","0.3488149186","","0.2","0.4","0.8","0.6","","","","","0.2857745529","0.3081123415","0.3488149186","0.2553920021","","","","","","","","","","75","K","2","","","229","main_expt",""
"","bandit","309","855921","0.0-271.0-0.0","00996911","wem/bandit_party_1","ACAJFF4MF5S5X","either","5","271","","","","","","","0","0","1","","0.2783794412","0.2","0.4","0.8","0.6","0.2589404948","0.3027177586","0.2883621188","0.2783794412","","","","","","","","","","","","","","76","L","3","","","230","main_expt",""
"","bandit","310","857733","0.0-272.0-0.0","00996911","wem/bandit_party_1","ACAJFF4MF5S5X","either","5","282","","","","","","","1","0","0","0.2444465504","","0.2","0.4","0.8","0.6","","","","","0.2628441024","0.2495346478","0.2444465504","0.2735536708","","","","","","","","","","75","K","2","","","231","main_expt",""
"","bandit","311","859939","0.0-273.0-0.0","00996911","wem/bandit_party_1","ACAJFF4MF5S5X","either","5","678","","","","","","","0","0","1","","0.2185872191","0.2","0.4","0.8","0.6","0.276537748","0.2185872191","0.2996930955","0.2262440502","","","","","","","","","","","","","","74","J","1","","","232","main_expt",""
"","bandit","312","861770","0.0-274.0-0.0","00996911","wem/bandit_party_1","ACAJFF4MF5S5X","either","5","293","","","","","","","0","0","1","","0.3103031796","0.2","0.4","0.8","0.6","0.2485723575","0.1874863907","0.3103031796","0.2171974885","","","","","","","","","","","","","","75","K","2","","","233","main_expt",""
"","bandit","313","863778","0.0-275.0-0.0","00996911","wem/bandit_party_1","ACAJFF4MF5S5X","either","5","477","","","","","","","1","0","0","0.2971988612","","0.2","0.4","0.8","0.6","","","","","0.2172766866","0.2165838284","0.2971988612","0.2951485073","","","","","","","","","","75","K","2","","","234","main_expt",""
"","bandit","314","865654","0.0-276.0-0.0","00996911","wem/bandit_party_1","ACAJFF4MF5S5X","either","5","347","","","","","","","0","0","1","0.3266576642","","0.2","0.4","0.8","0.6","","","","","0.221542824","0.1791302586","0.3266576642","0.3135740045","","","","","","","","","","75","K","2","","","235","main_expt",""
"","bandit","315","867863","0.0-277.0-0.0","00996911","wem/bandit_party_1","ACAJFF4MF5S5X","either","5","679","","","","","","","0","1","0","","0.3596878827","0.2","0.4","0.8","0.6","0.2200573756","0.2463713802","0.3596878827","0.2945285262","","","","","","","","","","","","","","75","K","2","","","236","main_expt",""
"","bandit","316","869903","0.0-278.0-0.0","00996911","wem/bandit_party_1","ACAJFF4MF5S5X","either","5","502","","","","","","","0","1","0","","0.3951370387","0.2","0.4","0.8","0.6","0.2146478317","0.2204623923","0.3951370387","0.2797454337","","","","","","","","","","","","","","75","K","2","","","237","main_expt",""
"","bandit","317","871761","0.0-279.0-0.0","00996911","wem/bandit_party_1","ACAJFF4MF5S5X","either","5","332","","","","","","","0","0","1","0.3863552979","","0.2","0.4","0.8","0.6","","","","","0.2237656472","0.2316256556","0.3863552979","0.266453507","","","","","","","","","","75","K","2","","","238","main_expt",""
"","bandit","318","873461","0.0-280.0-0.0","00996911","wem/bandit_party_1","ACAJFF4MF5S5X","either","5","150","","","","","","","0","1","0","","0.3962704677","0.2","0.4","0.8","0.6","0.2302611888","0.2406304147","0.3962704677","0.310831157","","","","","","","","","","","","","","75","K","2","","","239","main_expt",""
