"consent","trial_type","trial_index","time_elapsed","internal_node_id","subjID","study","MID","cond","drift","rt","responses","button_pressed","key_press","like","value","connected","gems","bombs","no_reward","GemPrChosen","BombPrChosen","GainOverPainPr_0","GainOverPainPr_1","GainOverPainPr_2","GainOverPainPr_3","LosePr_0","LosePr_1","LosePr_2","LosePr_3","WinPr_0","WinPr_1","WinPr_2","WinPr_3","Q0","Q1","Q2","gender","age","ethnicity","label","expt_phase","target","respCharCode","respKey","respChoiceNum","respChoice","practice","trial_counter","trial_label","Q0_index"
"GDM/GDM_behavioral_consent_30min_online.html","consent","0","4786","0.0-0.0","01505031","wem/bandit_party_1","A1CSDIX05PK9V","either","7","","","","","","","","","","","","","","","","","","","","","","","","","","","","","","","","","","","","","","","","",""
"","survey-text","1","8399","0.0-1.0","01505031","wem/bandit_party_1","A1CSDIX05PK9V","either","7","2602","{""Q0"":""A1CSDIX05PK9V""}","","","","","","","","","","","","","","","","","","","","","","","","","","","","","","","","","","","","","","",""
"","button-response","2","11642","0.0-2.0","01505031","wem/bandit_party_1","A1CSDIX05PK9V","either","7","2235","","1","","","","","","","","","","","","","","","","","","","","","","","","","","","","","","","","","","","","","",""
"","text-replacement","3","16649","0.0-3.0","01505031","wem/bandit_party_1","A1CSDIX05PK9V","either","7","4002","","","32","","","","","","","","","","","","","","","","","","","","","","","","","","","","","","","","","","","","",""
"","text-replacement","4","22843","0.0-4.0","01505031","wem/bandit_party_1","A1CSDIX05PK9V","either","7","6192","","","32","","","","","","","","","","","","","","","","","","","","","","","","","","","","","","","","","","","","",""
"","identification","5","28226","0.0-6.0-0.0","01505031","wem/bandit_party_1","A1CSDIX05PK9V","either","7","5365","","","","4","5","5","","","","","","","","","","","","","","","","","","","","","","","","pre","identification_pre","the Democratic Party","","","","","","","",""
"","identification","6","31947","0.0-6.0-1.0","01505031","wem/bandit_party_1","A1CSDIX05PK9V","either","7","2699","","","","0","0","0","","","","","","","","","","","","","","","","","","","","","","","","pre","identification_pre","the Republican party","","","","","","","",""
"","text-replacement","7","37721","0.0-7.0","01505031","wem/bandit_party_1","A1CSDIX05PK9V","either","7","4772","","","32","","","","","","","","","","","","","","","","","","","","","","","","","","","","","","","","","","","","",""
"","text-replacement","8","40585","0.0-8.0","01505031","wem/bandit_party_1","A1CSDIX05PK9V","either","7","2862","","","32","","","","","","","","","","","","","","","","","","","","","","","","","","","","","","","","","","","","",""
"","text-replacement","9","49853","0.0-9.0","01505031","wem/bandit_party_1","A1CSDIX05PK9V","either","7","9265","","","32","","","","","","","","","","","","","","","","","","","","","","","","","","","","","","","","","","","","",""
"","text-replacement","10","52073","0.0-10.0","01505031","wem/bandit_party_1","A1CSDIX05PK9V","either","7","2218","","","32","","","","","","","","","","","","","","","","","","","","","","","","","","","","","","","","","","","","",""
"","text-replacement","11","56168","0.0-11.0","01505031","wem/bandit_party_1","A1CSDIX05PK9V","either","7","4093","","","32","","","","","","","","","","","","","","","","","","","","","","","","","","","","","","","","","","","","",""
"","bandit","12","59136","0.0-12.0-0.0","01505031","wem/bandit_party_1","A1CSDIX05PK9V","either","7","1459","","","","","","","0","0","1","0","0","","","","","0","","","","0","","","","","","","","","","","","","74","J","0","img/none_selected_demo.jpg","true","0","",""
"","bandit","13","61150","0.0-13.0-0.0","01505031","wem/bandit_party_1","A1CSDIX05PK9V","either","7","508","","","","","","","0","0","1","0","0","","","","","0","","","","0","","","","","","","","","","","","","75","K","0","img/none_selected_demo.jpg","true","0","",""
"","text-replacement","14","65514","0.0-14.0","01505031","wem/bandit_party_1","A1CSDIX05PK9V","either","7","4361","","","32","","","","","","","","","","","","","","","","","","","","","","","","","","","","","","","","","","","","",""
"","text-replacement","15","69576","0.0-15.0","01505031","wem/bandit_party_1","A1CSDIX05PK9V","either","7","4060","","","32","","","","","","","","","","","","","","","","","","","","","","","","","","","","","","","","","","","","",""
"","text-replacement","16","75208","0.0-16.0","01505031","wem/bandit_party_1","A1CSDIX05PK9V","either","7","5630","","","32","","","","","","","","","","","","","","","","","","","","","","","","","","","","","","","","","","","","",""
"","text-replacement","17","76754","0.0-17.0","01505031","wem/bandit_party_1","A1CSDIX05PK9V","either","7","1544","","","32","","","","","","","","","","","","","","","","","","","","","","","","","","","","","","","","","","","","",""
"","bandit","18","78430","0.0-18.0-0.0","01505031","wem/bandit_party_1","A1CSDIX05PK9V","either","7","170","","","","","","","1","0","0","0.8","","0.5","0.5","","","","","","","0.8","0.2","","","","","","","","","","","","74","J","0","img/none_selected_demo.jpg","true","0","80_20_practice",""
"","bandit","19","80150","0.0-18.0-1.0","01505031","wem/bandit_party_1","A1CSDIX05PK9V","either","7","213","","","","","","","0","1","0","","0.8","0.5","0.5","","","0.8","0.2","","","","","","","","","","","","","","","","74","J","0","img/none_selected_demo.jpg","true","0","80_20_practice",""
"","bandit","20","81687","0.0-18.0-2.0","01505031","wem/bandit_party_1","A1CSDIX05PK9V","either","7","29","","","","","","","0","0","1","","0.8","0.5","0.5","","","0.8","0.2","","","","","","","","","","","","","","","","74","J","0","img/none_selected_demo.jpg","true","0","80_20_practice",""
"","bandit","21","83215","0.0-18.0-3.0","01505031","wem/bandit_party_1","A1CSDIX05PK9V","either","7","21","","","","","","","1","0","0","0.8","","0.5","0.5","","","","","","","0.8","0.2","","","","","","","","","","","","74","J","0","img/none_selected_demo.jpg","true","0","80_20_practice",""
"","bandit","22","84899","0.0-18.0-4.0","01505031","wem/bandit_party_1","A1CSDIX05PK9V","either","7","177","","","","","","","0","0","1","0.2","","0.5","0.5","","","","","","","0.8","0.2","","","","","","","","","","","","75","K","1","","true","0","80_20_practice",""
"","bandit","23","86411","0.0-18.0-5.0","01505031","wem/bandit_party_1","A1CSDIX05PK9V","either","7","5","","","","","","","0","0","1","0.8","","0.5","0.5","","","","","","","0.8","0.2","","","","","","","","","","","","74","J","0","img/none_selected_demo.jpg","true","0","80_20_practice",""
"","bandit","24","88226","0.0-18.0-6.0","01505031","wem/bandit_party_1","A1CSDIX05PK9V","either","7","308","","","","","","","0","1","0","","0.8","0.5","0.5","","","0.8","0.2","","","","","","","","","","","","","","","","74","J","0","img/none_selected_demo.jpg","true","0","80_20_practice",""
"","bandit","25","89972","0.0-18.0-7.0","01505031","wem/bandit_party_1","A1CSDIX05PK9V","either","7","240","","","","","","","0","1","0","","0.8","0.5","0.5","","","0.8","0.2","","","","","","","","","","","","","","","","74","J","0","img/none_selected_demo.jpg","true","0","80_20_practice",""
"","bandit","26","91675","0.0-18.0-8.0","01505031","wem/bandit_party_1","A1CSDIX05PK9V","either","7","196","","","","","","","0","0","1","","0.8","0.5","0.5","","","0.8","0.2","","","","","","","","","","","","","","","","74","J","0","img/none_selected_demo.jpg","true","0","80_20_practice",""
"","bandit","27","93346","0.0-18.0-9.0","01505031","wem/bandit_party_1","A1CSDIX05PK9V","either","7","165","","","","","","","0","1","0","","0.8","0.5","0.5","","","0.8","0.2","","","","","","","","","","","","","","","","74","J","0","img/none_selected_demo.jpg","true","0","80_20_practice",""
"","bandit","28","95154","0.0-18.0-10.0","01505031","wem/bandit_party_1","A1CSDIX05PK9V","either","7","301","","","","","","","0","1","0","","0.2","0.5","0.5","","","0.8","0.2","","","","","","","","","","","","","","","","75","K","1","","true","0","80_20_practice",""
"","bandit","29","96866","0.0-18.0-11.0","01505031","wem/bandit_party_1","A1CSDIX05PK9V","either","7","205","","","","","","","0","0","1","0.2","","0.5","0.5","","","","","","","0.8","0.2","","","","","","","","","","","","75","K","1","","true","0","80_20_practice",""
"","bandit","30","98555","0.0-18.0-12.0","01505031","wem/bandit_party_1","A1CSDIX05PK9V","either","7","181","","","","","","","0","0","1","0.2","","0.5","0.5","","","","","","","0.8","0.2","","","","","","","","","","","","75","K","1","","true","0","80_20_practice",""
"","bandit","31","100261","0.0-18.0-13.0","01505031","wem/bandit_party_1","A1CSDIX05PK9V","either","7","199","","","","","","","1","0","0","0.8","","0.5","0.5","","","","","","","0.8","0.2","","","","","","","","","","","","74","J","0","img/none_selected_demo.jpg","true","0","80_20_practice",""
"","bandit","32","102147","0.0-18.0-14.0","01505031","wem/bandit_party_1","A1CSDIX05PK9V","either","7","379","","","","","","","1","0","0","0.8","","0.5","0.5","","","","","","","0.8","0.2","","","","","","","","","","","","74","J","0","img/none_selected_demo.jpg","true","0","80_20_practice",""
"","bandit","33","104515","0.0-18.0-15.0","01505031","wem/bandit_party_1","A1CSDIX05PK9V","either","7","861","","","","","","","0","1","0","","0.8","0.5","0.5","","","0.8","0.2","","","","","","","","","","","","","","","","74","J","0","img/none_selected_demo.jpg","true","0","80_20_practice",""
"","bandit","34","106362","0.0-18.0-16.0","01505031","wem/bandit_party_1","A1CSDIX05PK9V","either","7","341","","","","","","","0","1","0","","0.8","0.5","0.5","","","0.8","0.2","","","","","","","","","","","","","","","","74","J","0","img/none_selected_demo.jpg","true","0","80_20_practice",""
"","bandit","35","108218","0.0-18.0-17.0","01505031","wem/bandit_party_1","A1CSDIX05PK9V","either","7","350","","","","","","","1","0","0","0.8","","0.5","0.5","","","","","","","0.8","0.2","","","","","","","","","","","","74","J","0","img/none_selected_demo.jpg","true","0","80_20_practice",""
"","bandit","36","110114","0.0-18.0-18.0","01505031","wem/bandit_party_1","A1CSDIX05PK9V","either","7","389","","","","","","","0","1","0","","0.8","0.5","0.5","","","0.8","0.2","","","","","","","","","","","","","","","","74","J","0","img/none_selected_demo.jpg","true","0","80_20_practice",""
"","bandit","37","111928","0.0-18.0-19.0","01505031","wem/bandit_party_1","A1CSDIX05PK9V","either","7","307","","","","","","","0","1","0","","0.8","0.5","0.5","","","0.8","0.2","","","","","","","","","","","","","","","","74","J","0","img/none_selected_demo.jpg","true","0","80_20_practice",""
"","text-replacement","38","113887","0.0-19.0","01505031","wem/bandit_party_1","A1CSDIX05PK9V","either","7","1957","","","32","","","","","","","","","","","","","","","","","","","","","","","","","","","","","","","","","","","","",""
"","bandit","39","116089","0.0-20.0-0.0","01505031","wem/bandit_party_1","A1CSDIX05PK9V","either","7","692","","","","","","","1","0","0","1","0","","","","","0","1","","","1","0","","","","","","","","","","","","74","J","0","img/none_selected_demo.jpg","true","0","",""
"","text-replacement","40","117266","0.0-21.0","01505031","wem/bandit_party_1","A1CSDIX05PK9V","either","7","1174","","","32","","","","","","","","","","","","","","","","","","","","","","","","","","","","","","","","","","","","",""
"","text-replacement","41","119121","0.0-22.0","01505031","wem/bandit_party_1","A1CSDIX05PK9V","either","7","1854","","","32","","","","","","","","","","","","","","","","","","","","","","","","","","","","","","","","","","","","",""
"","text-replacement","42","119945","0.0-23.0","01505031","wem/bandit_party_1","A1CSDIX05PK9V","either","7","823","","","32","","","","","","","","","","","","","","","","","","","","","","","","","","","","","","","","","","","","",""
"","text-replacement","43","121628","0.0-24.0","01505031","wem/bandit_party_1","A1CSDIX05PK9V","either","7","1679","","","32","","","","","","","","","","","","","","","","","","","","","","","","","","","","","","","","","","","","",""
"","text-replacement","44","124849","0.0-25.0","01505031","wem/bandit_party_1","A1CSDIX05PK9V","either","7","3218","","","32","","","","","","","","","","","","","","","","","","","","","","","","","","","","","","","","","","","","",""
"","text-replacement","45","126561","0.0-26.0","01505031","wem/bandit_party_1","A1CSDIX05PK9V","either","7","1709","","","32","","","","","","","","","","","","","","","","","","","","","","","","","","","","","","","","","","","","",""
"","text-replacement","46","130505","0.0-27.0","01505031","wem/bandit_party_1","A1CSDIX05PK9V","either","7","3941","","","32","","","","","","","","","","","","","","","","","","","","","","","","","","","","","","","","","","","","",""
"","text-replacement","47","132515","0.0-28.0","01505031","wem/bandit_party_1","A1CSDIX05PK9V","either","7","2008","","","32","","","","","","","","","","","","","","","","","","","","","","","","","","","","","","","","","","","","",""
"","text-replacement","48","135241","0.0-29.0","01505031","wem/bandit_party_1","A1CSDIX05PK9V","either","7","2724","","","32","","","","","","","","","","","","","","","","","","","","","","","","","","","","","","","","","","","","",""
"","text-replacement","49","136513","0.0-30.0","01505031","wem/bandit_party_1","A1CSDIX05PK9V","either","7","1270","","","32","","","","","","","","","","","","","","","","","","","","","","","","","","","","","","","","","","","","",""
"","text-replacement","50","138209","0.0-31.0","01505031","wem/bandit_party_1","A1CSDIX05PK9V","either","7","1693","","","32","","","","","","","","","","","","","","","","","","","","","","","","","","","","","","","","","","","","",""
"","bandit","51","140200","0.0-32.0-0.0","01505031","wem/bandit_party_1","A1CSDIX05PK9V","either","7","485","","","","","","","0","1","0","","0.8","0.5","0.5","0.5","0.5","0.8","0.2","0.6","0.2","","","","","","","","","","","","","","72","H","0","img/none_selected.jpg","true","0","full_practice",""
"","bandit","52","141912","0.0-32.0-1.0","01505031","wem/bandit_party_1","A1CSDIX05PK9V","either","7","204","","","","","","","0","1","0","","0.8","0.5","0.5","0.5","0.5","0.8","0.2","0.6","0.2","","","","","","","","","","","","","","72","H","0","img/none_selected.jpg","true","0","full_practice",""
"","bandit","53","143629","0.0-32.0-2.0","01505031","wem/bandit_party_1","A1CSDIX05PK9V","either","7","210","","","","","","","1","0","0","0.8","","0.5","0.5","0.5","0.5","","","","","0.8","0.2","0.6","0.2","","","","","","","","","","72","H","0","img/none_selected.jpg","true","0","full_practice",""
"","bandit","54","145414","0.0-32.0-3.0","01505031","wem/bandit_party_1","A1CSDIX05PK9V","either","7","279","","","","","","","0","0","1","0.8","","0.5","0.5","0.5","0.5","","","","","0.8","0.2","0.6","0.2","","","","","","","","","","72","H","0","img/none_selected.jpg","true","0","full_practice",""
"","bandit","55","146931","0.0-32.0-4.0","01505031","wem/bandit_party_1","A1CSDIX05PK9V","either","7","10","","","","","","","1","0","0","0.8","","0.5","0.5","0.5","0.5","","","","","0.8","0.2","0.6","0.2","","","","","","","","","","72","H","0","img/none_selected.jpg","true","0","full_practice",""
"","bandit","56","148580","0.0-32.0-5.0","01505031","wem/bandit_party_1","A1CSDIX05PK9V","either","7","141","","","","","","","1","0","0","0.8","","0.5","0.5","0.5","0.5","","","","","0.8","0.2","0.6","0.2","","","","","","","","","","72","H","0","img/none_selected.jpg","true","0","full_practice",""
"","bandit","57","150309","0.0-32.0-6.0","01505031","wem/bandit_party_1","A1CSDIX05PK9V","either","7","221","","","","","","","0","0","1","","0.8","0.5","0.5","0.5","0.5","0.8","0.2","0.6","0.2","","","","","","","","","","","","","","72","H","0","img/none_selected.jpg","true","0","full_practice",""
"","bandit","58","151915","0.0-32.0-7.0","01505031","wem/bandit_party_1","A1CSDIX05PK9V","either","7","100","","","","","","","0","0","1","","0.2","0.5","0.5","0.5","0.5","0.8","0.2","0.6","0.2","","","","","","","","","","","","","","74","J","1","","true","0","full_practice",""
"","bandit","59","153452","0.0-32.0-8.0","01505031","wem/bandit_party_1","A1CSDIX05PK9V","either","7","30","","","","","","","0","0","1","0.6","","0.5","0.5","0.5","0.5","","","","","0.8","0.2","0.6","0.2","","","","","","","","","","75","K","2","","true","0","full_practice",""
"","bandit","60","154988","0.0-32.0-9.0","01505031","wem/bandit_party_1","A1CSDIX05PK9V","either","7","29","","","","","","","1","0","0","0.2","","0.5","0.5","0.5","0.5","","","","","0.8","0.2","0.6","0.2","","","","","","","","","","76","L","3","","true","0","full_practice",""
"","bandit","61","156862","0.0-32.0-10.0","01505031","wem/bandit_party_1","A1CSDIX05PK9V","either","7","368","","","","","","","0","0","1","","0.2","0.5","0.5","0.5","0.5","0.8","0.2","0.6","0.2","","","","","","","","","","","","","","76","L","3","","true","0","full_practice",""
"","bandit","62","158580","0.0-32.0-11.0","01505031","wem/bandit_party_1","A1CSDIX05PK9V","either","7","211","","","","","","","0","1","0","","0.8","0.5","0.5","0.5","0.5","0.8","0.2","0.6","0.2","","","","","","","","","","","","","","72","H","0","img/none_selected.jpg","true","0","full_practice",""
"","bandit","63","160324","0.0-32.0-12.0","01505031","wem/bandit_party_1","A1CSDIX05PK9V","either","7","236","","","","","","","1","0","0","0.8","","0.5","0.5","0.5","0.5","","","","","0.8","0.2","0.6","0.2","","","","","","","","","","72","H","0","img/none_selected.jpg","true","0","full_practice",""
"","bandit","64","162138","0.0-32.0-13.0","01505031","wem/bandit_party_1","A1CSDIX05PK9V","either","7","307","","","","","","","0","1","0","","0.8","0.5","0.5","0.5","0.5","0.8","0.2","0.6","0.2","","","","","","","","","","","","","","72","H","0","img/none_selected.jpg","true","0","full_practice",""
"","bandit","65","163869","0.0-32.0-14.0","01505031","wem/bandit_party_1","A1CSDIX05PK9V","either","7","222","","","","","","","0","0","1","","0.8","0.5","0.5","0.5","0.5","0.8","0.2","0.6","0.2","","","","","","","","","","","","","","72","H","0","img/none_selected.jpg","true","0","full_practice",""
"","bandit","66","165404","0.0-32.0-15.0","01505031","wem/bandit_party_1","A1CSDIX05PK9V","either","7","28","","","","","","","1","0","0","0.8","","0.5","0.5","0.5","0.5","","","","","0.8","0.2","0.6","0.2","","","","","","","","","","72","H","0","img/none_selected.jpg","true","0","full_practice",""
"","bandit","67","167094","0.0-32.0-16.0","01505031","wem/bandit_party_1","A1CSDIX05PK9V","either","7","180","","","","","","","1","0","0","0.8","","0.5","0.5","0.5","0.5","","","","","0.8","0.2","0.6","0.2","","","","","","","","","","72","H","0","img/none_selected.jpg","true","0","full_practice",""
"","bandit","68","168900","0.0-32.0-17.0","01505031","wem/bandit_party_1","A1CSDIX05PK9V","either","7","298","","","","","","","1","0","0","0.8","","0.5","0.5","0.5","0.5","","","","","0.8","0.2","0.6","0.2","","","","","","","","","","72","H","0","img/none_selected.jpg","true","0","full_practice",""
"","bandit","69","170784","0.0-32.0-18.0","01505031","wem/bandit_party_1","A1CSDIX05PK9V","either","7","377","","","","","","","1","0","0","0.8","","0.5","0.5","0.5","0.5","","","","","0.8","0.2","0.6","0.2","","","","","","","","","","72","H","0","img/none_selected.jpg","true","0","full_practice",""
"","bandit","70","172527","0.0-32.0-19.0","01505031","wem/bandit_party_1","A1CSDIX05PK9V","either","7","235","","","","","","","0","1","0","","0.8","0.5","0.5","0.5","0.5","0.8","0.2","0.6","0.2","","","","","","","","","","","","","","72","H","0","img/none_selected.jpg","true","0","full_practice",""
"","text","71","175337","0.0-33.0","01505031","wem/bandit_party_1","A1CSDIX05PK9V","either","7","2798","","","32","","","","","","","","","","","","","","","","","","","","","","","","","","","","","","","","","","","","",""
"","text-replacement","72","183294","0.0-34.0","01505031","wem/bandit_party_1","A1CSDIX05PK9V","either","7","6949","","","32","","","","","","","","","","","","","","","","","","","","","","","","","","","","","","","","","","","","",""
"","text-replacement","73","187588","0.0-35.0","01505031","wem/bandit_party_1","A1CSDIX05PK9V","either","7","4290","","","32","","","","","","","","","","","","","","","","","","","","","","","","","","","","","","","","","","","","",""
"","text-replacement","74","189468","0.0-36.0","01505031","wem/bandit_party_1","A1CSDIX05PK9V","either","7","1877","","","32","","","","","","","","","","","","","","","","","","","","","","","","","","","","","","","","","","","","",""
"","text-replacement","75","191724","0.0-37.0","01505031","wem/bandit_party_1","A1CSDIX05PK9V","either","7","2253","","","32","","","","","","","","","","","","","","","","","","","","","","","","","","","","","","","","","","","","",""
"","text-replacement","76","193284","0.0-38.0","01505031","wem/bandit_party_1","A1CSDIX05PK9V","either","7","1557","","","32","","","","","","","","","","","","","","","","","","","","","","","","","","","","","","","","","","","","",""
"","survey-multi-choice-replacement","77","196719","0.0-39.0-0.0","01505031","wem/bandit_party_1","A1CSDIX05PK9V","either","7","3423","","","","","","","","","","","","","","","","","","","","","","","","Money will be added to the pool for <span style='color:blue;'>DEMOCRATS</span>","","","","","","","attn_check","","","","","","","","","0"
"","survey-multi-choice-replacement","78","200664","0.0-40.0-0.0","01505031","wem/bandit_party_1","A1CSDIX05PK9V","either","7","2930","","","","","","","","","","","","","","","","","","","","","","","","Equal amounts of money will be added to the pool for <span style='color:blue;'>DEMOCRATS</span> and subtracted from the pool for <span style='color:red;'>REPUBLICANS</span>","","","","","","","attn_check","","","","","","","","","2"
"","survey-multi-choice-replacement","79","202959","0.0-41.0-0.0","01505031","wem/bandit_party_1","A1CSDIX05PK9V","either","7","1282","","","","","","","","","","","","","","","","","","","","","","","","No money will be added to either pool","","","","","","","attn_check","","","","","","","","","3"
"","bandit","80","206751","0.0-42.0-0.0","01505031","wem/bandit_party_1","A1CSDIX05PK9V","either","7","1278","","","","","","","0","0","1","","0.06530018083","0.6","0.2","0.4","0.8","0.06530018083","0.01738065524","0.1480066451","0.1952616071","","","","","","","","","","","","","","72","H","0","img/none_selected.jpg","","1","main_expt",""
"","bandit","81","208681","0.0-43.0-0.0","01505031","wem/bandit_party_1","A1CSDIX05PK9V","either","7","424","","","","","","","0","0","1","","0.0196943787","0.6","0.2","0.4","0.8","0.1011701763","0.0196943787","0.1053714073","0.1652234336","","","","","","","","","","","","","","74","J","1","","","2","main_expt",""
"","bandit","82","210246","0.0-44.0-0.0","01505031","wem/bandit_party_1","A1CSDIX05PK9V","either","7","57","","","","","","","0","0","1","","0.1460078221","0.6","0.2","0.4","0.8","0.09486719381","0.01678573497","0.1460078221","0.1347382479","","","","","","","","","","","","","","75","K","2","","","3","main_expt",""
"","bandit","83","211838","0.0-45.0-0.0","01505031","wem/bandit_party_1","A1CSDIX05PK9V","either","7","85","","","","","","","0","0","1","","0.1684625442","0.6","0.2","0.4","0.8","0.06705802814","0.02981965743","0.1866138214","0.1684625442","","","","","","","","","","","","","","76","L","3","","","4","main_expt",""
"","bandit","84","213534","0.0-46.0-0.0","01505031","wem/bandit_party_1","A1CSDIX05PK9V","either","7","189","","","","","","","0","0","1","","0.0822298525","0.6","0.2","0.4","0.8","0.0822298525","0.02600208211","0.2445348717","0.1792029032","","","","","","","","","","","","","","72","H","0","img/none_selected.jpg","","5","main_expt",""
"","bandit","85","215070","0.0-47.0-0.0","01505031","wem/bandit_party_1","A1CSDIX05PK9V","either","7","28","","","","","","","0","0","1","0.02332436933","","0.6","0.2","0.4","0.8","","","","","0.09162209411","0.02332436933","0.2546962146","0.2153873139","","","","","","","","","","74","J","1","","","6","main_expt",""
"","bandit","86","216579","0.0-48.0-0.0","01505031","wem/bandit_party_1","A1CSDIX05PK9V","either","7","1","","","","","","","0","0","1","","0.2344841702","0.6","0.2","0.4","0.8","0.1028820098","0.02864040813","0.2344841702","0.1757762721","","","","","","","","","","","","","","75","K","2","","","7","main_expt",""
"","bandit","87","218167","0.0-49.0-0.0","01505031","wem/bandit_party_1","A1CSDIX05PK9V","either","7","80","","","","","","","0","0","1","0.2241229746","","0.6","0.2","0.4","0.8","","","","","0.1532270122","0.02951264166","0.2473344203","0.2241229746","","","","","","","","","","76","L","3","","","8","main_expt",""
"","bandit","88","219950","0.0-50.0-0.0","01505031","wem/bandit_party_1","A1CSDIX05PK9V","either","7","274","","","","","","","0","0","1","","0.2131450397","0.6","0.2","0.4","0.8","0.2131450397","0.02997011939","0.2642160399","0.2199426203","","","","","","","","","","","","","","72","H","0","img/none_selected.jpg","","9","main_expt",""
"","bandit","89","221699","0.0-51.0-0.0","01505031","wem/bandit_party_1","A1CSDIX05PK9V","either","7","237","","","","","","","0","0","1","0.02489651457","","0.6","0.2","0.4","0.8","","","","","0.2985754635","0.02489651457","0.2104627424","0.1520686932","","","","","","","","","","74","J","1","","","10","main_expt",""
"","bandit","90","223408","0.0-52.0-0.0","01505031","wem/bandit_party_1","A1CSDIX05PK9V","either","7","200","","","","","","","0","1","0","","0.219372878","0.6","0.2","0.4","0.8","0.2924640086","0.01651058827","0.219372878","0.2013349999","","","","","","","","","","","","","","75","K","2","","","11","main_expt",""
"","bandit","91","225199","0.0-53.0-0.0","01505031","wem/bandit_party_1","A1CSDIX05PK9V","either","7","282","","","","","","","0","1","0","","0.2105839871","0.6","0.2","0.4","0.8","0.3264291113","0.02341729431","0.2105839871","0.2156800105","","","","","","","","","","","","","","75","K","2","","","12","main_expt",""
"","bandit","92","226962","0.0-54.0-0.0","01505031","wem/bandit_party_1","A1CSDIX05PK9V","either","7","256","","","","","","","0","0","1","0.2511698571","","0.6","0.2","0.4","0.8","","","","","0.3254913314","0.0257410372","0.2511698571","0.1833947696","","","","","","","","","","75","K","2","","","13","main_expt",""
"","bandit","93","228714","0.0-55.0-0.0","01505031","wem/bandit_party_1","A1CSDIX05PK9V","either","7","245","","","","","","","0","0","1","0.2158977649","","0.6","0.2","0.4","0.8","","","","","0.3428504842","0.02570014082","0.2158977649","0.243643366","","","","","","","","","","75","K","2","","","14","main_expt",""
"","bandit","94","230341","0.0-56.0-0.0","01505031","wem/bandit_party_1","A1CSDIX05PK9V","either","7","118","","","","","","","0","0","1","","0.2762480727","0.6","0.2","0.4","0.8","0.3244047679","0.04268316416","0.2762480727","0.2265365198","","","","","","","","","","","","","","75","K","2","","","15","main_expt",""
"","bandit","95","231978","0.0-57.0-0.0","01505031","wem/bandit_party_1","A1CSDIX05PK9V","either","7","129","","","","","","","0","0","1","0.2484951132","","0.6","0.2","0.4","0.8","","","","","0.3025313629","0.04667408308","0.3202890724","0.2484951132","","","","","","","","","","76","L","3","","","16","main_expt",""
"","bandit","96","233674","0.0-58.0-0.0","01505031","wem/bandit_party_1","A1CSDIX05PK9V","either","7","187","","","","","","","0","0","1","0.3291216938","","0.6","0.2","0.4","0.8","","","","","0.3291216938","0.0506688767","0.3680552247","0.2570267238","","","","","","","","","","72","H","0","img/none_selected.jpg","","17","main_expt",""
"","bandit","97","235402","0.0-59.0-0.0","01505031","wem/bandit_party_1","A1CSDIX05PK9V","either","7","219","","","","","","","0","0","1","","0.02988526167","0.6","0.2","0.4","0.8","0.2987881532","0.02988526167","0.3968593921","0.287418789","","","","","","","","","","","","","","74","J","1","","","18","main_expt",""
"","bandit","98","237117","0.0-60.0-0.0","01505031","wem/bandit_party_1","A1CSDIX05PK9V","either","7","204","","","","","","","0","1","0","","0.4192996399","0.6","0.2","0.4","0.8","0.281207523","0.03476350355","0.4192996399","0.2338710899","","","","","","","","","","","","","","75","K","2","","","19","main_expt",""
"","bandit","99","238806","0.0-61.0-0.0","01505031","wem/bandit_party_1","A1CSDIX05PK9V","either","7","179","","","","","","","0","1","0","","0.4362768361","0.6","0.2","0.4","0.8","0.291129981","0.0233687216","0.4362768361","0.2335293464","","","","","","","","","","","","","","75","K","2","","","20","main_expt",""
"","bandit","100","240609","0.0-62.0-0.0","01505031","wem/bandit_party_1","A1CSDIX05PK9V","either","7","295","","","","","","","1","0","0","0.4599691003","","0.6","0.2","0.4","0.8","","","","","0.2729578326","0.01272547494","0.4599691003","0.2434826965","","","","","","","","","","75","K","2","","","21","main_expt",""
"","bandit","101","242334","0.0-63.0-0.0","01505031","wem/bandit_party_1","A1CSDIX05PK9V","either","7","217","","","","","","","0","0","1","0.44353765","","0.6","0.2","0.4","0.8","","","","","0.2805141014","0.01739491555","0.44353765","0.2702300591","","","","","","","","","","75","K","2","","","22","main_expt",""
"","bandit","102","244061","0.0-64.0-0.0","01505031","wem/bandit_party_1","A1CSDIX05PK9V","either","7","219","","","","","","","0","0","1","0.4105594395","","0.6","0.2","0.4","0.8","","","","","0.3016389313","0.006692102231","0.4105594395","0.2424740502","","","","","","","","","","75","K","2","","","23","main_expt",""
"","bandit","103","245725","0.0-65.0-0.0","01505031","wem/bandit_party_1","A1CSDIX05PK9V","either","7","157","","","","","","","0","0","1","","0.4243351486","0.6","0.2","0.4","0.8","0.2475621169","0.01209419849","0.4243351486","0.1754503809","","","","","","","","","","","","","","75","K","2","","","24","main_expt",""
"","bandit","104","247326","0.0-66.0-0.0","01505031","wem/bandit_party_1","A1CSDIX05PK9V","either","7","93","","","","","","","1","0","0","0.4172780312","","0.6","0.2","0.4","0.8","","","","","0.2607476102","0.009734580702","0.4172780312","0.2023019753","","","","","","","","","","75","K","2","","","25","main_expt",""
"","bandit","105","249061","0.0-67.0-0.0","01505031","wem/bandit_party_1","A1CSDIX05PK9V","either","7","227","","","","","","","0","0","1","","0.3981062588","0.6","0.2","0.4","0.8","0.292589008","0.008596148908","0.3981062588","0.1887270612","","","","","","","","","","","","","","75","K","2","","","26","main_expt",""
"","bandit","106","250831","0.0-68.0-0.0","01505031","wem/bandit_party_1","A1CSDIX05PK9V","either","7","262","","","","","","","1","0","0","0.3889188119","","0.6","0.2","0.4","0.8","","","","","0.2978950393","0.01380650739","0.3889188119","0.2526986378","","","","","","","","","","75","K","2","","","27","main_expt",""
"","bandit","107","252589","0.0-69.0-0.0","01505031","wem/bandit_party_1","A1CSDIX05PK9V","either","7","249","","","","","","","0","1","0","","0.3699095679","0.6","0.2","0.4","0.8","0.337392419","0.01160852189","0.3699095679","0.2536033627","","","","","","","","","","","","","","75","K","2","","","28","main_expt",""
"","bandit","108","254401","0.0-70.0-0.0","01505031","wem/bandit_party_1","A1CSDIX05PK9V","either","7","304","","","","","","","0","1","0","","0.4087832773","0.6","0.2","0.4","0.8","0.3830759015","0.02858314752","0.4087832773","0.258258936","","","","","","","","","","","","","","75","K","2","","","29","main_expt",""
"","bandit","109","256018","0.0-71.0-0.0","01505031","wem/bandit_party_1","A1CSDIX05PK9V","either","7","107","","","","","","","0","0","1","0.4162513677","","0.6","0.2","0.4","0.8","","","","","0.3778881599","0.0265596094","0.4162513677","0.3152574144","","","","","","","","","","75","K","2","","","30","main_expt",""
"","bandit","110","257586","0.0-72.0-0.0","01505031","wem/bandit_party_1","A1CSDIX05PK9V","either","7","60","","","","","","","0","1","0","","0.43337534","0.6","0.2","0.4","0.8","0.3585458117","0.02828816112","0.43337534","0.3508579725","","","","","","","","","","","","","","75","K","2","","","31","main_expt",""
"","bandit","111","259298","0.0-73.0-0.0","01505031","wem/bandit_party_1","A1CSDIX05PK9V","either","7","203","","","","","","","0","0","1","0.4399105216","","0.6","0.2","0.4","0.8","","","","","0.3511664436","0.03857304495","0.4399105216","0.3902021543","","","","","","","","","","75","K","2","","","32","main_expt",""
"","bandit","112","261020","0.0-74.0-0.0","01505031","wem/bandit_party_1","A1CSDIX05PK9V","either","7","213","","","","","","","1","0","0","0.4112626521","","0.6","0.2","0.4","0.8","","","","","0.3924960189","0.02642959278","0.3859623535","0.4112626521","","","","","","","","","","76","L","3","","","33","main_expt",""
"","bandit","113","262801","0.0-75.0-0.0","01505031","wem/bandit_party_1","A1CSDIX05PK9V","either","7","273","","","","","","","1","0","0","0.3912589523","","0.6","0.2","0.4","0.8","","","","","0.3713907517","0.06800028167","0.4231921331","0.3912589523","","","","","","","","","","76","L","3","","","34","main_expt",""
"","bandit","114","264499","0.0-76.0-0.0","01505031","wem/bandit_party_1","A1CSDIX05PK9V","either","7","183","","","","","","","0","0","1","0.3663646496","","0.6","0.2","0.4","0.8","","","","","0.3929004689","0.05710280771","0.3950458867","0.3663646496","","","","","","","","","","76","L","3","","","35","main_expt",""
"","bandit","115","266009","0.0-77.0-0.0","01505031","wem/bandit_party_1","A1CSDIX05PK9V","either","7","2","","","","","","","0","0","1","","0.3045225128","0.6","0.2","0.4","0.8","0.3820467604","0.07756943076","0.4005306787","0.3045225128","","","","","","","","","","","","","","76","L","3","","","36","main_expt",""
"","bandit","116","267705","0.0-78.0-0.0","01505031","wem/bandit_party_1","A1CSDIX05PK9V","either","7","186","","","","","","","0","0","1","0.3948022939","","0.6","0.2","0.4","0.8","","","","","0.3948022939","0.06074629621","0.3972735937","0.2806474599","","","","","","","","","","72","H","0","img/none_selected.jpg","","37","main_expt",""
"","bandit","117","269345","0.0-79.0-0.0","01505031","wem/bandit_party_1","A1CSDIX05PK9V","either","7","130","","","","","","","0","0","1","","0.07063042774","0.6","0.2","0.4","0.8","0.3769579019","0.07063042774","0.38339591","0.3558759705","","","","","","","","","","","","","","74","J","1","","","38","main_expt",""
"","bandit","118","271027","0.0-80.0-0.0","01505031","wem/bandit_party_1","A1CSDIX05PK9V","either","7","172","","","","","","","0","1","0","","0.3906354184","0.6","0.2","0.4","0.8","0.4030344636","0.06209293178","0.3906354184","0.3194138052","","","","","","","","","","","","","","75","K","2","","","39","main_expt",""
"","bandit","119","272551","0.0-81.0-0.0","01505031","wem/bandit_party_1","A1CSDIX05PK9V","either","7","17","","","","","","","0","0","1","","0.3623676206","0.6","0.2","0.4","0.8","0.3622335218","0.06952578958","0.3623676206","0.3549086085","","","","","","","","","","","","","","75","K","2","","","40","main_expt",""
"","bandit","120","274248","0.0-82.0-0.0","01505031","wem/bandit_party_1","A1CSDIX05PK9V","either","7","188","","","","","","","1","0","0","0.3873704927","","0.6","0.2","0.4","0.8","","","","","0.3911596719","0.1291245709","0.3873704927","0.3452113815","","","","","","","","","","75","K","2","","","41","main_expt",""
"","bandit","121","275913","0.0-83.0-0.0","01505031","wem/bandit_party_1","A1CSDIX05PK9V","either","7","156","","","","","","","0","0","1","","0.359823116","0.6","0.2","0.4","0.8","0.3921858285","0.1174523948","0.359823116","0.3522960267","","","","","","","","","","","","","","75","K","2","","","42","main_expt",""
"","bandit","122","277465","0.0-84.0-0.0","01505031","wem/bandit_party_1","A1CSDIX05PK9V","either","7","43","","","","","","","0","0","1","0.3710191411","","0.6","0.2","0.4","0.8","","","","","0.3831213528","0.1201484523","0.3710191411","0.3093122096","","","","","","","","","","75","K","2","","","43","main_expt",""
"","bandit","123","279289","0.0-85.0-0.0","01505031","wem/bandit_party_1","A1CSDIX05PK9V","either","7","314","","","","","","","0","0","1","0.3026159556","","0.6","0.2","0.4","0.8","","","","","0.3518708159","0.09958360536","0.3874065465","0.3026159556","","","","","","","","","","76","L","3","","","44","main_expt",""
"","bandit","124","281001","0.0-86.0-0.0","01505031","wem/bandit_party_1","A1CSDIX05PK9V","either","7","202","","","","","","","0","1","0","","0.3851533971","0.6","0.2","0.4","0.8","0.3122870636","0.05173655998","0.3851533971","0.3336294247","","","","","","","","","","","","","","75","K","2","","","45","main_expt",""
"","bandit","125","282744","0.0-87.0-0.0","01505031","wem/bandit_party_1","A1CSDIX05PK9V","either","7","234","","","","","","","1","0","0","0.4055883719","","0.6","0.2","0.4","0.8","","","","","0.2635721956","0.05945041096","0.4055883719","0.3400222736","","","","","","","","","","75","K","2","","","46","main_expt",""
"","bandit","126","284464","0.0-88.0-0.0","01505031","wem/bandit_party_1","A1CSDIX05PK9V","either","7","210","","","","","","","0","0","1","0.3671593179","","0.6","0.2","0.4","0.8","","","","","0.2856785865","0.04375763727","0.3671593179","0.328707825","","","","","","","","","","75","K","2","","","47","main_expt",""
"","bandit","127","286269","0.0-89.0-0.0","01505031","wem/bandit_party_1","A1CSDIX05PK9V","either","7","297","","","","","","","0","0","1","","0.3198203038","0.6","0.2","0.4","0.8","0.2649087478","0.0666370861","0.3198203038","0.3307690822","","","","","","","","","","","","","","75","K","2","","","48","main_expt",""
"","bandit","128","287988","0.0-90.0-0.0","01505031","wem/bandit_party_1","A1CSDIX05PK9V","either","7","210","","","","","","","0","0","1","0.3438067684","","0.6","0.2","0.4","0.8","","","","","0.2462979357","0.08266213623","0.3111357295","0.3438067684","","","","","","","","","","76","L","3","","","49","main_expt",""
"","bandit","129","289828","0.0-91.0-0.0","01505031","wem/bandit_party_1","A1CSDIX05PK9V","either","7","331","","","","","","","1","0","0","0.3196682981","","0.6","0.2","0.4","0.8","","","","","0.2490076798","0.08795051988","0.3196682981","0.4037002216","","","","","","","","","","75","K","2","","","50","main_expt",""
"","bandit","130","291566","0.0-92.0-0.0","01505031","wem/bandit_party_1","A1CSDIX05PK9V","either","7","226","","","","","","","0","1","0","","0.3088596379","0.6","0.2","0.4","0.8","0.305209751","0.07533366945","0.3088596379","0.3557518394","","","","","","","","","","","","","","75","K","2","","","51","main_expt",""
"","bandit","131","293344","0.0-93.0-0.0","01505031","wem/bandit_party_1","A1CSDIX05PK9V","either","7","269","","","","","","","0","0","1","0.3060924957","","0.6","0.2","0.4","0.8","","","","","0.3087204988","0.06506638851","0.3060924957","0.3254324358","","","","","","","","","","75","K","2","","","52","main_expt",""
"","bandit","132","295533","0.0-94.0-0.0","01505031","wem/bandit_party_1","A1CSDIX05PK9V","either","7","679","","","","","","","0","1","0","","0.3229319808","0.6","0.2","0.4","0.8","0.2984188648","0.06562792832","0.3229319808","0.2952150256","","","","","","","","","","","","","","75","K","2","","","53","main_expt",""
"","bandit","133","297686","0.0-95.0-0.0","01505031","wem/bandit_party_1","A1CSDIX05PK9V","either","7","643","","","","","","","0","0","1","","0.3280138586","0.6","0.2","0.4","0.8","0.3353917468","0.04630081711","0.3280138586","0.300320608","","","","","","","","","","","","","","75","K","2","","","54","main_expt",""
"","bandit","134","299471","0.0-96.0-0.0","01505031","wem/bandit_party_1","A1CSDIX05PK9V","either","7","274","","","","","","","1","0","0","0.2985084879","","0.6","0.2","0.4","0.8","","","","","0.3259144651","0.03868373719","0.2777260571","0.2985084879","","","","","","","","","","76","L","3","","","55","main_expt",""
"","bandit","135","301167","0.0-97.0-0.0","01505031","wem/bandit_party_1","A1CSDIX05PK9V","either","7","187","","","","","","","0","0","1","0.2607009345","","0.6","0.2","0.4","0.8","","","","","0.3259049121","0.06235362297","0.1791004868","0.2607009345","","","","","","","","","","76","L","3","","","56","main_expt",""
"","bandit","136","302792","0.0-98.0-0.0","01505031","wem/bandit_party_1","A1CSDIX05PK9V","either","7","114","","","","","","","0","0","1","0.2182265394","","0.6","0.2","0.4","0.8","","","","","0.3687904078","0.04639461243","0.2182265394","0.2565854794","","","","","","","","","","75","K","2","","","57","main_expt",""
"","bandit","137","304346","0.0-99.0-0.0","01505031","wem/bandit_party_1","A1CSDIX05PK9V","either","7","44","","","","","","","0","0","1","","0.2970860181","0.6","0.2","0.4","0.8","0.3422038875","0.08954448139","0.2970860181","0.319121847","","","","","","","","","","","","","","75","K","2","","","58","main_expt",""
"","bandit","138","306219","0.0-100.0-0.0","01505031","wem/bandit_party_1","A1CSDIX05PK9V","either","7","363","","","","","","","0","0","1","","0.3269923399","0.6","0.2","0.4","0.8","0.3771421139","0.07390342289","0.3249685468","0.3269923399","","","","","","","","","","","","","","76","L","3","","","59","main_expt",""
"","bandit","139","308046","0.0-101.0-0.0","01505031","wem/bandit_party_1","A1CSDIX05PK9V","either","7","318","","","","","","","0","0","1","","0.3150968823","0.6","0.2","0.4","0.8","0.3620124399","0.05801548519","0.2931470039","0.3150968823","","","","","","","","","","","","","","76","L","3","","","60","main_expt",""
"","bandit","140","309951","0.0-102.0-0.0","01505031","wem/bandit_party_1","A1CSDIX05PK9V","either","7","397","","","","","","","0","0","1","0.2646536279","","0.6","0.2","0.4","0.8","","","","","0.3958116198","0.07333263924","0.2646536279","0.324539239","","","","","","","","","","75","K","2","","","61","main_expt",""
"","bandit","141","311619","0.0-103.0-0.0","01505031","wem/bandit_party_1","A1CSDIX05PK9V","either","7","158","","","","","","","0","0","1","","0.07563430262","0.6","0.2","0.4","0.8","0.3615218546","0.07563430262","0.242461968","0.3066306166","","","","","","","","","","","","","","74","J","1","","","62","main_expt",""
"","bandit","142","313482","0.0-104.0-0.0","01505031","wem/bandit_party_1","A1CSDIX05PK9V","either","7","355","","","","","","","0","0","1","","0.3574266064","0.6","0.2","0.4","0.8","0.3574266064","0.06826526778","0.2206683029","0.3068900116","","","","","","","","","","","","","","72","H","0","img/none_selected.jpg","","63","main_expt",""
"","bandit","143","314996","0.0-105.0-0.0","01505031","wem/bandit_party_1","A1CSDIX05PK9V","either","7","7","","","","","","","0","0","1","","0.1175271989","0.6","0.2","0.4","0.8","0.3541915859","0.1175271989","0.2288959862","0.2936494982","","","","","","","","","","","","","","74","J","1","","","64","main_expt",""
"","bandit","144","316643","0.0-106.0-0.0","01505031","wem/bandit_party_1","A1CSDIX05PK9V","either","7","137","","","","","","","0","0","1","","0.2346523549","0.6","0.2","0.4","0.8","0.3339820985","0.1273865191","0.2346523549","0.290236101","","","","","","","","","","","","","","75","K","2","","","65","main_expt",""
"","bandit","145","318370","0.0-107.0-0.0","01505031","wem/bandit_party_1","A1CSDIX05PK9V","either","7","219","","","","","","","0","0","1","","0.2512036594","0.6","0.2","0.4","0.8","0.3195467083","0.09075088943","0.1881688105","0.2512036594","","","","","","","","","","","","","","76","L","3","","","66","main_expt",""
"","bandit","146","320075","0.0-108.0-0.0","01505031","wem/bandit_party_1","A1CSDIX05PK9V","either","7","195","","","","","","","0","0","1","","0.231043846","0.6","0.2","0.4","0.8","0.3477383846","0.08077075725","0.231043846","0.263747572","","","","","","","","","","","","","","75","K","2","","","67","main_expt",""
"","bandit","147","321818","0.0-109.0-0.0","01505031","wem/bandit_party_1","A1CSDIX05PK9V","either","7","235","","","","","","","1","0","0","0.08810311296","","0.6","0.2","0.4","0.8","","","","","0.3365352069","0.08810311296","0.2576664243","0.2892519303","","","","","","","","","","74","J","1","","","68","main_expt",""
"","bandit","148","323362","0.0-110.0-0.0","01505031","wem/bandit_party_1","A1CSDIX05PK9V","either","7","34","","","","","","","0","0","1","","0.1260156682","0.6","0.2","0.4","0.8","0.3148812039","0.1260156682","0.2183283259","0.2383664846","","","","","","","","","","","","","","74","J","1","","","69","main_expt",""
"","bandit","149","324938","0.0-111.0-0.0","01505031","wem/bandit_party_1","A1CSDIX05PK9V","either","7","67","","","","","","","0","0","1","0.3154014692","","0.6","0.2","0.4","0.8","","","","","0.3154014692","0.08773951932","0.2260484764","0.2497111545","","","","","","","","","","72","H","0","img/none_selected.jpg","","70","main_expt",""
"","bandit","150","326514","0.0-112.0-0.0","01505031","wem/bandit_party_1","A1CSDIX05PK9V","either","7","67","","","","","","","0","0","1","","0.1154304285","0.6","0.2","0.4","0.8","0.219815459","0.1154304285","0.3196469567","0.2095843002","","","","","","","","","","","","","","74","J","1","","","71","main_expt",""
"","bandit","151","328187","0.0-113.0-0.0","01505031","wem/bandit_party_1","A1CSDIX05PK9V","either","7","163","","","","","","","0","0","1","0.3644141189","","0.6","0.2","0.4","0.8","","","","","0.2623730272","0.10097247","0.3644141189","0.1972488467","","","","","","","","","","75","K","2","","","72","main_expt",""
"","bandit","152","330035","0.0-114.0-0.0","01505031","wem/bandit_party_1","A1CSDIX05PK9V","either","7","338","","","","","","","1","0","0","0.15494396","","0.6","0.2","0.4","0.8","","","","","0.2639805735","0.0746930591","0.4081842109","0.15494396","","","","","","","","","","76","L","3","","","73","main_expt",""
"","bandit","153","331699","0.0-115.0-0.0","01505031","wem/bandit_party_1","A1CSDIX05PK9V","either","7","155","","","","","","","0","0","1","0.1324790415","","0.6","0.2","0.4","0.8","","","","","0.2770925356","0.1124392477","0.4506698749","0.1324790415","","","","","","","","","","76","L","3","","","74","main_expt",""
"","bandit","154","333395","0.0-116.0-0.0","01505031","wem/bandit_party_1","A1CSDIX05PK9V","either","7","186","","","","","","","0","0","1","0.179195356","","0.6","0.2","0.4","0.8","","","","","0.2796652475","0.113494578","0.454520075","0.179195356","","","","","","","","","","76","L","3","","","75","main_expt",""
"","bandit","155","334972","0.0-117.0-0.0","01505031","wem/bandit_party_1","A1CSDIX05PK9V","either","7","65","","","","","","","0","0","1","0.3153427244","","0.6","0.2","0.4","0.8","","","","","0.3153427244","0.1469344428","0.466199952","0.215808919","","","","","","","","","","72","H","0","img/none_selected.jpg","","76","main_expt",""
"","bandit","156","336541","0.0-118.0-0.0","01505031","wem/bandit_party_1","A1CSDIX05PK9V","either","7","62","","","","","","","0","0","1","","0.2152215887","0.6","0.2","0.4","0.8","0.3676911864","0.2152215887","0.4402141775","0.2312347408","","","","","","","","","","","","","","74","J","1","","","77","main_expt",""
"","bandit","157","338054","0.0-119.0-0.0","01505031","wem/bandit_party_1","A1CSDIX05PK9V","either","7","3","","","","","","","0","1","0","","0.4525957793","0.6","0.2","0.4","0.8","0.3434277392","0.2055177618","0.4525957793","0.2197025874","","","","","","","","","","","","","","75","K","2","","","78","main_expt",""
"","bandit","158","339742","0.0-120.0-0.0","01505031","wem/bandit_party_1","A1CSDIX05PK9V","either","7","178","","","","","","","0","0","1","","0.4630799716","0.6","0.2","0.4","0.8","0.3758616161","0.222262525","0.4630799716","0.2227420924","","","","","","","","","","","","","","75","K","2","","","79","main_expt",""
"","bandit","159","341494","0.0-121.0-0.0","01505031","wem/bandit_party_1","A1CSDIX05PK9V","either","7","243","","","","","","","1","0","0","0.423693353","","0.6","0.2","0.4","0.8","","","","","0.3862393514","0.2700860438","0.423693353","0.2283057493","","","","","","","","","","75","K","2","","","80","main_expt",""
"","bandit","160","343256","0.0-122.0-0.0","01505031","wem/bandit_party_1","A1CSDIX05PK9V","either","7","250","","","","","","","0","1","0","","0.4319112677","0.6","0.2","0.4","0.8","0.3593770893","0.2642688004","0.4319112677","0.2721525977","","","","","","","","","","","","","","75","K","2","","","81","main_expt",""
"","bandit","161","345672","0.0-123.0-0.0","01505031","wem/bandit_party_1","A1CSDIX05PK9V","either","7","906","","","","","","","0","1","0","","0.441827487","0.6","0.2","0.4","0.8","0.4035110645","0.2824164754","0.441827487","0.2850237184","","","","","","","","","","","","","","75","K","2","","","82","main_expt",""
"","bandit","162","347871","0.0-124.0-0.0","01505031","wem/bandit_party_1","A1CSDIX05PK9V","either","7","689","","","","","","","0","0","1","","0.4288861504","0.6","0.2","0.4","0.8","0.3719627038","0.2819095575","0.4288861504","0.3236436683","","","","","","","","","","","","","","75","K","2","","","83","main_expt",""
"","bandit","163","349720","0.0-125.0-0.0","01505031","wem/bandit_party_1","A1CSDIX05PK9V","either","7","337","","","","","","","0","1","0","","0.4350385517","0.6","0.2","0.4","0.8","0.3349288927","0.2589745902","0.4350385517","0.3339638593","","","","","","","","","","","","","","75","K","2","","","84","main_expt",""
"","bandit","164","351534","0.0-126.0-0.0","01505031","wem/bandit_party_1","A1CSDIX05PK9V","either","7","305","","","","","","","0","0","1","","0.4255505645","0.6","0.2","0.4","0.8","0.3247899262","0.3626504113","0.4255505645","0.3795022601","","","","","","","","","","","","","","75","K","2","","","85","main_expt",""
"","bandit","165","353102","0.0-127.0-0.0","01505031","wem/bandit_party_1","A1CSDIX05PK9V","either","7","58","","","","","","","0","0","1","0.4330938692","","0.6","0.2","0.4","0.8","","","","","0.3443557019","0.3598915268","0.4330938692","0.3835523064","","","","","","","","","","75","K","2","","","86","main_expt",""
"","bandit","166","354886","0.0-128.0-0.0","01505031","wem/bandit_party_1","A1CSDIX05PK9V","either","7","274","","","","","","","0","0","1","","0.4548398529","0.6","0.2","0.4","0.8","0.3648776167","0.3433052933","0.4548398529","0.3772514457","","","","","","","","","","","","","","75","K","2","","","87","main_expt",""
"","bandit","167","356522","0.0-129.0-0.0","01505031","wem/bandit_party_1","A1CSDIX05PK9V","either","7","124","","","","","","","0","0","1","","0.4493124031","0.6","0.2","0.4","0.8","0.3609631839","0.4022938878","0.4493124031","0.3766830519","","","","","","","","","","","","","","75","K","2","","","88","main_expt",""
"","bandit","168","358193","0.0-130.0-0.0","01505031","wem/bandit_party_1","A1CSDIX05PK9V","either","7","159","","","","","","","0","0","1","0.3537755119","","0.6","0.2","0.4","0.8","","","","","0.3636167192","0.4141493151","0.4161110063","0.3537755119","","","","","","","","","","76","L","3","","","89","main_expt",""
"","bandit","169","359705","0.0-131.0-0.0","01505031","wem/bandit_party_1","A1CSDIX05PK9V","either","7","1","","","","","","","0","0","1","","0.4136124289","0.6","0.2","0.4","0.8","0.3563441379","0.4136124289","0.405260856","0.3014761449","","","","","","","","","","","","","","74","J","1","","","90","main_expt",""
"","bandit","170","361330","0.0-132.0-0.0","01505031","wem/bandit_party_1","A1CSDIX05PK9V","either","7","114","","","","","","","0","0","1","0.3389138503","","0.6","0.2","0.4","0.8","","","","","0.3389138503","0.4184852842","0.3827048226","0.2694038268","","","","","","","","","","72","H","0","img/none_selected.jpg","","91","main_expt",""
"","bandit","171","362862","0.0-133.0-0.0","01505031","wem/bandit_party_1","A1CSDIX05PK9V","either","7","21","","","","","","","0","0","1","","0.3263360165","0.6","0.2","0.4","0.8","0.3263360165","0.4456808576","0.3552182969","0.2651536323","","","","","","","","","","","","","","72","H","0","img/none_selected.jpg","","92","main_expt",""
"","bandit","172","364490","0.0-134.0-0.0","01505031","wem/bandit_party_1","A1CSDIX05PK9V","either","7","117","","","","","","","0","1","0","","0.4355219805","0.6","0.2","0.4","0.8","0.2844131911","0.4355219805","0.3286897504","0.1997208586","","","","","","","","","","","","","","74","J","1","","","93","main_expt",""
"","bandit","173","366274","0.0-135.0-0.0","01505031","wem/bandit_party_1","A1CSDIX05PK9V","either","7","271","","","","","","","1","0","0","0.4609821192","","0.6","0.2","0.4","0.8","","","","","0.2978465223","0.4609821192","0.3422490236","0.2442555344","","","","","","","","","","74","J","1","","","94","main_expt",""
"","bandit","174","367793","0.0-136.0-0.0","01505031","wem/bandit_party_1","A1CSDIX05PK9V","either","7","9","","","","","","","0","1","0","","0.4419374505","0.6","0.2","0.4","0.8","0.2638723705","0.4419374505","0.3160161054","0.2638839348","","","","","","","","","","","","","","74","J","1","","","95","main_expt",""
"","bandit","175","369390","0.0-137.0-0.0","01505031","wem/bandit_party_1","A1CSDIX05PK9V","either","7","86","","","","","","","1","0","0","0.39438674","","0.6","0.2","0.4","0.8","","","","","0.2276010735","0.39438674","0.2945538732","0.2265245807","","","","","","","","","","74","J","1","","","96","main_expt",""
"","bandit","176","371109","0.0-138.0-0.0","01505031","wem/bandit_party_1","A1CSDIX05PK9V","either","7","209","","","","","","","0","1","0","","0.3617668419","0.6","0.2","0.4","0.8","0.2045446072","0.3617668419","0.393563827","0.1969189177","","","","","","","","","","","","","","74","J","1","","","97","main_expt",""
"","bandit","177","372877","0.0-139.0-0.0","01505031","wem/bandit_party_1","A1CSDIX05PK9V","either","7","258","","","","","","","0","0","1","","0.3737913853","0.6","0.2","0.4","0.8","0.2436418828","0.3737913853","0.4046254927","0.1761144245","","","","","","","","","","","","","","74","J","1","","","98","main_expt",""
"","bandit","178","374501","0.0-140.0-0.0","01505031","wem/bandit_party_1","A1CSDIX05PK9V","either","7","115","","","","","","","0","1","0","","0.4221129479","0.6","0.2","0.4","0.8","0.2473144087","0.4221129479","0.3659012549","0.1211630765","","","","","","","","","","","","","","74","J","1","","","99","main_expt",""
"","bandit","179","376318","0.0-141.0-0.0","01505031","wem/bandit_party_1","A1CSDIX05PK9V","either","7","306","","","","","","","0","0","1","","0.3857893684","0.6","0.2","0.4","0.8","0.2707360286","0.3857893684","0.400368336","0.1257326749","","","","","","","","","","","","","","74","J","1","","","100","main_expt",""
"","bandit","180","377983","0.0-142.0-0.0","01505031","wem/bandit_party_1","A1CSDIX05PK9V","either","7","155","","","","","","","1","0","0","0.3635527264","","0.6","0.2","0.4","0.8","","","","","0.3250409822","0.3635527264","0.4367931528","0.09975532208","","","","","","","","","","74","J","1","","","101","main_expt",""
"","bandit","181","379749","0.0-143.0-0.0","01505031","wem/bandit_party_1","A1CSDIX05PK9V","either","7","256","","","","","","","0","0","1","","0.3738375489","0.6","0.2","0.4","0.8","0.3088580598","0.3738375489","0.4371155326","0.1127414424","","","","","","","","","","","","","","74","J","1","","","102","main_expt",""
"","bandit","182","381510","0.0-144.0-0.0","01505031","wem/bandit_party_1","A1CSDIX05PK9V","either","7","252","","","","","","","0","1","0","","0.3860163181","0.6","0.2","0.4","0.8","0.2901001995","0.3860163181","0.388648264","0.1232600734","","","","","","","","","","","","","","74","J","1","","","103","main_expt",""
"","bandit","183","383223","0.0-145.0-0.0","01505031","wem/bandit_party_1","A1CSDIX05PK9V","either","7","201","","","","","","","0","0","1","","0.390692362","0.6","0.2","0.4","0.8","0.309645936","0.390692362","0.3718469433","0.08156843846","","","","","","","","","","","","","","74","J","1","","","104","main_expt",""
"","bandit","184","384981","0.0-146.0-0.0","01505031","wem/bandit_party_1","A1CSDIX05PK9V","either","7","248","","","","","","","0","1","0","","0.4139082553","0.6","0.2","0.4","0.8","0.3386062745","0.4139082553","0.3920304628","0.08245659199","","","","","","","","","","","","","","74","J","1","","","105","main_expt",""
"","bandit","185","386612","0.0-147.0-0.0","01505031","wem/bandit_party_1","A1CSDIX05PK9V","either","7","123","","","","","","","0","1","0","","0.3295275825","0.6","0.2","0.4","0.8","0.3827539061","0.3295275825","0.3733497125","0.1276639339","","","","","","","","","","","","","","74","J","1","","","106","main_expt",""
"","bandit","186","388400","0.0-148.0-0.0","01505031","wem/bandit_party_1","A1CSDIX05PK9V","either","7","277","","","","","","","0","0","1","0.3499712774","","0.6","0.2","0.4","0.8","","","","","0.3401355396","0.3499712774","0.3878439861","0.1812689745","","","","","","","","","","74","J","1","","","107","main_expt",""
"","bandit","187","389925","0.0-149.0-0.0","01505031","wem/bandit_party_1","A1CSDIX05PK9V","either","7","15","","","","","","","0","0","1","","0.2666891207","0.6","0.2","0.4","0.8","0.3258039352","0.2666891207","0.3529013302","0.2187982558","","","","","","","","","","","","","","74","J","1","","","108","main_expt",""
"","bandit","188","391724","0.0-150.0-0.0","01505031","wem/bandit_party_1","A1CSDIX05PK9V","either","7","290","","","","","","","1","0","0","0.374919859","","0.6","0.2","0.4","0.8","","","","","0.374919859","0.2575067634","0.3457683734","0.2201216928","","","","","","","","","","72","H","0","img/none_selected.jpg","","109","main_expt",""
"","bandit","189","393461","0.0-151.0-0.0","01505031","wem/bandit_party_1","A1CSDIX05PK9V","either","7","228","","","","","","","0","1","0","","0.3656186065","0.6","0.2","0.4","0.8","0.3656186065","0.2664913793","0.3316873257","0.1789817232","","","","","","","","","","","","","","72","H","0","img/none_selected.jpg","","110","main_expt",""
"","bandit","190","395257","0.0-152.0-0.0","01505031","wem/bandit_party_1","A1CSDIX05PK9V","either","7","285","","","","","","","1","0","0","0.3649701027","","0.6","0.2","0.4","0.8","","","","","0.3649701027","0.2233446911","0.3434945318","0.2404947452","","","","","","","","","","72","H","0","img/none_selected.jpg","","111","main_expt",""
"","bandit","191","397214","0.0-153.0-0.0","01505031","wem/bandit_party_1","A1CSDIX05PK9V","either","7","447","","","","","","","0","0","1","","0.3371716456","0.6","0.2","0.4","0.8","0.3371716456","0.2170082082","0.2729480053","0.2959558532","","","","","","","","","","","","","","72","H","0","img/none_selected.jpg","","112","main_expt",""
"","bandit","192","398726","0.0-154.0-0.0","01505031","wem/bandit_party_1","A1CSDIX05PK9V","either","7","1","","","","","","","0","0","1","","0.2587224119","0.6","0.2","0.4","0.8","0.2587224119","0.1912277411","0.2579672073","0.2966985553","","","","","","","","","","","","","","72","H","0","img/none_selected.jpg","","113","main_expt",""
"","bandit","193","400426","0.0-155.0-0.0","01505031","wem/bandit_party_1","A1CSDIX05PK9V","either","7","190","","","","","","","0","0","1","","0.2384324947","0.6","0.2","0.4","0.8","0.2384324947","0.1691995451","0.24654084","0.3289730608","","","","","","","","","","","","","","72","H","0","img/none_selected.jpg","","114","main_expt",""
"","bandit","194","402033","0.0-156.0-0.0","01505031","wem/bandit_party_1","A1CSDIX05PK9V","either","7","98","","","","","","","0","0","1","","0.2705755989","0.6","0.2","0.4","0.8","0.2705755989","0.1263730162","0.246649757","0.2783705844","","","","","","","","","","","","","","72","H","0","img/none_selected.jpg","","115","main_expt",""
"","bandit","195","403632","0.0-157.0-0.0","01505031","wem/bandit_party_1","A1CSDIX05PK9V","either","7","90","","","","","","","0","0","1","","0.2190482835","0.6","0.2","0.4","0.8","0.2666822","0.1130092975","0.2190482835","0.2990421824","","","","","","","","","","","","","","75","K","2","","","116","main_expt",""
"","bandit","196","405585","0.0-158.0-0.0","01505031","wem/bandit_party_1","A1CSDIX05PK9V","either","7","442","","","","","","","0","0","1","","0.3214730448","0.6","0.2","0.4","0.8","0.2664749026","0.1317362661","0.1860086181","0.3214730448","","","","","","","","","","","","","","76","L","3","","","117","main_expt",""
"","bandit","197","407121","0.0-159.0-0.0","01505031","wem/bandit_party_1","A1CSDIX05PK9V","either","7","25","","","","","","","0","0","1","","0.08460291254","0.6","0.2","0.4","0.8","0.285497096","0.08460291254","0.1765749983","0.3996160597","","","","","","","","","","","","","","74","J","1","","","118","main_expt",""
"","bandit","198","408732","0.0-160.0-0.0","01505031","wem/bandit_party_1","A1CSDIX05PK9V","either","7","100","","","","","","","0","0","1","","0.3004427434","0.6","0.2","0.4","0.8","0.3004427434","0.09168363065","0.1840588368","0.4143362638","","","","","","","","","","","","","","72","H","0","img/none_selected.jpg","","119","main_expt",""
"","bandit","199","410338","0.0-161.0-0.0","01505031","wem/bandit_party_1","A1CSDIX05PK9V","either","7","93","","","","","","","0","0","1","","0.1988357929","0.6","0.2","0.4","0.8","0.2419855731","0.06729372802","0.1988357929","0.372340151","","","","","","","","","","","","","","75","K","2","","","120","main_expt",""
"","bandit","200","412265","0.0-162.0-0.0","01505031","wem/bandit_party_1","A1CSDIX05PK9V","either","7","416","","","","","","","0","0","1","","0.3910424524","0.6","0.2","0.4","0.8","0.3054132847","0.08346408207","0.2315674","0.3910424524","","","","","","","","","","","","","","76","L","3","","","121","main_expt",""
"","bandit","201","413850","0.0-163.0-0.0","01505031","wem/bandit_party_1","A1CSDIX05PK9V","either","7","73","","","","","","","0","0","1","","0.05632743158","0.6","0.2","0.4","0.8","0.2473202095","0.05632743158","0.2041322171","0.3813410711","","","","","","","","","","","","","","74","J","1","","","122","main_expt",""
"","bandit","202","415457","0.0-164.0-0.0","01505031","wem/bandit_party_1","A1CSDIX05PK9V","either","7","96","","","","","","","1","0","0","0.2909195989","","0.6","0.2","0.4","0.8","","","","","0.2909195989","0.05516745574","0.1945268209","0.4247291795","","","","","","","","","","72","H","0","img/none_selected.jpg","","123","main_expt",""
"","bandit","203","417289","0.0-165.0-0.0","01505031","wem/bandit_party_1","A1CSDIX05PK9V","either","7","322","","","","","","","0","0","1","","0.3493750294","0.6","0.2","0.4","0.8","0.3493750294","0.05528311039","0.2206749142","0.4311179713","","","","","","","","","","","","","","72","H","0","img/none_selected.jpg","","124","main_expt",""
"","bandit","204","419083","0.0-166.0-0.0","01505031","wem/bandit_party_1","A1CSDIX05PK9V","either","7","280","","","","","","","0","1","0","","0.3883668019","0.6","0.2","0.4","0.8","0.3883668019","0.07149807259","0.212012295","0.4085782939","","","","","","","","","","","","","","72","H","0","img/none_selected.jpg","","125","main_expt",""
"","bandit","205","420692","0.0-167.0-0.0","01505031","wem/bandit_party_1","A1CSDIX05PK9V","either","7","97","","","","","","","0","1","0","","0.3888129637","0.6","0.2","0.4","0.8","0.3888129637","0.1137803622","0.1656684785","0.4110861309","","","","","","","","","","","","","","72","H","0","img/none_selected.jpg","","126","main_expt",""
"","bandit","206","422456","0.0-168.0-0.0","01505031","wem/bandit_party_1","A1CSDIX05PK9V","either","7","251","","","","","","","1","0","0","0.3659195129","","0.6","0.2","0.4","0.8","","","","","0.3659195129","0.1003054442","0.1685301808","0.4214671818","","","","","","","","","","72","H","0","img/none_selected.jpg","","127","main_expt",""
"","bandit","207","424203","0.0-169.0-0.0","01505031","wem/bandit_party_1","A1CSDIX05PK9V","either","7","236","","","","","","","1","0","0","0.3689954399","","0.6","0.2","0.4","0.8","","","","","0.3689954399","0.1378169536","0.1703551811","0.36889317","","","","","","","","","","72","H","0","img/none_selected.jpg","","128","main_expt",""
"","bandit","208","426039","0.0-170.0-0.0","01505031","wem/bandit_party_1","A1CSDIX05PK9V","either","7","325","","","","","","","0","0","1","0.3600340942","","0.6","0.2","0.4","0.8","","","","","0.3600340942","0.1333081235","0.1624753709","0.3840267129","","","","","","","","","","72","H","0","img/none_selected.jpg","","129","main_expt",""
"","bandit","209","427807","0.0-171.0-0.0","01505031","wem/bandit_party_1","A1CSDIX05PK9V","either","7","257","","","","","","","0","0","1","0.3580797835","","0.6","0.2","0.4","0.8","","","","","0.3580797835","0.1682212827","0.2335662737","0.3809677701","","","","","","","","","","72","H","0","img/none_selected.jpg","","130","main_expt",""
"","bandit","210","429561","0.0-172.0-0.0","01505031","wem/bandit_party_1","A1CSDIX05PK9V","either","7","243","","","","","","","1","0","0","0.3785893338","","0.6","0.2","0.4","0.8","","","","","0.3785893338","0.2193829955","0.240441026","0.3681933818","","","","","","","","","","72","H","0","img/none_selected.jpg","","131","main_expt",""
"","bandit","211","431152","0.0-173.0-0.0","01505031","wem/bandit_party_1","A1CSDIX05PK9V","either","7","78","","","","","","","1","0","0","0.3764735404","","0.6","0.2","0.4","0.8","","","","","0.3764735404","0.2693349046","0.2266699971","0.3664045944","","","","","","","","","","72","H","0","img/none_selected.jpg","","132","main_expt",""
"","bandit","212","432911","0.0-174.0-0.0","01505031","wem/bandit_party_1","A1CSDIX05PK9V","either","7","249","","","","","","","0","0","1","","0.3433534211","0.6","0.2","0.4","0.8","0.3433534211","0.2576546077","0.1994193025","0.4046437197","","","","","","","","","","","","","","72","H","0","img/none_selected.jpg","","133","main_expt",""
"","bandit","213","434551","0.0-175.0-0.0","01505031","wem/bandit_party_1","A1CSDIX05PK9V","either","7","129","","","","","","","0","0","1","0.3606247271","","0.6","0.2","0.4","0.8","","","","","0.3606247271","0.2412372273","0.1891464922","0.364490756","","","","","","","","","","72","H","0","img/none_selected.jpg","","134","main_expt",""
"","bandit","214","436319","0.0-176.0-0.0","01505031","wem/bandit_party_1","A1CSDIX05PK9V","either","7","258","","","","","","","0","0","1","0.3268624306","","0.6","0.2","0.4","0.8","","","","","0.3268624306","0.2198641054","0.1614798668","0.311914316","","","","","","","","","","72","H","0","img/none_selected.jpg","","135","main_expt",""
"","bandit","215","437831","0.0-177.0-0.0","01505031","wem/bandit_party_1","A1CSDIX05PK9V","either","7","1","","","","","","","0","0","1","0.2504132697","","0.6","0.2","0.4","0.8","","","","","0.2854606769","0.2504132697","0.1880386222","0.2653901568","","","","","","","","","","74","J","1","","","136","main_expt",""
"","bandit","216","439649","0.0-178.0-0.0","01505031","wem/bandit_party_1","A1CSDIX05PK9V","either","7","308","","","","","","","0","1","0","","0.1961818793","0.6","0.2","0.4","0.8","0.3311747399","0.1912230989","0.1961818793","0.2413295316","","","","","","","","","","","","","","75","K","2","","","137","main_expt",""
"","bandit","217","441575","0.0-179.0-0.0","01505031","wem/bandit_party_1","A1CSDIX05PK9V","either","7","414","","","","","","","0","0","1","0.2857678963","","0.6","0.2","0.4","0.8","","","","","0.2570785188","0.1576256809","0.2857678963","0.2060295423","","","","","","","","","","75","K","2","","","138","main_expt",""
"","bandit","218","443207","0.0-180.0-0.0","01505031","wem/bandit_party_1","A1CSDIX05PK9V","either","7","121","","","","","","","0","0","1","0.3449131854","","0.6","0.2","0.4","0.8","","","","","0.2858060749","0.1019788138","0.3449131854","0.1809645164","","","","","","","","","","75","K","2","","","139","main_expt",""
"","bandit","219","444775","0.0-181.0-0.0","01505031","wem/bandit_party_1","A1CSDIX05PK9V","either","7","56","","","","","","","0","0","1","","0.1843216893","0.6","0.2","0.4","0.8","0.2975559752","0.07754087054","0.2537716732","0.1843216893","","","","","","","","","","","","","","76","L","3","","","140","main_expt",""
"","bandit","220","446542","0.0-182.0-0.0","01505031","wem/bandit_party_1","A1CSDIX05PK9V","either","7","257","","","","","","","0","0","1","0.2858111263","","0.6","0.2","0.4","0.8","","","","","0.2802168405","0.09489610577","0.2858111263","0.1651876155","","","","","","","","","","75","K","2","","","141","main_expt",""
"","bandit","221","448343","0.0-183.0-0.0","01505031","wem/bandit_party_1","A1CSDIX05PK9V","either","7","289","","","","","","","0","0","1","0.303049367","","0.6","0.2","0.4","0.8","","","","","0.2231986748","0.09601428546","0.303049367","0.1536427928","","","","","","","","","","75","K","2","","","142","main_expt",""
"","bandit","222","449890","0.0-184.0-0.0","01505031","wem/bandit_party_1","A1CSDIX05PK9V","either","7","36","","","","","","","0","0","1","0.08301142993","","0.6","0.2","0.4","0.8","","","","","0.2032880393","0.08301142993","0.2969419413","0.1546140226","","","","","","","","","","74","J","1","","","143","main_expt",""
"","bandit","223","451483","0.0-185.0-0.0","01505031","wem/bandit_party_1","A1CSDIX05PK9V","either","7","82","","","","","","","0","0","1","","0.1967741464","0.6","0.2","0.4","0.8","0.1967741464","0.09599686985","0.3128690494","0.1746031107","","","","","","","","","","","","","","72","H","0","img/none_selected.jpg","","144","main_expt",""
"","bandit","224","453131","0.0-186.0-0.0","01505031","wem/bandit_party_1","A1CSDIX05PK9V","either","7","137","","","","","","","0","0","1","0.2021387556","","0.6","0.2","0.4","0.8","","","","","0.2283154954","0.07499383622","0.2991796355","0.2021387556","","","","","","","","","","76","L","3","","","145","main_expt",""
"","bandit","225","454891","0.0-187.0-0.0","01505031","wem/bandit_party_1","A1CSDIX05PK9V","either","7","248","","","","","","","0","0","1","0.3163763193","","0.6","0.2","0.4","0.8","","","","","0.2118700154","0.09566861","0.3163763193","0.2504344391","","","","","","","","","","75","K","2","","","146","main_expt",""
"","bandit","226","456620","0.0-188.0-0.0","01505031","wem/bandit_party_1","A1CSDIX05PK9V","either","7","217","","","","","","","0","0","1","","0.08578591382","0.6","0.2","0.4","0.8","0.210437557","0.08578591382","0.3198025905","0.2437718569","","","","","","","","","","","","","","74","J","1","","","147","main_expt",""
"","bandit","227","458355","0.0-189.0-0.0","01505031","wem/bandit_party_1","A1CSDIX05PK9V","either","7","224","","","","","","","0","0","1","0.2370661354","","0.6","0.2","0.4","0.8","","","","","0.2370661354","0.1147887709","0.2588245921","0.2446677265","","","","","","","","","","72","H","0","img/none_selected.jpg","","148","main_expt",""
"","bandit","228","460245","0.0-190.0-0.0","01505031","wem/bandit_party_1","A1CSDIX05PK9V","either","7","379","","","","","","","1","0","0","0.2911002833","","0.6","0.2","0.4","0.8","","","","","0.2430363771","0.1378203382","0.248712437","0.2911002833","","","","","","","","","","76","L","3","","","149","main_expt",""
"","bandit","229","462107","0.0-191.0-0.0","01505031","wem/bandit_party_1","A1CSDIX05PK9V","either","7","350","","","","","","","1","0","0","0.3529655025","","0.6","0.2","0.4","0.8","","","","","0.2242182381","0.1414499273","0.179144869","0.3529655025","","","","","","","","","","76","L","3","","","150","main_expt",""
"","bandit","230","463922","0.0-192.0-0.0","01505031","wem/bandit_party_1","A1CSDIX05PK9V","either","7","305","","","","","","","0","0","1","0.3885741111","","0.6","0.2","0.4","0.8","","","","","0.1997145133","0.07852348772","0.1545669956","0.3885741111","","","","","","","","","","76","L","3","","","151","main_expt",""
"","bandit","231","465674","0.0-193.0-0.0","01505031","wem/bandit_party_1","A1CSDIX05PK9V","either","7","241","","","","","","","1","0","0","0.3690499696","","0.6","0.2","0.4","0.8","","","","","0.2195927633","0.08485793113","0.1651714415","0.3690499696","","","","","","","","","","76","L","3","","","152","main_expt",""
"","bandit","232","467467","0.0-194.0-0.0","01505031","wem/bandit_party_1","A1CSDIX05PK9V","either","7","285","","","","","","","0","0","1","0.3710492515","","0.6","0.2","0.4","0.8","","","","","0.2121816628","0.1083789561","0.2396245514","0.3710492515","","","","","","","","","","76","L","3","","","153","main_expt",""
"","bandit","233","469283","0.0-195.0-0.0","01505031","wem/bandit_party_1","A1CSDIX05PK9V","either","7","304","","","","","","","0","0","1","0.3483335413","","0.6","0.2","0.4","0.8","","","","","0.1830588608","0.109098481","0.2085838567","0.3483335413","","","","","","","","","","76","L","3","","","154","main_expt",""
"","bandit","234","471045","0.0-196.0-0.0","01505031","wem/bandit_party_1","A1CSDIX05PK9V","either","7","251","","","","","","","1","0","0","0.3343760247","","0.6","0.2","0.4","0.8","","","","","0.2031423662","0.1758262092","0.1864274254","0.3343760247","","","","","","","","","","76","L","3","","","155","main_expt",""
"","bandit","235","472739","0.0-197.0-0.0","01505031","wem/bandit_party_1","A1CSDIX05PK9V","either","7","182","","","","","","","0","0","1","0.3742013553","","0.6","0.2","0.4","0.8","","","","","0.2022731065","0.2046597001","0.1750870897","0.3742013553","","","","","","","","","","76","L","3","","","156","main_expt",""
"","bandit","236","474571","0.0-198.0-0.0","01505031","wem/bandit_party_1","A1CSDIX05PK9V","either","7","321","","","","","","","0","0","1","0.3620366094","","0.6","0.2","0.4","0.8","","","","","0.1826661219","0.1774751899","0.1321985386","0.3620366094","","","","","","","","","","76","L","3","","","157","main_expt",""
"","bandit","237","476311","0.0-199.0-0.0","01505031","wem/bandit_party_1","A1CSDIX05PK9V","either","7","228","","","","","","","0","0","1","0.1341899746","","0.6","0.2","0.4","0.8","","","","","0.1658993888","0.1612033886","0.1341899746","0.3671714071","","","","","","","","","","75","K","2","","","158","main_expt",""
"","bandit","238","478175","0.0-200.0-0.0","01505031","wem/bandit_party_1","A1CSDIX05PK9V","either","7","352","","","","","","","0","0","1","","0.1586838935","0.6","0.2","0.4","0.8","0.1620079643","0.1586838935","0.1567784951","0.4015988616","","","","","","","","","","","","","","74","J","1","","","159","main_expt",""
"","bandit","239","479786","0.0-201.0-0.0","01505031","wem/bandit_party_1","A1CSDIX05PK9V","either","7","96","","","","","","","0","0","1","","0.2453635642","0.6","0.2","0.4","0.8","0.2453635642","0.2159944071","0.1615549635","0.4004877553","","","","","","","","","","","","","","72","H","0","img/none_selected.jpg","","160","main_expt",""
"","bandit","240","481408","0.0-202.0-0.0","01505031","wem/bandit_party_1","A1CSDIX05PK9V","either","7","110","","","","","","","0","0","1","","0.1854631015","0.6","0.2","0.4","0.8","0.2456373749","0.2105769377","0.1854631015","0.4095849454","","","","","","","","","","","","","","75","K","2","","","161","main_expt",""
"","bandit","241","483154","0.0-203.0-0.0","01505031","wem/bandit_party_1","A1CSDIX05PK9V","either","7","234","","","","","","","0","0","1","0.3978002783","","0.6","0.2","0.4","0.8","","","","","0.2460125232","0.2006925765","0.21229469","0.3978002783","","","","","","","","","","76","L","3","","","162","main_expt",""
"","bandit","242","484674","0.0-204.0-0.0","01505031","wem/bandit_party_1","A1CSDIX05PK9V","either","7","8","","","","","","","0","0","1","","0.2365124807","0.6","0.2","0.4","0.8","0.2013568893","0.2365124807","0.162194177","0.4180552148","","","","","","","","","","","","","","74","J","1","","","163","main_expt",""
"","bandit","243","486211","0.0-205.0-0.0","01505031","wem/bandit_party_1","A1CSDIX05PK9V","either","7","24","","","","","","","0","1","0","","0.1933595846","0.6","0.2","0.4","0.8","0.1933595846","0.2157370886","0.1535707797","0.4407560021","","","","","","","","","","","","","","72","H","0","img/none_selected.jpg","","164","main_expt",""
"","bandit","244","487851","0.0-206.0-0.0","01505031","wem/bandit_party_1","A1CSDIX05PK9V","either","7","127","","","","","","","0","0","1","0.167552211","","0.6","0.2","0.4","0.8","","","","","0.167552211","0.2166787898","0.2315934193","0.4582960521","","","","","","","","","","72","H","0","img/none_selected.jpg","","165","main_expt",""
"","bandit","245","489641","0.0-207.0-0.0","01505031","wem/bandit_party_1","A1CSDIX05PK9V","either","7","275","","","","","","","0","0","1","0.1311237951","","0.6","0.2","0.4","0.8","","","","","0.1311237951","0.1846262972","0.2579087381","0.4337500892","","","","","","","","","","72","H","0","img/none_selected.jpg","","166","main_expt",""
"","bandit","246","491420","0.0-208.0-0.0","01505031","wem/bandit_party_1","A1CSDIX05PK9V","either","7","269","","","","","","","0","0","1","","0.4537582576","0.6","0.2","0.4","0.8","0.1714029316","0.1888750078","0.2496457694","0.4537582576","","","","","","","","","","","","","","76","L","3","","","167","main_expt",""
"","bandit","247","492933","0.0-209.0-0.0","01505031","wem/bandit_party_1","A1CSDIX05PK9V","either","7","1","","","","","","","1","0","0","0.234558796","","0.6","0.2","0.4","0.8","","","","","0.1494402723","0.2315683769","0.234558796","0.4473485534","","","","","","","","","","75","K","2","","","168","main_expt",""
"","bandit","248","494777","0.0-210.0-0.0","01505031","wem/bandit_party_1","A1CSDIX05PK9V","either","7","333","","","","","","","0","0","1","","0.2458600006","0.6","0.2","0.4","0.8","0.1819888556","0.2018123945","0.2458600006","0.4471591033","","","","","","","","","","","","","","75","K","2","","","169","main_expt",""
"","bandit","249","496409","0.0-211.0-0.0","01505031","wem/bandit_party_1","A1CSDIX05PK9V","either","7","120","","","","","","","0","0","1","0.2214583157","","0.6","0.2","0.4","0.8","","","","","0.2329206984","0.139238222","0.2214583157","0.4581839475","","","","","","","","","","75","K","2","","","170","main_expt",""
"","bandit","250","498217","0.0-212.0-0.0","01505031","wem/bandit_party_1","A1CSDIX05PK9V","either","7","297","","","","","","","0","0","1","","0.1466511374","0.6","0.2","0.4","0.8","0.2000607923","0.1466511374","0.296208115","0.4674995421","","","","","","","","","","","","","","74","J","1","","","171","main_expt",""
"","bandit","251","499977","0.0-213.0-0.0","01505031","wem/bandit_party_1","A1CSDIX05PK9V","either","7","248","","","","","","","0","1","0","","0.2342957318","0.6","0.2","0.4","0.8","0.2342957318","0.1348290388","0.3062379281","0.4455620345","","","","","","","","","","","","","","72","H","0","img/none_selected.jpg","","172","main_expt",""
"","bandit","252","501652","0.0-214.0-0.0","01505031","wem/bandit_party_1","A1CSDIX05PK9V","either","7","163","","","","","","","0","0","1","0.2189308077","","0.6","0.2","0.4","0.8","","","","","0.2189308077","0.1521691919","0.2498067723","0.4471610379","","","","","","","","","","72","H","0","img/none_selected.jpg","","173","main_expt",""
"","bandit","253","503466","0.0-215.0-0.0","01505031","wem/bandit_party_1","A1CSDIX05PK9V","either","7","301","","","","","","","0","0","1","","0.2373932689","0.6","0.2","0.4","0.8","0.2373932689","0.2191935525","0.1803522277","0.4496576915","","","","","","","","","","","","","","72","H","0","img/none_selected.jpg","","174","main_expt",""
"","bandit","254","505203","0.0-216.0-0.0","01505031","wem/bandit_party_1","A1CSDIX05PK9V","either","7","223","","","","","","","0","0","1","","0.2160264752","0.6","0.2","0.4","0.8","0.2160264752","0.219961305","0.2014319342","0.4715297358","","","","","","","","","","","","","","72","H","0","img/none_selected.jpg","","175","main_expt",""
"","bandit","255","507082","0.0-217.0-0.0","01505031","wem/bandit_party_1","A1CSDIX05PK9V","either","7","366","","","","","","","1","0","0","0.477956151","","0.6","0.2","0.4","0.8","","","","","0.1990604306","0.1882485239","0.2122003168","0.477956151","","","","","","","","","","76","L","3","","","176","main_expt",""
"","bandit","256","508862","0.0-218.0-0.0","01505031","wem/bandit_party_1","A1CSDIX05PK9V","either","7","267","","","","","","","0","0","1","","0.4563721206","0.6","0.2","0.4","0.8","0.1729978196","0.1644902553","0.2629069455","0.4563721206","","","","","","","","","","","","","","76","L","3","","","177","main_expt",""
"","bandit","257","510622","0.0-219.0-0.0","01505031","wem/bandit_party_1","A1CSDIX05PK9V","either","7","247","","","","","","","1","0","0","0.4409869931","","0.6","0.2","0.4","0.8","","","","","0.1633080779","0.1713669852","0.2336104206","0.4409869931","","","","","","","","","","76","L","3","","","178","main_expt",""
"","bandit","258","512520","0.0-220.0-0.0","01505031","wem/bandit_party_1","A1CSDIX05PK9V","either","7","385","","","","","","","0","1","0","","0.4243126063","0.6","0.2","0.4","0.8","0.1243251356","0.2263400462","0.1887504226","0.4243126063","","","","","","","","","","","","","","76","L","3","","","179","main_expt",""
"","bandit","259","514549","0.0-221.0-0.0","01505031","wem/bandit_party_1","A1CSDIX05PK9V","either","7","516","","","","","","","1","0","0","0.4312830743","","0.6","0.2","0.4","0.8","","","","","0.1150149055","0.2036870175","0.138376641","0.4312830743","","","","","","","","","","76","L","3","","","180","main_expt",""
"","bandit","260","516421","0.0-222.0-0.0","01505031","wem/bandit_party_1","A1CSDIX05PK9V","either","7","362","","","","","","","1","0","0","0.4433127893","","0.6","0.2","0.4","0.8","","","","","0.1407924877","0.1934599198","0.1883992559","0.4433127893","","","","","","","","","","76","L","3","","","181","main_expt",""
"","bandit","261","518103","0.0-223.0-0.0","01505031","wem/bandit_party_1","A1CSDIX05PK9V","either","7","167","","","","","","","0","0","1","0.440136403","","0.6","0.2","0.4","0.8","","","","","0.09672650852","0.2424515525","0.128889003","0.440136403","","","","","","","","","","76","L","3","","","182","main_expt",""
"","bandit","262","519854","0.0-224.0-0.0","01505031","wem/bandit_party_1","A1CSDIX05PK9V","either","7","238","","","","","","","0","0","1","0.4347693449","","0.6","0.2","0.4","0.8","","","","","0.09888002855","0.1961777535","0.1748769843","0.4347693449","","","","","","","","","","76","L","3","","","183","main_expt",""
"","bandit","263","521654","0.0-225.0-0.0","01505031","wem/bandit_party_1","A1CSDIX05PK9V","either","7","286","","","","","","","1","0","0","0.4277130926","","0.6","0.2","0.4","0.8","","","","","0.07200145298","0.1489283113","0.1945994373","0.4277130926","","","","","","","","","","76","L","3","","","184","main_expt",""
"","bandit","264","523424","0.0-226.0-0.0","01505031","wem/bandit_party_1","A1CSDIX05PK9V","either","7","257","","","","","","","1","0","0","0.3956248437","","0.6","0.2","0.4","0.8","","","","","0.09476413333","0.1499965078","0.1644748654","0.3956248437","","","","","","","","","","76","L","3","","","185","main_expt",""
"","bandit","265","525223","0.0-227.0-0.0","01505031","wem/bandit_party_1","A1CSDIX05PK9V","either","7","285","","","","","","","0","1","0","","0.3748928266","0.6","0.2","0.4","0.8","0.06556422103","0.2169832988","0.1504635592","0.3748928266","","","","","","","","","","","","","","76","L","3","","","186","main_expt",""
"","bandit","266","527021","0.0-228.0-0.0","01505031","wem/bandit_party_1","A1CSDIX05PK9V","either","7","285","","","","","","","0","0","1","","0.3848139325","0.6","0.2","0.4","0.8","0.08901149072","0.2655186329","0.1760039214","0.3848139325","","","","","","","","","","","","","","76","L","3","","","187","main_expt",""
"","bandit","267","528797","0.0-229.0-0.0","01505031","wem/bandit_party_1","A1CSDIX05PK9V","either","7","264","","","","","","","0","0","1","0.3990176401","","0.6","0.2","0.4","0.8","","","","","0.09471428588","0.2738785118","0.1203267588","0.3990176401","","","","","","","","","","76","L","3","","","188","main_expt",""
"","bandit","268","530652","0.0-230.0-0.0","01505031","wem/bandit_party_1","A1CSDIX05PK9V","either","7","342","","","","","","","0","0","1","","0.3581396838","0.6","0.2","0.4","0.8","0.05118235823","0.3041874674","0.1171540391","0.3581396838","","","","","","","","","","","","","","76","L","3","","","189","main_expt",""
"","bandit","269","532389","0.0-231.0-0.0","01505031","wem/bandit_party_1","A1CSDIX05PK9V","either","7","223","","","","","","","0","0","1","","0.2882972244","0.6","0.2","0.4","0.8","0.05788318751","0.3229453735","0.1535230761","0.2882972244","","","","","","","","","","","","","","76","L","3","","","190","main_expt",""
"","bandit","270","533975","0.0-232.0-0.0","01505031","wem/bandit_party_1","A1CSDIX05PK9V","either","7","72","","","","","","","0","0","1","","0.1372750947","0.6","0.2","0.4","0.8","0.08736915481","0.3818249757","0.1372750947","0.3145326233","","","","","","","","","","","","","","75","K","2","","","191","main_expt",""
"","bandit","271","535630","0.0-233.0-0.0","01505031","wem/bandit_party_1","A1CSDIX05PK9V","either","7","141","","","","","","","1","0","0","0.4157726243","","0.6","0.2","0.4","0.8","","","","","0.08251019118","0.4157726243","0.1047771501","0.3270603702","","","","","","","","","","74","J","1","","","192","main_expt",""
"","bandit","272","537223","0.0-234.0-0.0","01505031","wem/bandit_party_1","A1CSDIX05PK9V","either","7","78","","","","","","","0","1","0","","0.4611608212","0.6","0.2","0.4","0.8","0.06897628064","0.4611608212","0.1100845432","0.3604030797","","","","","","","","","","","","","","74","J","1","","","193","main_expt",""
"","bandit","273","539185","0.0-235.0-0.0","01505031","wem/bandit_party_1","A1CSDIX05PK9V","either","7","450","","","","","","","0","0","1","","0.4508818777","0.6","0.2","0.4","0.8","0.06801266305","0.4508818777","0.1468163818","0.357423186","","","","","","","","","","","","","","74","J","1","","","194","main_expt",""
"","bandit","274","540988","0.0-236.0-0.0","01505031","wem/bandit_party_1","A1CSDIX05PK9V","either","7","287","","","","","","","0","1","0","","0.4278921451","0.6","0.2","0.4","0.8","0.09923709358","0.4278921451","0.1495594621","0.3697779856","","","","","","","","","","","","","","74","J","1","","","195","main_expt",""
"","bandit","275","542843","0.0-237.0-0.0","01505031","wem/bandit_party_1","A1CSDIX05PK9V","either","7","342","","","","","","","0","0","1","","0.4256293003","0.6","0.2","0.4","0.8","0.1103063831","0.4256293003","0.2263220537","0.3617177512","","","","","","","","","","","","","","74","J","1","","","196","main_expt",""
"","bandit","276","544755","0.0-238.0-0.0","01505031","wem/bandit_party_1","A1CSDIX05PK9V","either","7","399","","","","","","","0","1","0","","0.4476975038","0.6","0.2","0.4","0.8","0.07377144043","0.4476975038","0.2204718804","0.3775990084","","","","","","","","","","","","","","74","J","1","","","197","main_expt",""
"","bandit","277","546547","0.0-239.0-0.0","01505031","wem/bandit_party_1","A1CSDIX05PK9V","either","7","278","","","","","","","0","0","1","","0.4434357272","0.6","0.2","0.4","0.8","0.08863448313","0.4434357272","0.2401118457","0.4144042571","","","","","","","","","","","","","","74","J","1","","","198","main_expt",""
"","bandit","278","548171","0.0-240.0-0.0","01505031","wem/bandit_party_1","A1CSDIX05PK9V","either","7","110","","","","","","","0","0","1","","0.4245114622","0.6","0.2","0.4","0.8","0.1082179128","0.4245114622","0.2673724497","0.4081775392","","","","","","","","","","","","","","74","J","1","","","199","main_expt",""
"","bandit","279","549907","0.0-241.0-0.0","01505031","wem/bandit_party_1","A1CSDIX05PK9V","either","7","222","","","","","","","0","1","0","","0.4087100315","0.6","0.2","0.4","0.8","0.09350688576","0.4087100315","0.3125307902","0.4166156547","","","","","","","","","","","","","","74","J","1","","","200","main_expt",""
"","bandit","280","551827","0.0-242.0-0.0","01505031","wem/bandit_party_1","A1CSDIX05PK9V","either","7","406","","","","","","","0","0","1","","0.4361521275","0.6","0.2","0.4","0.8","0.1036625099","0.4361521275","0.2914574258","0.4306537176","","","","","","","","","","","","","","74","J","1","","","201","main_expt",""
"","bandit","281","553564","0.0-243.0-0.0","01505031","wem/bandit_party_1","A1CSDIX05PK9V","either","7","221","","","","","","","0","1","0","","0.1216733889","0.6","0.2","0.4","0.8","0.1216733889","0.3332596158","0.2550600684","0.449382563","","","","","","","","","","","","","","72","H","0","img/none_selected.jpg","","202","main_expt",""
"","bandit","282","555318","0.0-244.0-0.0","01505031","wem/bandit_party_1","A1CSDIX05PK9V","either","7","240","","","","","","","0","0","1","","0.120655788","0.6","0.2","0.4","0.8","0.120655788","0.3581848779","0.2769745997","0.4506576586","","","","","","","","","","","","","","72","H","0","img/none_selected.jpg","","203","main_expt",""
"","bandit","283","557059","0.0-245.0-0.0","01505031","wem/bandit_party_1","A1CSDIX05PK9V","either","7","228","","","","","","","0","0","1","","0.1082970726","0.6","0.2","0.4","0.8","0.1082970726","0.3597133043","0.2752990059","0.454839243","","","","","","","","","","","","","","72","H","0","img/none_selected.jpg","","204","main_expt",""
"","bandit","284","558916","0.0-246.0-0.0","01505031","wem/bandit_party_1","A1CSDIX05PK9V","either","7","343","","","","","","","0","0","1","0.09143681274","","0.6","0.2","0.4","0.8","","","","","0.09143681274","0.3630183988","0.2901512169","0.4512889682","","","","","","","","","","72","H","0","img/none_selected.jpg","","205","main_expt",""
"","bandit","285","560539","0.0-247.0-0.0","01505031","wem/bandit_party_1","A1CSDIX05PK9V","either","7","110","","","","","","","1","0","0","0.4591490044","","0.6","0.2","0.4","0.8","","","","","0.08377413986","0.3737494834","0.2823763913","0.4591490044","","","","","","","","","","76","L","3","","","206","main_expt",""
"","bandit","286","562159","0.0-248.0-0.0","01505031","wem/bandit_party_1","A1CSDIX05PK9V","either","7","106","","","","","","","0","0","1","0.4650593633","","0.6","0.2","0.4","0.8","","","","","0.1585073664","0.3668784438","0.2708062506","0.4650593633","","","","","","","","","","76","L","3","","","207","main_expt",""
"","bandit","287","563935","0.0-249.0-0.0","01505031","wem/bandit_party_1","A1CSDIX05PK9V","either","7","262","","","","","","","1","0","0","0.4641513068","","0.6","0.2","0.4","0.8","","","","","0.162299901","0.4045351895","0.2641553663","0.4641513068","","","","","","","","","","76","L","3","","","208","main_expt",""
"","bandit","288","565537","0.0-250.0-0.0","01505031","wem/bandit_party_1","A1CSDIX05PK9V","either","7","89","","","","","","","0","0","1","0.4567807332","","0.6","0.2","0.4","0.8","","","","","0.1542266077","0.4402386934","0.2704675845","0.4567807332","","","","","","","","","","76","L","3","","","209","main_expt",""
"","bandit","289","567607","0.0-251.0-0.0","01505031","wem/bandit_party_1","A1CSDIX05PK9V","either","7","556","","","","","","","1","0","0","0.428253188","","0.6","0.2","0.4","0.8","","","","","0.1890415559","0.4483623408","0.3420868926","0.428253188","","","","","","","","","","76","L","3","","","210","main_expt",""
"","bandit","290","570127","0.0-252.0-0.0","01505031","wem/bandit_party_1","A1CSDIX05PK9V","either","7","1006","","","","","","","1","0","0","0.410271385","","0.6","0.2","0.4","0.8","","","","","0.1818133019","0.4471415093","0.3069688952","0.410271385","","","","","","","","","","76","L","3","","","211","main_expt",""
"","bandit","291","571975","0.0-253.0-0.0","01505031","wem/bandit_party_1","A1CSDIX05PK9V","either","7","335","","","","","","","0","0","1","0.4065587724","","0.6","0.2","0.4","0.8","","","","","0.1782747956","0.4374655127","0.3005379093","0.4065587724","","","","","","","","","","76","L","3","","","212","main_expt",""
"","bandit","292","573623","0.0-254.0-0.0","01505031","wem/bandit_party_1","A1CSDIX05PK9V","either","7","135","","","","","","","0","0","1","","0.4007116542","0.6","0.2","0.4","0.8","0.1935195711","0.4381457257","0.213882915","0.4007116542","","","","","","","","","","","","","","76","L","3","","","213","main_expt",""
"","bandit","293","575247","0.0-255.0-0.0","01505031","wem/bandit_party_1","A1CSDIX05PK9V","either","7","111","","","","","","","0","1","0","","0.4246209323","0.6","0.2","0.4","0.8","0.2421176173","0.4643769008","0.2138557204","0.4246209323","","","","","","","","","","","","","","76","L","3","","","214","main_expt",""
"","bandit","294","578136","0.0-256.0-0.0","01505031","wem/bandit_party_1","A1CSDIX05PK9V","either","7","1374","","","","","","","0","0","1","0.3993057066","","0.6","0.2","0.4","0.8","","","","","0.2629876012","0.4328812357","0.2142566612","0.3993057066","","","","","","","","","","76","L","3","","","215","main_expt",""
"","bandit","295","580304","0.0-257.0-0.0","01505031","wem/bandit_party_1","A1CSDIX05PK9V","either","7","653","","","","","","","0","0","1","","0.1900351118","0.6","0.2","0.4","0.8","0.2977714141","0.4064507999","0.1900351118","0.3987772474","","","","","","","","","","","","","","75","K","2","","","216","main_expt",""
"","bandit","296","581933","0.0-258.0-0.0","01505031","wem/bandit_party_1","A1CSDIX05PK9V","either","7","116","","","","","","","0","0","1","","0.4197961641","0.6","0.2","0.4","0.8","0.3017601552","0.4197961641","0.2185169477","0.4101433534","","","","","","","","","","","","","","74","J","1","","","217","main_expt",""
"","bandit","297","583621","0.0-259.0-0.0","01505031","wem/bandit_party_1","A1CSDIX05PK9V","either","7","180","","","","","","","0","0","1","0.2888566207","","0.6","0.2","0.4","0.8","","","","","0.2888566207","0.4167397569","0.2240895604","0.4448029092","","","","","","","","","","72","H","0","img/none_selected.jpg","","218","main_expt",""
"","bandit","298","585333","0.0-260.0-0.0","01505031","wem/bandit_party_1","A1CSDIX05PK9V","either","7","204","","","","","","","1","0","0","0.4454766299","","0.6","0.2","0.4","0.8","","","","","0.2844008008","0.4250944588","0.1990808675","0.4454766299","","","","","","","","","","76","L","3","","","219","main_expt",""
"","bandit","299","587968","0.0-261.0-0.0","01505031","wem/bandit_party_1","A1CSDIX05PK9V","either","7","1125","","","","","","","1","0","0","0.4610997771","","0.6","0.2","0.4","0.8","","","","","0.2225062479","0.4173336587","0.266602996","0.4610997771","","","","","","","","","","76","L","3","","","220","main_expt",""
"","bandit","300","590830","0.0-262.0-0.0","01505031","wem/bandit_party_1","A1CSDIX05PK9V","either","7","1353","","","","","","","0","0","1","0.4642289789","","0.6","0.2","0.4","0.8","","","","","0.2409900116","0.3944711005","0.2443661227","0.4642289789","","","","","","","","","","76","L","3","","","221","main_expt",""
"","bandit","301","592762","0.0-263.0-0.0","01505031","wem/bandit_party_1","A1CSDIX05PK9V","either","7","423","","","","","","","0","0","1","0.4641270597","","0.6","0.2","0.4","0.8","","","","","0.1989678636","0.3619306912","0.2205922116","0.4641270597","","","","","","","","","","76","L","3","","","222","main_expt",""
"","bandit","302","595537","0.0-264.0-0.0","01505031","wem/bandit_party_1","A1CSDIX05PK9V","either","7","1267","","","","","","","1","0","0","0.4697433819","","0.6","0.2","0.4","0.8","","","","","0.1902867071","0.4117842179","0.1861223506","0.4697433819","","","","","","","","","","76","L","3","","","223","main_expt",""
"","bandit","303","598163","0.0-265.0-0.0","01505031","wem/bandit_party_1","A1CSDIX05PK9V","either","7","1117","","","","","","","1","0","0","0.460898083","","0.6","0.2","0.4","0.8","","","","","0.2076415522","0.3965092367","0.1668884863","0.460898083","","","","","","","","","","76","L","3","","","224","main_expt",""
"","bandit","304","600177","0.0-266.0-0.0","01505031","wem/bandit_party_1","A1CSDIX05PK9V","either","7","506","","","","","","","0","0","1","0.4394890665","","0.6","0.2","0.4","0.8","","","","","0.2393469174","0.4084477862","0.1481472712","0.4394890665","","","","","","","","","","76","L","3","","","225","main_expt",""
"","bandit","305","602716","0.0-267.0-0.0","01505031","wem/bandit_party_1","A1CSDIX05PK9V","either","7","1029","","","","","","","0","0","1","0.1140846591","","0.6","0.2","0.4","0.8","","","","","0.2425440376","0.4104601526","0.1140846591","0.4520955237","","","","","","","","","","75","K","2","","","226","main_expt",""
"","bandit","306","604380","0.0-268.0-0.0","01505031","wem/bandit_party_1","A1CSDIX05PK9V","either","7","156","","","","","","","0","1","0","","0.3899733519","0.6","0.2","0.4","0.8","0.2365603363","0.3899733519","0.1074218354","0.4324220164","","","","","","","","","","","","","","74","J","1","","","227","main_expt",""
"","bandit","307","606605","0.0-269.0-0.0","01505031","wem/bandit_party_1","A1CSDIX05PK9V","either","7","715","","","","","","","0","0","1","0.3796730737","","0.6","0.2","0.4","0.8","","","","","0.2127958296","0.3796730737","0.08065165665","0.4220482421","","","","","","","","","","74","J","1","","","228","main_expt",""
"","bandit","308","608678","0.0-270.0-0.0","01505031","wem/bandit_party_1","A1CSDIX05PK9V","either","7","565","","","","","","","0","0","1","0.2207861463","","0.6","0.2","0.4","0.8","","","","","0.2207861463","0.4046866514","0.07774059362","0.3885749154","","","","","","","","","","72","H","0","img/none_selected.jpg","","229","main_expt",""
"","bandit","309","610244","0.0-271.0-0.0","01505031","wem/bandit_party_1","A1CSDIX05PK9V","either","7","58","","","","","","","0","0","1","","0.3988793555","0.6","0.2","0.4","0.8","0.2589226453","0.3988793555","0.1109483114","0.4023755806","","","","","","","","","","","","","","74","J","1","","","230","main_expt",""
"","bandit","310","611932","0.0-272.0-0.0","01505031","wem/bandit_party_1","A1CSDIX05PK9V","either","7","180","","","","","","","0","0","1","","0.05902300203","0.6","0.2","0.4","0.8","0.2956158432","0.3981898202","0.05902300203","0.3768725222","","","","","","","","","","","","","","75","K","2","","","231","main_expt",""
"","bandit","311","613484","0.0-273.0-0.0","01505031","wem/bandit_party_1","A1CSDIX05PK9V","either","7","43","","","","","","","0","0","1","0.3619917427","","0.6","0.2","0.4","0.8","","","","","0.3202484073","0.4411941832","0.06675855664","0.3619917427","","","","","","","","","","76","L","3","","","232","main_expt",""
"","bandit","312","615308","0.0-274.0-0.0","01505031","wem/bandit_party_1","A1CSDIX05PK9V","either","7","316","","","","","","","1","0","0","0.3833578816","","0.6","0.2","0.4","0.8","","","","","0.2933644042","0.42967461","0.06703699679","0.3833578816","","","","","","","","","","76","L","3","","","233","main_expt",""
"","bandit","313","617077","0.0-275.0-0.0","01505031","wem/bandit_party_1","A1CSDIX05PK9V","either","7","259","","","","","","","1","0","0","0.3552131768","","0.6","0.2","0.4","0.8","","","","","0.3106154811","0.4242798354","0.05331023031","0.3552131768","","","","","","","","","","76","L","3","","","234","main_expt",""
"","bandit","314","618840","0.0-276.0-0.0","01505031","wem/bandit_party_1","A1CSDIX05PK9V","either","7","249","","","","","","","1","0","0","0.3135084543","","0.6","0.2","0.4","0.8","","","","","0.3158990995","0.4617388459","0.05187545802","0.3135084543","","","","","","","","","","76","L","3","","","235","main_expt",""
"","bandit","315","620589","0.0-277.0-0.0","01505031","wem/bandit_party_1","A1CSDIX05PK9V","either","7","236","","","","","","","0","0","1","0.244945467","","0.6","0.2","0.4","0.8","","","","","0.3036927748","0.4619510484","0.06939909985","0.244945467","","","","","","","","","","76","L","3","","","236","main_expt",""
"","bandit","316","622409","0.0-278.0-0.0","01505031","wem/bandit_party_1","A1CSDIX05PK9V","either","7","306","","","","","","","0","0","1","","0.1823839079","0.6","0.2","0.4","0.8","0.3491021326","0.4482398789","0.1210409879","0.1823839079","","","","","","","","","","","","","","76","L","3","","","237","main_expt",""
"","bandit","317","624194","0.0-279.0-0.0","01505031","wem/bandit_party_1","A1CSDIX05PK9V","either","7","269","","","","","","","0","0","1","0.1685050226","","0.6","0.2","0.4","0.8","","","","","0.3939254097","0.4193969143","0.1147840357","0.1685050226","","","","","","","","","","76","L","3","","","238","main_expt",""
