"consent","trial_type","trial_index","time_elapsed","internal_node_id","subjID","study","MID","cond","drift","rt","responses","button_pressed","key_press","like","value","connected","gems","bombs","no_reward","GemPrChosen","BombPrChosen","GainOverPainPr_0","GainOverPainPr_1","GainOverPainPr_2","GainOverPainPr_3","LosePr_0","LosePr_1","LosePr_2","LosePr_3","WinPr_0","WinPr_1","WinPr_2","WinPr_3","Q0","Q1","Q2","gender","age","ethnicity","label","expt_phase","target","respCharCode","respKey","respChoiceNum","respChoice","practice","trial_counter","trial_label","Q0_index"
"GDM/GDM_behavioral_consent_30min_online.html","consent","0","6054","0.0-0.0","02706489","wem/bandit_party_1","A20JA3YSZ8G6QY","either","8","","","","","","","","","","","","","","","","","","","","","","","","","","","","","","","","","","","","","","","","",""
"","survey-text","1","11140","0.0-1.0","02706489","wem/bandit_party_1","A20JA3YSZ8G6QY","either","8","4057","{""Q0"":""A20JA3YSZ8G6QY""}","","","","","","","","","","","","","","","","","","","","","","","","","","","","","","","","","","","","","","",""
"","button-response","2","15701","0.0-2.0","02706489","wem/bandit_party_1","A20JA3YSZ8G6QY","either","8","3552","","0","","","","","","","","","","","","","","","","","","","","","","","","","","","","","","","","","","","","","",""
"","text-replacement","3","26145","0.0-3.0","02706489","wem/bandit_party_1","A20JA3YSZ8G6QY","either","8","9436","","","32","","","","","","","","","","","","","","","","","","","","","","","","","","","","","","","","","","","","",""
"","text-replacement","4","34889","0.0-4.0","02706489","wem/bandit_party_1","A20JA3YSZ8G6QY","either","8","8737","","","32","","","","","","","","","","","","","","","","","","","","","","","","","","","","","","","","","","","","",""
"","identification","5","41994","0.0-6.0-0.0","02706489","wem/bandit_party_1","A20JA3YSZ8G6QY","either","8","7070","","","","3","3","2","","","","","","","","","","","","","","","","","","","","","","","","pre","identification_pre","the Republican party","","","","","","","",""
"","identification","6","46803","0.0-6.0-1.0","02706489","wem/bandit_party_1","A20JA3YSZ8G6QY","either","8","3773","","","","0","0","0","","","","","","","","","","","","","","","","","","","","","","","","pre","identification_pre","the Democratic Party","","","","","","","",""
"","text-replacement","7","52667","0.0-7.0","02706489","wem/bandit_party_1","A20JA3YSZ8G6QY","either","8","4860","","","32","","","","","","","","","","","","","","","","","","","","","","","","","","","","","","","","","","","","",""
"","text-replacement","8","59898","0.0-8.0","02706489","wem/bandit_party_1","A20JA3YSZ8G6QY","either","8","7222","","","32","","","","","","","","","","","","","","","","","","","","","","","","","","","","","","","","","","","","",""
"","text-replacement","9","67338","0.0-9.0","02706489","wem/bandit_party_1","A20JA3YSZ8G6QY","either","8","7434","","","32","","","","","","","","","","","","","","","","","","","","","","","","","","","","","","","","","","","","",""
"","text-replacement","10","71447","0.0-10.0","02706489","wem/bandit_party_1","A20JA3YSZ8G6QY","either","8","4105","","","32","","","","","","","","","","","","","","","","","","","","","","","","","","","","","","","","","","","","",""
"","text-replacement","11","74023","0.0-11.0","02706489","wem/bandit_party_1","A20JA3YSZ8G6QY","either","8","2570","","","32","","","","","","","","","","","","","","","","","","","","","","","","","","","","","","","","","","","","",""
"","bandit","12","78029","0.0-12.0-0.0","02706489","wem/bandit_party_1","A20JA3YSZ8G6QY","either","8","2483","","","","","","","0","0","1","0","0","","","","","0","","","","0","","","","","","","","","","","","","74","J","0","img/none_selected_demo.jpg","true","0","",""
"","bandit","13","80269","0.0-13.0-0.0","02706489","wem/bandit_party_1","A20JA3YSZ8G6QY","either","8","721","","","","","","","0","0","1","0","0","","","","","0","","","","0","","","","","","","","","","","","","75","K","0","img/none_selected_demo.jpg","true","0","",""
"","text-replacement","14","83069","0.0-14.0","02706489","wem/bandit_party_1","A20JA3YSZ8G6QY","either","8","2794","","","32","","","","","","","","","","","","","","","","","","","","","","","","","","","","","","","","","","","","",""
"","text-replacement","15","84173","0.0-15.0","02706489","wem/bandit_party_1","A20JA3YSZ8G6QY","either","8","1101","","","32","","","","","","","","","","","","","","","","","","","","","","","","","","","","","","","","","","","","",""
"","text-replacement","16","87311","0.0-16.0","02706489","wem/bandit_party_1","A20JA3YSZ8G6QY","either","8","3134","","","32","","","","","","","","","","","","","","","","","","","","","","","","","","","","","","","","","","","","",""
"","text-replacement","17","88494","0.0-17.0","02706489","wem/bandit_party_1","A20JA3YSZ8G6QY","either","8","1177","","","32","","","","","","","","","","","","","","","","","","","","","","","","","","","","","","","","","","","","",""
"","bandit","18","90606","0.0-18.0-0.0","02706489","wem/bandit_party_1","A20JA3YSZ8G6QY","either","8","596","","","","","","","1","0","0","0.8","","0.5","0.5","","","","","","","0.8","0.2","","","","","","","","","","","","74","J","0","img/none_selected_demo.jpg","true","0","80_20_practice",""
"","bandit","19","92376","0.0-18.0-1.0","02706489","wem/bandit_party_1","A20JA3YSZ8G6QY","either","8","253","","","","","","","0","1","0","","0.8","0.5","0.5","","","0.8","0.2","","","","","","","","","","","","","","","","74","J","0","img/none_selected_demo.jpg","true","0","80_20_practice",""
"","bandit","20","94125","0.0-18.0-2.0","02706489","wem/bandit_party_1","A20JA3YSZ8G6QY","either","8","234","","","","","","","0","1","0","","0.8","0.5","0.5","","","0.8","0.2","","","","","","","","","","","","","","","","74","J","0","img/none_selected_demo.jpg","true","0","80_20_practice",""
"","bandit","21","95802","0.0-18.0-3.0","02706489","wem/bandit_party_1","A20JA3YSZ8G6QY","either","8","158","","","","","","","1","0","0","0.8","","0.5","0.5","","","","","","","0.8","0.2","","","","","","","","","","","","74","J","0","img/none_selected_demo.jpg","true","0","80_20_practice",""
"","bandit","22","97676","0.0-18.0-4.0","02706489","wem/bandit_party_1","A20JA3YSZ8G6QY","either","8","356","","","","","","","0","1","0","","0.8","0.5","0.5","","","0.8","0.2","","","","","","","","","","","","","","","","74","J","0","img/none_selected_demo.jpg","true","0","80_20_practice",""
"","bandit","23","99260","0.0-18.0-5.0","02706489","wem/bandit_party_1","A20JA3YSZ8G6QY","either","8","65","","","","","","","0","1","0","","0.8","0.5","0.5","","","0.8","0.2","","","","","","","","","","","","","","","","74","J","0","img/none_selected_demo.jpg","true","0","80_20_practice",""
"","bandit","24","100991","0.0-18.0-6.0","02706489","wem/bandit_party_1","A20JA3YSZ8G6QY","either","8","212","","","","","","","0","1","0","","0.8","0.5","0.5","","","0.8","0.2","","","","","","","","","","","","","","","","74","J","0","img/none_selected_demo.jpg","true","0","80_20_practice",""
"","bandit","25","102718","0.0-18.0-7.0","02706489","wem/bandit_party_1","A20JA3YSZ8G6QY","either","8","205","","","","","","","0","1","0","","0.8","0.5","0.5","","","0.8","0.2","","","","","","","","","","","","","","","","74","J","0","img/none_selected_demo.jpg","true","0","80_20_practice",""
"","bandit","26","104384","0.0-18.0-8.0","02706489","wem/bandit_party_1","A20JA3YSZ8G6QY","either","8","150","","","","","","","0","1","0","","0.8","0.5","0.5","","","0.8","0.2","","","","","","","","","","","","","","","","74","J","0","img/none_selected_demo.jpg","true","0","80_20_practice",""
"","bandit","27","106047","0.0-18.0-9.0","02706489","wem/bandit_party_1","A20JA3YSZ8G6QY","either","8","148","","","","","","","1","0","0","0.8","","0.5","0.5","","","","","","","0.8","0.2","","","","","","","","","","","","74","J","0","img/none_selected_demo.jpg","true","0","80_20_practice",""
"","bandit","28","107651","0.0-18.0-10.0","02706489","wem/bandit_party_1","A20JA3YSZ8G6QY","either","8","84","","","","","","","0","1","0","","0.8","0.5","0.5","","","0.8","0.2","","","","","","","","","","","","","","","","74","J","0","img/none_selected_demo.jpg","true","0","80_20_practice",""
"","bandit","29","109244","0.0-18.0-11.0","02706489","wem/bandit_party_1","A20JA3YSZ8G6QY","either","8","78","","","","","","","1","0","0","0.8","","0.5","0.5","","","","","","","0.8","0.2","","","","","","","","","","","","74","J","0","img/none_selected_demo.jpg","true","0","80_20_practice",""
"","bandit","30","111076","0.0-18.0-12.0","02706489","wem/bandit_party_1","A20JA3YSZ8G6QY","either","8","321","","","","","","","0","0","1","","0.8","0.5","0.5","","","0.8","0.2","","","","","","","","","","","","","","","","74","J","0","img/none_selected_demo.jpg","true","0","80_20_practice",""
"","bandit","31","112755","0.0-18.0-13.0","02706489","wem/bandit_party_1","A20JA3YSZ8G6QY","either","8","158","","","","","","","0","1","0","","0.8","0.5","0.5","","","0.8","0.2","","","","","","","","","","","","","","","","74","J","0","img/none_selected_demo.jpg","true","0","80_20_practice",""
"","bandit","32","114295","0.0-18.0-14.0","02706489","wem/bandit_party_1","A20JA3YSZ8G6QY","either","8","24","","","","","","","0","1","0","","0.8","0.5","0.5","","","0.8","0.2","","","","","","","","","","","","","","","","74","J","0","img/none_selected_demo.jpg","true","0","80_20_practice",""
"","bandit","33","116043","0.0-18.0-15.0","02706489","wem/bandit_party_1","A20JA3YSZ8G6QY","either","8","234","","","","","","","0","1","0","","0.8","0.5","0.5","","","0.8","0.2","","","","","","","","","","","","","","","","74","J","0","img/none_selected_demo.jpg","true","0","80_20_practice",""
"","bandit","34","117692","0.0-18.0-16.0","02706489","wem/bandit_party_1","A20JA3YSZ8G6QY","either","8","129","","","","","","","0","1","0","","0.8","0.5","0.5","","","0.8","0.2","","","","","","","","","","","","","","","","74","J","0","img/none_selected_demo.jpg","true","0","80_20_practice",""
"","bandit","35","119390","0.0-18.0-17.0","02706489","wem/bandit_party_1","A20JA3YSZ8G6QY","either","8","180","","","","","","","0","1","0","","0.8","0.5","0.5","","","0.8","0.2","","","","","","","","","","","","","","","","74","J","0","img/none_selected_demo.jpg","true","0","80_20_practice",""
"","bandit","36","121064","0.0-18.0-18.0","02706489","wem/bandit_party_1","A20JA3YSZ8G6QY","either","8","157","","","","","","","1","0","0","0.8","","0.5","0.5","","","","","","","0.8","0.2","","","","","","","","","","","","74","J","0","img/none_selected_demo.jpg","true","0","80_20_practice",""
"","bandit","37","122772","0.0-18.0-19.0","02706489","wem/bandit_party_1","A20JA3YSZ8G6QY","either","8","187","","","","","","","0","0","1","0.8","","0.5","0.5","","","","","","","0.8","0.2","","","","","","","","","","","","74","J","0","img/none_selected_demo.jpg","true","0","80_20_practice",""
"","text-replacement","38","124973","0.0-19.0","02706489","wem/bandit_party_1","A20JA3YSZ8G6QY","either","8","2194","","","32","","","","","","","","","","","","","","","","","","","","","","","","","","","","","","","","","","","","",""
"","bandit","39","128108","0.0-20.0-0.0","02706489","wem/bandit_party_1","A20JA3YSZ8G6QY","either","8","1614","","","","","","","1","0","0","1","0","","","","","0","1","","","1","0","","","","","","","","","","","","74","J","0","img/none_selected_demo.jpg","true","0","",""
"","text-replacement","40","129267","0.0-21.0","02706489","wem/bandit_party_1","A20JA3YSZ8G6QY","either","8","1152","","","32","","","","","","","","","","","","","","","","","","","","","","","","","","","","","","","","","","","","",""
"","text-replacement","41","132512","0.0-22.0","02706489","wem/bandit_party_1","A20JA3YSZ8G6QY","either","8","3241","","","32","","","","","","","","","","","","","","","","","","","","","","","","","","","","","","","","","","","","",""
"","text-replacement","42","134405","0.0-23.0","02706489","wem/bandit_party_1","A20JA3YSZ8G6QY","either","8","1886","","","32","","","","","","","","","","","","","","","","","","","","","","","","","","","","","","","","","","","","",""
"","text-replacement","43","135093","0.0-24.0","02706489","wem/bandit_party_1","A20JA3YSZ8G6QY","either","8","681","","","32","","","","","","","","","","","","","","","","","","","","","","","","","","","","","","","","","","","","",""
"","text-replacement","44","135693","0.0-25.0","02706489","wem/bandit_party_1","A20JA3YSZ8G6QY","either","8","594","","","32","","","","","","","","","","","","","","","","","","","","","","","","","","","","","","","","","","","","",""
"","text-replacement","45","136349","0.0-26.0","02706489","wem/bandit_party_1","A20JA3YSZ8G6QY","either","8","649","","","32","","","","","","","","","","","","","","","","","","","","","","","","","","","","","","","","","","","","",""
"","text-replacement","46","136757","0.0-27.0","02706489","wem/bandit_party_1","A20JA3YSZ8G6QY","either","8","401","","","32","","","","","","","","","","","","","","","","","","","","","","","","","","","","","","","","","","","","",""
"","text-replacement","47","137107","0.0-28.0","02706489","wem/bandit_party_1","A20JA3YSZ8G6QY","either","8","344","","","32","","","","","","","","","","","","","","","","","","","","","","","","","","","","","","","","","","","","",""
"","text-replacement","48","137461","0.0-29.0","02706489","wem/bandit_party_1","A20JA3YSZ8G6QY","either","8","346","","","32","","","","","","","","","","","","","","","","","","","","","","","","","","","","","","","","","","","","",""
"","text-replacement","49","138286","0.0-30.0","02706489","wem/bandit_party_1","A20JA3YSZ8G6QY","either","8","818","","","32","","","","","","","","","","","","","","","","","","","","","","","","","","","","","","","","","","","","",""
"","text-replacement","50","140669","0.0-31.0","02706489","wem/bandit_party_1","A20JA3YSZ8G6QY","either","8","2376","","","32","","","","","","","","","","","","","","","","","","","","","","","","","","","","","","","","","","","","",""
"","bandit","51","142784","0.0-32.0-0.0","02706489","wem/bandit_party_1","A20JA3YSZ8G6QY","either","8","592","","","","","","","0","1","0","","0.8","0.5","0.5","0.5","0.5","0.8","0.2","0.6","0.2","","","","","","","","","","","","","","72","H","0","img/none_selected.jpg","true","0","full_practice",""
"","bandit","52","145582","0.0-32.0-1.0","02706489","wem/bandit_party_1","A20JA3YSZ8G6QY","either","8","1274","","","","","","","0","1","0","","0.8","0.5","0.5","0.5","0.5","0.8","0.2","0.6","0.2","","","","","","","","","","","","","","72","H","0","img/none_selected.jpg","true","0","full_practice",""
"","bandit","53","147121","0.0-32.0-2.0","02706489","wem/bandit_party_1","A20JA3YSZ8G6QY","either","8","18","","","","","","","0","1","0","","0.8","0.5","0.5","0.5","0.5","0.8","0.2","0.6","0.2","","","","","","","","","","","","","","72","H","0","img/none_selected.jpg","true","0","full_practice",""
"","bandit","54","148804","0.0-32.0-3.0","02706489","wem/bandit_party_1","A20JA3YSZ8G6QY","either","8","157","","","","","","","0","1","0","","0.8","0.5","0.5","0.5","0.5","0.8","0.2","0.6","0.2","","","","","","","","","","","","","","72","H","0","img/none_selected.jpg","true","0","full_practice",""
"","bandit","55","150358","0.0-32.0-4.0","02706489","wem/bandit_party_1","A20JA3YSZ8G6QY","either","8","38","","","","","","","1","0","0","0.8","","0.5","0.5","0.5","0.5","","","","","0.8","0.2","0.6","0.2","","","","","","","","","","72","H","0","img/none_selected.jpg","true","0","full_practice",""
"","bandit","56","152033","0.0-32.0-5.0","02706489","wem/bandit_party_1","A20JA3YSZ8G6QY","either","8","156","","","","","","","0","1","0","","0.8","0.5","0.5","0.5","0.5","0.8","0.2","0.6","0.2","","","","","","","","","","","","","","72","H","0","img/none_selected.jpg","true","0","full_practice",""
"","bandit","57","153671","0.0-32.0-6.0","02706489","wem/bandit_party_1","A20JA3YSZ8G6QY","either","8","119","","","","","","","0","1","0","","0.8","0.5","0.5","0.5","0.5","0.8","0.2","0.6","0.2","","","","","","","","","","","","","","72","H","0","img/none_selected.jpg","true","0","full_practice",""
"","bandit","58","155296","0.0-32.0-7.0","02706489","wem/bandit_party_1","A20JA3YSZ8G6QY","either","8","94","","","","","","","1","0","0","0.8","","0.5","0.5","0.5","0.5","","","","","0.8","0.2","0.6","0.2","","","","","","","","","","72","H","0","img/none_selected.jpg","true","0","full_practice",""
"","bandit","59","156924","0.0-32.0-8.0","02706489","wem/bandit_party_1","A20JA3YSZ8G6QY","either","8","104","","","","","","","0","0","1","","0.8","0.5","0.5","0.5","0.5","0.8","0.2","0.6","0.2","","","","","","","","","","","","","","72","H","0","img/none_selected.jpg","true","0","full_practice",""
"","bandit","60","158468","0.0-32.0-9.0","02706489","wem/bandit_party_1","A20JA3YSZ8G6QY","either","8","26","","","","","","","0","0","1","","0.8","0.5","0.5","0.5","0.5","0.8","0.2","0.6","0.2","","","","","","","","","","","","","","72","H","0","img/none_selected.jpg","true","0","full_practice",""
"","bandit","61","160234","0.0-32.0-10.0","02706489","wem/bandit_party_1","A20JA3YSZ8G6QY","either","8","243","","","","","","","0","1","0","","0.8","0.5","0.5","0.5","0.5","0.8","0.2","0.6","0.2","","","","","","","","","","","","","","72","H","0","img/none_selected.jpg","true","0","full_practice",""
"","bandit","62","162158","0.0-32.0-11.0","02706489","wem/bandit_party_1","A20JA3YSZ8G6QY","either","8","403","","","","","","","1","0","0","0.2","","0.5","0.5","0.5","0.5","","","","","0.8","0.2","0.6","0.2","","","","","","","","","","74","J","1","","true","0","full_practice",""
"","bandit","63","163717","0.0-32.0-12.0","02706489","wem/bandit_party_1","A20JA3YSZ8G6QY","either","8","40","","","","","","","0","1","0","","0.6","0.5","0.5","0.5","0.5","0.8","0.2","0.6","0.2","","","","","","","","","","","","","","75","K","2","","true","0","full_practice",""
"","bandit","64","165506","0.0-32.0-13.0","02706489","wem/bandit_party_1","A20JA3YSZ8G6QY","either","8","266","","","","","","","0","0","1","0.2","","0.5","0.5","0.5","0.5","","","","","0.8","0.2","0.6","0.2","","","","","","","","","","76","L","3","","true","0","full_practice",""
"","bandit","65","167068","0.0-32.0-14.0","02706489","wem/bandit_party_1","A20JA3YSZ8G6QY","either","8","44","","","","","","","0","1","0","","0.8","0.5","0.5","0.5","0.5","0.8","0.2","0.6","0.2","","","","","","","","","","","","","","72","H","0","img/none_selected.jpg","true","0","full_practice",""
"","bandit","66","168674","0.0-32.0-15.0","02706489","wem/bandit_party_1","A20JA3YSZ8G6QY","either","8","85","","","","","","","0","0","1","0.8","","0.5","0.5","0.5","0.5","","","","","0.8","0.2","0.6","0.2","","","","","","","","","","72","H","0","img/none_selected.jpg","true","0","full_practice",""
"","bandit","67","170365","0.0-32.0-16.0","02706489","wem/bandit_party_1","A20JA3YSZ8G6QY","either","8","173","","","","","","","0","0","1","","0.2","0.5","0.5","0.5","0.5","0.8","0.2","0.6","0.2","","","","","","","","","","","","","","74","J","1","","true","0","full_practice",""
"","bandit","68","171919","0.0-32.0-17.0","02706489","wem/bandit_party_1","A20JA3YSZ8G6QY","either","8","32","","","","","","","0","0","1","","0.6","0.5","0.5","0.5","0.5","0.8","0.2","0.6","0.2","","","","","","","","","","","","","","75","K","2","","true","0","full_practice",""
"","bandit","69","173546","0.0-32.0-18.0","02706489","wem/bandit_party_1","A20JA3YSZ8G6QY","either","8","103","","","","","","","0","0","1","0.2","","0.5","0.5","0.5","0.5","","","","","0.8","0.2","0.6","0.2","","","","","","","","","","76","L","3","","true","0","full_practice",""
"","bandit","70","175194","0.0-32.0-19.0","02706489","wem/bandit_party_1","A20JA3YSZ8G6QY","either","8","129","","","","","","","0","1","0","","0.8","0.5","0.5","0.5","0.5","0.8","0.2","0.6","0.2","","","","","","","","","","","","","","72","H","0","img/none_selected.jpg","true","0","full_practice",""
"","text","71","178298","0.0-33.0","02706489","wem/bandit_party_1","A20JA3YSZ8G6QY","either","8","3088","","","32","","","","","","","","","","","","","","","","","","","","","","","","","","","","","","","","","","","","",""
"","text-replacement","72","179932","0.0-34.0","02706489","wem/bandit_party_1","A20JA3YSZ8G6QY","either","8","627","","","32","","","","","","","","","","","","","","","","","","","","","","","","","","","","","","","","","","","","",""
"","text-replacement","73","180249","0.0-35.0","02706489","wem/bandit_party_1","A20JA3YSZ8G6QY","either","8","308","","","32","","","","","","","","","","","","","","","","","","","","","","","","","","","","","","","","","","","","",""
"","text-replacement","74","180579","0.0-36.0","02706489","wem/bandit_party_1","A20JA3YSZ8G6QY","either","8","325","","","32","","","","","","","","","","","","","","","","","","","","","","","","","","","","","","","","","","","","",""
"","text-replacement","75","180892","0.0-37.0","02706489","wem/bandit_party_1","A20JA3YSZ8G6QY","either","8","305","","","32","","","","","","","","","","","","","","","","","","","","","","","","","","","","","","","","","","","","",""
"","text-replacement","76","181556","0.0-38.0","02706489","wem/bandit_party_1","A20JA3YSZ8G6QY","either","8","656","","","32","","","","","","","","","","","","","","","","","","","","","","","","","","","","","","","","","","","","",""
"","survey-multi-choice-replacement","77","185735","0.0-39.0-0.0","02706489","wem/bandit_party_1","A20JA3YSZ8G6QY","either","8","4156","","","","","","","","","","","","","","","","","","","","","","","","Money will be added to the pool for <span style='color:red;'>REPUBLICANS</span>","","","","","","","attn_check","","","","","","","","","0"
"","survey-multi-choice-replacement","78","190636","0.0-40.0-0.0","02706489","wem/bandit_party_1","A20JA3YSZ8G6QY","either","8","3877","","","","","","","","","","","","","","","","","","","","","","","","Equal amounts of money will be added to the pool for <span style='color:red;'>REPUBLICANS</span> and subtracted from the pool for <span style='color:blue;'>DEMOCRATS</span>","","","","","","","attn_check","","","","","","","","","2"
"","survey-multi-choice-replacement","79","193952","0.0-41.0-0.0","02706489","wem/bandit_party_1","A20JA3YSZ8G6QY","either","8","2292","","","","","","","","","","","","","","","","","","","","","","","","No money will be added to either pool","","","","","","","attn_check","","","","","","","","","3"
"","bandit","80","248145","0.0-42.0-0.0","02706489","wem/bandit_party_1","A20JA3YSZ8G6QY","either","8","51651","","","","","","","0","0","1","","0.2637293772","0.6","0.4","0.2","0.8","0.2637293772","0.1351790469","0.3540548627","0.2928194041","","","","","","","","","","","","","","72","H","0","img/none_selected.jpg","","1","main_expt",""
"","bandit","81","249905","0.0-43.0-0.0","02706489","wem/bandit_party_1","A20JA3YSZ8G6QY","either","8","247","","","","","","","0","0","1","","0.125602744","0.6","0.4","0.2","0.8","0.2760013096","0.125602744","0.3812516843","0.3040419902","","","","","","","","","","","","","","74","J","1","","","2","main_expt",""
"","bandit","82","251466","0.0-44.0-0.0","02706489","wem/bandit_party_1","A20JA3YSZ8G6QY","either","8","40","","","","","","","0","0","1","","0.09574082279","0.6","0.4","0.2","0.8","0.3240499928","0.09574082279","0.3901316494","0.2875251023","","","","","","","","","","","","","","74","J","1","","","3","main_expt",""
"","bandit","83","253299","0.0-45.0-0.0","02706489","wem/bandit_party_1","A20JA3YSZ8G6QY","either","8","312","","","","","","","0","0","1","0.3945399471","","0.6","0.4","0.2","0.8","","","","","0.3510822359","0.0913382225","0.3945399471","0.2965567903","","","","","","","","","","75","K","2","","","4","main_expt",""
"","bandit","84","254974","0.0-46.0-0.0","02706489","wem/bandit_party_1","A20JA3YSZ8G6QY","either","8","157","","","","","","","0","0","1","","0.3997977613","0.6","0.4","0.2","0.8","0.3522827721","0.106177601","0.3997977613","0.2681113314","","","","","","","","","","","","","","75","K","2","","","5","main_expt",""
"","bandit","85","257571","0.0-47.0-0.0","02706489","wem/bandit_party_1","A20JA3YSZ8G6QY","either","8","1077","","","","","","","0","0","1","","0.390783501","0.6","0.4","0.2","0.8","0.382674005","0.08998955495","0.390783501","0.2330443498","","","","","","","","","","","","","","75","K","2","","","6","main_expt",""
"","bandit","86","259849","0.0-48.0-0.0","02706489","wem/bandit_party_1","A20JA3YSZ8G6QY","either","8","750","","","","","","","0","0","1","0.1630509172","","0.6","0.4","0.2","0.8","","","","","0.3998463606","0.1077526668","0.3305693427","0.1630509172","","","","","","","","","","76","L","3","","","7","main_expt",""
"","bandit","87","261690","0.0-49.0-0.0","02706489","wem/bandit_party_1","A20JA3YSZ8G6QY","either","8","321","","","","","","","0","0","1","0.2002468685","","0.6","0.4","0.2","0.8","","","","","0.3832029687","0.1243697388","0.3056545716","0.2002468685","","","","","","","","","","76","L","3","","","8","main_expt",""
"","bandit","88","263444","0.0-50.0-0.0","02706489","wem/bandit_party_1","A20JA3YSZ8G6QY","either","8","234","","","","","","","0","1","0","","0.1835034381","0.6","0.4","0.2","0.8","0.3796681134","0.1698108096","0.3278889804","0.1835034381","","","","","","","","","","","","","","76","L","3","","","9","main_expt",""
"","bandit","89","265262","0.0-51.0-0.0","02706489","wem/bandit_party_1","A20JA3YSZ8G6QY","either","8","274","","","","","","","1","0","0","0.1939723001","","0.6","0.4","0.2","0.8","","","","","0.3614311416","0.221757114","0.3137855556","0.1939723001","","","","","","","","","","76","L","3","","","10","main_expt",""
"","bandit","90","266960","0.0-52.0-0.0","02706489","wem/bandit_party_1","A20JA3YSZ8G6QY","either","8","172","","","","","","","0","0","1","0.1949806013","","0.6","0.4","0.2","0.8","","","","","0.3938737051","0.1961062924","0.3253079181","0.1949806013","","","","","","","","","","76","L","3","","","11","main_expt",""
"","bandit","91","269033","0.0-53.0-0.0","02706489","wem/bandit_party_1","A20JA3YSZ8G6QY","either","8","559","","","","","","","0","0","1","","0.3810544723","0.6","0.4","0.2","0.8","0.3810544723","0.1907056259","0.3298150516","0.2587943474","","","","","","","","","","","","","","72","H","0","img/none_selected.jpg","","12","main_expt",""
"","bandit","92","270655","0.0-54.0-0.0","02706489","wem/bandit_party_1","A20JA3YSZ8G6QY","either","8","98","","","","","","","1","0","0","0.3707046684","","0.6","0.4","0.2","0.8","","","","","0.3707046684","0.2162865666","0.3673307406","0.3085985727","","","","","","","","","","72","H","0","img/none_selected.jpg","","13","main_expt",""
"","bandit","93","272226","0.0-55.0-0.0","02706489","wem/bandit_party_1","A20JA3YSZ8G6QY","either","8","49","","","","","","","0","0","1","0.3486531997","","0.6","0.4","0.2","0.8","","","","","0.3486531997","0.2399362825","0.3679224674","0.2464992766","","","","","","","","","","72","H","0","img/none_selected.jpg","","14","main_expt",""
"","bandit","94","274050","0.0-56.0-0.0","02706489","wem/bandit_party_1","A20JA3YSZ8G6QY","either","8","313","","","","","","","0","0","1","","0.3263578384","0.6","0.4","0.2","0.8","0.3263578384","0.1986859052","0.3062507314","0.2474611475","","","","","","","","","","","","","","72","H","0","img/none_selected.jpg","","15","main_expt",""
"","bandit","95","275674","0.0-57.0-0.0","02706489","wem/bandit_party_1","A20JA3YSZ8G6QY","either","8","102","","","","","","","0","0","1","0.1865641621","","0.6","0.4","0.2","0.8","","","","","0.3514189979","0.1865641621","0.2892976033","0.2835538477","","","","","","","","","","74","J","1","","","16","main_expt",""
"","bandit","96","277336","0.0-58.0-0.0","02706489","wem/bandit_party_1","A20JA3YSZ8G6QY","either","8","141","","","","","","","0","0","1","0.2035525071","","0.6","0.4","0.2","0.8","","","","","0.3532592314","0.2035525071","0.2861796528","0.3256112075","","","","","","","","","","74","J","1","","","17","main_expt",""
"","bandit","97","278892","0.0-59.0-0.0","02706489","wem/bandit_party_1","A20JA3YSZ8G6QY","either","8","34","","","","","","","0","0","1","","0.2039336531","0.6","0.4","0.2","0.8","0.3858608091","0.2039336531","0.2958570682","0.3802227677","","","","","","","","","","","","","","74","J","1","","","18","main_expt",""
"","bandit","98","280668","0.0-60.0-0.0","02706489","wem/bandit_party_1","A20JA3YSZ8G6QY","either","8","252","","","","","","","0","1","0","","0.360566968","0.6","0.4","0.2","0.8","0.3837638756","0.1598579642","0.3353028819","0.360566968","","","","","","","","","","","","","","76","L","3","","","19","main_expt",""
"","bandit","99","282637","0.0-61.0-0.0","02706489","wem/bandit_party_1","A20JA3YSZ8G6QY","either","8","444","","","","","","","0","0","1","0.3696799013","","0.6","0.4","0.2","0.8","","","","","0.2872100501","0.1437622327","0.3139704528","0.3696799013","","","","","","","","","","76","L","3","","","20","main_expt",""
"","bandit","100","286203","0.0-62.0-0.0","02706489","wem/bandit_party_1","A20JA3YSZ8G6QY","either","8","2044","","","","","","","0","0","1","0.4006907501","","0.6","0.4","0.2","0.8","","","","","0.2975414498","0.07974703335","0.2524707143","0.4006907501","","","","","","","","","","76","L","3","","","21","main_expt",""
"","bandit","101","289084","0.0-63.0-0.0","02706489","wem/bandit_party_1","A20JA3YSZ8G6QY","either","8","1354","","","","","","","0","0","1","0.4081217326","","0.6","0.4","0.2","0.8","","","","","0.2741965999","0.1361132429","0.248326021","0.4081217326","","","","","","","","","","76","L","3","","","22","main_expt",""
"","bandit","102","292188","0.0-64.0-0.0","02706489","wem/bandit_party_1","A20JA3YSZ8G6QY","either","8","1584","","","","","","","0","0","1","0.3740207531","","0.6","0.4","0.2","0.8","","","","","0.2379064449","0.1705973249","0.2937153481","0.3740207531","","","","","","","","","","76","L","3","","","23","main_expt",""
"","bandit","103","293827","0.0-65.0-0.0","02706489","wem/bandit_party_1","A20JA3YSZ8G6QY","either","8","114","","","","","","","0","1","0","","0.2625315469","0.6","0.4","0.2","0.8","0.2078598572","0.1392759225","0.2625315469","0.3913756451","","","","","","","","","","","","","","75","K","2","","","24","main_expt",""
"","bandit","104","296178","0.0-66.0-0.0","02706489","wem/bandit_party_1","A20JA3YSZ8G6QY","either","8","829","","","","","","","0","1","0","","0.2405651368","0.6","0.4","0.2","0.8","0.2764850733","0.1800538527","0.2405651368","0.4100905738","","","","","","","","","","","","","","75","K","2","","","25","main_expt",""
"","bandit","105","298797","0.0-67.0-0.0","02706489","wem/bandit_party_1","A20JA3YSZ8G6QY","either","8","1108","","","","","","","0","0","1","","0.2503350336","0.6","0.4","0.2","0.8","0.3080191348","0.2146400533","0.2503350336","0.3600668969","","","","","","","","","","","","","","75","K","2","","","26","main_expt",""
"","bandit","106","301799","0.0-68.0-0.0","02706489","wem/bandit_party_1","A20JA3YSZ8G6QY","either","8","1489","","","","","","","0","1","0","","0.3703096079","0.6","0.4","0.2","0.8","0.3606197488","0.1948367851","0.354091838","0.3703096079","","","","","","","","","","","","","","76","L","3","","","27","main_expt",""
"","bandit","107","303591","0.0-69.0-0.0","02706489","wem/bandit_party_1","A20JA3YSZ8G6QY","either","8","269","","","","","","","0","0","1","0.3527269899","","0.6","0.4","0.2","0.8","","","","","0.3696097963","0.2282666016","0.3419366675","0.3527269899","","","","","","","","","","76","L","3","","","28","main_expt",""
"","bandit","108","305166","0.0-70.0-0.0","02706489","wem/bandit_party_1","A20JA3YSZ8G6QY","either","8","53","","","","","","","0","0","1","0.361896517","","0.6","0.4","0.2","0.8","","","","","0.3434444954","0.1842618798","0.361896517","0.2854860911","","","","","","","","","","75","K","2","","","29","main_expt",""
"","bandit","109","307081","0.0-71.0-0.0","02706489","wem/bandit_party_1","A20JA3YSZ8G6QY","either","8","399","","","","","","","0","0","1","","0.1930267653","0.6","0.4","0.2","0.8","0.3528183973","0.1930267653","0.3701160785","0.2971434158","","","","","","","","","","","","","","74","J","1","","","30","main_expt",""
"","bandit","110","308652","0.0-72.0-0.0","02706489","wem/bandit_party_1","A20JA3YSZ8G6QY","either","8","46","","","","","","","0","0","1","0.3436926249","","0.6","0.4","0.2","0.8","","","","","0.3436926249","0.2279264959","0.3602312343","0.3192935598","","","","","","","","","","72","H","0","img/none_selected.jpg","","31","main_expt",""
"","bandit","111","310393","0.0-73.0-0.0","02706489","wem/bandit_party_1","A20JA3YSZ8G6QY","either","8","224","","","","","","","0","0","1","","0.1922668126","0.6","0.4","0.2","0.8","0.3392376576","0.1922668126","0.3550043818","0.2910845839","","","","","","","","","","","","","","74","J","1","","","32","main_expt",""
"","bandit","112","311983","0.0-74.0-0.0","02706489","wem/bandit_party_1","A20JA3YSZ8G6QY","either","8","70","","","","","","","1","0","0","0.2524106513","","0.6","0.4","0.2","0.8","","","","","0.2524106513","0.1503247695","0.3927862597","0.2956883229","","","","","","","","","","72","H","0","img/none_selected.jpg","","33","main_expt",""
"","bandit","113","313560","0.0-75.0-0.0","02706489","wem/bandit_party_1","A20JA3YSZ8G6QY","either","8","55","","","","","","","0","0","1","0.2378308988","","0.6","0.4","0.2","0.8","","","","","0.2378308988","0.1875072744","0.4185963197","0.2918182698","","","","","","","","","","72","H","0","img/none_selected.jpg","","34","main_expt",""
"","bandit","114","315131","0.0-76.0-0.0","02706489","wem/bandit_party_1","A20JA3YSZ8G6QY","either","8","41","","","","","","","0","0","1","","0.441983755","0.6","0.4","0.2","0.8","0.2683654211","0.2135507624","0.441983755","0.3063909307","","","","","","","","","","","","","","75","K","2","","","35","main_expt",""
"","bandit","115","316958","0.0-77.0-0.0","02706489","wem/bandit_party_1","A20JA3YSZ8G6QY","either","8","296","","","","","","","1","0","0","0.2820805085","","0.6","0.4","0.2","0.8","","","","","0.2645223933","0.2042402853","0.4352827683","0.2820805085","","","","","","","","","","76","L","3","","","36","main_expt",""
"","bandit","116","318617","0.0-78.0-0.0","02706489","wem/bandit_party_1","A20JA3YSZ8G6QY","either","8","134","","","","","","","0","0","1","0.2360561858","","0.6","0.4","0.2","0.8","","","","","0.2360561858","0.2024605481","0.450520142","0.2610370824","","","","","","","","","","72","H","0","img/none_selected.jpg","","37","main_expt",""
"","bandit","117","320218","0.0-79.0-0.0","02706489","wem/bandit_party_1","A20JA3YSZ8G6QY","either","8","74","","","","","","","0","0","1","","0.1677713785","0.6","0.4","0.2","0.8","0.2001865083","0.1677713785","0.4681224698","0.1896233007","","","","","","","","","","","","","","74","J","1","","","38","main_expt",""
"","bandit","118","321750","0.0-80.0-0.0","02706489","wem/bandit_party_1","A20JA3YSZ8G6QY","either","8","7","","","","","","","0","0","1","0.4711022053","","0.6","0.4","0.2","0.8","","","","","0.1687915361","0.221779122","0.4711022053","0.168851025","","","","","","","","","","75","K","2","","","39","main_expt",""
"","bandit","119","323496","0.0-81.0-0.0","02706489","wem/bandit_party_1","A20JA3YSZ8G6QY","either","8","221","","","","","","","0","0","1","0.1615787635","","0.6","0.4","0.2","0.8","","","","","0.1503151413","0.2722397218","0.4559447699","0.1615787635","","","","","","","","","","76","L","3","","","40","main_expt",""
"","bandit","120","325079","0.0-82.0-0.0","02706489","wem/bandit_party_1","A20JA3YSZ8G6QY","either","8","62","","","","","","","0","0","1","","0.08168262283","0.6","0.4","0.2","0.8","0.08168262283","0.3298230943","0.4412687596","0.1472326003","","","","","","","","","","","","","","72","H","0","img/none_selected.jpg","","41","main_expt",""
"","bandit","121","326917","0.0-83.0-0.0","02706489","wem/bandit_party_1","A20JA3YSZ8G6QY","either","8","318","","","","","","","0","0","1","0.07668629145","","0.6","0.4","0.2","0.8","","","","","0.07668629145","0.3104885444","0.4457751761","0.1533480506","","","","","","","","","","72","H","0","img/none_selected.jpg","","42","main_expt",""
"","bandit","122","328562","0.0-84.0-0.0","02706489","wem/bandit_party_1","A20JA3YSZ8G6QY","either","8","120","","","","","","","0","0","1","0.07394587158","","0.6","0.4","0.2","0.8","","","","","0.07394587158","0.3005355489","0.4298378352","0.1414351437","","","","","","","","","","72","H","0","img/none_selected.jpg","","43","main_expt",""
"","bandit","123","330116","0.0-85.0-0.0","02706489","wem/bandit_party_1","A20JA3YSZ8G6QY","either","8","33","","","","","","","0","0","1","","0.1192337685","0.6","0.4","0.2","0.8","0.1192337685","0.2456242138","0.4416915379","0.1067646429","","","","","","","","","","","","","","72","H","0","img/none_selected.jpg","","44","main_expt",""
"","bandit","124","332165","0.0-86.0-0.0","02706489","wem/bandit_party_1","A20JA3YSZ8G6QY","either","8","531","","","","","","","0","0","1","","0.2839901561","0.6","0.4","0.2","0.8","0.1285724119","0.2839901561","0.3915522423","0.1250796286","","","","","","","","","","","","","","74","J","1","","","45","main_expt",""
"","bandit","125","337759","0.0-87.0-0.0","02706489","wem/bandit_party_1","A20JA3YSZ8G6QY","either","8","4070","","","","","","","0","0","1","","0.1112684106","0.6","0.4","0.2","0.8","0.1112684106","0.2353621531","0.4318427431","0.1927264636","","","","","","","","","","","","","","72","H","0","img/none_selected.jpg","","46","main_expt",""
"","bandit","126","339351","0.0-88.0-0.0","02706489","wem/bandit_party_1","A20JA3YSZ8G6QY","either","8","68","","","","","","","0","1","0","","0.1207340475","0.6","0.4","0.2","0.8","0.1207340475","0.2405257196","0.4395998441","0.1804488412","","","","","","","","","","","","","","72","H","0","img/none_selected.jpg","","47","main_expt",""
"","bandit","127","341842","0.0-89.0-0.0","02706489","wem/bandit_party_1","A20JA3YSZ8G6QY","either","8","960","","","","","","","0","0","1","","0.1182533935","0.6","0.4","0.2","0.8","0.1182533935","0.2629408555","0.4630443269","0.168268176","","","","","","","","","","","","","","72","H","0","img/none_selected.jpg","","48","main_expt",""
"","bandit","128","345555","0.0-90.0-0.0","02706489","wem/bandit_party_1","A20JA3YSZ8G6QY","either","8","2187","","","","","","","1","0","0","0.1460801474","","0.6","0.4","0.2","0.8","","","","","0.1460801474","0.2902453213","0.4794982466","0.1466838001","","","","","","","","","","72","H","0","img/none_selected.jpg","","49","main_expt",""
"","bandit","129","347595","0.0-91.0-0.0","02706489","wem/bandit_party_1","A20JA3YSZ8G6QY","either","8","507","","","","","","","0","0","1","0.1765155983","","0.6","0.4","0.2","0.8","","","","","0.1765155983","0.3033715012","0.4562783041","0.1336340117","","","","","","","","","","72","H","0","img/none_selected.jpg","","50","main_expt",""
"","bandit","130","349864","0.0-92.0-0.0","02706489","wem/bandit_party_1","A20JA3YSZ8G6QY","either","8","745","","","","","","","0","0","1","0.1614266163","","0.6","0.4","0.2","0.8","","","","","0.1614266163","0.3536831403","0.4515646323","0.1067821754","","","","","","","","","","72","H","0","img/none_selected.jpg","","51","main_expt",""
"","bandit","131","351538","0.0-93.0-0.0","02706489","wem/bandit_party_1","A20JA3YSZ8G6QY","either","8","145","","","","","","","0","0","1","","0.3058792917","0.6","0.4","0.2","0.8","0.1938643747","0.3058792917","0.4344137529","0.07294577227","","","","","","","","","","","","","","74","J","1","","","52","main_expt",""
"","bandit","132","353142","0.0-94.0-0.0","02706489","wem/bandit_party_1","A20JA3YSZ8G6QY","either","8","82","","","","","","","0","1","0","","0.1721886996","0.6","0.4","0.2","0.8","0.1721886996","0.3466820038","0.4421766306","0.07676454597","","","","","","","","","","","","","","72","H","0","img/none_selected.jpg","","53","main_expt",""
"","bandit","133","354905","0.0-95.0-0.0","02706489","wem/bandit_party_1","A20JA3YSZ8G6QY","either","8","236","","","","","","","0","0","1","","0.1542880765","0.6","0.4","0.2","0.8","0.1542880765","0.3159173384","0.4591875032","0.07707135067","","","","","","","","","","","","","","72","H","0","img/none_selected.jpg","","54","main_expt",""
"","bandit","134","358466","0.0-96.0-0.0","02706489","wem/bandit_party_1","A20JA3YSZ8G6QY","either","8","2035","","","","","","","0","1","0","","0.4455250987","0.6","0.4","0.2","0.8","0.2155598061","0.3205246683","0.4455250987","0.08227932488","","","","","","","","","","","","","","75","K","2","","","55","main_expt",""
"","bandit","135","360363","0.0-97.0-0.0","02706489","wem/bandit_party_1","A20JA3YSZ8G6QY","either","8","370","","","","","","","0","0","1","0.4200701886","","0.6","0.4","0.2","0.8","","","","","0.199350645","0.3067659888","0.4200701886","0.09013031375","","","","","","","","","","75","K","2","","","56","main_expt",""
"","bandit","136","363739","0.0-98.0-0.0","02706489","wem/bandit_party_1","A20JA3YSZ8G6QY","either","8","1850","","","","","","","0","0","1","","0.3786279545","0.6","0.4","0.2","0.8","0.1991981904","0.3786279545","0.3635567377","0.106866739","","","","","","","","","","","","","","74","J","1","","","57","main_expt",""
"","bandit","137","365644","0.0-99.0-0.0","02706489","wem/bandit_party_1","A20JA3YSZ8G6QY","either","8","376","","","","","","","0","0","1","0.1307276253","","0.6","0.4","0.2","0.8","","","","","0.1307276253","0.3796022377","0.3647217687","0.0915584437","","","","","","","","","","72","H","0","img/none_selected.jpg","","58","main_expt",""
"","bandit","138","369428","0.0-100.0-0.0","02706489","wem/bandit_party_1","A20JA3YSZ8G6QY","either","8","2261","","","","","","","0","0","1","0.1540949786","","0.6","0.4","0.2","0.8","","","","","0.1540949786","0.3570845549","0.3975499765","0.1036540812","","","","","","","","","","72","H","0","img/none_selected.jpg","","59","main_expt",""
"","bandit","139","371108","0.0-101.0-0.0","02706489","wem/bandit_party_1","A20JA3YSZ8G6QY","either","8","159","","","","","","","1","0","0","0.398525789","","0.6","0.4","0.2","0.8","","","","","0.1187181044","0.398525789","0.376383165","0.07948280662","","","","","","","","","","74","J","1","","","60","main_expt",""
"","bandit","140","372922","0.0-102.0-0.0","02706489","wem/bandit_party_1","A20JA3YSZ8G6QY","either","8","294","","","","","","","0","0","1","0.1734870435","","0.6","0.4","0.2","0.8","","","","","0.1734870435","0.380986593","0.3384437455","0.0685056185","","","","","","","","","","72","H","0","img/none_selected.jpg","","61","main_expt",""
"","bandit","141","374582","0.0-103.0-0.0","02706489","wem/bandit_party_1","A20JA3YSZ8G6QY","either","8","136","","","","","","","0","1","0","","0.3086389155","0.6","0.4","0.2","0.8","0.2056999461","0.3928002855","0.3086389155","0.04196312691","","","","","","","","","","","","","","75","K","2","","","62","main_expt",""
"","bandit","142","376209","0.0-104.0-0.0","02706489","wem/bandit_party_1","A20JA3YSZ8G6QY","either","8","98","","","","","","","1","0","0","0.3098998428","","0.6","0.4","0.2","0.8","","","","","0.2421495796","0.4097838671","0.3098998428","0.06524357318","","","","","","","","","","75","K","2","","","63","main_expt",""
"","bandit","143","377763","0.0-105.0-0.0","02706489","wem/bandit_party_1","A20JA3YSZ8G6QY","either","8","28","","","","","","","0","0","1","0.2859800092","","0.6","0.4","0.2","0.8","","","","","0.2678986655","0.3942475769","0.2859800092","0.04599317762","","","","","","","","","","75","K","2","","","64","main_expt",""
"","bandit","144","379345","0.0-106.0-0.0","02706489","wem/bandit_party_1","A20JA3YSZ8G6QY","either","8","53","","","","","","","0","0","1","","0.2780623804","0.6","0.4","0.2","0.8","0.2780805564","0.3756823908","0.2780623804","0.04738713632","","","","","","","","","","","","","","75","K","2","","","65","main_expt",""
"","bandit","145","380877","0.0-107.0-0.0","02706489","wem/bandit_party_1","A20JA3YSZ8G6QY","either","8","6","","","","","","","0","1","0","","0.2740889186","0.6","0.4","0.2","0.8","0.2923516192","0.3780323226","0.2740889186","0.02873144913","","","","","","","","","","","","","","75","K","2","","","66","main_expt",""
"","bandit","146","382737","0.0-108.0-0.0","02706489","wem/bandit_party_1","A20JA3YSZ8G6QY","either","8","338","","","","","","","0","0","1","","0.3122756929","0.6","0.4","0.2","0.8","0.3481747094","0.382091886","0.3122756929","0.0355516853","","","","","","","","","","","","","","75","K","2","","","67","main_expt",""
"","bandit","147","384288","0.0-109.0-0.0","02706489","wem/bandit_party_1","A20JA3YSZ8G6QY","either","8","35","","","","","","","0","1","0","","0.4080562953","0.6","0.4","0.2","0.8","0.3540590834","0.4080562953","0.3004294993","0.04483006882","","","","","","","","","","","","","","74","J","1","","","68","main_expt",""
"","bandit","148","385890","0.0-110.0-0.0","02706489","wem/bandit_party_1","A20JA3YSZ8G6QY","either","8","71","","","","","","","0","0","1","","0.3312842332","0.6","0.4","0.2","0.8","0.3348318208","0.419826639","0.3312842332","0.04300650393","","","","","","","","","","","","","","75","K","2","","","69","main_expt",""
"","bandit","149","387527","0.0-111.0-0.0","02706489","wem/bandit_party_1","A20JA3YSZ8G6QY","either","8","111","","","","","","","0","0","1","0.03960880855","","0.6","0.4","0.2","0.8","","","","","0.3844983113","0.3889643965","0.2362018798","0.03960880855","","","","","","","","","","76","L","3","","","70","main_expt",""
"","bandit","150","389165","0.0-112.0-0.0","02706489","wem/bandit_party_1","A20JA3YSZ8G6QY","either","8","111","","","","","","","0","0","1","0.3753843975","","0.6","0.4","0.2","0.8","","","","","0.3753843975","0.3492343966","0.1838323472","0.02401392238","","","","","","","","","","72","H","0","img/none_selected.jpg","","71","main_expt",""
"","bandit","151","390734","0.0-113.0-0.0","02706489","wem/bandit_party_1","A20JA3YSZ8G6QY","either","8","38","","","","","","","0","0","1","","0.3502155883","0.6","0.4","0.2","0.8","0.3861429343","0.3502155883","0.1749810972","0.008756159955","","","","","","","","","","","","","","74","J","1","","","72","main_expt",""
"","bandit","152","392263","0.0-114.0-0.0","02706489","wem/bandit_party_1","A20JA3YSZ8G6QY","either","8","3","","","","","","","0","0","1","0.3568691787","","0.6","0.4","0.2","0.8","","","","","0.3978436086","0.3568691787","0.1664097112","0.006257651783","","","","","","","","","","74","J","1","","","73","main_expt",""
"","bandit","153","394022","0.0-115.0-0.0","02706489","wem/bandit_party_1","A20JA3YSZ8G6QY","either","8","246","","","","","","","0","0","1","","0.3847979518","0.6","0.4","0.2","0.8","0.3847979518","0.3303653739","0.2001176207","0.004732084297","","","","","","","","","","","","","","72","H","0","img/none_selected.jpg","","74","main_expt",""
"","bandit","154","395655","0.0-116.0-0.0","02706489","wem/bandit_party_1","A20JA3YSZ8G6QY","either","8","107","","","","","","","0","0","1","","0.3974319157","0.6","0.4","0.2","0.8","0.3974319157","0.3353283381","0.1848717924","0.006967558871","","","","","","","","","","","","","","72","H","0","img/none_selected.jpg","","75","main_expt",""
"","bandit","155","397333","0.0-117.0-0.0","02706489","wem/bandit_party_1","A20JA3YSZ8G6QY","either","8","154","","","","","","","0","0","1","","0.1510178238","0.6","0.4","0.2","0.8","0.3987985884","0.3009524994","0.1510178238","0.004525860487","","","","","","","","","","","","","","75","K","2","","","76","main_expt",""
"","bandit","156","398873","0.0-118.0-0.0","02706489","wem/bandit_party_1","A20JA3YSZ8G6QY","either","8","17","","","","","","","0","0","1","","0.2089633591","0.6","0.4","0.2","0.8","0.4127312768","0.3316028908","0.2089633591","0.007245535115","","","","","","","","","","","","","","75","K","2","","","77","main_expt",""
"","bandit","157","400537","0.0-119.0-0.0","02706489","wem/bandit_party_1","A20JA3YSZ8G6QY","either","8","135","","","","","","","0","0","1","","0.2285147345","0.6","0.4","0.2","0.8","0.4257675477","0.3571024926","0.2285147345","0.00483057751","","","","","","","","","","","","","","75","K","2","","","78","main_expt",""
"","bandit","158","402109","0.0-120.0-0.0","02706489","wem/bandit_party_1","A20JA3YSZ8G6QY","either","8","48","","","","","","","0","0","1","0.005956317848","","0.6","0.4","0.2","0.8","","","","","0.4331167668","0.3542776451","0.2246975601","0.005956317848","","","","","","","","","","76","L","3","","","79","main_expt",""
"","bandit","159","403819","0.0-121.0-0.0","02706489","wem/bandit_party_1","A20JA3YSZ8G6QY","either","8","178","","","","","","","1","0","0","0.3201174307","","0.6","0.4","0.2","0.8","","","","","0.4294395537","0.3201174307","0.1878766281","0.0076590047","","","","","","","","","","74","J","1","","","80","main_expt",""
"","bandit","160","405879","0.0-122.0-0.0","02706489","wem/bandit_party_1","A20JA3YSZ8G6QY","either","8","529","","","","","","","0","0","1","","0.4234249918","0.6","0.4","0.2","0.8","0.4234249918","0.3503003334","0.2436254364","0.009115568074","","","","","","","","","","","","","","72","H","0","img/none_selected.jpg","","81","main_expt",""
"","bandit","161","407632","0.0-123.0-0.0","02706489","wem/bandit_party_1","A20JA3YSZ8G6QY","either","8","234","","","","","","","0","0","1","0.01382977225","","0.6","0.4","0.2","0.8","","","","","0.3956977209","0.3509066846","0.2627531714","0.01382977225","","","","","","","","","","76","L","3","","","82","main_expt",""
"","bandit","162","409163","0.0-124.0-0.0","02706489","wem/bandit_party_1","A20JA3YSZ8G6QY","either","8","17","","","","","","","0","0","1","","0.4248650233","0.6","0.4","0.2","0.8","0.4248650233","0.3951868033","0.2672212524","0.01500629599","","","","","","","","","","","","","","72","H","0","img/none_selected.jpg","","83","main_expt",""
"","bandit","163","410979","0.0-125.0-0.0","02706489","wem/bandit_party_1","A20JA3YSZ8G6QY","either","8","286","","","","","","","0","0","1","","0.4196907627","0.6","0.4","0.2","0.8","0.4196907627","0.4131477378","0.2817484998","0.02310127573","","","","","","","","","","","","","","72","H","0","img/none_selected.jpg","","84","main_expt",""
"","bandit","164","412553","0.0-126.0-0.0","02706489","wem/bandit_party_1","A20JA3YSZ8G6QY","either","8","64","","","","","","","0","1","0","","0.435633498","0.6","0.4","0.2","0.8","0.435633498","0.3889697292","0.3074775227","0.02639065846","","","","","","","","","","","","","","72","H","0","img/none_selected.jpg","","85","main_expt",""
"","bandit","165","414190","0.0-127.0-0.0","02706489","wem/bandit_party_1","A20JA3YSZ8G6QY","either","8","122","","","","","","","0","0","1","","0.3885636443","0.6","0.4","0.2","0.8","0.4322222521","0.3885636443","0.2717847629","0.01746441632","","","","","","","","","","","","","","74","J","1","","","86","main_expt",""
"","bandit","166","415912","0.0-128.0-0.0","02706489","wem/bandit_party_1","A20JA3YSZ8G6QY","either","8","202","","","","","","","0","0","1","","0.4476119451","0.6","0.4","0.2","0.8","0.4476119451","0.4028282504","0.2183858348","0.01256144444","","","","","","","","","","","","","","72","H","0","img/none_selected.jpg","","87","main_expt",""
"","bandit","167","417624","0.0-129.0-0.0","02706489","wem/bandit_party_1","A20JA3YSZ8G6QY","either","8","202","","","","","","","0","0","1","","0.4073123198","0.6","0.4","0.2","0.8","0.4073123198","0.4306890759","0.2054961256","0.01178158386","","","","","","","","","","","","","","72","H","0","img/none_selected.jpg","","88","main_expt",""
"","bandit","168","419226","0.0-130.0-0.0","02706489","wem/bandit_party_1","A20JA3YSZ8G6QY","either","8","76","","","","","","","0","0","1","","0.1452714398","0.6","0.4","0.2","0.8","0.3862301724","0.4103738654","0.1452714398","0.008722555822","","","","","","","","","","","","","","75","K","2","","","89","main_expt",""
"","bandit","169","421237","0.0-131.0-0.0","02706489","wem/bandit_party_1","A20JA3YSZ8G6QY","either","8","498","","","","","","","0","0","1","","0.008232471735","0.6","0.4","0.2","0.8","0.3596745144","0.3980827974","0.1077779513","0.008232471735","","","","","","","","","","","","","","76","L","3","","","90","main_expt",""
"","bandit","170","423171","0.0-132.0-0.0","02706489","wem/bandit_party_1","A20JA3YSZ8G6QY","either","8","401","","","","","","","0","0","1","0.3082854458","","0.6","0.4","0.2","0.8","","","","","0.3082854458","0.4040531024","0.1308407065","0.01249180717","","","","","","","","","","72","H","0","img/none_selected.jpg","","91","main_expt",""
"","bandit","171","424853","0.0-133.0-0.0","02706489","wem/bandit_party_1","A20JA3YSZ8G6QY","either","8","154","","","","","","","0","0","1","0.312225492","","0.6","0.4","0.2","0.8","","","","","0.312225492","0.3462944796","0.1652322036","0.01470986316","","","","","","","","","","72","H","0","img/none_selected.jpg","","92","main_expt",""
"","bandit","172","426660","0.0-134.0-0.0","02706489","wem/bandit_party_1","A20JA3YSZ8G6QY","either","8","274","","","","","","","0","1","0","","0.3411451966","0.6","0.4","0.2","0.8","0.3671658277","0.3411451966","0.1344678182","0.02655281846","","","","","","","","","","","","","","74","J","1","","","93","main_expt",""
"","bandit","173","428341","0.0-135.0-0.0","02706489","wem/bandit_party_1","A20JA3YSZ8G6QY","either","8","154","","","","","","","0","0","1","","0.3384154489","0.6","0.4","0.2","0.8","0.3401731108","0.3384154489","0.1301314301","0.02575246025","","","","","","","","","","","","","","74","J","1","","","94","main_expt",""
"","bandit","174","430004","0.0-136.0-0.0","02706489","wem/bandit_party_1","A20JA3YSZ8G6QY","either","8","139","","","","","","","0","0","1","","0.3413923724","0.6","0.4","0.2","0.8","0.3413923724","0.3126988266","0.1746055711","0.02262355665","","","","","","","","","","","","","","72","H","0","img/none_selected.jpg","","95","main_expt",""
"","bandit","175","431663","0.0-137.0-0.0","02706489","wem/bandit_party_1","A20JA3YSZ8G6QY","either","8","128","","","","","","","0","0","1","","0.1994244555","0.6","0.4","0.2","0.8","0.3570420485","0.3800019137","0.1994244555","0.02047181149","","","","","","","","","","","","","","75","K","2","","","96","main_expt",""
"","bandit","176","433307","0.0-138.0-0.0","02706489","wem/bandit_party_1","A20JA3YSZ8G6QY","either","8","114","","","","","","","0","1","0","","0.3435474977","0.6","0.4","0.2","0.8","0.3435474977","0.3328121005","0.1834602947","0.0207754381","","","","","","","","","","","","","","72","H","0","img/none_selected.jpg","","97","main_expt",""
"","bandit","177","435007","0.0-139.0-0.0","02706489","wem/bandit_party_1","A20JA3YSZ8G6QY","either","8","170","","","","","","","0","1","0","","0.3614714926","0.6","0.4","0.2","0.8","0.3614714926","0.332228596","0.1719221531","0.02955834597","","","","","","","","","","","","","","72","H","0","img/none_selected.jpg","","98","main_expt",""
"","bandit","178","436712","0.0-140.0-0.0","02706489","wem/bandit_party_1","A20JA3YSZ8G6QY","either","8","174","","","","","","","0","0","1","0.3176405447","","0.6","0.4","0.2","0.8","","","","","0.3176405447","0.2843854285","0.1183399241","0.0383131093","","","","","","","","","","72","H","0","img/none_selected.jpg","","99","main_expt",""
"","bandit","179","438257","0.0-141.0-0.0","02706489","wem/bandit_party_1","A20JA3YSZ8G6QY","either","8","12","","","","","","","0","0","1","","0.309751149","0.6","0.4","0.2","0.8","0.3586553183","0.309751149","0.1558635017","0.03580757471","","","","","","","","","","","","","","74","J","1","","","100","main_expt",""
"","bandit","180","439891","0.0-142.0-0.0","02706489","wem/bandit_party_1","A20JA3YSZ8G6QY","either","8","105","","","","","","","1","0","0","0.2951503345","","0.6","0.4","0.2","0.8","","","","","0.2951503345","0.2993195944","0.1389665978","0.04899620691","","","","","","","","","","72","H","0","img/none_selected.jpg","","101","main_expt",""
"","bandit","181","441482","0.0-143.0-0.0","02706489","wem/bandit_party_1","A20JA3YSZ8G6QY","either","8","55","","","","","","","0","0","1","","0.2998391809","0.6","0.4","0.2","0.8","0.2998391809","0.3551890872","0.1377203561","0.08055650644","","","","","","","","","","","","","","72","H","0","img/none_selected.jpg","","102","main_expt",""
"","bandit","182","443114","0.0-144.0-0.0","02706489","wem/bandit_party_1","A20JA3YSZ8G6QY","either","8","105","","","","","","","0","0","1","","0.1285548106","0.6","0.4","0.2","0.8","0.2791823827","0.3148404956","0.1285548106","0.1040447627","","","","","","","","","","","","","","75","K","2","","","103","main_expt",""
"","bandit","183","444795","0.0-145.0-0.0","02706489","wem/bandit_party_1","A20JA3YSZ8G6QY","either","8","155","","","","","","","0","0","1","0.3382769334","","0.6","0.4","0.2","0.8","","","","","0.3382769334","0.3286912191","0.1555523735","0.1143547335","","","","","","","","","","72","H","0","img/none_selected.jpg","","104","main_expt",""
"","bandit","184","446449","0.0-146.0-0.0","02706489","wem/bandit_party_1","A20JA3YSZ8G6QY","either","8","127","","","","","","","0","0","1","","0.298340497","0.6","0.4","0.2","0.8","0.3339697125","0.298340497","0.1775592141","0.1487676438","","","","","","","","","","","","","","74","J","1","","","105","main_expt",""
"","bandit","185","448031","0.0-147.0-0.0","02706489","wem/bandit_party_1","A20JA3YSZ8G6QY","either","8","53","","","","","","","1","0","0","0.3124129253","","0.6","0.4","0.2","0.8","","","","","0.3124129253","0.3504464386","0.2263451353","0.152088545","","","","","","","","","","72","H","0","img/none_selected.jpg","","106","main_expt",""
"","bandit","186","449813","0.0-148.0-0.0","02706489","wem/bandit_party_1","A20JA3YSZ8G6QY","either","8","272","","","","","","","0","0","1","","0.1679769802","0.6","0.4","0.2","0.8","0.3400683723","0.3510410077","0.1679769802","0.2406734145","","","","","","","","","","","","","","75","K","2","","","107","main_expt",""
"","bandit","187","451510","0.0-149.0-0.0","02706489","wem/bandit_party_1","A20JA3YSZ8G6QY","either","8","184","","","","","","","0","0","1","","0.1999870147","0.6","0.4","0.2","0.8","0.3557340834","0.3282766846","0.1999870147","0.3048040024","","","","","","","","","","","","","","75","K","2","","","108","main_expt",""
"","bandit","188","453598","0.0-150.0-0.0","02706489","wem/bandit_party_1","A20JA3YSZ8G6QY","either","8","557","","","","","","","0","0","1","0.3418503096","","0.6","0.4","0.2","0.8","","","","","0.3846418901","0.3561186451","0.208992856","0.3418503096","","","","","","","","","","76","L","3","","","109","main_expt",""
"","bandit","189","455199","0.0-151.0-0.0","02706489","wem/bandit_party_1","A20JA3YSZ8G6QY","either","8","87","","","","","","","0","0","1","0.3198501315","","0.6","0.4","0.2","0.8","","","","","0.4057962062","0.3576445865","0.1716040471","0.3198501315","","","","","","","","","","76","L","3","","","110","main_expt",""
"","bandit","190","456759","0.0-152.0-0.0","02706489","wem/bandit_party_1","A20JA3YSZ8G6QY","either","8","50","","","","","","","0","0","1","","0.3692451483","0.6","0.4","0.2","0.8","0.3692451483","0.3377543854","0.08984071331","0.3681534847","","","","","","","","","","","","","","72","H","0","img/none_selected.jpg","","111","main_expt",""
"","bandit","191","458351","0.0-153.0-0.0","02706489","wem/bandit_party_1","A20JA3YSZ8G6QY","either","8","77","","","","","","","0","1","0","","0.3577317973","0.6","0.4","0.2","0.8","0.3577317973","0.286234052","0.1243463141","0.3757830796","","","","","","","","","","","","","","72","H","0","img/none_selected.jpg","","112","main_expt",""
"","bandit","192","459941","0.0-154.0-0.0","02706489","wem/bandit_party_1","A20JA3YSZ8G6QY","either","8","62","","","","","","","1","0","0","0.3328808086","","0.6","0.4","0.2","0.8","","","","","0.3328808086","0.1932674395","0.1433440675","0.3838999828","","","","","","","","","","72","H","0","img/none_selected.jpg","","113","main_expt",""
"","bandit","193","461551","0.0-155.0-0.0","02706489","wem/bandit_party_1","A20JA3YSZ8G6QY","either","8","86","","","","","","","0","0","1","0.3416979579","","0.6","0.4","0.2","0.8","","","","","0.3416979579","0.2403040534","0.1510662198","0.4157938717","","","","","","","","","","72","H","0","img/none_selected.jpg","","114","main_expt",""
"","bandit","194","463230","0.0-156.0-0.0","02706489","wem/bandit_party_1","A20JA3YSZ8G6QY","either","8","154","","","","","","","0","0","1","","0.3377137281","0.6","0.4","0.2","0.8","0.3377137281","0.254937398","0.09845245139","0.4055870595","","","","","","","","","","","","","","72","H","0","img/none_selected.jpg","","115","main_expt",""
"","bandit","195","464766","0.0-157.0-0.0","02706489","wem/bandit_party_1","A20JA3YSZ8G6QY","either","8","26","","","","","","","0","0","1","0.3039448029","","0.6","0.4","0.2","0.8","","","","","0.3039448029","0.2605063941","0.107393795","0.4161015278","","","","","","","","","","72","H","0","img/none_selected.jpg","","116","main_expt",""
"","bandit","196","466374","0.0-158.0-0.0","02706489","wem/bandit_party_1","A20JA3YSZ8G6QY","either","8","97","","","","","","","0","0","1","","0.2974336912","0.6","0.4","0.2","0.8","0.2974336912","0.2161328783","0.07879800556","0.414877819","","","","","","","","","","","","","","72","H","0","img/none_selected.jpg","","117","main_expt",""
"","bandit","197","467882","0.0-159.0-0.0","02706489","wem/bandit_party_1","A20JA3YSZ8G6QY","either","8","0","","","","","","","0","0","1","0.1931197841","","0.6","0.4","0.2","0.8","","","","","0.2651867246","0.1931197841","0.08383735875","0.3968259953","","","","","","","","","","74","J","1","","","118","main_expt",""
"","bandit","198","469403","0.0-160.0-0.0","02706489","wem/bandit_party_1","A20JA3YSZ8G6QY","either","8","11","","","","","","","0","0","1","","0.1638183597","0.6","0.4","0.2","0.8","0.3131666206","0.1638183597","0.1392474383","0.4198241006","","","","","","","","","","","","","","74","J","1","","","119","main_expt",""
"","bandit","199","471066","0.0-161.0-0.0","02706489","wem/bandit_party_1","A20JA3YSZ8G6QY","either","8","148","","","","","","","0","0","1","","0.1893282748","0.6","0.4","0.2","0.8","0.358829095","0.1893282748","0.1649404926","0.4286088018","","","","","","","","","","","","","","74","J","1","","","120","main_expt",""
"","bandit","200","472677","0.0-162.0-0.0","02706489","wem/bandit_party_1","A20JA3YSZ8G6QY","either","8","97","","","","","","","0","0","1","","0.2290368179","0.6","0.4","0.2","0.8","0.3189860171","0.2290368179","0.1764152442","0.4253829576","","","","","","","","","","","","","","74","J","1","","","121","main_expt",""
"","bandit","201","474215","0.0-163.0-0.0","02706489","wem/bandit_party_1","A20JA3YSZ8G6QY","either","8","14","","","","","","","0","1","0","","0.2445441383","0.6","0.4","0.2","0.8","0.3011672979","0.2445441383","0.2092397698","0.4235175979","","","","","","","","","","","","","","74","J","1","","","122","main_expt",""
"","bandit","202","475889","0.0-164.0-0.0","02706489","wem/bandit_party_1","A20JA3YSZ8G6QY","either","8","145","","","","","","","0","1","0","","0.1884058447","0.6","0.4","0.2","0.8","0.3037948063","0.2091075756","0.1884058447","0.4182090072","","","","","","","","","","","","","","75","K","2","","","123","main_expt",""
"","bandit","203","477437","0.0-165.0-0.0","02706489","wem/bandit_party_1","A20JA3YSZ8G6QY","either","8","28","","","","","","","0","0","1","0.2446200253","","0.6","0.4","0.2","0.8","","","","","0.2446200253","0.2216111921","0.1876417206","0.4356016004","","","","","","","","","","72","H","0","img/none_selected.jpg","","124","main_expt",""
"","bandit","204","479274","0.0-166.0-0.0","02706489","wem/bandit_party_1","A20JA3YSZ8G6QY","either","8","288","","","","","","","1","0","0","0.2464628806","","0.6","0.4","0.2","0.8","","","","","0.2464628806","0.1622020501","0.1890564589","0.403953628","","","","","","","","","","72","H","0","img/none_selected.jpg","","125","main_expt",""
"","bandit","205","480892","0.0-167.0-0.0","02706489","wem/bandit_party_1","A20JA3YSZ8G6QY","either","8","108","","","","","","","0","1","0","","0.281169445","0.6","0.4","0.2","0.8","0.281169445","0.173533554","0.1659850756","0.4020675328","","","","","","","","","","","","","","72","H","0","img/none_selected.jpg","","126","main_expt",""
"","bandit","206","482477","0.0-168.0-0.0","02706489","wem/bandit_party_1","A20JA3YSZ8G6QY","either","8","74","","","","","","","0","0","1","","0.290080064","0.6","0.4","0.2","0.8","0.290080064","0.189829559","0.2006343121","0.338443572","","","","","","","","","","","","","","72","H","0","img/none_selected.jpg","","127","main_expt",""
"","bandit","207","484555","0.0-169.0-0.0","02706489","wem/bandit_party_1","A20JA3YSZ8G6QY","either","8","568","","","","","","","0","0","1","","0.2637444583","0.6","0.4","0.2","0.8","0.3280989756","0.1764696366","0.2637444583","0.323123489","","","","","","","","","","","","","","75","K","2","","","128","main_expt",""
"","bandit","208","486381","0.0-170.0-0.0","02706489","wem/bandit_party_1","A20JA3YSZ8G6QY","either","8","315","","","","","","","0","0","1","0.2783394686","","0.6","0.4","0.2","0.8","","","","","0.3052704822","0.172709194","0.2783394686","0.3615310162","","","","","","","","","","75","K","2","","","129","main_expt",""
"","bandit","209","488116","0.0-171.0-0.0","02706489","wem/bandit_party_1","A20JA3YSZ8G6QY","either","8","204","","","","","","","0","0","1","","0.2674474002","0.6","0.4","0.2","0.8","0.314718742","0.1407460215","0.2674474002","0.3667448715","","","","","","","","","","","","","","75","K","2","","","130","main_expt",""
"","bandit","210","489655","0.0-172.0-0.0","02706489","wem/bandit_party_1","A20JA3YSZ8G6QY","either","8","4","","","","","","","0","1","0","","0.2122920843","0.6","0.4","0.2","0.8","0.2492347367","0.143826562","0.2122920843","0.341745941","","","","","","","","","","","","","","75","K","2","","","131","main_expt",""
"","bandit","211","491272","0.0-173.0-0.0","02706489","wem/bandit_party_1","A20JA3YSZ8G6QY","either","8","83","","","","","","","0","0","1","","0.1969346152","0.6","0.4","0.2","0.8","0.2495736985","0.1862992663","0.1969346152","0.2615325727","","","","","","","","","","","","","","75","K","2","","","132","main_expt",""
"","bandit","212","492817","0.0-174.0-0.0","02706489","wem/bandit_party_1","A20JA3YSZ8G6QY","either","8","1","","","","","","","0","0","1","","0.1390835973","0.6","0.4","0.2","0.8","0.2487120015","0.185648564","0.1390835973","0.27905624","","","","","","","","","","","","","","75","K","2","","","133","main_expt",""
"","bandit","213","494354","0.0-175.0-0.0","02706489","wem/bandit_party_1","A20JA3YSZ8G6QY","either","8","3","","","","","","","0","0","1","","0.1437640715","0.6","0.4","0.2","0.8","0.3239420422","0.2002276213","0.1437640715","0.2751163123","","","","","","","","","","","","","","75","K","2","","","134","main_expt",""
"","bandit","214","495911","0.0-176.0-0.0","02706489","wem/bandit_party_1","A20JA3YSZ8G6QY","either","8","24","","","","","","","0","0","1","","0.1175999949","0.6","0.4","0.2","0.8","0.3903525049","0.2474552851","0.1175999949","0.2586507773","","","","","","","","","","","","","","75","K","2","","","135","main_expt",""
"","bandit","215","497454","0.0-177.0-0.0","02706489","wem/bandit_party_1","A20JA3YSZ8G6QY","either","8","17","","","","","","","0","0","1","","0.1108499649","0.6","0.4","0.2","0.8","0.3703049055","0.2454982057","0.1108499649","0.2385277364","","","","","","","","","","","","","","75","K","2","","","136","main_expt",""
"","bandit","216","499218","0.0-178.0-0.0","02706489","wem/bandit_party_1","A20JA3YSZ8G6QY","either","8","235","","","","","","","0","0","1","","0.1208727618","0.6","0.4","0.2","0.8","0.3657944308","0.2708690816","0.1208727618","0.1935782534","","","","","","","","","","","","","","75","K","2","","","137","main_expt",""
"","bandit","217","501958","0.0-179.0-0.0","02706489","wem/bandit_party_1","A20JA3YSZ8G6QY","either","8","1192","","","","","","","0","0","1","0.14087624","","0.6","0.4","0.2","0.8","","","","","0.3452946514","0.2219039101","0.1098805161","0.14087624","","","","","","","","","","76","L","3","","","138","main_expt",""
"","bandit","218","503616","0.0-180.0-0.0","02706489","wem/bandit_party_1","A20JA3YSZ8G6QY","either","8","132","","","","","","","0","0","1","0.1340930794","","0.6","0.4","0.2","0.8","","","","","0.3225052804","0.2485571535","0.1359731218","0.1340930794","","","","","","","","","","76","L","3","","","139","main_expt",""
"","bandit","219","505258","0.0-181.0-0.0","02706489","wem/bandit_party_1","A20JA3YSZ8G6QY","either","8","113","","","","","","","0","0","1","0.1170750994","","0.6","0.4","0.2","0.8","","","","","0.2997250911","0.2605640439","0.1419248406","0.1170750994","","","","","","","","","","76","L","3","","","140","main_expt",""
"","bandit","220","506861","0.0-182.0-0.0","02706489","wem/bandit_party_1","A20JA3YSZ8G6QY","either","8","73","","","","","","","0","0","1","0.1316830279","","0.6","0.4","0.2","0.8","","","","","0.311933389","0.2260680923","0.1269577117","0.1316830279","","","","","","","","","","76","L","3","","","141","main_expt",""
"","bandit","221","508466","0.0-183.0-0.0","02706489","wem/bandit_party_1","A20JA3YSZ8G6QY","either","8","75","","","","","","","0","0","1","0.09490366034","","0.6","0.4","0.2","0.8","","","","","0.3442568425","0.2354846983","0.1073819056","0.09490366034","","","","","","","","","","76","L","3","","","142","main_expt",""
"","bandit","222","510302","0.0-184.0-0.0","02706489","wem/bandit_party_1","A20JA3YSZ8G6QY","either","8","301","","","","","","","0","0","1","","0.2089358464","0.6","0.4","0.2","0.8","0.3117203045","0.2089358464","0.1152767294","0.1246024154","","","","","","","","","","","","","","74","J","1","","","143","main_expt",""
"","bandit","223","512295","0.0-185.0-0.0","02706489","wem/bandit_party_1","A20JA3YSZ8G6QY","either","8","467","","","","","","","0","0","1","","0.1844607625","0.6","0.4","0.2","0.8","0.3080771123","0.1844607625","0.1317444946","0.1179874238","","","","","","","","","","","","","","74","J","1","","","144","main_expt",""
"","bandit","224","514162","0.0-186.0-0.0","02706489","wem/bandit_party_1","A20JA3YSZ8G6QY","either","8","354","","","","","","","0","0","1","","0.1940384654","0.6","0.4","0.2","0.8","0.3146876691","0.1940384654","0.1058600218","0.1211842963","","","","","","","","","","","","","","74","J","1","","","145","main_expt",""
"","bandit","225","516433","0.0-187.0-0.0","02706489","wem/bandit_party_1","A20JA3YSZ8G6QY","either","8","742","","","","","","","0","0","1","","0.2532022814","0.6","0.4","0.2","0.8","0.3526806189","0.2532022814","0.1862633901","0.06212451067","","","","","","","","","","","","","","74","J","1","","","146","main_expt",""
"","bandit","226","518565","0.0-188.0-0.0","02706489","wem/bandit_party_1","A20JA3YSZ8G6QY","either","8","598","","","","","","","1","0","0","0.3859334927","","0.6","0.4","0.2","0.8","","","","","0.3859334927","0.272856749","0.1944793183","0.05826033827","","","","","","","","","","72","H","0","img/none_selected.jpg","","147","main_expt",""
"","bandit","227","520551","0.0-189.0-0.0","02706489","wem/bandit_party_1","A20JA3YSZ8G6QY","either","8","460","","","","","","","1","0","0","0.4089873985","","0.6","0.4","0.2","0.8","","","","","0.4089873985","0.2441255329","0.1572605535","0.04847575149","","","","","","","","","","72","H","0","img/none_selected.jpg","","148","main_expt",""
"","bandit","228","522234","0.0-190.0-0.0","02706489","wem/bandit_party_1","A20JA3YSZ8G6QY","either","8","166","","","","","","","1","0","0","0.3317076441","","0.6","0.4","0.2","0.8","","","","","0.3317076441","0.2304797635","0.1632070519","0.07397138717","","","","","","","","","","72","H","0","img/none_selected.jpg","","149","main_expt",""
"","bandit","229","523975","0.0-191.0-0.0","02706489","wem/bandit_party_1","A20JA3YSZ8G6QY","either","8","210","","","","","","","0","0","1","","0.2514439341","0.6","0.4","0.2","0.8","0.2514439341","0.2645424191","0.2162169298","0.1178437277","","","","","","","","","","","","","","72","H","0","img/none_selected.jpg","","150","main_expt",""
"","bandit","230","525766","0.0-192.0-0.0","02706489","wem/bandit_party_1","A20JA3YSZ8G6QY","either","8","263","","","","","","","0","1","0","","0.2209696772","0.6","0.4","0.2","0.8","0.2209696772","0.2919476008","0.2806681102","0.1116740648","","","","","","","","","","","","","","72","H","0","img/none_selected.jpg","","151","main_expt",""
"","bandit","231","527310","0.0-193.0-0.0","02706489","wem/bandit_party_1","A20JA3YSZ8G6QY","either","8","7","","","","","","","0","0","1","0.2004300668","","0.6","0.4","0.2","0.8","","","","","0.2004300668","0.3004198658","0.25223767","0.09681320826","","","","","","","","","","72","H","0","img/none_selected.jpg","","152","main_expt",""
"","bandit","232","532264","0.0-194.0-0.0","02706489","wem/bandit_party_1","A20JA3YSZ8G6QY","either","8","3420","","","","","","","0","0","1","","0.1803159607","0.6","0.4","0.2","0.8","0.1803159607","0.2910243242","0.2259503681","0.1162344283","","","","","","","","","","","","","","72","H","0","img/none_selected.jpg","","153","main_expt",""
"","bandit","233","534408","0.0-195.0-0.0","02706489","wem/bandit_party_1","A20JA3YSZ8G6QY","either","8","608","","","","","","","0","0","1","","0.1793353988","0.6","0.4","0.2","0.8","0.1793353988","0.2858680692","0.2520515582","0.1441765144","","","","","","","","","","","","","","72","H","0","img/none_selected.jpg","","154","main_expt",""
"","bandit","234","536916","0.0-196.0-0.0","02706489","wem/bandit_party_1","A20JA3YSZ8G6QY","either","8","974","","","","","","","0","0","1","0.175125938","","0.6","0.4","0.2","0.8","","","","","0.175125938","0.276906037","0.246895917","0.1506434262","","","","","","","","","","72","H","0","img/none_selected.jpg","","155","main_expt",""
"","bandit","235","538463","0.0-197.0-0.0","02706489","wem/bandit_party_1","A20JA3YSZ8G6QY","either","8","2","","","","","","","0","0","1","0.19004546","","0.6","0.4","0.2","0.8","","","","","0.19004546","0.3087514371","0.2067462234","0.1691825384","","","","","","","","","","72","H","0","img/none_selected.jpg","","156","main_expt",""
"","bandit","236","540153","0.0-198.0-0.0","02706489","wem/bandit_party_1","A20JA3YSZ8G6QY","either","8","157","","","","","","","0","0","1","0.1538528063","","0.6","0.4","0.2","0.8","","","","","0.1538528063","0.3400763937","0.1736677602","0.1465267651","","","","","","","","","","72","H","0","img/none_selected.jpg","","157","main_expt",""
"","bandit","237","542302","0.0-199.0-0.0","02706489","wem/bandit_party_1","A20JA3YSZ8G6QY","either","8","607","","","","","","","0","0","1","0.1624419901","","0.6","0.4","0.2","0.8","","","","","0.1624419901","0.3388441277","0.2437422656","0.1517260174","","","","","","","","","","72","H","0","img/none_selected.jpg","","158","main_expt",""
"","bandit","238","544378","0.0-200.0-0.0","02706489","wem/bandit_party_1","A20JA3YSZ8G6QY","either","8","543","","","","","","","0","0","1","","0.1749682205","0.6","0.4","0.2","0.8","0.1749682205","0.3496437485","0.2627628197","0.143579764","","","","","","","","","","","","","","72","H","0","img/none_selected.jpg","","159","main_expt",""
"","bandit","239","548110","0.0-201.0-0.0","02706489","wem/bandit_party_1","A20JA3YSZ8G6QY","either","8","2196","","","","","","","0","0","1","0.2227833177","","0.6","0.4","0.2","0.8","","","","","0.2227833177","0.3347491532","0.2532756584","0.1701049762","","","","","","","","","","72","H","0","img/none_selected.jpg","","160","main_expt",""
"","bandit","240","550464","0.0-202.0-0.0","02706489","wem/bandit_party_1","A20JA3YSZ8G6QY","either","8","823","","","","","","","0","0","1","0.1616195486","","0.6","0.4","0.2","0.8","","","","","0.1616195486","0.3036625801","0.2846030245","0.1596038406","","","","","","","","","","72","H","0","img/none_selected.jpg","","161","main_expt",""
"","bandit","241","552814","0.0-203.0-0.0","02706489","wem/bandit_party_1","A20JA3YSZ8G6QY","either","8","813","","","","","","","0","0","1","0.1440802068","","0.6","0.4","0.2","0.8","","","","","0.1440802068","0.2735804545","0.2480450928","0.1186271452","","","","","","","","","","72","H","0","img/none_selected.jpg","","162","main_expt",""
"","bandit","242","555421","0.0-204.0-0.0","02706489","wem/bandit_party_1","A20JA3YSZ8G6QY","either","8","1072","","","","","","","0","1","0","","0.1349250059","0.6","0.4","0.2","0.8","0.1349250059","0.2219233964","0.3217860246","0.1460830151","","","","","","","","","","","","","","72","H","0","img/none_selected.jpg","","163","main_expt",""
"","bandit","243","557826","0.0-205.0-0.0","02706489","wem/bandit_party_1","A20JA3YSZ8G6QY","either","8","870","","","","","","","0","1","0","","0.1482528248","0.6","0.4","0.2","0.8","0.1482528248","0.2489701673","0.3528623486","0.1924179555","","","","","","","","","","","","","","72","H","0","img/none_selected.jpg","","164","main_expt",""
"","bandit","244","560307","0.0-206.0-0.0","02706489","wem/bandit_party_1","A20JA3YSZ8G6QY","either","8","945","","","","","","","0","0","1","0.1444116863","","0.6","0.4","0.2","0.8","","","","","0.1444116863","0.2424219606","0.3113737792","0.1909643941","","","","","","","","","","72","H","0","img/none_selected.jpg","","165","main_expt",""
"","bandit","245","562455","0.0-207.0-0.0","02706489","wem/bandit_party_1","A20JA3YSZ8G6QY","either","8","611","","","","","","","1","0","0","0.1621449425","","0.6","0.4","0.2","0.8","","","","","0.1621449425","0.1899742571","0.2820045276","0.1917506842","","","","","","","","","","72","H","0","img/none_selected.jpg","","166","main_expt",""
"","bandit","246","565271","0.0-208.0-0.0","02706489","wem/bandit_party_1","A20JA3YSZ8G6QY","either","8","1281","","","","","","","0","0","1","","0.1695256229","0.6","0.4","0.2","0.8","0.1695256229","0.2298880826","0.2539690707","0.2238056512","","","","","","","","","","","","","","72","H","0","img/none_selected.jpg","","167","main_expt",""
"","bandit","247","567931","0.0-209.0-0.0","02706489","wem/bandit_party_1","A20JA3YSZ8G6QY","either","8","1114","","","","","","","0","0","1","0.1712445676","","0.6","0.4","0.2","0.8","","","","","0.1712445676","0.241220494","0.2177565821","0.2132240521","","","","","","","","","","72","H","0","img/none_selected.jpg","","168","main_expt",""
"","bandit","248","569954","0.0-210.0-0.0","02706489","wem/bandit_party_1","A20JA3YSZ8G6QY","either","8","488","","","","","","","0","0","1","0.191079104","","0.6","0.4","0.2","0.8","","","","","0.191079104","0.2113351254","0.183214586","0.1363713625","","","","","","","","","","72","H","0","img/none_selected.jpg","","169","main_expt",""
"","bandit","249","572454","0.0-211.0-0.0","02706489","wem/bandit_party_1","A20JA3YSZ8G6QY","either","8","969","","","","","","","0","0","1","","0.2227666825","0.6","0.4","0.2","0.8","0.2227666825","0.2224744884","0.1757282231","0.2007690262","","","","","","","","","","","","","","72","H","0","img/none_selected.jpg","","170","main_expt",""
"","bandit","250","573996","0.0-212.0-0.0","02706489","wem/bandit_party_1","A20JA3YSZ8G6QY","either","8","15","","","","","","","0","0","1","","0.2719914804","0.6","0.4","0.2","0.8","0.2719914804","0.262177911","0.1679331046","0.1238998316","","","","","","","","","","","","","","72","H","0","img/none_selected.jpg","","171","main_expt",""
"","bandit","251","575583","0.0-213.0-0.0","02706489","wem/bandit_party_1","A20JA3YSZ8G6QY","either","8","55","","","","","","","0","0","1","0.2330128459","","0.6","0.4","0.2","0.8","","","","","0.2330128459","0.2822992514","0.14560319","0.09746419185","","","","","","","","","","72","H","0","img/none_selected.jpg","","172","main_expt",""
"","bandit","252","577719","0.0-214.0-0.0","02706489","wem/bandit_party_1","A20JA3YSZ8G6QY","either","8","600","","","","","","","1","0","0","0.2840251313","","0.6","0.4","0.2","0.8","","","","","0.2840251313","0.2545762091","0.1341549344","0.1018164217","","","","","","","","","","72","H","0","img/none_selected.jpg","","173","main_expt",""
"","bandit","253","579993","0.0-215.0-0.0","02706489","wem/bandit_party_1","A20JA3YSZ8G6QY","either","8","739","","","","","","","0","0","1","0.2739042306","","0.6","0.4","0.2","0.8","","","","","0.2739042306","0.2838184637","0.1471305278","0.1401689619","","","","","","","","","","72","H","0","img/none_selected.jpg","","174","main_expt",""
"","bandit","254","582680","0.0-216.0-0.0","02706489","wem/bandit_party_1","A20JA3YSZ8G6QY","either","8","1144","","","","","","","0","0","1","","0.3444735506","0.6","0.4","0.2","0.8","0.3444735506","0.3002790513","0.173963405","0.1697524679","","","","","","","","","","","","","","72","H","0","img/none_selected.jpg","","175","main_expt",""
"","bandit","255","584308","0.0-217.0-0.0","02706489","wem/bandit_party_1","A20JA3YSZ8G6QY","either","8","108","","","","","","","0","0","1","0.3223017316","","0.6","0.4","0.2","0.8","","","","","0.3223017316","0.3771690292","0.1821857965","0.1896898672","","","","","","","","","","72","H","0","img/none_selected.jpg","","176","main_expt",""
"","bandit","256","586008","0.0-218.0-0.0","02706489","wem/bandit_party_1","A20JA3YSZ8G6QY","either","8","165","","","","","","","0","0","1","0.2964924158","","0.6","0.4","0.2","0.8","","","","","0.2964924158","0.4047809956","0.1444884472","0.2441254625","","","","","","","","","","72","H","0","img/none_selected.jpg","","177","main_expt",""
"","bandit","257","587567","0.0-219.0-0.0","02706489","wem/bandit_party_1","A20JA3YSZ8G6QY","either","8","25","","","","","","","0","0","1","","0.2780576925","0.6","0.4","0.2","0.8","0.2780576925","0.4344960837","0.1207783293","0.2427722412","","","","","","","","","","","","","","72","H","0","img/none_selected.jpg","","178","main_expt",""
"","bandit","258","589266","0.0-220.0-0.0","02706489","wem/bandit_party_1","A20JA3YSZ8G6QY","either","8","163","","","","","","","1","0","0","0.2859751729","","0.6","0.4","0.2","0.8","","","","","0.2859751729","0.4287912686","0.111585665","0.2284650367","","","","","","","","","","72","H","0","img/none_selected.jpg","","179","main_expt",""
"","bandit","259","593645","0.0-221.0-0.0","02706489","wem/bandit_party_1","A20JA3YSZ8G6QY","either","8","2843","","","","","","","0","0","1","","0.283533164","0.6","0.4","0.2","0.8","0.283533164","0.4294180747","0.06891525065","0.2694081366","","","","","","","","","","","","","","72","H","0","img/none_selected.jpg","","180","main_expt",""
"","bandit","260","596238","0.0-222.0-0.0","02706489","wem/bandit_party_1","A20JA3YSZ8G6QY","either","8","1057","","","","","","","0","0","1","0.2430023428","","0.6","0.4","0.2","0.8","","","","","0.2430023428","0.3887332701","0.07407739619","0.2471628034","","","","","","","","","","72","H","0","img/none_selected.jpg","","181","main_expt",""
"","bandit","261","599568","0.0-223.0-0.0","02706489","wem/bandit_party_1","A20JA3YSZ8G6QY","either","8","1814","","","","","","","0","0","1","","0.223254837","0.6","0.4","0.2","0.8","0.223254837","0.3910635387","0.07501704201","0.275372354","","","","","","","","","","","","","","72","H","0","img/none_selected.jpg","","182","main_expt",""
"","bandit","262","602473","0.0-224.0-0.0","02706489","wem/bandit_party_1","A20JA3YSZ8G6QY","either","8","1366","","","","","","","0","0","1","0.2274286797","","0.6","0.4","0.2","0.8","","","","","0.2274286797","0.3957792538","0.09354103142","0.2378950907","","","","","","","","","","72","H","0","img/none_selected.jpg","","183","main_expt",""
"","bandit","263","604109","0.0-225.0-0.0","02706489","wem/bandit_party_1","A20JA3YSZ8G6QY","either","8","101","","","","","","","0","0","1","","0.2485964068","0.6","0.4","0.2","0.8","0.2485964068","0.3777829694","0.06673830493","0.2611999536","","","","","","","","","","","","","","72","H","0","img/none_selected.jpg","","184","main_expt",""
"","bandit","264","605691","0.0-226.0-0.0","02706489","wem/bandit_party_1","A20JA3YSZ8G6QY","either","8","45","","","","","","","0","0","1","0.2080173303","","0.6","0.4","0.2","0.8","","","","","0.2080173303","0.4130939835","0.08617836821","0.2799245071","","","","","","","","","","72","H","0","img/none_selected.jpg","","185","main_expt",""
"","bandit","265","610394","0.0-227.0-0.0","02706489","wem/bandit_party_1","A20JA3YSZ8G6QY","either","8","3168","","","","","","","0","0","1","","0.2538883687","0.6","0.4","0.2","0.8","0.2538883687","0.376930599","0.05054014018","0.2275386122","","","","","","","","","","","","","","72","H","0","img/none_selected.jpg","","186","main_expt",""
"","bandit","266","612760","0.0-228.0-0.0","02706489","wem/bandit_party_1","A20JA3YSZ8G6QY","either","8","825","","","","","","","1","0","0","0.2267652077","","0.6","0.4","0.2","0.8","","","","","0.2267652077","0.3934592684","0.1101456656","0.2558518805","","","","","","","","","","72","H","0","img/none_selected.jpg","","187","main_expt",""
"","bandit","267","614429","0.0-229.0-0.0","02706489","wem/bandit_party_1","A20JA3YSZ8G6QY","either","8","133","","","","","","","0","0","1","0.2583789709","","0.6","0.4","0.2","0.8","","","","","0.2583789709","0.4086060551","0.1076418148","0.2757393749","","","","","","","","","","72","H","0","img/none_selected.jpg","","188","main_expt",""
"","bandit","268","619412","0.0-230.0-0.0","02706489","wem/bandit_party_1","A20JA3YSZ8G6QY","either","8","3447","","","","","","","0","0","1","0.2329768584","","0.6","0.4","0.2","0.8","","","","","0.2329768584","0.447145564","0.1230456027","0.3326758055","","","","","","","","","","72","H","0","img/none_selected.jpg","","189","main_expt",""
"","bandit","269","621386","0.0-231.0-0.0","02706489","wem/bandit_party_1","A20JA3YSZ8G6QY","either","8","446","","","","","","","0","0","1","","0.2002510669","0.6","0.4","0.2","0.8","0.2002510669","0.386091063","0.1872873117","0.332927569","","","","","","","","","","","","","","72","H","0","img/none_selected.jpg","","190","main_expt",""
"","bandit","270","623918","0.0-232.0-0.0","02706489","wem/bandit_party_1","A20JA3YSZ8G6QY","either","8","1000","","","","","","","1","0","0","0.2182600554","","0.6","0.4","0.2","0.8","","","","","0.2182600554","0.4221145333","0.1413073252","0.3859199101","","","","","","","","","","72","H","0","img/none_selected.jpg","","191","main_expt",""
"","bandit","271","625754","0.0-233.0-0.0","02706489","wem/bandit_party_1","A20JA3YSZ8G6QY","either","8","295","","","","","","","0","0","1","0.2681613901","","0.6","0.4","0.2","0.8","","","","","0.2681613901","0.3913199708","0.1868627967","0.392668484","","","","","","","","","","72","H","0","img/none_selected.jpg","","192","main_expt",""
"","bandit","272","627461","0.0-234.0-0.0","02706489","wem/bandit_party_1","A20JA3YSZ8G6QY","either","8","168","","","","","","","0","0","1","","0.4013624592","0.6","0.4","0.2","0.8","0.3035027483","0.4013624592","0.2312719224","0.3789843676","","","","","","","","","","","","","","74","J","1","","","193","main_expt",""
"","bandit","273","629004","0.0-235.0-0.0","02706489","wem/bandit_party_1","A20JA3YSZ8G6QY","either","8","1","","","","","","","1","0","0","0.275531754","","0.6","0.4","0.2","0.8","","","","","0.275531754","0.3668237699","0.2585201677","0.3689216281","","","","","","","","","","72","H","0","img/none_selected.jpg","","194","main_expt",""
"","bandit","274","630661","0.0-236.0-0.0","02706489","wem/bandit_party_1","A20JA3YSZ8G6QY","either","8","120","","","","","","","1","0","0","0.3856266791","","0.6","0.4","0.2","0.8","","","","","0.2716401532","0.3856266791","0.2786104129","0.4136905162","","","","","","","","","","74","J","1","","","195","main_expt",""
"","bandit","275","632319","0.0-237.0-0.0","02706489","wem/bandit_party_1","A20JA3YSZ8G6QY","either","8","123","","","","","","","1","0","0","0.2814611543","","0.6","0.4","0.2","0.8","","","","","0.2814611543","0.3702439493","0.2407834285","0.4258575101","","","","","","","","","","72","H","0","img/none_selected.jpg","","196","main_expt",""
"","bandit","276","634147","0.0-238.0-0.0","02706489","wem/bandit_party_1","A20JA3YSZ8G6QY","either","8","294","","","","","","","0","1","0","","0.3665926528","0.6","0.4","0.2","0.8","0.2588010394","0.3665926528","0.2550568011","0.3976178043","","","","","","","","","","","","","","74","J","1","","","197","main_expt",""
"","bandit","277","635773","0.0-239.0-0.0","02706489","wem/bandit_party_1","A20JA3YSZ8G6QY","either","8","115","","","","","","","0","0","1","0.3094610495","","0.6","0.4","0.2","0.8","","","","","0.3094610495","0.3432124584","0.3094863904","0.3802378075","","","","","","","","","","72","H","0","img/none_selected.jpg","","198","main_expt",""
"","bandit","278","637432","0.0-240.0-0.0","02706489","wem/bandit_party_1","A20JA3YSZ8G6QY","either","8","145","","","","","","","0","0","1","0.4096574544","","0.6","0.4","0.2","0.8","","","","","0.3139278769","0.4096574544","0.3012985694","0.3926800246","","","","","","","","","","74","J","1","","","199","main_expt",""
"","bandit","279","638975","0.0-241.0-0.0","02706489","wem/bandit_party_1","A20JA3YSZ8G6QY","either","8","13","","","","","","","1","0","0","0.3149132519","","0.6","0.4","0.2","0.8","","","","","0.3459706187","0.3799023259","0.3149132519","0.3814844917","","","","","","","","","","75","K","2","","","200","main_expt",""
"","bandit","280","640545","0.0-242.0-0.0","02706489","wem/bandit_party_1","A20JA3YSZ8G6QY","either","8","46","","","","","","","0","1","0","","0.3831630738","0.6","0.4","0.2","0.8","0.3038365479","0.3513783521","0.3236307962","0.3831630738","","","","","","","","","","","","","","76","L","3","","","201","main_expt",""
"","bandit","281","642174","0.0-243.0-0.0","02706489","wem/bandit_party_1","A20JA3YSZ8G6QY","either","8","86","","","","","","","0","1","0","","0.3163717903","0.6","0.4","0.2","0.8","0.2964599608","0.3439351057","0.3163717903","0.3957430938","","","","","","","","","","","","","","75","K","2","","","202","main_expt",""
"","bandit","282","643717","0.0-244.0-0.0","02706489","wem/bandit_party_1","A20JA3YSZ8G6QY","either","8","18","","","","","","","0","0","1","","0.4175506619","0.6","0.4","0.2","0.8","0.280336616","0.2615327891","0.3165936227","0.4175506619","","","","","","","","","","","","","","76","L","3","","","203","main_expt",""
"","bandit","283","645262","0.0-245.0-0.0","02706489","wem/bandit_party_1","A20JA3YSZ8G6QY","either","8","2","","","","","","","1","0","0","0.262900641","","0.6","0.4","0.2","0.8","","","","","0.262900641","0.2211517471","0.3166231072","0.4356800279","","","","","","","","","","72","H","0","img/none_selected.jpg","","204","main_expt",""
"","bandit","284","647219","0.0-246.0-0.0","02706489","wem/bandit_party_1","A20JA3YSZ8G6QY","either","8","410","","","","","","","1","0","0","0.1955747294","","0.6","0.4","0.2","0.8","","","","","0.3403150927","0.1955747294","0.2983153058","0.4342993254","","","","","","","","","","74","J","1","","","205","main_expt",""
"","bandit","285","648865","0.0-247.0-0.0","02706489","wem/bandit_party_1","A20JA3YSZ8G6QY","either","8","110","","","","","","","0","1","0","","0.3407188883","0.6","0.4","0.2","0.8","0.3407188883","0.3137251184","0.255573156","0.4515967499","","","","","","","","","","","","","","72","H","0","img/none_selected.jpg","","206","main_expt",""
"","bandit","286","650471","0.0-248.0-0.0","02706489","wem/bandit_party_1","A20JA3YSZ8G6QY","either","8","69","","","","","","","0","0","1","0.2982459604","","0.6","0.4","0.2","0.8","","","","","0.2955601217","0.2982459604","0.2816724171","0.4559700358","","","","","","","","","","74","J","1","","","207","main_expt",""
"","bandit","287","652147","0.0-249.0-0.0","02706489","wem/bandit_party_1","A20JA3YSZ8G6QY","either","8","138","","","","","","","0","0","1","","0.2462622089","0.6","0.4","0.2","0.8","0.2832193826","0.2359404152","0.2462622089","0.4711787588","","","","","","","","","","","","","","75","K","2","","","208","main_expt",""
"","bandit","288","653827","0.0-250.0-0.0","02706489","wem/bandit_party_1","A20JA3YSZ8G6QY","either","8","137","","","","","","","0","0","1","","0.4859779177","0.6","0.4","0.2","0.8","0.25637755","0.2396635106","0.2608633631","0.4859779177","","","","","","","","","","","","","","76","L","3","","","209","main_expt",""
"","bandit","289","655367","0.0-251.0-0.0","02706489","wem/bandit_party_1","A20JA3YSZ8G6QY","either","8","2","","","","","","","0","0","1","","0.2649708152","0.6","0.4","0.2","0.8","0.2500912527","0.2320506775","0.2649708152","0.4798195452","","","","","","","","","","","","","","75","K","2","","","210","main_expt",""
"","bandit","290","657168","0.0-252.0-0.0","02706489","wem/bandit_party_1","A20JA3YSZ8G6QY","either","8","269","","","","","","","1","0","0","0.4754072522","","0.6","0.4","0.2","0.8","","","","","0.2481129288","0.1894847828","0.2658594566","0.4754072522","","","","","","","","","","76","L","3","","","211","main_expt",""
"","bandit","291","659047","0.0-253.0-0.0","02706489","wem/bandit_party_1","A20JA3YSZ8G6QY","either","8","340","","","","","","","0","1","0","","0.2648449814","0.6","0.4","0.2","0.8","0.3192168596","0.2330804604","0.2648449814","0.4780703898","","","","","","","","","","","","","","75","K","2","","","212","main_expt",""
"","bandit","292","660691","0.0-254.0-0.0","02706489","wem/bandit_party_1","A20JA3YSZ8G6QY","either","8","102","","","","","","","1","0","0","0.4883488692","","0.6","0.4","0.2","0.8","","","","","0.2361953268","0.2484053244","0.286492297","0.4883488692","","","","","","","","","","76","L","3","","","213","main_expt",""
"","bandit","293","662316","0.0-255.0-0.0","02706489","wem/bandit_party_1","A20JA3YSZ8G6QY","either","8","83","","","","","","","0","0","1","0.2308921763","","0.6","0.4","0.2","0.8","","","","","0.2308921763","0.2182548364","0.2540339129","0.4872562331","","","","","","","","","","72","H","0","img/none_selected.jpg","","214","main_expt",""
"","bandit","294","663912","0.0-256.0-0.0","02706489","wem/bandit_party_1","A20JA3YSZ8G6QY","either","8","54","","","","","","","0","1","0","","0.1824073789","0.6","0.4","0.2","0.8","0.2161033537","0.1824073789","0.254651127","0.4749609167","","","","","","","","","","","","","","74","J","1","","","215","main_expt",""
"","bandit","295","665809","0.0-257.0-0.0","02706489","wem/bandit_party_1","A20JA3YSZ8G6QY","either","8","354","","","","","","","0","1","0","","0.3140517816","0.6","0.4","0.2","0.8","0.1896756427","0.1923730387","0.3140517816","0.4798413464","","","","","","","","","","","","","","75","K","2","","","216","main_expt",""
"","bandit","296","667390","0.0-258.0-0.0","02706489","wem/bandit_party_1","A20JA3YSZ8G6QY","either","8","40","","","","","","","0","0","1","0.4865144435","","0.6","0.4","0.2","0.8","","","","","0.1724286307","0.2266612446","0.3338676317","0.4865144435","","","","","","","","","","76","L","3","","","217","main_expt",""
"","bandit","297","668976","0.0-259.0-0.0","02706489","wem/bandit_party_1","A20JA3YSZ8G6QY","either","8","43","","","","","","","0","0","1","","0.1702705737","0.6","0.4","0.2","0.8","0.161168334","0.1702705737","0.3397001125","0.4789145001","","","","","","","","","","","","","","74","J","1","","","218","main_expt",""
"","bandit","298","670775","0.0-260.0-0.0","02706489","wem/bandit_party_1","A20JA3YSZ8G6QY","either","8","254","","","","","","","0","0","1","0.2021763003","","0.6","0.4","0.2","0.8","","","","","0.2021763003","0.1159766116","0.2982528089","0.4834748692","","","","","","","","","","72","H","0","img/none_selected.jpg","","219","main_expt",""
"","bandit","299","673706","0.0-261.0-0.0","02706489","wem/bandit_party_1","A20JA3YSZ8G6QY","either","8","1387","","","","","","","0","0","1","0.09529473055","","0.6","0.4","0.2","0.8","","","","","0.2142164272","0.09529473055","0.2770934022","0.4722371777","","","","","","","","","","74","J","1","","","220","main_expt",""
"","bandit","300","675380","0.0-262.0-0.0","02706489","wem/bandit_party_1","A20JA3YSZ8G6QY","either","8","140","","","","","","","0","0","1","0.4654689219","","0.6","0.4","0.2","0.8","","","","","0.189068297","0.09060922323","0.2696770889","0.4654689219","","","","","","","","","","76","L","3","","","221","main_expt",""
"","bandit","301","676997","0.0-263.0-0.0","02706489","wem/bandit_party_1","A20JA3YSZ8G6QY","either","8","77","","","","","","","0","0","1","0.2120997892","","0.6","0.4","0.2","0.8","","","","","0.2120997892","0.1250772464","0.3103502417","0.4533789701","","","","","","","","","","72","H","0","img/none_selected.jpg","","222","main_expt",""
"","bandit","302","679487","0.0-264.0-0.0","02706489","wem/bandit_party_1","A20JA3YSZ8G6QY","either","8","947","","","","","","","0","0","1","","0.1177235221","0.6","0.4","0.2","0.8","0.1937664477","0.1177235221","0.3477728299","0.4473019993","","","","","","","","","","","","","","74","J","1","","","223","main_expt",""
"","bandit","303","681121","0.0-265.0-0.0","02706489","wem/bandit_party_1","A20JA3YSZ8G6QY","either","8","97","","","","","","","0","1","0","","0.2195846313","0.6","0.4","0.2","0.8","0.2195846313","0.1589673504","0.3230244909","0.4651086175","","","","","","","","","","","","","","72","H","0","img/none_selected.jpg","","224","main_expt",""
"","bandit","304","682719","0.0-266.0-0.0","02706489","wem/bandit_party_1","A20JA3YSZ8G6QY","either","8","64","","","","","","","1","0","0","0.3641913847","","0.6","0.4","0.2","0.8","","","","","0.1973587738","0.1582937281","0.3641913847","0.4704934375","","","","","","","","","","75","K","2","","","225","main_expt",""
"","bandit","305","684278","0.0-267.0-0.0","02706489","wem/bandit_party_1","A20JA3YSZ8G6QY","either","8","24","","","","","","","0","0","1","0.4545632724","","0.6","0.4","0.2","0.8","","","","","0.2029059012","0.1585786296","0.3211822138","0.4545632724","","","","","","","","","","76","L","3","","","226","main_expt",""
"","bandit","306","685899","0.0-268.0-0.0","02706489","wem/bandit_party_1","A20JA3YSZ8G6QY","either","8","87","","","","","","","0","0","1","0.1677618241","","0.6","0.4","0.2","0.8","","","","","0.1677618241","0.1614007709","0.3318596792","0.4313330006","","","","","","","","","","72","H","0","img/none_selected.jpg","","227","main_expt",""
"","bandit","307","687639","0.0-269.0-0.0","02706489","wem/bandit_party_1","A20JA3YSZ8G6QY","either","8","196","","","","","","","0","0","1","","0.1160982884","0.6","0.4","0.2","0.8","0.2079318551","0.1160982884","0.3715738924","0.4253897179","","","","","","","","","","","","","","74","J","1","","","228","main_expt",""
"","bandit","308","689277","0.0-270.0-0.0","02706489","wem/bandit_party_1","A20JA3YSZ8G6QY","either","8","93","","","","","","","0","0","1","","0.3571583743","0.6","0.4","0.2","0.8","0.1860779256","0.1327168588","0.3571583743","0.4416009531","","","","","","","","","","","","","","75","K","2","","","229","main_expt",""
"","bandit","309","691266","0.0-271.0-0.0","02706489","wem/bandit_party_1","A20JA3YSZ8G6QY","either","8","470","","","","","","","0","0","1","0.1294985144","","0.6","0.4","0.2","0.8","","","","","0.1294985144","0.1751239199","0.3455313741","0.4612445757","","","","","","","","","","72","H","0","img/none_selected.jpg","","230","main_expt",""
"","bandit","310","692814","0.0-272.0-0.0","02706489","wem/bandit_party_1","A20JA3YSZ8G6QY","either","8","3","","","","","","","0","0","1","","0.2080149414","0.6","0.4","0.2","0.8","0.1424139305","0.2080149414","0.3114256563","0.4455927364","","","","","","","","","","","","","","74","J","1","","","231","main_expt",""
"","bandit","311","694356","0.0-273.0-0.0","02706489","wem/bandit_party_1","A20JA3YSZ8G6QY","either","8","6","","","","","","","1","0","0","0.4449483857","","0.6","0.4","0.2","0.8","","","","","0.1777617008","0.2305008548","0.3127001645","0.4449483857","","","","","","","","","","76","L","3","","","232","main_expt",""
"","bandit","312","696069","0.0-274.0-0.0","02706489","wem/bandit_party_1","A20JA3YSZ8G6QY","either","8","175","","","","","","","0","0","1","","0.2331895239","0.6","0.4","0.2","0.8","0.1408291819","0.2331895239","0.2953609795","0.4570404202","","","","","","","","","","","","","","74","J","1","","","233","main_expt",""
