"consent","trial_type","trial_index","time_elapsed","internal_node_id","subjID","study","MID","cond","drift","rt","responses","button_pressed","key_press","like","value","connected","gems","bombs","no_reward","GemPrChosen","BombPrChosen","GainOverPainPr_0","GainOverPainPr_1","GainOverPainPr_2","GainOverPainPr_3","LosePr_0","LosePr_1","LosePr_2","LosePr_3","WinPr_0","WinPr_1","WinPr_2","WinPr_3","Q0","Q1","Q2","gender","age","ethnicity","label","expt_phase","target","respCharCode","respKey","respChoiceNum","respChoice","practice","trial_counter","trial_label","Q0_index","view_history"
"GDM/GDM_behavioral_consent_30min_online.html","consent","0","36219","0.0-0.0","02987400","wem/bandit_party_1","A3MF31JQ350ABS","either","5","","","","","","","","","","","","","","","","","","","","","","","","","","","","","","","","","","","","","","","","","",""
"","survey-text","1","44490","0.0-1.0","02987400","wem/bandit_party_1","A3MF31JQ350ABS","either","5","7259","{""Q0"":""A3MF31JQ350ABS""}","","","","","","","","","","","","","","","","","","","","","","","","","","","","","","","","","","","","","","","",""
"","button-response","2","47548","0.0-2.0","02987400","wem/bandit_party_1","A3MF31JQ350ABS","either","5","2051","","0","","","","","","","","","","","","","","","","","","","","","","","","","","","","","","","","","","","","","","",""
"","text-replacement","3","61152","0.0-3.0","02987400","wem/bandit_party_1","A3MF31JQ350ABS","either","5","12599","","","32","","","","","","","","","","","","","","","","","","","","","","","","","","","","","","","","","","","","","",""
"","text-replacement","4","92915","0.0-4.0","02987400","wem/bandit_party_1","A3MF31JQ350ABS","either","5","31760","","","32","","","","","","","","","","","","","","","","","","","","","","","","","","","","","","","","","","","","","",""
"","identification","5","101699","0.0-6.0-0.0","02987400","wem/bandit_party_1","A3MF31JQ350ABS","either","5","8757","","","","3","3","3","","","","","","","","","","","","","","","","","","","","","","","","pre","identification_pre","the Republican party","","","","","","","","",""
"","identification","6","107661","0.0-6.0-1.0","02987400","wem/bandit_party_1","A3MF31JQ350ABS","either","5","4941","","","","2","2","2","","","","","","","","","","","","","","","","","","","","","","","","pre","identification_pre","the Democratic Party","","","","","","","","",""
"","text-replacement","7","114088","0.0-7.0","02987400","wem/bandit_party_1","A3MF31JQ350ABS","either","5","5424","","","32","","","","","","","","","","","","","","","","","","","","","","","","","","","","","","","","","","","","","",""
"","text-replacement","8","121553","0.0-8.0","02987400","wem/bandit_party_1","A3MF31JQ350ABS","either","5","7458","","","32","","","","","","","","","","","","","","","","","","","","","","","","","","","","","","","","","","","","","",""
"","text-replacement","9","136485","0.0-9.0","02987400","wem/bandit_party_1","A3MF31JQ350ABS","either","5","14927","","","32","","","","","","","","","","","","","","","","","","","","","","","","","","","","","","","","","","","","","",""
"","text-replacement","10","141479","0.0-10.0","02987400","wem/bandit_party_1","A3MF31JQ350ABS","either","5","4991","","","32","","","","","","","","","","","","","","","","","","","","","","","","","","","","","","","","","","","","","",""
"","text-replacement","11","145804","0.0-11.0","02987400","wem/bandit_party_1","A3MF31JQ350ABS","either","5","4321","","","32","","","","","","","","","","","","","","","","","","","","","","","","","","","","","","","","","","","","","",""
"","bandit","12","153146","0.0-12.0-0.0","02987400","wem/bandit_party_1","A3MF31JQ350ABS","either","5","5830","","","","","","","0","0","1","0","0","","","","","0","","","","0","","","","","","","","","","","","","74","J","0","img/none_selected_demo.jpg","true","0","","",""
"","bandit","13","155451","0.0-13.0-0.0","02987400","wem/bandit_party_1","A3MF31JQ350ABS","either","5","795","","","","","","","0","0","1","0","0","","","","","0","","","","0","","","","","","","","","","","","","75","K","0","img/none_selected_demo.jpg","true","0","","",""
"","text-replacement","14","158457","0.0-14.0","02987400","wem/bandit_party_1","A3MF31JQ350ABS","either","5","3003","","","32","","","","","","","","","","","","","","","","","","","","","","","","","","","","","","","","","","","","","",""
"","text-replacement","15","164415","0.0-15.0","02987400","wem/bandit_party_1","A3MF31JQ350ABS","either","5","5958","","","32","","","","","","","","","","","","","","","","","","","","","","","","","","","","","","","","","","","","","",""
"","text-replacement","16","172776","0.0-16.0","02987400","wem/bandit_party_1","A3MF31JQ350ABS","either","5","8359","","","32","","","","","","","","","","","","","","","","","","","","","","","","","","","","","","","","","","","","","",""
"","text-replacement","17","179966","0.0-17.0","02987400","wem/bandit_party_1","A3MF31JQ350ABS","either","5","7186","","","32","","","","","","","","","","","","","","","","","","","","","","","","","","","","","","","","","","","","","",""
"","bandit","18","182995","0.0-18.0-0.0","02987400","wem/bandit_party_1","A3MF31JQ350ABS","either","5","1521","","","","","","","0","1","0","","0.2","0.5","0.5","","","0.8","0.2","","","","","","","","","","","","","","","","75","K","1","","true","0","80_20_practice","",""
"","bandit","19","186532","0.0-18.0-1.0","02987400","wem/bandit_party_1","A3MF31JQ350ABS","either","5","2028","","","","","","","0","0","1","","0.2","0.5","0.5","","","0.8","0.2","","","","","","","","","","","","","","","","75","K","1","","true","0","80_20_practice","",""
"","bandit","20","189066","0.0-18.0-2.0","02987400","wem/bandit_party_1","A3MF31JQ350ABS","either","5","1025","","","","","","","0","0","1","","0.8","0.5","0.5","","","0.8","0.2","","","","","","","","","","","","","","","","74","J","0","img/none_selected_demo.jpg","true","0","80_20_practice","",""
"","bandit","21","191510","0.0-18.0-3.0","02987400","wem/bandit_party_1","A3MF31JQ350ABS","either","5","936","","","","","","","0","0","1","","0.2","0.5","0.5","","","0.8","0.2","","","","","","","","","","","","","","","","75","K","1","","true","0","80_20_practice","",""
"","bandit","22","193528","0.0-18.0-4.0","02987400","wem/bandit_party_1","A3MF31JQ350ABS","either","5","504","","","","","","","0","0","1","","0.2","0.5","0.5","","","0.8","0.2","","","","","","","","","","","","","","","","75","K","1","","true","0","80_20_practice","",""
"","bandit","23","195330","0.0-18.0-5.0","02987400","wem/bandit_party_1","A3MF31JQ350ABS","either","5","291","","","","","","","0","1","0","","0.8","0.5","0.5","","","0.8","0.2","","","","","","","","","","","","","","","","74","J","0","img/none_selected_demo.jpg","true","0","80_20_practice","",""
"","bandit","24","197311","0.0-18.0-6.0","02987400","wem/bandit_party_1","A3MF31JQ350ABS","either","5","471","","","","","","","1","0","0","0.8","","0.5","0.5","","","","","","","0.8","0.2","","","","","","","","","","","","74","J","0","img/none_selected_demo.jpg","true","0","80_20_practice","",""
"","bandit","25","199424","0.0-18.0-7.0","02987400","wem/bandit_party_1","A3MF31JQ350ABS","either","5","602","","","","","","","0","1","0","","0.8","0.5","0.5","","","0.8","0.2","","","","","","","","","","","","","","","","74","J","0","img/none_selected_demo.jpg","true","0","80_20_practice","",""
"","bandit","26","201356","0.0-18.0-8.0","02987400","wem/bandit_party_1","A3MF31JQ350ABS","either","5","422","","","","","","","0","0","1","","0.8","0.5","0.5","","","0.8","0.2","","","","","","","","","","","","","","","","74","J","0","img/none_selected_demo.jpg","true","0","80_20_practice","",""
"","bandit","27","203232","0.0-18.0-9.0","02987400","wem/bandit_party_1","A3MF31JQ350ABS","either","5","365","","","","","","","0","0","1","0.2","","0.5","0.5","","","","","","","0.8","0.2","","","","","","","","","","","","75","K","1","","true","0","80_20_practice","",""
"","bandit","28","205088","0.0-18.0-10.0","02987400","wem/bandit_party_1","A3MF31JQ350ABS","either","5","348","","","","","","","1","0","0","0.8","","0.5","0.5","","","","","","","0.8","0.2","","","","","","","","","","","","74","J","0","img/none_selected_demo.jpg","true","0","80_20_practice","",""
"","bandit","29","207027","0.0-18.0-11.0","02987400","wem/bandit_party_1","A3MF31JQ350ABS","either","5","430","","","","","","","0","1","0","","0.8","0.5","0.5","","","0.8","0.2","","","","","","","","","","","","","","","","74","J","0","img/none_selected_demo.jpg","true","0","80_20_practice","",""
"","bandit","30","208972","0.0-18.0-12.0","02987400","wem/bandit_party_1","A3MF31JQ350ABS","either","5","435","","","","","","","0","1","0","","0.8","0.5","0.5","","","0.8","0.2","","","","","","","","","","","","","","","","74","J","0","img/none_selected_demo.jpg","true","0","80_20_practice","",""
"","bandit","31","211323","0.0-18.0-13.0","02987400","wem/bandit_party_1","A3MF31JQ350ABS","either","5","842","","","","","","","1","0","0","0.8","","0.5","0.5","","","","","","","0.8","0.2","","","","","","","","","","","","74","J","0","img/none_selected_demo.jpg","true","0","80_20_practice","",""
"","bandit","32","213245","0.0-18.0-14.0","02987400","wem/bandit_party_1","A3MF31JQ350ABS","either","5","409","","","","","","","0","0","1","","0.2","0.5","0.5","","","0.8","0.2","","","","","","","","","","","","","","","","75","K","1","","true","0","80_20_practice","",""
"","bandit","33","215166","0.0-18.0-15.0","02987400","wem/bandit_party_1","A3MF31JQ350ABS","either","5","412","","","","","","","0","1","0","","0.8","0.5","0.5","","","0.8","0.2","","","","","","","","","","","","","","","","74","J","0","img/none_selected_demo.jpg","true","0","80_20_practice","",""
"","bandit","34","217193","0.0-18.0-16.0","02987400","wem/bandit_party_1","A3MF31JQ350ABS","either","5","518","","","","","","","0","0","1","0.8","","0.5","0.5","","","","","","","0.8","0.2","","","","","","","","","","","","74","J","0","img/none_selected_demo.jpg","true","0","80_20_practice","",""
"","bandit","35","223995","0.0-18.0-17.0","02987400","wem/bandit_party_1","A3MF31JQ350ABS","either","5","5292","","","","","","","0","1","0","","0.8","0.5","0.5","","","0.8","0.2","","","","","","","","","","","","","","","","74","J","0","img/none_selected_demo.jpg","true","0","80_20_practice","",""
"","bandit","36","225969","0.0-18.0-18.0","02987400","wem/bandit_party_1","A3MF31JQ350ABS","either","5","464","","","","","","","0","1","0","","0.8","0.5","0.5","","","0.8","0.2","","","","","","","","","","","","","","","","74","J","0","img/none_selected_demo.jpg","true","0","80_20_practice","",""
"","bandit","37","227892","0.0-18.0-19.0","02987400","wem/bandit_party_1","A3MF31JQ350ABS","either","5","412","","","","","","","0","1","0","","0.8","0.5","0.5","","","0.8","0.2","","","","","","","","","","","","","","","","74","J","0","img/none_selected_demo.jpg","true","0","80_20_practice","",""
"","text-replacement","38","233258","0.0-19.0","02987400","wem/bandit_party_1","A3MF31JQ350ABS","either","5","5362","","","32","","","","","","","","","","","","","","","","","","","","","","","","","","","","","","","","","","","","","",""
"","bandit","39","235511","0.0-20.0-0.0","02987400","wem/bandit_party_1","A3MF31JQ350ABS","either","5","741","","","","","","","1","0","0","1","0","","","","","0","1","","","1","0","","","","","","","","","","","","74","J","0","img/none_selected_demo.jpg","true","0","","",""
"","text-replacement","40","238181","0.0-21.0","02987400","wem/bandit_party_1","A3MF31JQ350ABS","either","5","2665","","","32","","","","","","","","","","","","","","","","","","","","","","","","","","","","","","","","","","","","","",""
"","text-replacement","41","241658","0.0-22.0","02987400","wem/bandit_party_1","A3MF31JQ350ABS","either","5","3473","","","32","","","","","","","","","","","","","","","","","","","","","","","","","","","","","","","","","","","","","",""
"","text-replacement","42","244714","0.0-23.0","02987400","wem/bandit_party_1","A3MF31JQ350ABS","either","5","3053","","","32","","","","","","","","","","","","","","","","","","","","","","","","","","","","","","","","","","","","","",""
"","text-replacement","43","247233","0.0-24.0","02987400","wem/bandit_party_1","A3MF31JQ350ABS","either","5","2512","","","32","","","","","","","","","","","","","","","","","","","","","","","","","","","","","","","","","","","","","",""
"","text-replacement","44","249658","0.0-25.0","02987400","wem/bandit_party_1","A3MF31JQ350ABS","either","5","2421","","","32","","","","","","","","","","","","","","","","","","","","","","","","","","","","","","","","","","","","","",""
"","text-replacement","45","250554","0.0-26.0","02987400","wem/bandit_party_1","A3MF31JQ350ABS","either","5","893","","","32","","","","","","","","","","","","","","","","","","","","","","","","","","","","","","","","","","","","","",""
"","text-replacement","46","253083","0.0-27.0","02987400","wem/bandit_party_1","A3MF31JQ350ABS","either","5","2526","","","32","","","","","","","","","","","","","","","","","","","","","","","","","","","","","","","","","","","","","",""
"","text-replacement","47","254797","0.0-28.0","02987400","wem/bandit_party_1","A3MF31JQ350ABS","either","5","1711","","","32","","","","","","","","","","","","","","","","","","","","","","","","","","","","","","","","","","","","","",""
"","text-replacement","48","255580","0.0-29.0","02987400","wem/bandit_party_1","A3MF31JQ350ABS","either","5","779","","","32","","","","","","","","","","","","","","","","","","","","","","","","","","","","","","","","","","","","","",""
"","text-replacement","49","256865","0.0-30.0","02987400","wem/bandit_party_1","A3MF31JQ350ABS","either","5","1280","","","32","","","","","","","","","","","","","","","","","","","","","","","","","","","","","","","","","","","","","",""
"","text-replacement","50","260041","0.0-31.0","02987400","wem/bandit_party_1","A3MF31JQ350ABS","either","5","3173","","","32","","","","","","","","","","","","","","","","","","","","","","","","","","","","","","","","","","","","","",""
"","bandit","51","262787","0.0-32.0-0.0","02987400","wem/bandit_party_1","A3MF31JQ350ABS","either","5","1238","","","","","","","0","1","0","","0.8","0.5","0.5","0.5","0.5","0.8","0.2","0.6","0.2","","","","","","","","","","","","","","72","H","0","img/none_selected.jpg","true","0","full_practice","",""
"","bandit","52","264802","0.0-32.0-1.0","02987400","wem/bandit_party_1","A3MF31JQ350ABS","either","5","505","","","","","","","0","0","1","","0.2","0.5","0.5","0.5","0.5","0.8","0.2","0.6","0.2","","","","","","","","","","","","","","76","L","3","","true","0","full_practice","",""
"","bandit","53","266982","0.0-32.0-2.0","02987400","wem/bandit_party_1","A3MF31JQ350ABS","either","5","668","","","","","","","0","0","1","0.8","","0.5","0.5","0.5","0.5","","","","","0.8","0.2","0.6","0.2","","","","","","","","","","72","H","0","img/none_selected.jpg","true","0","full_practice","",""
"","bandit","54","268817","0.0-32.0-3.0","02987400","wem/bandit_party_1","A3MF31JQ350ABS","either","5","324","","","","","","","0","0","1","0.2","","0.5","0.5","0.5","0.5","","","","","0.8","0.2","0.6","0.2","","","","","","","","","","74","J","1","","true","0","full_practice","",""
"","bandit","55","270677","0.0-32.0-4.0","02987400","wem/bandit_party_1","A3MF31JQ350ABS","either","5","349","","","","","","","0","0","1","","0.8","0.5","0.5","0.5","0.5","0.8","0.2","0.6","0.2","","","","","","","","","","","","","","72","H","0","img/none_selected.jpg","true","0","full_practice","",""
"","bandit","56","272459","0.0-32.0-5.0","02987400","wem/bandit_party_1","A3MF31JQ350ABS","either","5","270","","","","","","","0","1","0","","0.6","0.5","0.5","0.5","0.5","0.8","0.2","0.6","0.2","","","","","","","","","","","","","","75","K","2","","true","0","full_practice","",""
"","bandit","57","274355","0.0-32.0-6.0","02987400","wem/bandit_party_1","A3MF31JQ350ABS","either","5","389","","","","","","","0","1","0","","0.6","0.5","0.5","0.5","0.5","0.8","0.2","0.6","0.2","","","","","","","","","","","","","","75","K","2","","true","0","full_practice","",""
"","bandit","58","276693","0.0-32.0-7.0","02987400","wem/bandit_party_1","A3MF31JQ350ABS","either","5","829","","","","","","","1","0","0","0.2","","0.5","0.5","0.5","0.5","","","","","0.8","0.2","0.6","0.2","","","","","","","","","","74","J","1","","true","0","full_practice","",""
"","bandit","59","278568","0.0-32.0-8.0","02987400","wem/bandit_party_1","A3MF31JQ350ABS","either","5","366","","","","","","","1","0","0","0.6","","0.5","0.5","0.5","0.5","","","","","0.8","0.2","0.6","0.2","","","","","","","","","","75","K","2","","true","0","full_practice","",""
"","bandit","60","280455","0.0-32.0-9.0","02987400","wem/bandit_party_1","A3MF31JQ350ABS","either","5","374","","","","","","","0","0","1","","0.2","0.5","0.5","0.5","0.5","0.8","0.2","0.6","0.2","","","","","","","","","","","","","","74","J","1","","true","0","full_practice","",""
"","bandit","61","282305","0.0-32.0-10.0","02987400","wem/bandit_party_1","A3MF31JQ350ABS","either","5","342","","","","","","","1","0","0","0.8","","0.5","0.5","0.5","0.5","","","","","0.8","0.2","0.6","0.2","","","","","","","","","","72","H","0","img/none_selected.jpg","true","0","full_practice","",""
"","bandit","62","284010","0.0-32.0-11.0","02987400","wem/bandit_party_1","A3MF31JQ350ABS","either","5","194","","","","","","","0","0","1","","0.2","0.5","0.5","0.5","0.5","0.8","0.2","0.6","0.2","","","","","","","","","","","","","","76","L","3","","true","0","full_practice","",""
"","bandit","63","285756","0.0-32.0-12.0","02987400","wem/bandit_party_1","A3MF31JQ350ABS","either","5","231","","","","","","","0","0","1","","0.6","0.5","0.5","0.5","0.5","0.8","0.2","0.6","0.2","","","","","","","","","","","","","","75","K","2","","true","0","full_practice","",""
"","bandit","64","287561","0.0-32.0-13.0","02987400","wem/bandit_party_1","A3MF31JQ350ABS","either","5","296","","","","","","","0","0","1","0.6","","0.5","0.5","0.5","0.5","","","","","0.8","0.2","0.6","0.2","","","","","","","","","","75","K","2","","true","0","full_practice","",""
"","bandit","65","289278","0.0-32.0-14.0","02987400","wem/bandit_party_1","A3MF31JQ350ABS","either","5","206","","","","","","","0","1","0","","0.8","0.5","0.5","0.5","0.5","0.8","0.2","0.6","0.2","","","","","","","","","","","","","","72","H","0","img/none_selected.jpg","true","0","full_practice","",""
"","bandit","66","291071","0.0-32.0-15.0","02987400","wem/bandit_party_1","A3MF31JQ350ABS","either","5","279","","","","","","","0","1","0","","0.8","0.5","0.5","0.5","0.5","0.8","0.2","0.6","0.2","","","","","","","","","","","","","","72","H","0","img/none_selected.jpg","true","0","full_practice","",""
"","bandit","67","293290","0.0-32.0-16.0","02987400","wem/bandit_party_1","A3MF31JQ350ABS","either","5","711","","","","","","","0","1","0","","0.8","0.5","0.5","0.5","0.5","0.8","0.2","0.6","0.2","","","","","","","","","","","","","","72","H","0","img/none_selected.jpg","true","0","full_practice","",""
"","bandit","68","295166","0.0-32.0-17.0","02987400","wem/bandit_party_1","A3MF31JQ350ABS","either","5","366","","","","","","","0","0","1","","0.6","0.5","0.5","0.5","0.5","0.8","0.2","0.6","0.2","","","","","","","","","","","","","","75","K","2","","true","0","full_practice","",""
"","bandit","69","296722","0.0-32.0-18.0","02987400","wem/bandit_party_1","A3MF31JQ350ABS","either","5","42","","","","","","","0","1","0","","0.8","0.5","0.5","0.5","0.5","0.8","0.2","0.6","0.2","","","","","","","","","","","","","","72","H","0","img/none_selected.jpg","true","0","full_practice","",""
"","bandit","70","298989","0.0-32.0-19.0","02987400","wem/bandit_party_1","A3MF31JQ350ABS","either","5","756","","","","","","","0","1","0","","0.8","0.5","0.5","0.5","0.5","0.8","0.2","0.6","0.2","","","","","","","","","","","","","","72","H","0","img/none_selected.jpg","true","0","full_practice","",""
"","text","71","303246","0.0-33.0","02987400","wem/bandit_party_1","A3MF31JQ350ABS","either","5","4236","","","32","","","","","","","","","","","","","","","","","","","","","","","","","","","","","","","","","","","","","",""
"","text-replacement","72","315166","0.0-34.0","02987400","wem/bandit_party_1","A3MF31JQ350ABS","either","5","10913","","","32","","","","","","","","","","","","","","","","","","","","","","","","","","","","","","","","","","","","","",""
"","text-replacement","73","330540","0.0-35.0","02987400","wem/bandit_party_1","A3MF31JQ350ABS","either","5","15369","","","32","","","","","","","","","","","","","","","","","","","","","","","","","","","","","","","","","","","","","",""
"","text-replacement","74","333571","0.0-36.0","02987400","wem/bandit_party_1","A3MF31JQ350ABS","either","5","3025","","","32","","","","","","","","","","","","","","","","","","","","","","","","","","","","","","","","","","","","","",""
"","text-replacement","75","336158","0.0-37.0","02987400","wem/bandit_party_1","A3MF31JQ350ABS","either","5","2579","","","32","","","","","","","","","","","","","","","","","","","","","","","","","","","","","","","","","","","","","",""
"","text-replacement","76","337770","0.0-38.0","02987400","wem/bandit_party_1","A3MF31JQ350ABS","either","5","1608","","","32","","","","","","","","","","","","","","","","","","","","","","","","","","","","","","","","","","","","","",""
"","survey-multi-choice-replacement","77","344314","0.0-39.0-0.0","02987400","wem/bandit_party_1","A3MF31JQ350ABS","either","5","6529","","","","","","","","","","","","","","","","","","","","","","","","Equal amounts of money will be added to the pool for <span style='color:red;'>REPUBLICANS</span> and subtracted from the pool for <span style='color:blue;'>DEMOCRATS</span>","","","","","","","attn_check","","","","","","","","","2",""
"","instructions","78","347116","0.0-39.0-1.0-0.0","02987400","wem/bandit_party_1","A3MF31JQ350ABS","either","5","1796","","","","","","","","","","","","","","","","","","","","","","","","","","","","","","","","","","","","","","","","","[{""page_index"":0,""viewing_time"":1795}]"
"","survey-multi-choice-replacement","79","357633","0.0-39.1-0.1","02987400","wem/bandit_party_1","A3MF31JQ350ABS","either","5","9502","","","","","","","","","","","","","","","","","","","","","","","","Money will be added to the pool for <span style='color:red;'>REPUBLICANS</span>","","","","","","","attn_check","","","","","","","","","0",""
"","survey-multi-choice-replacement","80","362966","0.0-40.0-0.0","02987400","wem/bandit_party_1","A3MF31JQ350ABS","either","5","4317","","","","","","","","","","","","","","","","","","","","","","","","Equal amounts of money will be added to the pool for <span style='color:red;'>REPUBLICANS</span> and subtracted from the pool for <span style='color:blue;'>DEMOCRATS</span>","","","","","","","attn_check","","","","","","","","","2",""
"","survey-multi-choice-replacement","81","366274","0.0-41.0-0.0","02987400","wem/bandit_party_1","A3MF31JQ350ABS","either","5","2291","","","","","","","","","","","","","","","","","","","","","","","","No money will be added to either pool","","","","","","","attn_check","","","","","","","","","3",""
"","bandit","82","371418","0.0-42.0-0.0","02987400","wem/bandit_party_1","A3MF31JQ350ABS","either","5","2626","","","","","","","0","0","1","","0.4265570961","0.6","0.2","0.8","0.4","0.4265570961","0.3897275569","0.3340388524","0.1165465043","","","","","","","","","","","","","","72","H","0","img/none_selected.jpg","","1","main_expt","",""
"","bandit","83","374800","0.0-43.0-0.0","02987400","wem/bandit_party_1","A3MF31JQ350ABS","either","5","1873","","","","","","","0","0","1","","0.3223834482","0.6","0.2","0.8","0.4","0.4177099958","0.3911966266","0.3223834482","0.08371899021","","","","","","","","","","","","","","75","K","2","","","2","main_expt","",""
"","bandit","84","376718","0.0-44.0-0.0","02987400","wem/bandit_party_1","A3MF31JQ350ABS","either","5","406","","","","","","","0","0","1","","0.04339790364","0.6","0.2","0.8","0.4","0.4192185534","0.4074861021","0.3585509001","0.04339790364","","","","","","","","","","","","","","76","L","3","","","3","main_expt","",""
"","bandit","85","378679","0.0-45.0-0.0","02987400","wem/bandit_party_1","A3MF31JQ350ABS","either","5","448","","","","","","","0","0","1","0.3965638453","","0.6","0.2","0.8","0.4","","","","","0.4241610434","0.3965638453","0.3416436242","0.04073472785","","","","","","","","","","74","J","1","","","4","main_expt","",""
"","bandit","86","380506","0.0-46.0-0.0","02987400","wem/bandit_party_1","A3MF31JQ350ABS","either","5","313","","","","","","","0","0","1","","0.04731773769","0.6","0.2","0.8","0.4","0.4284837315","0.3688269119","0.3444758892","0.04731773769","","","","","","","","","","","","","","76","L","3","","","5","main_expt","",""
"","bandit","87","382331","0.0-47.0-0.0","02987400","wem/bandit_party_1","A3MF31JQ350ABS","either","5","308","","","","","","","0","1","0","","0.3574177426","0.6","0.2","0.8","0.4","0.4328708062","0.3865867917","0.3574177426","0.05617088868","","","","","","","","","","","","","","75","K","2","","","6","main_expt","",""
"","bandit","88","384210","0.0-48.0-0.0","02987400","wem/bandit_party_1","A3MF31JQ350ABS","either","5","361","","","","","","","0","0","1","0.3634052143","","0.6","0.2","0.8","0.4","","","","","0.4176545671","0.4294719924","0.3634052143","0.05606577856","","","","","","","","","","75","K","2","","","7","main_expt","",""
"","bandit","89","386041","0.0-49.0-0.0","02987400","wem/bandit_party_1","A3MF31JQ350ABS","either","5","319","","","","","","","0","0","1","0.4022395488","","0.6","0.2","0.8","0.4","","","","","0.4022395488","0.4210378118","0.3675420607","0.09244853328","","","","","","","","","","72","H","0","img/none_selected.jpg","","8","main_expt","",""
"","bandit","90","387736","0.0-50.0-0.0","02987400","wem/bandit_party_1","A3MF31JQ350ABS","either","5","182","","","","","","","1","0","0","0.3921196104","","0.6","0.2","0.8","0.4","","","","","0.3929004949","0.4502112583","0.3921196104","0.1271341085","","","","","","","","","","75","K","2","","","9","main_expt","",""
"","bandit","91","389610","0.0-51.0-0.0","02987400","wem/bandit_party_1","A3MF31JQ350ABS","either","5","364","","","","","","","0","0","1","0.4026182126","","0.6","0.2","0.8","0.4","","","","","0.3863711448","0.4452653155","0.4026182126","0.1370717255","","","","","","","","","","75","K","2","","","10","main_expt","",""
"","bandit","92","391507","0.0-52.0-0.0","02987400","wem/bandit_party_1","A3MF31JQ350ABS","either","5","387","","","","","","","0","0","1","0.3543069494","","0.6","0.2","0.8","0.4","","","","","0.4205849279","0.4352349267","0.3543069494","0.1275050207","","","","","","","","","","75","K","2","","","11","main_expt","",""
"","bandit","93","393345","0.0-53.0-0.0","02987400","wem/bandit_party_1","A3MF31JQ350ABS","either","5","326","","","","","","","0","0","1","","0.4029030639","0.6","0.2","0.8","0.4","0.4525069231","0.4029030639","0.3504097904","0.122317004","","","","","","","","","","","","","","74","J","1","","","12","main_expt","",""
"","bandit","94","395175","0.0-54.0-0.0","02987400","wem/bandit_party_1","A3MF31JQ350ABS","either","5","319","","","","","","","0","0","1","","0.2787441393","0.6","0.2","0.8","0.4","0.4485799753","0.4198147105","0.2787441393","0.1251711411","","","","","","","","","","","","","","75","K","2","","","13","main_expt","",""
"","bandit","95","397384","0.0-55.0-0.0","02987400","wem/bandit_party_1","A3MF31JQ350ABS","either","5","697","","","","","","","0","0","1","","0.1380641988","0.6","0.2","0.8","0.4","0.4504049656","0.3761312174","0.2723245106","0.1380641988","","","","","","","","","","","","","","76","L","3","","","14","main_expt","",""
"","bandit","96","399269","0.0-56.0-0.0","02987400","wem/bandit_party_1","A3MF31JQ350ABS","either","5","372","","","","","","","0","0","1","","0.4017507227","0.6","0.2","0.8","0.4","0.4281165459","0.4017507227","0.3687644442","0.2010812313","","","","","","","","","","","","","","74","J","1","","","15","main_expt","",""
"","bandit","97","401141","0.0-57.0-0.0","02987400","wem/bandit_party_1","A3MF31JQ350ABS","either","5","361","","","","","","","0","0","1","0.3992289848","","0.6","0.2","0.8","0.4","","","","","0.4035101098","0.3859888637","0.3992289848","0.1747275657","","","","","","","","","","75","K","2","","","16","main_expt","",""
"","bandit","98","403042","0.0-58.0-0.0","02987400","wem/bandit_party_1","A3MF31JQ350ABS","either","5","387","","","","","","","1","0","0","0.4067061876","","0.6","0.2","0.8","0.4","","","","","0.4063691663","0.3706978481","0.4067061876","0.1816524112","","","","","","","","","","75","K","2","","","17","main_expt","",""
"","bandit","99","404926","0.0-59.0-0.0","02987400","wem/bandit_party_1","A3MF31JQ350ABS","either","5","373","","","","","","","1","0","0","0.3969002131","","0.6","0.2","0.8","0.4","","","","","0.4201618032","0.3323991027","0.3969002131","0.1700798448","","","","","","","","","","75","K","2","","","18","main_expt","",""
"","bandit","100","406802","0.0-60.0-0.0","02987400","wem/bandit_party_1","A3MF31JQ350ABS","either","5","363","","","","","","","0","0","1","0.3930099592","","0.6","0.2","0.8","0.4","","","","","0.3868389751","0.3301718366","0.3930099592","0.1998500639","","","","","","","","","","75","K","2","","","19","main_expt","",""
"","bandit","101","408734","0.0-61.0-0.0","02987400","wem/bandit_party_1","A3MF31JQ350ABS","either","5","420","","","","","","","0","0","1","","0.3868875991","0.6","0.2","0.8","0.4","0.3868875991","0.3714618997","0.3791602553","0.2418808817","","","","","","","","","","","","","","72","H","0","img/none_selected.jpg","","20","main_expt","",""
"","bandit","102","410989","0.0-62.0-0.0","02987400","wem/bandit_party_1","A3MF31JQ350ABS","either","5","742","","","","","","","0","0","1","","0.4127515201","0.6","0.2","0.8","0.4","0.4253770554","0.3621694591","0.4127515201","0.2293341009","","","","","","","","","","","","","","75","K","2","","","21","main_expt","",""
"","bandit","103","414072","0.0-63.0-0.0","02987400","wem/bandit_party_1","A3MF31JQ350ABS","either","5","1568","","","","","","","0","1","0","","0.4164833055","0.6","0.2","0.8","0.4","0.4285762007","0.3648829928","0.4164833055","0.2074184163","","","","","","","","","","","","","","75","K","2","","","22","main_expt","",""
"","bandit","104","416444","0.0-64.0-0.0","02987400","wem/bandit_party_1","A3MF31JQ350ABS","either","5","861","","","","","","","1","0","0","0.4082522222","","0.6","0.2","0.8","0.4","","","","","0.4082522222","0.2856994719","0.4143027846","0.1832507358","","","","","","","","","","72","H","0","img/none_selected.jpg","","23","main_expt","",""
"","bandit","105","418255","0.0-65.0-0.0","02987400","wem/bandit_party_1","A3MF31JQ350ABS","either","5","302","","","","","","","1","0","0","0.3649270698","","0.6","0.2","0.8","0.4","","","","","0.4027270218","0.3152516524","0.3649270698","0.1469425149","","","","","","","","","","75","K","2","","","24","main_expt","",""
"","bandit","106","420095","0.0-66.0-0.0","02987400","wem/bandit_party_1","A3MF31JQ350ABS","either","5","327","","","","","","","1","0","0","0.4100212433","","0.6","0.2","0.8","0.4","","","","","0.4100212433","0.2778145345","0.392676409","0.102794739","","","","","","","","","","72","H","0","img/none_selected.jpg","","25","main_expt","",""
"","bandit","107","421939","0.0-67.0-0.0","02987400","wem/bandit_party_1","A3MF31JQ350ABS","either","5","331","","","","","","","0","0","1","0.4031565401","","0.6","0.2","0.8","0.4","","","","","0.4190791169","0.3170506137","0.4031565401","0.1173732637","","","","","","","","","","75","K","2","","","26","main_expt","",""
"","bandit","108","423850","0.0-68.0-0.0","02987400","wem/bandit_party_1","A3MF31JQ350ABS","either","5","397","","","","","","","0","0","1","0.4527212376","","0.6","0.2","0.8","0.4","","","","","0.4527212376","0.3223143746","0.4245959001","0.08835016803","","","","","","","","","","72","H","0","img/none_selected.jpg","","27","main_expt","",""
"","bandit","109","428965","0.0-69.0-0.0","02987400","wem/bandit_party_1","A3MF31JQ350ABS","either","5","3602","","","","","","","1","0","0","0.4480998813","","0.6","0.2","0.8","0.4","","","","","0.4480998813","0.3234472479","0.4232885055","0.1134440288","","","","","","","","","","72","H","0","img/none_selected.jpg","","28","main_expt","",""
"","bandit","110","431036","0.0-70.0-0.0","02987400","wem/bandit_party_1","A3MF31JQ350ABS","either","5","560","","","","","","","0","0","1","0.4628669208","","0.6","0.2","0.8","0.4","","","","","0.4628669208","0.2881425904","0.4495512981","0.1982905849","","","","","","","","","","72","H","0","img/none_selected.jpg","","29","main_expt","",""
"","bandit","111","432866","0.0-71.0-0.0","02987400","wem/bandit_party_1","A3MF31JQ350ABS","either","5","319","","","","","","","0","1","0","","0.4485299892","0.6","0.2","0.8","0.4","0.4565655028","0.2326555855","0.4485299892","0.2366655967","","","","","","","","","","","","","","75","K","2","","","30","main_expt","",""
"","bandit","112","434751","0.0-72.0-0.0","02987400","wem/bandit_party_1","A3MF31JQ350ABS","either","5","372","","","","","","","0","0","1","0.4599237238","","0.6","0.2","0.8","0.4","","","","","0.4686031056","0.2364604256","0.4599237238","0.1622470467","","","","","","","","","","75","K","2","","","31","main_expt","",""
"","bandit","113","436669","0.0-73.0-0.0","02987400","wem/bandit_party_1","A3MF31JQ350ABS","either","5","403","","","","","","","0","0","1","","0.2451982598","0.6","0.2","0.8","0.4","0.4659582456","0.2451982598","0.4508116693","0.1771911602","","","","","","","","","","","","","","74","J","1","","","32","main_expt","",""
"","bandit","114","438536","0.0-74.0-0.0","02987400","wem/bandit_party_1","A3MF31JQ350ABS","either","5","355","","","","","","","0","0","1","0.1622836308","","0.6","0.2","0.8","0.4","","","","","0.4810757035","0.2360369815","0.45101727","0.1622836308","","","","","","","","","","76","L","3","","","33","main_expt","",""
"","bandit","115","440197","0.0-75.0-0.0","02987400","wem/bandit_party_1","A3MF31JQ350ABS","either","5","150","","","","","","","0","0","1","0.4340174653","","0.6","0.2","0.8","0.4","","","","","0.4842727378","0.2317763892","0.4340174653","0.1655985557","","","","","","","","","","75","K","2","","","34","main_expt","",""
"","bandit","116","442075","0.0-76.0-0.0","02987400","wem/bandit_party_1","A3MF31JQ350ABS","either","5","366","","","","","","","1","0","0","0.4745470136","","0.6","0.2","0.8","0.4","","","","","0.4745470136","0.2527891731","0.4040147441","0.1492797185","","","","","","","","","","72","H","0","img/none_selected.jpg","","35","main_expt","",""
"","bandit","117","443972","0.0-77.0-0.0","02987400","wem/bandit_party_1","A3MF31JQ350ABS","either","5","383","","","","","","","0","0","1","0.4440965139","","0.6","0.2","0.8","0.4","","","","","0.4440965139","0.2641283143","0.4268829696","0.1504543003","","","","","","","","","","72","H","0","img/none_selected.jpg","","36","main_expt","",""
"","bandit","118","445861","0.0-78.0-0.0","02987400","wem/bandit_party_1","A3MF31JQ350ABS","either","5","376","","","","","","","0","1","0","","0.4562327564","0.6","0.2","0.8","0.4","0.4544425755","0.2309310423","0.4562327564","0.1064249526","","","","","","","","","","","","","","75","K","2","","","37","main_expt","",""
"","bandit","119","447771","0.0-79.0-0.0","02987400","wem/bandit_party_1","A3MF31JQ350ABS","either","5","397","","","","","","","0","0","1","0.4481627861","","0.6","0.2","0.8","0.4","","","","","0.4700138218","0.2093170459","0.4481627861","0.1346530267","","","","","","","","","","75","K","2","","","38","main_expt","",""
"","bandit","120","449595","0.0-80.0-0.0","02987400","wem/bandit_party_1","A3MF31JQ350ABS","either","5","314","","","","","","","0","1","0","","0.466948448","0.6","0.2","0.8","0.4","0.466948448","0.1398625959","0.4475890948","0.1303494481","","","","","","","","","","","","","","72","H","0","img/none_selected.jpg","","39","main_expt","",""
"","bandit","121","451539","0.0-81.0-0.0","02987400","wem/bandit_party_1","A3MF31JQ350ABS","either","5","431","","","","","","","1","0","0","0.4679256248","","0.6","0.2","0.8","0.4","","","","","0.4679256248","0.09690087606","0.4501575696","0.1492074344","","","","","","","","","","72","H","0","img/none_selected.jpg","","40","main_expt","",""
"","bandit","122","453397","0.0-82.0-0.0","02987400","wem/bandit_party_1","A3MF31JQ350ABS","either","5","345","","","","","","","0","0","1","","0.4121884666","0.6","0.2","0.8","0.4","0.445537573","0.1129569356","0.4121884666","0.1370672299","","","","","","","","","","","","","","75","K","2","","","41","main_expt","",""
"","bandit","123","455313","0.0-83.0-0.0","02987400","wem/bandit_party_1","A3MF31JQ350ABS","either","5","401","","","","","","","0","0","1","0.1227033228","","0.6","0.2","0.8","0.4","","","","","0.4521531226","0.1227033228","0.4379939247","0.08144147181","","","","","","","","","","74","J","1","","","42","main_expt","",""
"","bandit","124","457040","0.0-84.0-0.0","02987400","wem/bandit_party_1","A3MF31JQ350ABS","either","5","215","","","","","","","0","0","1","0.06793865388","","0.6","0.2","0.8","0.4","","","","","0.4695072217","0.08393287497","0.4271747655","0.06793865388","","","","","","","","","","76","L","3","","","43","main_expt","",""
"","bandit","125","459471","0.0-85.0-0.0","02987400","wem/bandit_party_1","A3MF31JQ350ABS","either","5","915","","","","","","","1","0","0","0.4807409838","","0.6","0.2","0.8","0.4","","","","","0.4807409838","0.06260074275","0.4480494518","0.05295344446","","","","","","","","","","72","H","0","img/none_selected.jpg","","44","main_expt","",""
"","bandit","126","461343","0.0-86.0-0.0","02987400","wem/bandit_party_1","A3MF31JQ350ABS","either","5","360","","","","","","","0","0","1","0.4507048108","","0.6","0.2","0.8","0.4","","","","","0.4507048108","0.08062123592","0.4269729589","0.02744239742","","","","","","","","","","72","H","0","img/none_selected.jpg","","45","main_expt","",""
"","bandit","127","463138","0.0-87.0-0.0","02987400","wem/bandit_party_1","A3MF31JQ350ABS","either","5","284","","","","","","","1","0","0","0.4475746277","","0.6","0.2","0.8","0.4","","","","","0.4382321206","0.1110847749","0.4475746277","0.02347437243","","","","","","","","","","75","K","2","","","46","main_expt","",""
"","bandit","128","464929","0.0-88.0-0.0","02987400","wem/bandit_party_1","A3MF31JQ350ABS","either","5","281","","","","","","","1","0","0","0.4295618238","","0.6","0.2","0.8","0.4","","","","","0.4393937913","0.05346849493","0.4295618238","0.02418160198","","","","","","","","","","75","K","2","","","47","main_expt","",""
"","bandit","129","466715","0.0-89.0-0.0","02987400","wem/bandit_party_1","A3MF31JQ350ABS","either","5","273","","","","","","","1","0","0","0.4431907244","","0.6","0.2","0.8","0.4","","","","","0.440318131","0.04499733497","0.4431907244","0.01182676654","","","","","","","","","","75","K","2","","","48","main_expt","",""
"","bandit","130","468545","0.0-90.0-0.0","02987400","wem/bandit_party_1","A3MF31JQ350ABS","either","5","314","","","","","","","0","0","1","0.4187732916","","0.6","0.2","0.8","0.4","","","","","0.4362102412","0.07378534534","0.4187732916","0.0186287842","","","","","","","","","","75","K","2","","","49","main_expt","",""
"","bandit","131","470373","0.0-91.0-0.0","02987400","wem/bandit_party_1","A3MF31JQ350ABS","either","5","315","","","","","","","0","0","1","0.44488671","","0.6","0.2","0.8","0.4","","","","","0.44488671","0.06168845619","0.356579213","0.02550629551","","","","","","","","","","72","H","0","img/none_selected.jpg","","50","main_expt","",""
"","bandit","132","472084","0.0-92.0-0.0","02987400","wem/bandit_party_1","A3MF31JQ350ABS","either","5","199","","","","","","","0","0","1","0.2629404955","","0.6","0.2","0.8","0.4","","","","","0.4633405548","0.1062028567","0.2629404955","0.04366809707","","","","","","","","","","75","K","2","","","51","main_expt","",""
"","bandit","133","473994","0.0-93.0-0.0","02987400","wem/bandit_party_1","A3MF31JQ350ABS","either","5","399","","","","","","","0","0","1","","0.04357168116","0.6","0.2","0.8","0.4","0.4528043762","0.1379608546","0.2919747068","0.04357168116","","","","","","","","","","","","","","76","L","3","","","52","main_expt","",""
"","bandit","134","475808","0.0-94.0-0.0","02987400","wem/bandit_party_1","A3MF31JQ350ABS","either","5","303","","","","","","","0","0","1","","0.1356826849","0.6","0.2","0.8","0.4","0.4390431751","0.1356826849","0.3809901122","0.03899227154","","","","","","","","","","","","","","74","J","1","","","53","main_expt","",""
"","bandit","135","477509","0.0-95.0-0.0","02987400","wem/bandit_party_1","A3MF31JQ350ABS","either","5","192","","","","","","","1","0","0","0.3452518694","","0.6","0.2","0.8","0.4","","","","","0.4549270822","0.1038772241","0.3452518694","0.04009146386","","","","","","","","","","75","K","2","","","54","main_expt","",""
"","bandit","136","479382","0.0-96.0-0.0","02987400","wem/bandit_party_1","A3MF31JQ350ABS","either","5","357","","","","","","","0","0","1","","0.3263112327","0.6","0.2","0.8","0.4","0.4710341864","0.1689791829","0.3263112327","0.0155768565","","","","","","","","","","","","","","75","K","2","","","55","main_expt","",""
"","bandit","137","481237","0.0-97.0-0.0","02987400","wem/bandit_party_1","A3MF31JQ350ABS","either","5","339","","","","","","","0","0","1","0.3308963945","","0.6","0.2","0.8","0.4","","","","","0.4745834276","0.1108888145","0.3308963945","0.02112461672","","","","","","","","","","75","K","2","","","56","main_expt","",""
"","bandit","138","483102","0.0-98.0-0.0","02987400","wem/bandit_party_1","A3MF31JQ350ABS","either","5","352","","","","","","","0","0","1","0.489318572","","0.6","0.2","0.8","0.4","","","","","0.489318572","0.1206542402","0.3150326571","0.0126553198","","","","","","","","","","72","H","0","img/none_selected.jpg","","57","main_expt","",""
"","bandit","139","484993","0.0-99.0-0.0","02987400","wem/bandit_party_1","A3MF31JQ350ABS","either","5","371","","","","","","","1","0","0","0.480037986","","0.6","0.2","0.8","0.4","","","","","0.480037986","0.09707343937","0.3049116772","0.01131359515","","","","","","","","","","72","H","0","img/none_selected.jpg","","58","main_expt","",""
"","bandit","140","486877","0.0-100.0-0.0","02987400","wem/bandit_party_1","A3MF31JQ350ABS","either","5","367","","","","","","","0","1","0","","0.4593461039","0.6","0.2","0.8","0.4","0.4593461039","0.1044384952","0.3050987947","0.01030075821","","","","","","","","","","","","","","72","H","0","img/none_selected.jpg","","59","main_expt","",""
"","bandit","141","488725","0.0-101.0-0.0","02987400","wem/bandit_party_1","A3MF31JQ350ABS","either","5","336","","","","","","","0","1","0","","0.446051488","0.6","0.2","0.8","0.4","0.446051488","0.08890369623","0.3274009355","0.005868957973","","","","","","","","","","","","","","72","H","0","img/none_selected.jpg","","60","main_expt","",""
"","bandit","142","490581","0.0-102.0-0.0","02987400","wem/bandit_party_1","A3MF31JQ350ABS","either","5","341","","","","","","","0","0","1","","0.4391285327","0.6","0.2","0.8","0.4","0.4391285327","0.08921221942","0.3428943983","0.004361943215","","","","","","","","","","","","","","72","H","0","img/none_selected.jpg","","61","main_expt","",""
"","bandit","143","492387","0.0-103.0-0.0","02987400","wem/bandit_party_1","A3MF31JQ350ABS","either","5","292","","","","","","","0","0","1","","0.3549763931","0.6","0.2","0.8","0.4","0.4063883723","0.09812025034","0.3549763931","0.005208412743","","","","","","","","","","","","","","75","K","2","","","62","main_expt","",""
"","bandit","144","494264","0.0-104.0-0.0","02987400","wem/bandit_party_1","A3MF31JQ350ABS","either","5","366","","","","","","","1","0","0","0.4330387396","","0.6","0.2","0.8","0.4","","","","","0.4330387396","0.09006279409","0.3496678451","0.006461011255","","","","","","","","","","72","H","0","img/none_selected.jpg","","63","main_expt","",""
"","bandit","145","496138","0.0-105.0-0.0","02987400","wem/bandit_party_1","A3MF31JQ350ABS","either","5","357","","","","","","","1","0","0","0.4207902426","","0.6","0.2","0.8","0.4","","","","","0.4207902426","0.1118976224","0.3188537263","0.01267926231","","","","","","","","","","72","H","0","img/none_selected.jpg","","64","main_expt","",""
"","bandit","146","497973","0.0-106.0-0.0","02987400","wem/bandit_party_1","A3MF31JQ350ABS","either","5","321","","","","","","","0","0","1","0.3719582347","","0.6","0.2","0.8","0.4","","","","","0.3719582347","0.1053817613","0.3191795336","0.009732787917","","","","","","","","","","72","H","0","img/none_selected.jpg","","65","main_expt","",""
"","bandit","147","499765","0.0-107.0-0.0","02987400","wem/bandit_party_1","A3MF31JQ350ABS","either","5","279","","","","","","","1","0","0","0.268616347","","0.6","0.2","0.8","0.4","","","","","0.3748569955","0.1307356695","0.268616347","0.01092542651","","","","","","","","","","75","K","2","","","66","main_expt","",""
"","bandit","148","501573","0.0-108.0-0.0","02987400","wem/bandit_party_1","A3MF31JQ350ABS","either","5","293","","","","","","","1","0","0","0.259194563","","0.6","0.2","0.8","0.4","","","","","0.335252031","0.1418436428","0.259194563","0.02125534741","","","","","","","","","","75","K","2","","","67","main_expt","",""
"","bandit","149","503348","0.0-109.0-0.0","02987400","wem/bandit_party_1","A3MF31JQ350ABS","either","5","262","","","","","","","1","0","0","0.2281204868","","0.6","0.2","0.8","0.4","","","","","0.3199157278","0.1459089566","0.2281204868","0.02360283027","","","","","","","","","","75","K","2","","","68","main_expt","",""
"","bandit","150","505152","0.0-110.0-0.0","02987400","wem/bandit_party_1","A3MF31JQ350ABS","either","5","282","","","","","","","0","0","1","0.2195844169","","0.6","0.2","0.8","0.4","","","","","0.3068525281","0.1809721424","0.2195844169","0.02539305756","","","","","","","","","","75","K","2","","","69","main_expt","",""
"","bandit","151","506958","0.0-111.0-0.0","02987400","wem/bandit_party_1","A3MF31JQ350ABS","either","5","288","","","","","","","1","0","0","0.3181076016","","0.6","0.2","0.8","0.4","","","","","0.3181076016","0.1784068974","0.1883338509","0.05014388586","","","","","","","","","","72","H","0","img/none_selected.jpg","","70","main_expt","",""
"","bandit","152","508806","0.0-112.0-0.0","02987400","wem/bandit_party_1","A3MF31JQ350ABS","either","5","333","","","","","","","0","0","1","","0.2926426422","0.6","0.2","0.8","0.4","0.2926426422","0.1973023396","0.1639708178","0.04209054697","","","","","","","","","","","","","","72","H","0","img/none_selected.jpg","","71","main_expt","",""
"","bandit","153","510975","0.0-113.0-0.0","02987400","wem/bandit_party_1","A3MF31JQ350ABS","either","5","655","","","","","","","0","0","1","","0.2436342847","0.6","0.2","0.8","0.4","0.2380263643","0.2436342847","0.1312842785","0.05611199342","","","","","","","","","","","","","","74","J","1","","","72","main_expt","",""
"","bandit","154","512855","0.0-114.0-0.0","02987400","wem/bandit_party_1","A3MF31JQ350ABS","either","5","363","","","","","","","0","0","1","","0.1805041857","0.6","0.2","0.8","0.4","0.2407197948","0.1992173182","0.1805041857","0.05293238473","","","","","","","","","","","","","","75","K","2","","","73","main_expt","",""
"","bandit","155","514636","0.0-115.0-0.0","02987400","wem/bandit_party_1","A3MF31JQ350ABS","either","5","263","","","","","","","0","0","1","0.0318456884","","0.6","0.2","0.8","0.4","","","","","0.2317468449","0.2347098304","0.1739557812","0.0318456884","","","","","","","","","","76","L","3","","","74","main_expt","",""
"","bandit","156","516589","0.0-116.0-0.0","02987400","wem/bandit_party_1","A3MF31JQ350ABS","either","5","437","","","","","","","0","0","1","","0.2545997551","0.6","0.2","0.8","0.4","0.2545997551","0.2641442137","0.2434916027","0.03873230677","","","","","","","","","","","","","","72","H","0","img/none_selected.jpg","","75","main_expt","",""
"","bandit","157","518468","0.0-117.0-0.0","02987400","wem/bandit_party_1","A3MF31JQ350ABS","either","5","367","","","","","","","1","0","0","0.2438468568","","0.6","0.2","0.8","0.4","","","","","0.2890845388","0.3192644053","0.2438468568","0.03304947682","","","","","","","","","","75","K","2","","","76","main_expt","",""
"","bandit","158","520367","0.0-118.0-0.0","02987400","wem/bandit_party_1","A3MF31JQ350ABS","either","5","386","","","","","","","0","0","1","","0.3351132613","0.6","0.2","0.8","0.4","0.2386362654","0.3351132613","0.2425324642","0.02607887458","","","","","","","","","","","","","","74","J","1","","","77","main_expt","",""
"","bandit","159","522287","0.0-119.0-0.0","02987400","wem/bandit_party_1","A3MF31JQ350ABS","either","5","404","","","","","","","0","0","1","0.205588479","","0.6","0.2","0.8","0.4","","","","","0.2673679704","0.3086784207","0.205588479","0.02492981692","","","","","","","","","","75","K","2","","","78","main_expt","",""
"","bandit","160","524135","0.0-120.0-0.0","02987400","wem/bandit_party_1","A3MF31JQ350ABS","either","5","332","","","","","","","0","0","1","0.213062191","","0.6","0.2","0.8","0.4","","","","","0.2813811921","0.3076482073","0.213062191","0.01824110002","","","","","","","","","","75","K","2","","","79","main_expt","",""
"","bandit","161","526000","0.0-121.0-0.0","02987400","wem/bandit_party_1","A3MF31JQ350ABS","either","5","355","","","","","","","1","0","0","0.1852926048","","0.6","0.2","0.8","0.4","","","","","0.2419447949","0.3605025214","0.1852926048","0.0202176162","","","","","","","","","","75","K","2","","","80","main_expt","",""
"","bandit","162","527862","0.0-122.0-0.0","02987400","wem/bandit_party_1","A3MF31JQ350ABS","either","5","347","","","","","","","0","0","1","0.2332942271","","0.6","0.2","0.8","0.4","","","","","0.323481111","0.3286166321","0.2332942271","0.0252752587","","","","","","","","","","75","K","2","","","81","main_expt","",""
"","bandit","163","529710","0.0-123.0-0.0","02987400","wem/bandit_party_1","A3MF31JQ350ABS","either","5","333","","","","","","","0","0","1","0.3097244961","","0.6","0.2","0.8","0.4","","","","","0.3097244961","0.3459677762","0.2087797338","0.05668457717","","","","","","","","","","72","H","0","img/none_selected.jpg","","82","main_expt","",""
"","bandit","164","531572","0.0-124.0-0.0","02987400","wem/bandit_party_1","A3MF31JQ350ABS","either","5","348","","","","","","","0","0","1","0.07760530004","","0.6","0.2","0.8","0.4","","","","","0.2787498647","0.3092751195","0.2049979043","0.07760530004","","","","","","","","","","76","L","3","","","83","main_expt","",""
"","bandit","165","533452","0.0-125.0-0.0","02987400","wem/bandit_party_1","A3MF31JQ350ABS","either","5","365","","","","","","","1","0","0","0.3044630387","","0.6","0.2","0.8","0.4","","","","","0.2589524449","0.3044630387","0.2151780091","0.03696005566","","","","","","","","","","74","J","1","","","84","main_expt","",""
"","bandit","166","535328","0.0-126.0-0.0","02987400","wem/bandit_party_1","A3MF31JQ350ABS","either","5","359","","","","","","","0","1","0","","0.2812480587","0.6","0.2","0.8","0.4","0.2769318636","0.2812480587","0.1497615914","0.04177257934","","","","","","","","","","","","","","74","J","1","","","85","main_expt","",""
"","bandit","167","537140","0.0-127.0-0.0","02987400","wem/bandit_party_1","A3MF31JQ350ABS","either","5","303","","","","","","","0","1","0","","0.2506532223","0.6","0.2","0.8","0.4","0.2849222391","0.2506532223","0.1223687677","0.0385770192","","","","","","","","","","","","","","74","J","1","","","86","main_expt","",""
"","bandit","168","539018","0.0-128.0-0.0","02987400","wem/bandit_party_1","A3MF31JQ350ABS","either","5","361","","","","","","","0","0","1","","0.2269900387","0.6","0.2","0.8","0.4","0.3131087309","0.2269900387","0.1472857413","0.03720252147","","","","","","","","","","","","","","74","J","1","","","87","main_expt","",""
"","bandit","169","540853","0.0-129.0-0.0","02987400","wem/bandit_party_1","A3MF31JQ350ABS","either","5","317","","","","","","","0","0","1","0.1252586248","","0.6","0.2","0.8","0.4","","","","","0.3038587512","0.1504729919","0.1252586248","0.06746059371","","","","","","","","","","75","K","2","","","88","main_expt","",""
"","bandit","170","542689","0.0-130.0-0.0","02987400","wem/bandit_party_1","A3MF31JQ350ABS","either","5","324","","","","","","","1","0","0","0.1382070302","","0.6","0.2","0.8","0.4","","","","","0.3308022157","0.1382070302","0.1194927994","0.04069757945","","","","","","","","","","74","J","1","","","89","main_expt","",""
"","bandit","171","544538","0.0-131.0-0.0","02987400","wem/bandit_party_1","A3MF31JQ350ABS","either","5","336","","","","","","","0","0","1","","0.1364765349","0.6","0.2","0.8","0.4","0.3574922351","0.1364765349","0.1589750007","0.07325379503","","","","","","","","","","","","","","74","J","1","","","90","main_expt","",""
"","bandit","172","546758","0.0-132.0-0.0","02987400","wem/bandit_party_1","A3MF31JQ350ABS","either","5","696","","","","","","","0","0","1","","0.09318196272","0.6","0.2","0.8","0.4","0.3729517688","0.09318196272","0.1859960426","0.06877471811","","","","","","","","","","","","","","74","J","1","","","91","main_expt","",""
"","bandit","173","548818","0.0-133.0-0.0","02987400","wem/bandit_party_1","A3MF31JQ350ABS","either","5","547","","","","","","","0","0","1","","0.398352994","0.6","0.2","0.8","0.4","0.398352994","0.06946097624","0.192419488","0.04115987362","","","","","","","","","","","","","","72","H","0","img/none_selected.jpg","","92","main_expt","",""
"","bandit","174","550478","0.0-134.0-0.0","02987400","wem/bandit_party_1","A3MF31JQ350ABS","either","5","146","","","","","","","0","0","1","0.07078892783","","0.6","0.2","0.8","0.4","","","","","0.4135860398","0.08102832817","0.1716033463","0.07078892783","","","","","","","","","","76","L","3","","","93","main_expt","",""
"","bandit","175","552224","0.0-135.0-0.0","02987400","wem/bandit_party_1","A3MF31JQ350ABS","either","5","228","","","","","","","0","0","1","","0.1271360848","0.6","0.2","0.8","0.4","0.3786880174","0.1271360848","0.1935897604","0.05572868433","","","","","","","","","","","","","","74","J","1","","","94","main_expt","",""
"","bandit","176","553987","0.0-136.0-0.0","02987400","wem/bandit_party_1","A3MF31JQ350ABS","either","5","247","","","","","","","0","0","1","","0.1097592989","0.6","0.2","0.8","0.4","0.3823424718","0.1097592989","0.2193228015","0.05056929995","","","","","","","","","","","","","","74","J","1","","","95","main_expt","",""
"","bandit","177","555946","0.0-137.0-0.0","02987400","wem/bandit_party_1","A3MF31JQ350ABS","either","5","440","","","","","","","0","1","0","","0.3642725552","0.6","0.2","0.8","0.4","0.3642725552","0.1085490834","0.3262643469","0.04159874267","","","","","","","","","","","","","","72","H","0","img/none_selected.jpg","","96","main_expt","",""
"","bandit","178","557810","0.0-138.0-0.0","02987400","wem/bandit_party_1","A3MF31JQ350ABS","either","5","350","","","","","","","1","0","0","0.3197717944","","0.6","0.2","0.8","0.4","","","","","0.3197717944","0.1049812554","0.3207405496","0.03654451862","","","","","","","","","","72","H","0","img/none_selected.jpg","","97","main_expt","",""
"","bandit","179","559645","0.0-139.0-0.0","02987400","wem/bandit_party_1","A3MF31JQ350ABS","either","5","318","","","","","","","0","0","1","","0.2514424369","0.6","0.2","0.8","0.4","0.2514424369","0.08177978443","0.3712856991","0.04190300095","","","","","","","","","","","","","","72","H","0","img/none_selected.jpg","","98","main_expt","",""
"","bandit","180","561379","0.0-140.0-0.0","02987400","wem/bandit_party_1","A3MF31JQ350ABS","either","5","215","","","","","","","0","0","1","0.2926772137","","0.6","0.2","0.8","0.4","","","","","0.2926772137","0.07574087804","0.3740145378","0.08742990617","","","","","","","","","","72","H","0","img/none_selected.jpg","","99","main_expt","",""
"","bandit","181","563113","0.0-141.0-0.0","02987400","wem/bandit_party_1","A3MF31JQ350ABS","either","5","216","","","","","","","0","0","1","0.3776295542","","0.6","0.2","0.8","0.4","","","","","0.234485335","0.07829319678","0.3776295542","0.08966523481","","","","","","","","","","75","K","2","","","100","main_expt","",""
"","bandit","182","564909","0.0-142.0-0.0","02987400","wem/bandit_party_1","A3MF31JQ350ABS","either","5","282","","","","","","","0","0","1","","0.250352175","0.6","0.2","0.8","0.4","0.250352175","0.07919243683","0.3592666398","0.07849065771","","","","","","","","","","","","","","72","H","0","img/none_selected.jpg","","101","main_expt","",""
"","bandit","183","566696","0.0-143.0-0.0","02987400","wem/bandit_party_1","A3MF31JQ350ABS","either","5","269","","","","","","","0","0","1","0.1054267613","","0.6","0.2","0.8","0.4","","","","","0.2139972863","0.1052753188","0.3412191773","0.1054267613","","","","","","","","","","76","L","3","","","102","main_expt","",""
"","bandit","184","568558","0.0-144.0-0.0","02987400","wem/bandit_party_1","A3MF31JQ350ABS","either","5","347","","","","","","","0","0","1","","0.1248526142","0.6","0.2","0.8","0.4","0.20092706","0.1248526142","0.3133100433","0.1120981937","","","","","","","","","","","","","","74","J","1","","","103","main_expt","",""
"","bandit","185","570345","0.0-145.0-0.0","02987400","wem/bandit_party_1","A3MF31JQ350ABS","either","5","269","","","","","","","0","0","1","","0.142969925","0.6","0.2","0.8","0.4","0.2305366804","0.142969925","0.3219148419","0.1034740879","","","","","","","","","","","","","","74","J","1","","","104","main_expt","",""
"","bandit","186","572019","0.0-146.0-0.0","02987400","wem/bandit_party_1","A3MF31JQ350ABS","either","5","159","","","","","","","0","0","1","","0.07597240327","0.6","0.2","0.8","0.4","0.2102135581","0.13947254","0.3300892518","0.07597240327","","","","","","","","","","","","","","76","L","3","","","105","main_expt","",""
"","bandit","187","573780","0.0-147.0-0.0","02987400","wem/bandit_party_1","A3MF31JQ350ABS","either","5","249","","","","","","","1","0","0","0.3401839058","","0.6","0.2","0.8","0.4","","","","","0.2219457329","0.1329526997","0.3401839058","0.1124257427","","","","","","","","","","75","K","2","","","106","main_expt","",""
"","bandit","188","575533","0.0-148.0-0.0","02987400","wem/bandit_party_1","A3MF31JQ350ABS","either","5","238","","","","","","","0","0","1","0.3784706915","","0.6","0.2","0.8","0.4","","","","","0.3048423019","0.1727290233","0.3784706915","0.1133168519","","","","","","","","","","75","K","2","","","107","main_expt","",""
"","bandit","189","577509","0.0-149.0-0.0","02987400","wem/bandit_party_1","A3MF31JQ350ABS","either","5","467","","","","","","","0","1","0","","0.258150515","0.6","0.2","0.8","0.4","0.258150515","0.1864487031","0.3945753887","0.1752395656","","","","","","","","","","","","","","72","H","0","img/none_selected.jpg","","108","main_expt","",""
"","bandit","190","579339","0.0-150.0-0.0","02987400","wem/bandit_party_1","A3MF31JQ350ABS","either","5","321","","","","","","","0","0","1","","0.1859129148","0.6","0.2","0.8","0.4","0.1859129148","0.2463216238","0.356827327","0.1862973424","","","","","","","","","","","","","","72","H","0","img/none_selected.jpg","","109","main_expt","",""
"","bandit","191","581111","0.0-151.0-0.0","02987400","wem/bandit_party_1","A3MF31JQ350ABS","either","5","255","","","","","","","0","0","1","0.2344179837","","0.6","0.2","0.8","0.4","","","","","0.1371624404","0.2431522628","0.2344179837","0.2015845776","","","","","","","","","","75","K","2","","","110","main_expt","",""
"","bandit","192","582908","0.0-152.0-0.0","02987400","wem/bandit_party_1","A3MF31JQ350ABS","either","5","281","","","","","","","0","0","1","","0.1757476643","0.6","0.2","0.8","0.4","0.1258232978","0.1757476643","0.2644823096","0.2003651753","","","","","","","","","","","","","","74","J","1","","","111","main_expt","",""
"","bandit","193","584890","0.0-153.0-0.0","02987400","wem/bandit_party_1","A3MF31JQ350ABS","either","5","466","","","","","","","0","0","1","","0.21392293","0.6","0.2","0.8","0.4","0.1529967373","0.2451518953","0.28311182","0.21392293","","","","","","","","","","","","","","76","L","3","","","112","main_expt","",""
"","bandit","194","586765","0.0-154.0-0.0","02987400","wem/bandit_party_1","A3MF31JQ350ABS","either","5","359","","","","","","","0","0","1","0.148248117","","0.6","0.2","0.8","0.4","","","","","0.148248117","0.2407836715","0.2413269532","0.1606798039","","","","","","","","","","72","H","0","img/none_selected.jpg","","113","main_expt","",""
"","bandit","195","588497","0.0-155.0-0.0","02987400","wem/bandit_party_1","A3MF31JQ350ABS","either","5","214","","","","","","","0","1","0","","0.1562208239","0.6","0.2","0.8","0.4","0.1562208239","0.3099317417","0.3100969134","0.2095980235","","","","","","","","","","","","","","72","H","0","img/none_selected.jpg","","114","main_expt","",""
"","bandit","196","590279","0.0-156.0-0.0","02987400","wem/bandit_party_1","A3MF31JQ350ABS","either","5","264","","","","","","","0","0","1","","0.2138032898","0.6","0.2","0.8","0.4","0.2138032898","0.3180754701","0.329842252","0.2550279667","","","","","","","","","","","","","","72","H","0","img/none_selected.jpg","","115","main_expt","",""
"","bandit","197","592122","0.0-157.0-0.0","02987400","wem/bandit_party_1","A3MF31JQ350ABS","either","5","326","","","","","","","0","0","1","0.3223706096","","0.6","0.2","0.8","0.4","","","","","0.2331260325","0.2919742107","0.3223706096","0.2471764387","","","","","","","","","","75","K","2","","","116","main_expt","",""
"","bandit","198","593925","0.0-158.0-0.0","02987400","wem/bandit_party_1","A3MF31JQ350ABS","either","5","286","","","","","","","1","0","0","0.3098408215","","0.6","0.2","0.8","0.4","","","","","0.1826309729","0.2799774295","0.3098408215","0.2730878341","","","","","","","","","","75","K","2","","","117","main_expt","",""
"","bandit","199","595820","0.0-159.0-0.0","02987400","wem/bandit_party_1","A3MF31JQ350ABS","either","5","377","","","","","","","0","0","1","0.2974554567","","0.6","0.2","0.8","0.4","","","","","0.1511269107","0.2646714695","0.2974554567","0.2071462199","","","","","","","","","","75","K","2","","","118","main_expt","",""
"","bandit","200","597607","0.0-160.0-0.0","02987400","wem/bandit_party_1","A3MF31JQ350ABS","either","5","272","","","","","","","1","0","0","0.3598468986","","0.6","0.2","0.8","0.4","","","","","0.1559979654","0.3179839519","0.3598468986","0.2275232499","","","","","","","","","","75","K","2","","","119","main_expt","",""
"","bandit","201","599365","0.0-161.0-0.0","02987400","wem/bandit_party_1","A3MF31JQ350ABS","either","5","241","","","","","","","0","0","1","0.2984373086","","0.6","0.2","0.8","0.4","","","","","0.1463004055","0.3302262658","0.2984373086","0.2767559596","","","","","","","","","","75","K","2","","","120","main_expt","",""
"","bandit","202","601237","0.0-162.0-0.0","02987400","wem/bandit_party_1","A3MF31JQ350ABS","either","5","361","","","","","","","0","1","0","","0.1418195479","0.6","0.2","0.8","0.4","0.1418195479","0.3500549905","0.2973090059","0.3448590315","","","","","","","","","","","","","","72","H","0","img/none_selected.jpg","","121","main_expt","",""
"","bandit","203","603259","0.0-163.0-0.0","02987400","wem/bandit_party_1","A3MF31JQ350ABS","either","5","509","","","","","","","0","0","1","0.1270782113","","0.6","0.2","0.8","0.4","","","","","0.1270782113","0.2686616284","0.3382791822","0.3593301016","","","","","","","","","","72","H","0","img/none_selected.jpg","","122","main_expt","",""
"","bandit","204","605201","0.0-164.0-0.0","02987400","wem/bandit_party_1","A3MF31JQ350ABS","either","5","428","","","","","","","0","0","1","0.3154347028","","0.6","0.2","0.8","0.4","","","","","0.1207154071","0.2277230314","0.3154347028","0.3680529171","","","","","","","","","","75","K","2","","","123","main_expt","",""
"","bandit","205","609023","0.0-165.0-0.0","02987400","wem/bandit_party_1","A3MF31JQ350ABS","either","5","2304","","","","","","","0","0","1","","0.3287090939","0.6","0.2","0.8","0.4","0.1229329119","0.3287090939","0.2966737815","0.3476523483","","","","","","","","","","","","","","74","J","1","","","124","main_expt","",""
"","bandit","206","611044","0.0-166.0-0.0","02987400","wem/bandit_party_1","A3MF31JQ350ABS","either","5","505","","","","","","","0","0","1","","0.09241122996","0.6","0.2","0.8","0.4","0.09241122996","0.3687339586","0.3094831126","0.3564603465","","","","","","","","","","","","","","72","H","0","img/none_selected.jpg","","125","main_expt","",""
"","bandit","207","613483","0.0-167.0-0.0","02987400","wem/bandit_party_1","A3MF31JQ350ABS","either","5","924","","","","","","","0","0","1","0.3836195774","","0.6","0.2","0.8","0.4","","","","","0.08418962236","0.3836195774","0.2488993205","0.3550684458","","","","","","","","","","74","J","1","","","126","main_expt","",""
"","bandit","208","615383","0.0-168.0-0.0","02987400","wem/bandit_party_1","A3MF31JQ350ABS","either","5","390","","","","","","","0","0","1","0.1953487027","","0.6","0.2","0.8","0.4","","","","","0.154715772","0.3617365958","0.1953487027","0.3235559827","","","","","","","","","","75","K","2","","","127","main_expt","",""
"","bandit","209","617226","0.0-169.0-0.0","02987400","wem/bandit_party_1","A3MF31JQ350ABS","either","5","329","","","","","","","0","1","0","","0.312087491","0.6","0.2","0.8","0.4","0.1556709078","0.3235283493","0.2171889907","0.312087491","","","","","","","","","","","","","","76","L","3","","","128","main_expt","",""
"","bandit","210","619020","0.0-170.0-0.0","02987400","wem/bandit_party_1","A3MF31JQ350ABS","either","5","279","","","","","","","0","1","0","","0.2843272188","0.6","0.2","0.8","0.4","0.1214200615","0.3453830546","0.2467699801","0.2843272188","","","","","","","","","","","","","","76","L","3","","","129","main_expt","",""
"","bandit","211","620926","0.0-171.0-0.0","02987400","wem/bandit_party_1","A3MF31JQ350ABS","either","5","386","","","","","","","0","0","1","0.2128416856","","0.6","0.2","0.8","0.4","","","","","0.1377283829","0.3242747857","0.2814443482","0.2128416856","","","","","","","","","","76","L","3","","","130","main_expt","",""
"","bandit","212","623578","0.0-172.0-0.0","02987400","wem/bandit_party_1","A3MF31JQ350ABS","either","5","1137","","","","","","","1","0","0","0.2834176508","","0.6","0.2","0.8","0.4","","","","","0.1397421628","0.3417201858","0.2834176508","0.2403879813","","","","","","","","","","75","K","2","","","131","main_expt","",""
"","bandit","213","625925","0.0-173.0-0.0","02987400","wem/bandit_party_1","A3MF31JQ350ABS","either","5","829","","","","","","","0","0","1","","0.2811421594","0.6","0.2","0.8","0.4","0.1061875113","0.3498614837","0.2429908031","0.2811421594","","","","","","","","","","","","","","76","L","3","","","132","main_expt","",""
"","bandit","214","627711","0.0-174.0-0.0","02987400","wem/bandit_party_1","A3MF31JQ350ABS","either","5","270","","","","","","","0","0","1","0.3053559495","","0.6","0.2","0.8","0.4","","","","","0.07774811701","0.3134828643","0.3053559495","0.3002858371","","","","","","","","","","75","K","2","","","133","main_expt","",""
"","bandit","215","629535","0.0-175.0-0.0","02987400","wem/bandit_party_1","A3MF31JQ350ABS","either","5","299","","","","","","","0","0","1","","0.3554593188","0.6","0.2","0.8","0.4","0.08211281178","0.3554593188","0.2693478067","0.277406375","","","","","","","","","","","","","","74","J","1","","","134","main_expt","",""
"","bandit","216","631330","0.0-176.0-0.0","02987400","wem/bandit_party_1","A3MF31JQ350ABS","either","5","278","","","","","","","0","0","1","0.1123817552","","0.6","0.2","0.8","0.4","","","","","0.1123817552","0.3150900126","0.3369166079","0.2897147582","","","","","","","","","","72","H","0","img/none_selected.jpg","","135","main_expt","",""
"","bandit","217","633210","0.0-177.0-0.0","02987400","wem/bandit_party_1","A3MF31JQ350ABS","either","5","371","","","","","","","0","1","0","","0.3590576628","0.6","0.2","0.8","0.4","0.1478339482","0.3199395785","0.268603144","0.3590576628","","","","","","","","","","","","","","76","L","3","","","136","main_expt","",""
"","bandit","218","635009","0.0-178.0-0.0","02987400","wem/bandit_party_1","A3MF31JQ350ABS","either","5","282","","","","","","","1","0","0","0.3822427384","","0.6","0.2","0.8","0.4","","","","","0.1374936615","0.33362357","0.2373427956","0.3822427384","","","","","","","","","","76","L","3","","","137","main_expt","",""
"","bandit","219","636887","0.0-179.0-0.0","02987400","wem/bandit_party_1","A3MF31JQ350ABS","either","5","359","","","","","","","0","0","1","0.3410071165","","0.6","0.2","0.8","0.4","","","","","0.159761955","0.3611324022","0.2206869265","0.3410071165","","","","","","","","","","76","L","3","","","138","main_expt","",""
"","bandit","220","638708","0.0-180.0-0.0","02987400","wem/bandit_party_1","A3MF31JQ350ABS","either","5","307","","","","","","","0","0","1","0.2177966349","","0.6","0.2","0.8","0.4","","","","","0.1363721132","0.3504145086","0.2177966349","0.3738014659","","","","","","","","","","75","K","2","","","139","main_expt","",""
"","bandit","221","640364","0.0-181.0-0.0","02987400","wem/bandit_party_1","A3MF31JQ350ABS","either","5","136","","","","","","","1","0","0","0.422575493","","0.6","0.2","0.8","0.4","","","","","0.1031445192","0.309774603","0.2387685432","0.422575493","","","","","","","","","","76","L","3","","","140","main_expt","",""
"","bandit","222","642715","0.0-182.0-0.0","02987400","wem/bandit_party_1","A3MF31JQ350ABS","either","5","835","","","","","","","0","1","0","","0.4439129864","0.6","0.2","0.8","0.4","0.09805286369","0.3506531288","0.2575087366","0.4439129864","","","","","","","","","","","","","","76","L","3","","","141","main_expt","",""
"","bandit","223","644663","0.0-183.0-0.0","02987400","wem/bandit_party_1","A3MF31JQ350ABS","either","5","432","","","","","","","0","0","1","","0.4323802182","0.6","0.2","0.8","0.4","0.1149002948","0.2965027242","0.2392038972","0.4323802182","","","","","","","","","","","","","","76","L","3","","","142","main_expt","",""
"","bandit","224","646518","0.0-184.0-0.0","02987400","wem/bandit_party_1","A3MF31JQ350ABS","either","5","339","","","","","","","1","0","0","0.4358412593","","0.6","0.2","0.8","0.4","","","","","0.1209542099","0.2087517366","0.2216470548","0.4358412593","","","","","","","","","","76","L","3","","","143","main_expt","",""
"","bandit","225","665739","0.0-185.0-0.0","02987400","wem/bandit_party_1","A3MF31JQ350ABS","either","5","17704","","","","","","","0","0","1","0.4407373256","","0.6","0.2","0.8","0.4","","","","","0.1202521083","0.2313605626","0.2224896139","0.4407373256","","","","","","","","","","76","L","3","","","144","main_expt","",""
"","bandit","226","667405","0.0-186.0-0.0","02987400","wem/bandit_party_1","A3MF31JQ350ABS","either","5","148","","","","","","","0","0","1","0.4661091035","","0.6","0.2","0.8","0.4","","","","","0.1619743669","0.1785565547","0.1925605464","0.4661091035","","","","","","","","","","76","L","3","","","145","main_expt","",""
"","bandit","227","669228","0.0-187.0-0.0","02987400","wem/bandit_party_1","A3MF31JQ350ABS","either","5","308","","","","","","","0","0","1","0.2069800611","","0.6","0.2","0.8","0.4","","","","","0.1664631043","0.1770660648","0.2069800611","0.4637097668","","","","","","","","","","75","K","2","","","146","main_expt","",""
"","bandit","228","671212","0.0-188.0-0.0","02987400","wem/bandit_party_1","A3MF31JQ350ABS","either","5","466","","","","","","","0","0","1","","0.1063371611","0.6","0.2","0.8","0.4","0.1669241763","0.1063371611","0.2489662189","0.4700491642","","","","","","","","","","","","","","74","J","1","","","147","main_expt","",""
"","bandit","229","673834","0.0-189.0-0.0","02987400","wem/bandit_party_1","A3MF31JQ350ABS","either","5","1106","","","","","","","0","0","1","0.4648109734","","0.6","0.2","0.8","0.4","","","","","0.1581456949","0.1216370817","0.1946464158","0.4648109734","","","","","","","","","","76","L","3","","","148","main_expt","",""
"","bandit","230","676687","0.0-190.0-0.0","02987400","wem/bandit_party_1","A3MF31JQ350ABS","either","5","1336","","","","","","","0","0","1","0.4635511513","","0.6","0.2","0.8","0.4","","","","","0.1698392466","0.1024256959","0.1826562491","0.4635511513","","","","","","","","","","76","L","3","","","149","main_expt","",""
"","bandit","231","678226","0.0-191.0-0.0","02987400","wem/bandit_party_1","A3MF31JQ350ABS","either","5","22","","","","","","","0","0","1","0.2140114634","","0.6","0.2","0.8","0.4","","","","","0.2140114634","0.1371094633","0.1750473563","0.4445017148","","","","","","","","","","72","H","0","img/none_selected.jpg","","150","main_expt","",""
"","bandit","232","679747","0.0-192.0-0.0","02987400","wem/bandit_party_1","A3MF31JQ350ABS","either","5","2","","","","","","","0","0","1","0.1109536645","","0.6","0.2","0.8","0.4","","","","","0.2392960001","0.1702433702","0.1109536645","0.4434799742","","","","","","","","","","75","K","2","","","151","main_expt","",""
"","bandit","233","681474","0.0-193.0-0.0","02987400","wem/bandit_party_1","A3MF31JQ350ABS","either","5","211","","","","","","","0","0","1","","0.1860489046","0.6","0.2","0.8","0.4","0.2095863317","0.1860489046","0.1143086707","0.4451665291","","","","","","","","","","","","","","74","J","1","","","152","main_expt","",""
"","bandit","234","711456","0.0-194.0-0.0","02987400","wem/bandit_party_1","A3MF31JQ350ABS","either","5","28460","","","","","","","0","0","1","0.2543258611","","0.6","0.2","0.8","0.4","","","","","0.2543258611","0.2117094388","0.1236290712","0.4401532833","","","","","","","","","","72","H","0","img/none_selected.jpg","","153","main_expt","",""
"","bandit","235","713437","0.0-195.0-0.0","02987400","wem/bandit_party_1","A3MF31JQ350ABS","either","5","453","","","","","","","0","1","0","","0.4516855879","0.6","0.2","0.8","0.4","0.2602259906","0.2072389033","0.1600695342","0.4516855879","","","","","","","","","","","","","","76","L","3","","","154","main_expt","",""
"","bandit","236","715294","0.0-196.0-0.0","02987400","wem/bandit_party_1","A3MF31JQ350ABS","either","5","349","","","","","","","1","0","0","0.4480264808","","0.6","0.2","0.8","0.4","","","","","0.2750581274","0.1986333914","0.1770288166","0.4480264808","","","","","","","","","","76","L","3","","","155","main_expt","",""
"","bandit","237","717707","0.0-197.0-0.0","02987400","wem/bandit_party_1","A3MF31JQ350ABS","either","5","897","","","","","","","0","1","0","","0.4260414265","0.6","0.2","0.8","0.4","0.2438045727","0.2054640346","0.1761817894","0.4260414265","","","","","","","","","","","","","","76","L","3","","","156","main_expt","",""
"","bandit","238","719592","0.0-198.0-0.0","02987400","wem/bandit_party_1","A3MF31JQ350ABS","either","5","366","","","","","","","0","0","1","0.4365201507","","0.6","0.2","0.8","0.4","","","","","0.2857025143","0.1810715383","0.1998830888","0.4365201507","","","","","","","","","","76","L","3","","","157","main_expt","",""
"","bandit","239","721513","0.0-199.0-0.0","02987400","wem/bandit_party_1","A3MF31JQ350ABS","either","5","402","","","","","","","0","0","1","","0.2150354531","0.6","0.2","0.8","0.4","0.2887719476","0.2118906364","0.2150354531","0.4076244479","","","","","","","","","","","","","","75","K","2","","","158","main_expt","",""
"","bandit","240","723412","0.0-200.0-0.0","02987400","wem/bandit_party_1","A3MF31JQ350ABS","either","5","384","","","","","","","0","0","1","0.2293976715","","0.6","0.2","0.8","0.4","","","","","0.2859462397","0.2293976715","0.2221069796","0.403953851","","","","","","","","","","74","J","1","","","159","main_expt","",""
"","bandit","241","725313","0.0-201.0-0.0","02987400","wem/bandit_party_1","A3MF31JQ350ABS","either","5","390","","","","","","","0","0","1","0.4282135537","","0.6","0.2","0.8","0.4","","","","","0.207432816","0.2186051381","0.2627335039","0.4282135537","","","","","","","","","","76","L","3","","","160","main_expt","",""
"","bandit","242","727189","0.0-202.0-0.0","02987400","wem/bandit_party_1","A3MF31JQ350ABS","either","5","356","","","","","","","1","0","0","0.2922457848","","0.6","0.2","0.8","0.4","","","","","0.1611694724","0.2175927206","0.2922457848","0.4479073124","","","","","","","","","","75","K","2","","","161","main_expt","",""
"","bandit","243","729099","0.0-203.0-0.0","02987400","wem/bandit_party_1","A3MF31JQ350ABS","either","5","392","","","","","","","0","0","1","0.3040212123","","0.6","0.2","0.8","0.4","","","","","0.14378348","0.2370404117","0.3040212123","0.4456201243","","","","","","","","","","75","K","2","","","162","main_expt","",""
"","bandit","244","731390","0.0-204.0-0.0","02987400","wem/bandit_party_1","A3MF31JQ350ABS","either","5","773","","","","","","","0","1","0","","0.4384930657","0.6","0.2","0.8","0.4","0.1707099899","0.2778780432","0.2933359027","0.4384930657","","","","","","","","","","","","","","76","L","3","","","163","main_expt","",""
"","bandit","245","733289","0.0-205.0-0.0","02987400","wem/bandit_party_1","A3MF31JQ350ABS","either","5","381","","","","","","","0","0","1","","0.4231568034","0.6","0.2","0.8","0.4","0.1933693166","0.2643388611","0.2388203062","0.4231568034","","","","","","","","","","","","","","76","L","3","","","164","main_expt","",""
"","bandit","246","735148","0.0-206.0-0.0","02987400","wem/bandit_party_1","A3MF31JQ350ABS","either","5","342","","","","","","","0","1","0","","0.4412535734","0.6","0.2","0.8","0.4","0.2406324952","0.1967204453","0.2646204916","0.4412535734","","","","","","","","","","","","","","76","L","3","","","165","main_expt","",""
"","bandit","247","737040","0.0-207.0-0.0","02987400","wem/bandit_party_1","A3MF31JQ350ABS","either","5","374","","","","","","","0","0","1","0.438364003","","0.6","0.2","0.8","0.4","","","","","0.2650462377","0.1567937345","0.2591758032","0.438364003","","","","","","","","","","76","L","3","","","166","main_expt","",""
"","bandit","248","738900","0.0-208.0-0.0","02987400","wem/bandit_party_1","A3MF31JQ350ABS","either","5","347","","","","","","","0","0","1","0.1955934818","","0.6","0.2","0.8","0.4","","","","","0.245875583","0.1201482918","0.1955934818","0.4290991351","","","","","","","","","","75","K","2","","","167","main_expt","",""
"","bandit","249","741372","0.0-209.0-0.0","02987400","wem/bandit_party_1","A3MF31JQ350ABS","either","5","952","","","","","","","0","1","0","","0.4510860662","0.6","0.2","0.8","0.4","0.257303599","0.0936051119","0.2090603634","0.4510860662","","","","","","","","","","","","","","76","L","3","","","168","main_expt","",""
"","bandit","250","743959","0.0-210.0-0.0","02987400","wem/bandit_party_1","A3MF31JQ350ABS","either","5","1070","","","","","","","1","0","0","0.4491424364","","0.6","0.2","0.8","0.4","","","","","0.2993732043","0.08775096918","0.2678479696","0.4491424364","","","","","","","","","","76","L","3","","","169","main_expt","",""
"","bandit","251","746154","0.0-211.0-0.0","02987400","wem/bandit_party_1","A3MF31JQ350ABS","either","5","674","","","","","","","0","0","1","0.4332244901","","0.6","0.2","0.8","0.4","","","","","0.3388977639","0.06743429675","0.2532125956","0.4332244901","","","","","","","","","","76","L","3","","","170","main_expt","",""
"","bandit","252","748047","0.0-212.0-0.0","02987400","wem/bandit_party_1","A3MF31JQ350ABS","either","5","381","","","","","","","0","0","1","","0.4405036994","0.6","0.2","0.8","0.4","0.2947926635","0.05979118822","0.2568627054","0.4405036994","","","","","","","","","","","","","","76","L","3","","","171","main_expt","",""
"","bandit","253","749914","0.0-213.0-0.0","02987400","wem/bandit_party_1","A3MF31JQ350ABS","either","5","347","","","","","","","1","0","0","0.2451563353","","0.6","0.2","0.8","0.4","","","","","0.2892529657","0.03200499914","0.2451563353","0.4358521759","","","","","","","","","","75","K","2","","","172","main_expt","",""
"","bandit","254","751776","0.0-214.0-0.0","02987400","wem/bandit_party_1","A3MF31JQ350ABS","either","5","343","","","","","","","0","0","1","","0.04613358223","0.6","0.2","0.8","0.4","0.2571917514","0.04613358223","0.3003395367","0.4471617722","","","","","","","","","","","","","","74","J","1","","","173","main_expt","",""
"","bandit","255","753711","0.0-215.0-0.0","02987400","wem/bandit_party_1","A3MF31JQ350ABS","either","5","417","","","","","","","0","1","0","","0.244173221","0.6","0.2","0.8","0.4","0.244173221","0.05969677181","0.2545998681","0.4560251174","","","","","","","","","","","","","","72","H","0","img/none_selected.jpg","","174","main_expt","",""
"","bandit","256","755530","0.0-216.0-0.0","02987400","wem/bandit_party_1","A3MF31JQ350ABS","either","5","301","","","","","","","0","0","1","","0.2038098688","0.6","0.2","0.8","0.4","0.2038098688","0.05930066603","0.3383135611","0.4379349024","","","","","","","","","","","","","","72","H","0","img/none_selected.jpg","","175","main_expt","",""
"","bandit","257","757374","0.0-217.0-0.0","02987400","wem/bandit_party_1","A3MF31JQ350ABS","either","5","334","","","","","","","0","0","1","","0.4328841116","0.6","0.2","0.8","0.4","0.2053823003","0.08110879181","0.3880627729","0.4328841116","","","","","","","","","","","","","","76","L","3","","","176","main_expt","",""
"","bandit","258","759195","0.0-218.0-0.0","02987400","wem/bandit_party_1","A3MF31JQ350ABS","either","5","300","","","","","","","1","0","0","0.3920994557","","0.6","0.2","0.8","0.4","","","","","0.2193083282","0.07611568943","0.3920994557","0.3965365967","","","","","","","","","","75","K","2","","","177","main_expt","",""
"","bandit","259","761057","0.0-219.0-0.0","02987400","wem/bandit_party_1","A3MF31JQ350ABS","either","5","345","","","","","","","0","1","0","","0.3882277994","0.6","0.2","0.8","0.4","0.1904263594","0.1220467165","0.3882277994","0.3899234309","","","","","","","","","","","","","","75","K","2","","","178","main_expt","",""
"","bandit","260","762899","0.0-220.0-0.0","02987400","wem/bandit_party_1","A3MF31JQ350ABS","either","5","332","","","","","","","0","0","1","0.3939691408","","0.6","0.2","0.8","0.4","","","","","0.2212788648","0.1698853315","0.3939691408","0.4238443777","","","","","","","","","","75","K","2","","","179","main_expt","",""
"","bandit","261","764818","0.0-221.0-0.0","02987400","wem/bandit_party_1","A3MF31JQ350ABS","either","5","398","","","","","","","0","1","0","","0.4487400994","0.6","0.2","0.8","0.4","0.2640717145","0.1374762061","0.4074656662","0.4487400994","","","","","","","","","","","","","","76","L","3","","","180","main_expt","",""
"","bandit","262","766727","0.0-222.0-0.0","02987400","wem/bandit_party_1","A3MF31JQ350ABS","either","5","390","","","","","","","1","0","0","0.4314573438","","0.6","0.2","0.8","0.4","","","","","0.2426483564","0.09961924189","0.3724421945","0.4314573438","","","","","","","","","","76","L","3","","","181","main_expt","",""
"","bandit","263","769336","0.0-223.0-0.0","02987400","wem/bandit_party_1","A3MF31JQ350ABS","either","5","1089","","","","","","","1","0","0","0.4458059303","","0.6","0.2","0.8","0.4","","","","","0.2001563476","0.1391043194","0.2998177931","0.4458059303","","","","","","","","","","76","L","3","","","182","main_expt","",""
"","bandit","264","771202","0.0-224.0-0.0","02987400","wem/bandit_party_1","A3MF31JQ350ABS","either","5","352","","","","","","","0","0","1","","0.4485460149","0.6","0.2","0.8","0.4","0.2167094124","0.1336424596","0.3629728763","0.4485460149","","","","","","","","","","","","","","76","L","3","","","183","main_expt","",""
"","bandit","265","773040","0.0-225.0-0.0","02987400","wem/bandit_party_1","A3MF31JQ350ABS","either","5","317","","","","","","","0","0","1","0.3763603645","","0.6","0.2","0.8","0.4","","","","","0.2402813617","0.115911235","0.3763603645","0.4078350507","","","","","","","","","","75","K","2","","","184","main_expt","",""
"","bandit","266","774921","0.0-226.0-0.0","02987400","wem/bandit_party_1","A3MF31JQ350ABS","either","5","359","","","","","","","0","0","1","0.1394203739","","0.6","0.2","0.8","0.4","","","","","0.2745112141","0.1394203739","0.3472982705","0.3805788675","","","","","","","","","","74","J","1","","","185","main_expt","",""
"","bandit","267","776842","0.0-227.0-0.0","02987400","wem/bandit_party_1","A3MF31JQ350ABS","either","5","402","","","","","","","0","1","0","","0.2774566956","0.6","0.2","0.8","0.4","0.2774566956","0.1557479742","0.3095995051","0.4236809331","","","","","","","","","","","","","","72","H","0","img/none_selected.jpg","","186","main_expt","",""
"","bandit","268","778732","0.0-228.0-0.0","02987400","wem/bandit_party_1","A3MF31JQ350ABS","either","5","370","","","","","","","1","0","0","0.2876011691","","0.6","0.2","0.8","0.4","","","","","0.2876011691","0.1823611596","0.2567332284","0.4058627081","","","","","","","","","","72","H","0","img/none_selected.jpg","","187","main_expt","",""
"","bandit","269","780618","0.0-229.0-0.0","02987400","wem/bandit_party_1","A3MF31JQ350ABS","either","5","366","","","","","","","0","0","1","0.2947112378","","0.6","0.2","0.8","0.4","","","","","0.2947112378","0.1854179297","0.2555256861","0.3913346521","","","","","","","","","","72","H","0","img/none_selected.jpg","","188","main_expt","",""
"","bandit","270","782683","0.0-230.0-0.0","02987400","wem/bandit_party_1","A3MF31JQ350ABS","either","5","546","","","","","","","0","1","0","","0.3760164219","0.6","0.2","0.8","0.4","0.2581494","0.1875645599","0.2009875262","0.3760164219","","","","","","","","","","","","","","76","L","3","","","189","main_expt","",""
"","bandit","271","784570","0.0-231.0-0.0","02987400","wem/bandit_party_1","A3MF31JQ350ABS","either","5","365","","","","","","","0","0","1","0.1756323468","","0.6","0.2","0.8","0.4","","","","","0.1756323468","0.2018323604","0.2055488595","0.3327352817","","","","","","","","","","72","H","0","img/none_selected.jpg","","190","main_expt","",""
"","bandit","272","786475","0.0-232.0-0.0","02987400","wem/bandit_party_1","A3MF31JQ350ABS","either","5","385","","","","","","","0","1","0","","0.3015177445","0.6","0.2","0.8","0.4","0.2521570866","0.221094727","0.1506387864","0.3015177445","","","","","","","","","","","","","","76","L","3","","","191","main_expt","",""
"","bandit","273","788317","0.0-233.0-0.0","02987400","wem/bandit_party_1","A3MF31JQ350ABS","either","5","321","","","","","","","0","0","1","","0.2773298268","0.6","0.2","0.8","0.4","0.2964739449","0.2320570195","0.2027442266","0.2773298268","","","","","","","","","","","","","","76","L","3","","","192","main_expt","",""
"","bandit","274","790238","0.0-234.0-0.0","02987400","wem/bandit_party_1","A3MF31JQ350ABS","either","5","400","","","","","","","1","0","0","0.2836613797","","0.6","0.2","0.8","0.4","","","","","0.2612966838","0.2948950962","0.1969137872","0.2836613797","","","","","","","","","","76","L","3","","","193","main_expt","",""
"","bandit","275","792123","0.0-235.0-0.0","02987400","wem/bandit_party_1","A3MF31JQ350ABS","either","5","364","","","","","","","0","1","0","","0.2799350415","0.6","0.2","0.8","0.4","0.3292914436","0.2602906927","0.2114994946","0.2799350415","","","","","","","","","","","","","","76","L","3","","","194","main_expt","",""
"","bandit","276","794008","0.0-236.0-0.0","02987400","wem/bandit_party_1","A3MF31JQ350ABS","either","5","363","","","","","","","0","0","1","0.2068597772","","0.6","0.2","0.8","0.4","","","","","0.4070308407","0.1771499101","0.2467939011","0.2068597772","","","","","","","","","","76","L","3","","","195","main_expt","",""
"","bandit","277","796019","0.0-237.0-0.0","02987400","wem/bandit_party_1","A3MF31JQ350ABS","either","5","492","","","","","","","0","0","1","","0.3494820729","0.6","0.2","0.8","0.4","0.3494820729","0.1746274925","0.2731811988","0.2679469531","","","","","","","","","","","","","","72","H","0","img/none_selected.jpg","","196","main_expt","",""
"","bandit","278","797755","0.0-238.0-0.0","02987400","wem/bandit_party_1","A3MF31JQ350ABS","either","5","216","","","","","","","0","0","1","0.2448078588","","0.6","0.2","0.8","0.4","","","","","0.3571939809","0.193224684","0.2512114903","0.2448078588","","","","","","","","","","76","L","3","","","197","main_expt","",""
"","bandit","279","799568","0.0-239.0-0.0","02987400","wem/bandit_party_1","A3MF31JQ350ABS","either","5","293","","","","","","","0","0","1","0.190651112","","0.6","0.2","0.8","0.4","","","","","0.382430028","0.1771509929","0.190651112","0.2433987968","","","","","","","","","","75","K","2","","","198","main_expt","",""
"","bandit","280","801348","0.0-240.0-0.0","02987400","wem/bandit_party_1","A3MF31JQ350ABS","either","5","260","","","","","","","0","0","1","","0.2466668772","0.6","0.2","0.8","0.4","0.3353474301","0.2466668772","0.1701189695","0.2653624242","","","","","","","","","","","","","","74","J","1","","","199","main_expt","",""
"","bandit","281","803279","0.0-241.0-0.0","02987400","wem/bandit_party_1","A3MF31JQ350ABS","either","5","416","","","","","","","0","0","1","0.2551376492","","0.6","0.2","0.8","0.4","","","","","0.3321976498","0.2477816141","0.1656975488","0.2551376492","","","","","","","","","","76","L","3","","","200","main_expt","",""
"","bandit","282","805029","0.0-242.0-0.0","02987400","wem/bandit_party_1","A3MF31JQ350ABS","either","5","224","","","","","","","1","0","0","0.1647298582","","0.6","0.2","0.8","0.4","","","","","0.3218117355","0.2744817861","0.1647298582","0.2660639347","","","","","","","","","","75","K","2","","","201","main_expt","",""
"","bandit","283","806817","0.0-243.0-0.0","02987400","wem/bandit_party_1","A3MF31JQ350ABS","either","5","264","","","","","","","0","0","1","","0.1242041815","0.6","0.2","0.8","0.4","0.2949214693","0.3043062986","0.1242041815","0.2220900594","","","","","","","","","","","","","","75","K","2","","","202","main_expt","",""
"","bandit","284","808738","0.0-244.0-0.0","02987400","wem/bandit_party_1","A3MF31JQ350ABS","either","5","399","","","","","","","0","0","1","","0.1543353204","0.6","0.2","0.8","0.4","0.300077299","0.272185569","0.1684487429","0.1543353204","","","","","","","","","","","","","","76","L","3","","","203","main_expt","",""
"","bandit","285","810658","0.0-245.0-0.0","02987400","wem/bandit_party_1","A3MF31JQ350ABS","either","5","397","","","","","","","0","1","0","","0.2610767704","0.6","0.2","0.8","0.4","0.2866085977","0.2610767704","0.1666409686","0.1605482003","","","","","","","","","","","","","","74","J","1","","","204","main_expt","",""
"","bandit","286","812464","0.0-246.0-0.0","02987400","wem/bandit_party_1","A3MF31JQ350ABS","either","5","285","","","","","","","0","0","1","","0.2832615928","0.6","0.2","0.8","0.4","0.2695546272","0.2832615928","0.2197286508","0.1406914754","","","","","","","","","","","","","","74","J","1","","","205","main_expt","",""
"","bandit","287","814270","0.0-247.0-0.0","02987400","wem/bandit_party_1","A3MF31JQ350ABS","either","5","285","","","","","","","0","0","1","0.1138947463","","0.6","0.2","0.8","0.4","","","","","0.2622178416","0.300913322","0.2754509052","0.1138947463","","","","","","","","","","76","L","3","","","206","main_expt","",""
"","bandit","288","816133","0.0-248.0-0.0","02987400","wem/bandit_party_1","A3MF31JQ350ABS","either","5","343","","","","","","","0","0","1","","0.3260258847","0.6","0.2","0.8","0.4","0.2498186578","0.3260258847","0.2664869377","0.1096702189","","","","","","","","","","","","","","74","J","1","","","207","main_expt","",""
"","bandit","289","817969","0.0-249.0-0.0","02987400","wem/bandit_party_1","A3MF31JQ350ABS","either","5","319","","","","","","","0","0","1","","0.2686565688","0.6","0.2","0.8","0.4","0.2335358635","0.3173829003","0.2686565688","0.09922356593","","","","","","","","","","","","","","75","K","2","","","208","main_expt","",""
"","bandit","290","819739","0.0-250.0-0.0","02987400","wem/bandit_party_1","A3MF31JQ350ABS","either","5","246","","","","","","","0","0","1","","0.3153846937","0.6","0.2","0.8","0.4","0.2638942681","0.3153846937","0.2380255957","0.101567507","","","","","","","","","","","","","","74","J","1","","","209","main_expt","",""
"","bandit","291","821592","0.0-251.0-0.0","02987400","wem/bandit_party_1","A3MF31JQ350ABS","either","5","332","","","","","","","0","0","1","","0.08675379402","0.6","0.2","0.8","0.4","0.2526926237","0.3010876552","0.2507768727","0.08675379402","","","","","","","","","","","","","","76","L","3","","","210","main_expt","",""
"","bandit","292","823396","0.0-252.0-0.0","02987400","wem/bandit_party_1","A3MF31JQ350ABS","either","5","284","","","","","","","1","0","0","0.2685142319","","0.6","0.2","0.8","0.4","","","","","0.2740367769","0.2864900033","0.2685142319","0.07512021269","","","","","","","","","","75","K","2","","","211","main_expt","",""
"","bandit","293","825225","0.0-253.0-0.0","02987400","wem/bandit_party_1","A3MF31JQ350ABS","either","5","316","","","","","","","0","0","1","","0.260511483","0.6","0.2","0.8","0.4","0.2440836191","0.3163372434","0.260511483","0.08144254236","","","","","","","","","","","","","","75","K","2","","","212","main_expt","",""
"","bandit","294","827431","0.0-254.0-0.0","02987400","wem/bandit_party_1","A3MF31JQ350ABS","either","5","688","","","","","","","0","1","0","","0.2341903104","0.6","0.2","0.8","0.4","0.2341903104","0.2701305136","0.2579605047","0.06585574052","","","","","","","","","","","","","","72","H","0","img/none_selected.jpg","","213","main_expt","",""
"","bandit","295","829247","0.0-255.0-0.0","02987400","wem/bandit_party_1","A3MF31JQ350ABS","either","5","304","","","","","","","0","0","1","0.2097526345","","0.6","0.2","0.8","0.4","","","","","0.2097526345","0.302599165","0.2470456849","0.08686614453","","","","","","","","","","72","H","0","img/none_selected.jpg","","214","main_expt","",""
"","bandit","296","831098","0.0-256.0-0.0","02987400","wem/bandit_party_1","A3MF31JQ350ABS","either","5","329","","","","","","","0","0","1","0.3285383036","","0.6","0.2","0.8","0.4","","","","","0.1796882487","0.2968005471","0.3285383036","0.1068548489","","","","","","","","","","75","K","2","","","215","main_expt","",""
"","bandit","297","833160","0.0-257.0-0.0","02987400","wem/bandit_party_1","A3MF31JQ350ABS","either","5","543","","","","","","","1","0","0","0.3780044773","","0.6","0.2","0.8","0.4","","","","","0.2237900511","0.2835536598","0.3780044773","0.1211736082","","","","","","","","","","75","K","2","","","216","main_expt","",""
"","bandit","298","835007","0.0-258.0-0.0","02987400","wem/bandit_party_1","A3MF31JQ350ABS","either","5","325","","","","","","","0","0","1","0.3939228946","","0.6","0.2","0.8","0.4","","","","","0.2265358539","0.2520762718","0.3939228946","0.09343701815","","","","","","","","","","75","K","2","","","217","main_expt","",""
"","bandit","299","837663","0.0-259.0-0.0","02987400","wem/bandit_party_1","A3MF31JQ350ABS","either","5","1134","","","","","","","0","0","1","","0.2364013437","0.6","0.2","0.8","0.4","0.2364013437","0.2562699476","0.3198270803","0.1001055386","","","","","","","","","","","","","","72","H","0","img/none_selected.jpg","","218","main_expt","",""
"","bandit","300","839603","0.0-260.0-0.0","02987400","wem/bandit_party_1","A3MF31JQ350ABS","either","5","419","","","","","","","0","0","1","0.3502502288","","0.6","0.2","0.8","0.4","","","","","0.2810560361","0.3002431464","0.3502502288","0.09524874014","","","","","","","","","","75","K","2","","","219","main_expt","",""
"","bandit","301","841541","0.0-261.0-0.0","02987400","wem/bandit_party_1","A3MF31JQ350ABS","either","5","417","","","","","","","0","0","1","0.3027429446","","0.6","0.2","0.8","0.4","","","","","0.3027429446","0.3365413303","0.3402456168","0.1304899995","","","","","","","","","","72","H","0","img/none_selected.jpg","","220","main_expt","",""
"","bandit","302","843920","0.0-262.0-0.0","02987400","wem/bandit_party_1","A3MF31JQ350ABS","either","5","857","","","","","","","0","1","0","","0.2946103072","0.6","0.2","0.8","0.4","0.3132134988","0.2946103072","0.3770059732","0.1272814923","","","","","","","","","","","","","","74","J","1","","","221","main_expt","",""
"","bandit","303","845826","0.0-263.0-0.0","02987400","wem/bandit_party_1","A3MF31JQ350ABS","either","5","385","","","","","","","0","0","1","","0.3267284332","0.6","0.2","0.8","0.4","0.2424821827","0.3267284332","0.3864421123","0.1654407056","","","","","","","","","","","","","","74","J","1","","","222","main_expt","",""
"","bandit","304","847748","0.0-264.0-0.0","02987400","wem/bandit_party_1","A3MF31JQ350ABS","either","5","402","","","","","","","0","0","1","0.1788325852","","0.6","0.2","0.8","0.4","","","","","0.2595367495","0.3175152631","0.4205211408","0.1788325852","","","","","","","","","","76","L","3","","","223","main_expt","",""
"","bandit","305","849570","0.0-265.0-0.0","02987400","wem/bandit_party_1","A3MF31JQ350ABS","either","5","302","","","","","","","0","0","1","0.4131889957","","0.6","0.2","0.8","0.4","","","","","0.328819141","0.3192400935","0.4131889957","0.1736623033","","","","","","","","","","75","K","2","","","224","main_expt","",""
"","bandit","306","851517","0.0-266.0-0.0","02987400","wem/bandit_party_1","A3MF31JQ350ABS","either","5","436","","","","","","","0","0","1","","0.3096750449","0.6","0.2","0.8","0.4","0.356121412","0.3096750449","0.4001513574","0.1721911447","","","","","","","","","","","","","","74","J","1","","","225","main_expt","",""
"","bandit","307","853496","0.0-267.0-0.0","02987400","wem/bandit_party_1","A3MF31JQ350ABS","either","5","468","","","","","","","0","0","1","0.3394019192","","0.6","0.2","0.8","0.4","","","","","0.3394019192","0.3142833063","0.3963688582","0.2133818582","","","","","","","","","","72","H","0","img/none_selected.jpg","","226","main_expt","",""
"","bandit","308","855392","0.0-268.0-0.0","02987400","wem/bandit_party_1","A3MF31JQ350ABS","either","5","377","","","","","","","0","0","1","0.2620007467","","0.6","0.2","0.8","0.4","","","","","0.2860553004","0.3096885674","0.3979714495","0.2620007467","","","","","","","","","","76","L","3","","","227","main_expt","",""
"","bandit","309","857218","0.0-269.0-0.0","02987400","wem/bandit_party_1","A3MF31JQ350ABS","either","5","305","","","","","","","1","0","0","0.3811043637","","0.6","0.2","0.8","0.4","","","","","0.2967856672","0.3048295172","0.3811043637","0.2961930455","","","","","","","","","","75","K","2","","","228","main_expt","",""
"","bandit","310","859096","0.0-270.0-0.0","02987400","wem/bandit_party_1","A3MF31JQ350ABS","either","5","355","","","","","","","0","0","1","0.3488149186","","0.6","0.2","0.8","0.4","","","","","0.2857745529","0.2553920021","0.3488149186","0.3081123415","","","","","","","","","","75","K","2","","","229","main_expt","",""
"","bandit","311","861310","0.0-271.0-0.0","02987400","wem/bandit_party_1","A3MF31JQ350ABS","either","5","691","","","","","","","0","0","1","","0.2783794412","0.6","0.2","0.8","0.4","0.2589404948","0.2783794412","0.2883621188","0.3027177586","","","","","","","","","","","","","","74","J","1","","","230","main_expt","",""
"","bandit","312","863543","0.0-272.0-0.0","02987400","wem/bandit_party_1","A3MF31JQ350ABS","either","5","708","","","","","","","0","0","1","0.2628441024","","0.6","0.2","0.8","0.4","","","","","0.2628441024","0.2735536708","0.2444465504","0.2495346478","","","","","","","","","","72","H","0","img/none_selected.jpg","","231","main_expt","",""
