"consent","trial_type","trial_index","time_elapsed","internal_node_id","subjID","study","MID","cond","drift","rt","responses","button_pressed","key_press","like","value","connected","gems","bombs","no_reward","GemPrChosen","BombPrChosen","GainOverPainPr_0","GainOverPainPr_1","GainOverPainPr_2","GainOverPainPr_3","LosePr_0","LosePr_1","LosePr_2","LosePr_3","WinPr_0","WinPr_1","WinPr_2","WinPr_3","Q0","Q1","Q2","gender","age","ethnicity","label","expt_phase","target","respCharCode","respKey","respChoiceNum","respChoice","practice","trial_counter","trial_label","Q0_index"
"GDM/GDM_behavioral_consent_30min_online.html","consent","0","7081","0.0-0.0","04267463","wem/bandit_party_1","A38LEVBZ3P5F6T","either","5","","","","","","","","","","","","","","","","","","","","","","","","","","","","","","","","","","","","","","","","",""
"","survey-text","1","14881","0.0-1.0","04267463","wem/bandit_party_1","A38LEVBZ3P5F6T","either","5","6793","{""Q0"":""A38LEVBZ3P5F6T""}","","","","","","","","","","","","","","","","","","","","","","","","","","","","","","","","","","","","","","",""
"","button-response","2","17341","0.0-2.0","04267463","wem/bandit_party_1","A38LEVBZ3P5F6T","either","5","1454","","0","","","","","","","","","","","","","","","","","","","","","","","","","","","","","","","","","","","","","",""
"","text-replacement","3","32398","0.0-3.0","04267463","wem/bandit_party_1","A38LEVBZ3P5F6T","either","5","14052","","","32","","","","","","","","","","","","","","","","","","","","","","","","","","","","","","","","","","","","",""
"","text-replacement","4","41284","0.0-4.0","04267463","wem/bandit_party_1","A38LEVBZ3P5F6T","either","5","8884","","","32","","","","","","","","","","","","","","","","","","","","","","","","","","","","","","","","","","","","",""
"","identification","5","52214","0.0-6.0-0.0","04267463","wem/bandit_party_1","A38LEVBZ3P5F6T","either","5","10920","","","","3","3","2","","","","","","","","","","","","","","","","","","","","","","","","pre","identification_pre","the Democratic Party","","","","","","","",""
"","identification","6","59384","0.0-6.0-1.0","04267463","wem/bandit_party_1","A38LEVBZ3P5F6T","either","5","6158","","","","4","4","4","","","","","","","","","","","","","","","","","","","","","","","","pre","identification_pre","the Republican party","","","","","","","",""
"","text-replacement","7","69359","0.0-7.0","04267463","wem/bandit_party_1","A38LEVBZ3P5F6T","either","5","8973","","","32","","","","","","","","","","","","","","","","","","","","","","","","","","","","","","","","","","","","",""
"","text-replacement","8","76069","0.0-8.0","04267463","wem/bandit_party_1","A38LEVBZ3P5F6T","either","5","6708","","","32","","","","","","","","","","","","","","","","","","","","","","","","","","","","","","","","","","","","",""
"","text-replacement","9","93156","0.0-9.0","04267463","wem/bandit_party_1","A38LEVBZ3P5F6T","either","5","17082","","","32","","","","","","","","","","","","","","","","","","","","","","","","","","","","","","","","","","","","",""
"","text-replacement","10","97475","0.0-10.0","04267463","wem/bandit_party_1","A38LEVBZ3P5F6T","either","5","4317","","","32","","","","","","","","","","","","","","","","","","","","","","","","","","","","","","","","","","","","",""
"","text-replacement","11","101440","0.0-11.0","04267463","wem/bandit_party_1","A38LEVBZ3P5F6T","either","5","3964","","","32","","","","","","","","","","","","","","","","","","","","","","","","","","","","","","","","","","","","",""
"","bandit","12","104430","0.0-12.0-0.0","04267463","wem/bandit_party_1","A38LEVBZ3P5F6T","either","5","1484","","","","","","","0","0","1","0","0","","","","","0","","","","0","","","","","","","","","","","","","74","J","0","img/none_selected_demo.jpg","true","0","",""
"","bandit","13","108167","0.0-13.0-0.0","04267463","wem/bandit_party_1","A38LEVBZ3P5F6T","either","5","2232","","","","","","","0","0","1","0","0","","","","","0","","","","0","","","","","","","","","","","","","75","K","0","img/none_selected_demo.jpg","true","0","",""
"","text-replacement","14","116795","0.0-14.0","04267463","wem/bandit_party_1","A38LEVBZ3P5F6T","either","5","8623","","","32","","","","","","","","","","","","","","","","","","","","","","","","","","","","","","","","","","","","",""
"","text-replacement","15","122496","0.0-15.0","04267463","wem/bandit_party_1","A38LEVBZ3P5F6T","either","5","5697","","","32","","","","","","","","","","","","","","","","","","","","","","","","","","","","","","","","","","","","",""
"","text-replacement","16","128252","0.0-16.0","04267463","wem/bandit_party_1","A38LEVBZ3P5F6T","either","5","5754","","","32","","","","","","","","","","","","","","","","","","","","","","","","","","","","","","","","","","","","",""
"","text-replacement","17","141442","0.0-17.0","04267463","wem/bandit_party_1","A38LEVBZ3P5F6T","either","5","13187","","","32","","","","","","","","","","","","","","","","","","","","","","","","","","","","","","","","","","","","",""
"","bandit","18","143889","0.0-18.0-0.0","04267463","wem/bandit_party_1","A38LEVBZ3P5F6T","either","5","939","","","","","","","0","1","0","","0.8","0.5","0.5","","","0.8","0.2","","","","","","","","","","","","","","","","74","J","0","img/none_selected_demo.jpg","true","0","80_20_practice",""
"","bandit","19","147373","0.0-18.0-1.0","04267463","wem/bandit_party_1","A38LEVBZ3P5F6T","either","5","1977","","","","","","","0","0","1","","0.2","0.5","0.5","","","0.8","0.2","","","","","","","","","","","","","","","","75","K","1","","true","0","80_20_practice",""
"","bandit","20","149716","0.0-18.0-2.0","04267463","wem/bandit_party_1","A38LEVBZ3P5F6T","either","5","834","","","","","","","0","1","0","","0.8","0.5","0.5","","","0.8","0.2","","","","","","","","","","","","","","","","74","J","0","img/none_selected_demo.jpg","true","0","80_20_practice",""
"","bandit","21","151961","0.0-18.0-3.0","04267463","wem/bandit_party_1","A38LEVBZ3P5F6T","either","5","737","","","","","","","1","0","0","0.8","","0.5","0.5","","","","","","","0.8","0.2","","","","","","","","","","","","74","J","0","img/none_selected_demo.jpg","true","0","80_20_practice",""
"","bandit","22","153701","0.0-18.0-4.0","04267463","wem/bandit_party_1","A38LEVBZ3P5F6T","either","5","233","","","","","","","0","1","0","","0.8","0.5","0.5","","","0.8","0.2","","","","","","","","","","","","","","","","74","J","0","img/none_selected_demo.jpg","true","0","80_20_practice",""
"","bandit","23","155462","0.0-18.0-5.0","04267463","wem/bandit_party_1","A38LEVBZ3P5F6T","either","5","251","","","","","","","0","1","0","","0.8","0.5","0.5","","","0.8","0.2","","","","","","","","","","","","","","","","74","J","0","img/none_selected_demo.jpg","true","0","80_20_practice",""
"","bandit","24","157081","0.0-18.0-6.0","04267463","wem/bandit_party_1","A38LEVBZ3P5F6T","either","5","111","","","","","","","0","1","0","","0.8","0.5","0.5","","","0.8","0.2","","","","","","","","","","","","","","","","74","J","0","img/none_selected_demo.jpg","true","0","80_20_practice",""
"","bandit","25","158843","0.0-18.0-7.0","04267463","wem/bandit_party_1","A38LEVBZ3P5F6T","either","5","255","","","","","","","0","1","0","","0.8","0.5","0.5","","","0.8","0.2","","","","","","","","","","","","","","","","74","J","0","img/none_selected_demo.jpg","true","0","80_20_practice",""
"","bandit","26","160516","0.0-18.0-8.0","04267463","wem/bandit_party_1","A38LEVBZ3P5F6T","either","5","167","","","","","","","0","1","0","","0.8","0.5","0.5","","","0.8","0.2","","","","","","","","","","","","","","","","74","J","0","img/none_selected_demo.jpg","true","0","80_20_practice",""
"","bandit","27","162435","0.0-18.0-9.0","04267463","wem/bandit_party_1","A38LEVBZ3P5F6T","either","5","412","","","","","","","1","0","0","0.8","","0.5","0.5","","","","","","","0.8","0.2","","","","","","","","","","","","74","J","0","img/none_selected_demo.jpg","true","0","80_20_practice",""
"","bandit","28","164151","0.0-18.0-10.0","04267463","wem/bandit_party_1","A38LEVBZ3P5F6T","either","5","210","","","","","","","1","0","0","0.8","","0.5","0.5","","","","","","","0.8","0.2","","","","","","","","","","","","74","J","0","img/none_selected_demo.jpg","true","0","80_20_practice",""
"","bandit","29","165797","0.0-18.0-11.0","04267463","wem/bandit_party_1","A38LEVBZ3P5F6T","either","5","138","","","","","","","1","0","0","0.8","","0.5","0.5","","","","","","","0.8","0.2","","","","","","","","","","","","74","J","0","img/none_selected_demo.jpg","true","0","80_20_practice",""
"","bandit","30","167306","0.0-18.0-12.0","04267463","wem/bandit_party_1","A38LEVBZ3P5F6T","either","5","1","","","","","","","1","0","0","0.8","","0.5","0.5","","","","","","","0.8","0.2","","","","","","","","","","","","74","J","0","img/none_selected_demo.jpg","true","0","80_20_practice",""
"","bandit","31","168907","0.0-18.0-13.0","04267463","wem/bandit_party_1","A38LEVBZ3P5F6T","either","5","93","","","","","","","0","1","0","","0.8","0.5","0.5","","","0.8","0.2","","","","","","","","","","","","","","","","74","J","0","img/none_selected_demo.jpg","true","0","80_20_practice",""
"","bandit","32","170535","0.0-18.0-14.0","04267463","wem/bandit_party_1","A38LEVBZ3P5F6T","either","5","121","","","","","","","1","0","0","0.8","","0.5","0.5","","","","","","","0.8","0.2","","","","","","","","","","","","74","J","0","img/none_selected_demo.jpg","true","0","80_20_practice",""
"","bandit","33","173231","0.0-18.0-15.0","04267463","wem/bandit_party_1","A38LEVBZ3P5F6T","either","5","1188","","","","","","","0","1","0","","0.8","0.5","0.5","","","0.8","0.2","","","","","","","","","","","","","","","","74","J","0","img/none_selected_demo.jpg","true","0","80_20_practice",""
"","bandit","34","175722","0.0-18.0-16.0","04267463","wem/bandit_party_1","A38LEVBZ3P5F6T","either","5","984","","","","","","","0","1","0","","0.8","0.5","0.5","","","0.8","0.2","","","","","","","","","","","","","","","","74","J","0","img/none_selected_demo.jpg","true","0","80_20_practice",""
"","bandit","35","178606","0.0-18.0-17.0","04267463","wem/bandit_party_1","A38LEVBZ3P5F6T","either","5","1377","","","","","","","0","1","0","","0.8","0.5","0.5","","","0.8","0.2","","","","","","","","","","","","","","","","74","J","0","img/none_selected_demo.jpg","true","0","80_20_practice",""
"","bandit","36","180113","0.0-18.0-18.0","04267463","wem/bandit_party_1","A38LEVBZ3P5F6T","either","5","1","","","","","","","1","0","0","0.2","","0.5","0.5","","","","","","","0.8","0.2","","","","","","","","","","","","75","K","1","","true","0","80_20_practice",""
"","bandit","37","181885","0.0-18.0-19.0","04267463","wem/bandit_party_1","A38LEVBZ3P5F6T","either","5","264","","","","","","","0","0","1","0.2","","0.5","0.5","","","","","","","0.8","0.2","","","","","","","","","","","","75","K","1","","true","0","80_20_practice",""
"","text-replacement","38","187747","0.0-19.0","04267463","wem/bandit_party_1","A38LEVBZ3P5F6T","either","5","5860","","","32","","","","","","","","","","","","","","","","","","","","","","","","","","","","","","","","","","","","",""
"","bandit","39","190200","0.0-20.0-0.0","04267463","wem/bandit_party_1","A38LEVBZ3P5F6T","either","5","946","","","","","","","1","0","0","1","0","","","","","0","1","","","1","0","","","","","","","","","","","","74","J","0","img/none_selected_demo.jpg","true","0","",""
"","text-replacement","40","197600","0.0-21.0","04267463","wem/bandit_party_1","A38LEVBZ3P5F6T","either","5","7397","","","32","","","","","","","","","","","","","","","","","","","","","","","","","","","","","","","","","","","","",""
"","text-replacement","41","201455","0.0-22.0","04267463","wem/bandit_party_1","A38LEVBZ3P5F6T","either","5","3854","","","32","","","","","","","","","","","","","","","","","","","","","","","","","","","","","","","","","","","","",""
"","text-replacement","42","204919","0.0-23.0","04267463","wem/bandit_party_1","A38LEVBZ3P5F6T","either","5","3461","","","32","","","","","","","","","","","","","","","","","","","","","","","","","","","","","","","","","","","","",""
"","text-replacement","43","207946","0.0-24.0","04267463","wem/bandit_party_1","A38LEVBZ3P5F6T","either","5","3023","","","32","","","","","","","","","","","","","","","","","","","","","","","","","","","","","","","","","","","","",""
"","text-replacement","44","219707","0.0-25.0","04267463","wem/bandit_party_1","A38LEVBZ3P5F6T","either","5","11759","","","32","","","","","","","","","","","","","","","","","","","","","","","","","","","","","","","","","","","","",""
"","text-replacement","45","222522","0.0-26.0","04267463","wem/bandit_party_1","A38LEVBZ3P5F6T","either","5","2812","","","32","","","","","","","","","","","","","","","","","","","","","","","","","","","","","","","","","","","","",""
"","text-replacement","46","225913","0.0-27.0","04267463","wem/bandit_party_1","A38LEVBZ3P5F6T","either","5","3390","","","32","","","","","","","","","","","","","","","","","","","","","","","","","","","","","","","","","","","","",""
"","text-replacement","47","228740","0.0-28.0","04267463","wem/bandit_party_1","A38LEVBZ3P5F6T","either","5","2824","","","32","","","","","","","","","","","","","","","","","","","","","","","","","","","","","","","","","","","","",""
"","text-replacement","48","231722","0.0-29.0","04267463","wem/bandit_party_1","A38LEVBZ3P5F6T","either","5","2979","","","32","","","","","","","","","","","","","","","","","","","","","","","","","","","","","","","","","","","","",""
"","text-replacement","49","233429","0.0-30.0","04267463","wem/bandit_party_1","A38LEVBZ3P5F6T","either","5","1704","","","32","","","","","","","","","","","","","","","","","","","","","","","","","","","","","","","","","","","","",""
"","text-replacement","50","240133","0.0-31.0","04267463","wem/bandit_party_1","A38LEVBZ3P5F6T","either","5","6701","","","32","","","","","","","","","","","","","","","","","","","","","","","","","","","","","","","","","","","","",""
"","bandit","51","242335","0.0-32.0-0.0","04267463","wem/bandit_party_1","A38LEVBZ3P5F6T","either","5","694","","","","","","","0","1","0","","0.8","0.5","0.5","0.5","0.5","0.8","0.2","0.6","0.2","","","","","","","","","","","","","","72","H","0","img/none_selected.jpg","true","0","full_practice",""
"","bandit","52","244123","0.0-32.0-1.0","04267463","wem/bandit_party_1","A38LEVBZ3P5F6T","either","5","280","","","","","","","1","0","0","0.8","","0.5","0.5","0.5","0.5","","","","","0.8","0.2","0.6","0.2","","","","","","","","","","72","H","0","img/none_selected.jpg","true","0","full_practice",""
"","bandit","53","245776","0.0-32.0-2.0","04267463","wem/bandit_party_1","A38LEVBZ3P5F6T","either","5","147","","","","","","","0","1","0","","0.8","0.5","0.5","0.5","0.5","0.8","0.2","0.6","0.2","","","","","","","","","","","","","","72","H","0","img/none_selected.jpg","true","0","full_practice",""
"","bandit","54","247491","0.0-32.0-3.0","04267463","wem/bandit_party_1","A38LEVBZ3P5F6T","either","5","205","","","","","","","0","1","0","","0.8","0.5","0.5","0.5","0.5","0.8","0.2","0.6","0.2","","","","","","","","","","","","","","72","H","0","img/none_selected.jpg","true","0","full_practice",""
"","bandit","55","249120","0.0-32.0-4.0","04267463","wem/bandit_party_1","A38LEVBZ3P5F6T","either","5","122","","","","","","","0","0","1","0.8","","0.5","0.5","0.5","0.5","","","","","0.8","0.2","0.6","0.2","","","","","","","","","","72","H","0","img/none_selected.jpg","true","0","full_practice",""
"","bandit","56","250750","0.0-32.0-5.0","04267463","wem/bandit_party_1","A38LEVBZ3P5F6T","either","5","124","","","","","","","0","0","1","0.2","","0.5","0.5","0.5","0.5","","","","","0.8","0.2","0.6","0.2","","","","","","","","","","74","J","1","","true","0","full_practice",""
"","bandit","57","252750","0.0-32.0-6.0","04267463","wem/bandit_party_1","A38LEVBZ3P5F6T","either","5","493","","","","","","","0","0","1","0.2","","0.5","0.5","0.5","0.5","","","","","0.8","0.2","0.6","0.2","","","","","","","","","","76","L","3","","true","0","full_practice",""
"","bandit","58","254440","0.0-32.0-7.0","04267463","wem/bandit_party_1","A38LEVBZ3P5F6T","either","5","187","","","","","","","1","0","0","0.6","","0.5","0.5","0.5","0.5","","","","","0.8","0.2","0.6","0.2","","","","","","","","","","75","K","2","","true","0","full_practice",""
"","bandit","59","256145","0.0-32.0-8.0","04267463","wem/bandit_party_1","A38LEVBZ3P5F6T","either","5","197","","","","","","","0","0","1","0.6","","0.5","0.5","0.5","0.5","","","","","0.8","0.2","0.6","0.2","","","","","","","","","","75","K","2","","true","0","full_practice",""
"","bandit","60","257855","0.0-32.0-9.0","04267463","wem/bandit_party_1","A38LEVBZ3P5F6T","either","5","201","","","","","","","0","0","1","","0.2","0.5","0.5","0.5","0.5","0.8","0.2","0.6","0.2","","","","","","","","","","","","","","74","J","1","","true","0","full_practice",""
"","bandit","61","259575","0.0-32.0-10.0","04267463","wem/bandit_party_1","A38LEVBZ3P5F6T","either","5","212","","","","","","","0","0","1","","0.2","0.5","0.5","0.5","0.5","0.8","0.2","0.6","0.2","","","","","","","","","","","","","","74","J","1","","true","0","full_practice",""
"","bandit","62","261181","0.0-32.0-11.0","04267463","wem/bandit_party_1","A38LEVBZ3P5F6T","either","5","98","","","","","","","0","0","1","0.2","","0.5","0.5","0.5","0.5","","","","","0.8","0.2","0.6","0.2","","","","","","","","","","76","L","3","","true","0","full_practice",""
"","bandit","63","263253","0.0-32.0-12.0","04267463","wem/bandit_party_1","A38LEVBZ3P5F6T","either","5","564","","","","","","","0","1","0","","0.8","0.5","0.5","0.5","0.5","0.8","0.2","0.6","0.2","","","","","","","","","","","","","","72","H","0","img/none_selected.jpg","true","0","full_practice",""
"","bandit","64","264906","0.0-32.0-13.0","04267463","wem/bandit_party_1","A38LEVBZ3P5F6T","either","5","145","","","","","","","0","0","1","0.8","","0.5","0.5","0.5","0.5","","","","","0.8","0.2","0.6","0.2","","","","","","","","","","72","H","0","img/none_selected.jpg","true","0","full_practice",""
"","bandit","65","266713","0.0-32.0-14.0","04267463","wem/bandit_party_1","A38LEVBZ3P5F6T","either","5","299","","","","","","","0","1","0","","0.2","0.5","0.5","0.5","0.5","0.8","0.2","0.6","0.2","","","","","","","","","","","","","","74","J","1","","true","0","full_practice",""
"","bandit","66","268419","0.0-32.0-15.0","04267463","wem/bandit_party_1","A38LEVBZ3P5F6T","either","5","198","","","","","","","0","0","1","","0.2","0.5","0.5","0.5","0.5","0.8","0.2","0.6","0.2","","","","","","","","","","","","","","74","J","1","","true","0","full_practice",""
"","bandit","67","270084","0.0-32.0-16.0","04267463","wem/bandit_party_1","A38LEVBZ3P5F6T","either","5","159","","","","","","","0","1","0","","0.2","0.5","0.5","0.5","0.5","0.8","0.2","0.6","0.2","","","","","","","","","","","","","","74","J","1","","true","0","full_practice",""
"","bandit","68","271737","0.0-32.0-17.0","04267463","wem/bandit_party_1","A38LEVBZ3P5F6T","either","5","145","","","","","","","0","1","0","","0.2","0.5","0.5","0.5","0.5","0.8","0.2","0.6","0.2","","","","","","","","","","","","","","74","J","1","","true","0","full_practice",""
"","bandit","69","273314","0.0-32.0-18.0","04267463","wem/bandit_party_1","A38LEVBZ3P5F6T","either","5","68","","","","","","","0","1","0","","0.6","0.5","0.5","0.5","0.5","0.8","0.2","0.6","0.2","","","","","","","","","","","","","","75","K","2","","true","0","full_practice",""
"","bandit","70","274839","0.0-32.0-19.0","04267463","wem/bandit_party_1","A38LEVBZ3P5F6T","either","5","18","","","","","","","0","0","1","","0.6","0.5","0.5","0.5","0.5","0.8","0.2","0.6","0.2","","","","","","","","","","","","","","75","K","2","","true","0","full_practice",""
"","text","71","278267","0.0-33.0","04267463","wem/bandit_party_1","A38LEVBZ3P5F6T","either","5","3423","","","32","","","","","","","","","","","","","","","","","","","","","","","","","","","","","","","","","","","","",""
"","text-replacement","72","294685","0.0-34.0","04267463","wem/bandit_party_1","A38LEVBZ3P5F6T","either","5","15414","","","32","","","","","","","","","","","","","","","","","","","","","","","","","","","","","","","","","","","","",""
"","text-replacement","73","307000","0.0-35.0","04267463","wem/bandit_party_1","A38LEVBZ3P5F6T","either","5","12313","","","32","","","","","","","","","","","","","","","","","","","","","","","","","","","","","","","","","","","","",""
"","text-replacement","74","310468","0.0-36.0","04267463","wem/bandit_party_1","A38LEVBZ3P5F6T","either","5","3467","","","32","","","","","","","","","","","","","","","","","","","","","","","","","","","","","","","","","","","","",""
"","text-replacement","75","315041","0.0-37.0","04267463","wem/bandit_party_1","A38LEVBZ3P5F6T","either","5","4571","","","32","","","","","","","","","","","","","","","","","","","","","","","","","","","","","","","","","","","","",""
"","text-replacement","76","320712","0.0-38.0","04267463","wem/bandit_party_1","A38LEVBZ3P5F6T","either","5","5669","","","32","","","","","","","","","","","","","","","","","","","","","","","","","","","","","","","","","","","","",""
"","survey-multi-choice-replacement","77","325950","0.0-39.0-0.0","04267463","wem/bandit_party_1","A38LEVBZ3P5F6T","either","5","5231","","","","","","","","","","","","","","","","","","","","","","","","Money will be added to the pool for <span style='color:red;'>REPUBLICANS</span>","","","","","","","attn_check","","","","","","","","","0"
"","survey-multi-choice-replacement","78","331711","0.0-40.0-0.0","04267463","wem/bandit_party_1","A38LEVBZ3P5F6T","either","5","4752","","","","","","","","","","","","","","","","","","","","","","","","Equal amounts of money will be added to the pool for <span style='color:red;'>REPUBLICANS</span> and subtracted from the pool for <span style='color:blue;'>DEMOCRATS</span>","","","","","","","attn_check","","","","","","","","","2"
"","survey-multi-choice-replacement","79","335617","0.0-41.0-0.0","04267463","wem/bandit_party_1","A38LEVBZ3P5F6T","either","5","2898","","","","","","","","","","","","","","","","","","","","","","","","No money will be added to either pool","","","","","","","attn_check","","","","","","","","","3"
"","bandit","80","339709","0.0-42.0-0.0","04267463","wem/bandit_party_1","A38LEVBZ3P5F6T","either","5","1581","","","","","","","1","0","0","0.3340388524","","0.6","0.2","0.8","0.4","","","","","0.3340388524","0.3897275569","0.1165465043","0.4265570961","","","","","","","","","","72","H","0","img/none_selected.jpg","","1","main_expt",""
"","bandit","81","341595","0.0-43.0-0.0","04267463","wem/bandit_party_1","A38LEVBZ3P5F6T","either","5","379","","","","","","","0","0","1","0.3223834482","","0.6","0.2","0.8","0.4","","","","","0.3223834482","0.3911966266","0.08371899021","0.4177099958","","","","","","","","","","72","H","0","img/none_selected.jpg","","2","main_expt",""
"","bandit","82","343744","0.0-44.0-0.0","04267463","wem/bandit_party_1","A38LEVBZ3P5F6T","either","5","641","","","","","","","0","0","1","","0.4074861021","0.6","0.2","0.8","0.4","0.3585509001","0.4074861021","0.04339790364","0.4192185534","","","","","","","","","","","","","","74","J","1","","","3","main_expt",""
"","bandit","83","345417","0.0-45.0-0.0","04267463","wem/bandit_party_1","A38LEVBZ3P5F6T","either","5","163","","","","","","","0","0","1","0.3416436242","","0.6","0.2","0.8","0.4","","","","","0.3416436242","0.3965638453","0.04073472785","0.4241610434","","","","","","","","","","72","H","0","img/none_selected.jpg","","4","main_expt",""
"","bandit","84","347111","0.0-46.0-0.0","04267463","wem/bandit_party_1","A38LEVBZ3P5F6T","either","5","186","","","","","","","0","0","1","0.04731773769","","0.6","0.2","0.8","0.4","","","","","0.3444758892","0.3688269119","0.04731773769","0.4284837315","","","","","","","","","","75","K","2","","","5","main_expt",""
"","bandit","85","348961","0.0-47.0-0.0","04267463","wem/bandit_party_1","A38LEVBZ3P5F6T","either","5","342","","","","","","","0","1","0","","0.4328708062","0.6","0.2","0.8","0.4","0.3574177426","0.3865867917","0.05617088868","0.4328708062","","","","","","","","","","","","","","76","L","3","","","6","main_expt",""
"","bandit","86","350688","0.0-48.0-0.0","04267463","wem/bandit_party_1","A38LEVBZ3P5F6T","either","5","219","","","","","","","0","0","1","","0.4176545671","0.6","0.2","0.8","0.4","0.3634052143","0.4294719924","0.05606577856","0.4176545671","","","","","","","","","","","","","","76","L","3","","","7","main_expt",""
"","bandit","87","352491","0.0-49.0-0.0","04267463","wem/bandit_party_1","A38LEVBZ3P5F6T","either","5","293","","","","","","","1","0","0","0.4022395488","","0.6","0.2","0.8","0.4","","","","","0.3675420607","0.4210378118","0.09244853328","0.4022395488","","","","","","","","","","76","L","3","","","8","main_expt",""
"","bandit","88","354238","0.0-50.0-0.0","04267463","wem/bandit_party_1","A38LEVBZ3P5F6T","either","5","239","","","","","","","0","0","1","","0.3929004949","0.6","0.2","0.8","0.4","0.3921196104","0.4502112583","0.1271341085","0.3929004949","","","","","","","","","","","","","","76","L","3","","","9","main_expt",""
"","bandit","89","355958","0.0-51.0-0.0","04267463","wem/bandit_party_1","A38LEVBZ3P5F6T","either","5","212","","","","","","","1","0","0","0.3863711448","","0.6","0.2","0.8","0.4","","","","","0.4026182126","0.4452653155","0.1370717255","0.3863711448","","","","","","","","","","76","L","3","","","10","main_expt",""
"","bandit","90","357641","0.0-52.0-0.0","04267463","wem/bandit_party_1","A38LEVBZ3P5F6T","either","5","174","","","","","","","0","1","0","","0.4205849279","0.6","0.2","0.8","0.4","0.3543069494","0.4352349267","0.1275050207","0.4205849279","","","","","","","","","","","","","","76","L","3","","","11","main_expt",""
"","bandit","91","359356","0.0-53.0-0.0","04267463","wem/bandit_party_1","A38LEVBZ3P5F6T","either","5","206","","","","","","","0","0","1","0.4525069231","","0.6","0.2","0.8","0.4","","","","","0.3504097904","0.4029030639","0.122317004","0.4525069231","","","","","","","","","","76","L","3","","","12","main_expt",""
"","bandit","92","360945","0.0-54.0-0.0","04267463","wem/bandit_party_1","A38LEVBZ3P5F6T","either","5","81","","","","","","","0","1","0","","0.4485799753","0.6","0.2","0.8","0.4","0.2787441393","0.4198147105","0.1251711411","0.4485799753","","","","","","","","","","","","","","76","L","3","","","13","main_expt",""
"","bandit","93","362639","0.0-55.0-0.0","04267463","wem/bandit_party_1","A38LEVBZ3P5F6T","either","5","185","","","","","","","1","0","0","0.4504049656","","0.6","0.2","0.8","0.4","","","","","0.2723245106","0.3761312174","0.1380641988","0.4504049656","","","","","","","","","","76","L","3","","","14","main_expt",""
"","bandit","94","364207","0.0-56.0-0.0","04267463","wem/bandit_party_1","A38LEVBZ3P5F6T","either","5","60","","","","","","","1","0","0","0.4281165459","","0.6","0.2","0.8","0.4","","","","","0.3687644442","0.4017507227","0.2010812313","0.4281165459","","","","","","","","","","76","L","3","","","15","main_expt",""
"","bandit","95","365912","0.0-57.0-0.0","04267463","wem/bandit_party_1","A38LEVBZ3P5F6T","either","5","197","","","","","","","0","1","0","","0.4035101098","0.6","0.2","0.8","0.4","0.3992289848","0.3859888637","0.1747275657","0.4035101098","","","","","","","","","","","","","","76","L","3","","","16","main_expt",""
"","bandit","96","367513","0.0-58.0-0.0","04267463","wem/bandit_party_1","A38LEVBZ3P5F6T","either","5","93","","","","","","","0","0","1","0.4063691663","","0.6","0.2","0.8","0.4","","","","","0.4067061876","0.3706978481","0.1816524112","0.4063691663","","","","","","","","","","76","L","3","","","17","main_expt",""
"","bandit","97","369108","0.0-59.0-0.0","04267463","wem/bandit_party_1","A38LEVBZ3P5F6T","either","5","86","","","","","","","0","0","1","","0.4201618032","0.6","0.2","0.8","0.4","0.3969002131","0.3323991027","0.1700798448","0.4201618032","","","","","","","","","","","","","","76","L","3","","","18","main_expt",""
"","bandit","98","370636","0.0-60.0-0.0","04267463","wem/bandit_party_1","A38LEVBZ3P5F6T","either","5","23","","","","","","","1","0","0","0.3868389751","","0.6","0.2","0.8","0.4","","","","","0.3930099592","0.3301718366","0.1998500639","0.3868389751","","","","","","","","","","76","L","3","","","19","main_expt",""
"","bandit","99","372230","0.0-61.0-0.0","04267463","wem/bandit_party_1","A38LEVBZ3P5F6T","either","5","86","","","","","","","0","0","1","","0.3868875991","0.6","0.2","0.8","0.4","0.3791602553","0.3714618997","0.2418808817","0.3868875991","","","","","","","","","","","","","","76","L","3","","","20","main_expt",""
"","bandit","100","373824","0.0-62.0-0.0","04267463","wem/bandit_party_1","A38LEVBZ3P5F6T","either","5","87","","","","","","","0","0","1","","0.4253770554","0.6","0.2","0.8","0.4","0.4127515201","0.3621694591","0.2293341009","0.4253770554","","","","","","","","","","","","","","76","L","3","","","21","main_expt",""
"","bandit","101","375366","0.0-63.0-0.0","04267463","wem/bandit_party_1","A38LEVBZ3P5F6T","either","5","34","","","","","","","0","0","1","","0.3648829928","0.6","0.2","0.8","0.4","0.4164833055","0.3648829928","0.2074184163","0.4285762007","","","","","","","","","","","","","","74","J","1","","","22","main_expt",""
"","bandit","102","377036","0.0-64.0-0.0","04267463","wem/bandit_party_1","A38LEVBZ3P5F6T","either","5","161","","","","","","","1","0","0","0.1832507358","","0.6","0.2","0.8","0.4","","","","","0.4143027846","0.2856994719","0.1832507358","0.4082522222","","","","","","","","","","75","K","2","","","23","main_expt",""
"","bandit","103","378637","0.0-65.0-0.0","04267463","wem/bandit_party_1","A38LEVBZ3P5F6T","either","5","92","","","","","","","0","0","1","","0.1469425149","0.6","0.2","0.8","0.4","0.3649270698","0.3152516524","0.1469425149","0.4027270218","","","","","","","","","","","","","","75","K","2","","","24","main_expt",""
"","bandit","104","381009","0.0-66.0-0.0","04267463","wem/bandit_party_1","A38LEVBZ3P5F6T","either","5","864","","","","","","","0","0","1","","0.392676409","0.6","0.2","0.8","0.4","0.392676409","0.2778145345","0.102794739","0.4100212433","","","","","","","","","","","","","","72","H","0","img/none_selected.jpg","","25","main_expt",""
"","bandit","105","382891","0.0-67.0-0.0","04267463","wem/bandit_party_1","A38LEVBZ3P5F6T","either","5","372","","","","","","","0","0","1","0.4031565401","","0.6","0.2","0.8","0.4","","","","","0.4031565401","0.3170506137","0.1173732637","0.4190791169","","","","","","","","","","72","H","0","img/none_selected.jpg","","26","main_expt",""
"","bandit","106","384735","0.0-68.0-0.0","04267463","wem/bandit_party_1","A38LEVBZ3P5F6T","either","5","335","","","","","","","0","0","1","0.08835016803","","0.6","0.2","0.8","0.4","","","","","0.4245959001","0.3223143746","0.08835016803","0.4527212376","","","","","","","","","","75","K","2","","","27","main_expt",""
"","bandit","107","386589","0.0-69.0-0.0","04267463","wem/bandit_party_1","A38LEVBZ3P5F6T","either","5","345","","","","","","","0","0","1","","0.3234472479","0.6","0.2","0.8","0.4","0.4232885055","0.3234472479","0.1134440288","0.4480998813","","","","","","","","","","","","","","74","J","1","","","28","main_expt",""
"","bandit","108","388187","0.0-70.0-0.0","04267463","wem/bandit_party_1","A38LEVBZ3P5F6T","either","5","89","","","","","","","0","0","1","","0.2881425904","0.6","0.2","0.8","0.4","0.4495512981","0.2881425904","0.1982905849","0.4628669208","","","","","","","","","","","","","","74","J","1","","","29","main_expt",""
"","bandit","109","389743","0.0-71.0-0.0","04267463","wem/bandit_party_1","A38LEVBZ3P5F6T","either","5","48","","","","","","","0","1","0","","0.4565655028","0.6","0.2","0.8","0.4","0.4485299892","0.2326555855","0.2366655967","0.4565655028","","","","","","","","","","","","","","76","L","3","","","30","main_expt",""
"","bandit","110","391340","0.0-72.0-0.0","04267463","wem/bandit_party_1","A38LEVBZ3P5F6T","either","5","88","","","","","","","0","0","1","","0.4686031056","0.6","0.2","0.8","0.4","0.4599237238","0.2364604256","0.1622470467","0.4686031056","","","","","","","","","","","","","","76","L","3","","","31","main_expt",""
"","bandit","111","392918","0.0-73.0-0.0","04267463","wem/bandit_party_1","A38LEVBZ3P5F6T","either","5","69","","","","","","","1","0","0","0.4659582456","","0.6","0.2","0.8","0.4","","","","","0.4508116693","0.2451982598","0.1771911602","0.4659582456","","","","","","","","","","76","L","3","","","32","main_expt",""
"","bandit","112","394651","0.0-74.0-0.0","04267463","wem/bandit_party_1","A38LEVBZ3P5F6T","either","5","222","","","","","","","1","0","0","0.4810757035","","0.6","0.2","0.8","0.4","","","","","0.45101727","0.2360369815","0.1622836308","0.4810757035","","","","","","","","","","76","L","3","","","33","main_expt",""
"","bandit","113","396494","0.0-75.0-0.0","04267463","wem/bandit_party_1","A38LEVBZ3P5F6T","either","5","333","","","","","","","0","0","1","","0.4842727378","0.6","0.2","0.8","0.4","0.4340174653","0.2317763892","0.1655985557","0.4842727378","","","","","","","","","","","","","","76","L","3","","","34","main_expt",""
"","bandit","114","398389","0.0-76.0-0.0","04267463","wem/bandit_party_1","A38LEVBZ3P5F6T","either","5","383","","","","","","","0","0","1","0.4745470136","","0.6","0.2","0.8","0.4","","","","","0.4040147441","0.2527891731","0.1492797185","0.4745470136","","","","","","","","","","76","L","3","","","35","main_expt",""
"","bandit","115","400260","0.0-77.0-0.0","04267463","wem/bandit_party_1","A38LEVBZ3P5F6T","either","5","362","","","","","","","0","0","1","0.4268829696","","0.6","0.2","0.8","0.4","","","","","0.4268829696","0.2641283143","0.1504543003","0.4440965139","","","","","","","","","","72","H","0","img/none_selected.jpg","","36","main_expt",""
"","bandit","116","402002","0.0-78.0-0.0","04267463","wem/bandit_party_1","A38LEVBZ3P5F6T","either","5","232","","","","","","","1","0","0","0.4562327564","","0.6","0.2","0.8","0.4","","","","","0.4562327564","0.2309310423","0.1064249526","0.4544425755","","","","","","","","","","72","H","0","img/none_selected.jpg","","37","main_expt",""
"","bandit","117","403757","0.0-79.0-0.0","04267463","wem/bandit_party_1","A38LEVBZ3P5F6T","either","5","246","","","","","","","1","0","0","0.4481627861","","0.6","0.2","0.8","0.4","","","","","0.4481627861","0.2093170459","0.1346530267","0.4700138218","","","","","","","","","","72","H","0","img/none_selected.jpg","","38","main_expt",""
"","bandit","118","405528","0.0-80.0-0.0","04267463","wem/bandit_party_1","A38LEVBZ3P5F6T","either","5","262","","","","","","","0","0","1","","0.4475890948","0.6","0.2","0.8","0.4","0.4475890948","0.1398625959","0.1303494481","0.466948448","","","","","","","","","","","","","","72","H","0","img/none_selected.jpg","","39","main_expt",""
"","bandit","119","407269","0.0-81.0-0.0","04267463","wem/bandit_party_1","A38LEVBZ3P5F6T","either","5","231","","","","","","","1","0","0","0.4501575696","","0.6","0.2","0.8","0.4","","","","","0.4501575696","0.09690087606","0.1492074344","0.4679256248","","","","","","","","","","72","H","0","img/none_selected.jpg","","40","main_expt",""
"","bandit","120","408979","0.0-82.0-0.0","04267463","wem/bandit_party_1","A38LEVBZ3P5F6T","either","5","200","","","","","","","0","0","1","","0.4121884666","0.6","0.2","0.8","0.4","0.4121884666","0.1129569356","0.1370672299","0.445537573","","","","","","","","","","","","","","72","H","0","img/none_selected.jpg","","41","main_expt",""
"","bandit","121","410683","0.0-83.0-0.0","04267463","wem/bandit_party_1","A38LEVBZ3P5F6T","either","5","195","","","","","","","1","0","0","0.4379939247","","0.6","0.2","0.8","0.4","","","","","0.4379939247","0.1227033228","0.08144147181","0.4521531226","","","","","","","","","","72","H","0","img/none_selected.jpg","","42","main_expt",""
"","bandit","122","412405","0.0-84.0-0.0","04267463","wem/bandit_party_1","A38LEVBZ3P5F6T","either","5","213","","","","","","","0","0","1","0.4271747655","","0.6","0.2","0.8","0.4","","","","","0.4271747655","0.08393287497","0.06793865388","0.4695072217","","","","","","","","","","72","H","0","img/none_selected.jpg","","43","main_expt",""
"","bandit","123","414971","0.0-85.0-0.0","04267463","wem/bandit_party_1","A38LEVBZ3P5F6T","either","5","1057","","","","","","","0","0","1","","0.06260074275","0.6","0.2","0.8","0.4","0.4480494518","0.06260074275","0.05295344446","0.4807409838","","","","","","","","","","","","","","74","J","1","","","44","main_expt",""
"","bandit","124","416704","0.0-86.0-0.0","04267463","wem/bandit_party_1","A38LEVBZ3P5F6T","either","5","225","","","","","","","0","0","1","","0.08062123592","0.6","0.2","0.8","0.4","0.4269729589","0.08062123592","0.02744239742","0.4507048108","","","","","","","","","","","","","","74","J","1","","","45","main_expt",""
"","bandit","125","419155","0.0-87.0-0.0","04267463","wem/bandit_party_1","A38LEVBZ3P5F6T","either","5","944","","","","","","","0","0","1","0.02347437243","","0.6","0.2","0.8","0.4","","","","","0.4475746277","0.1110847749","0.02347437243","0.4382321206","","","","","","","","","","75","K","2","","","46","main_expt",""
"","bandit","126","421245","0.0-88.0-0.0","04267463","wem/bandit_party_1","A38LEVBZ3P5F6T","either","5","583","","","","","","","0","0","1","","0.02418160198","0.6","0.2","0.8","0.4","0.4295618238","0.05346849493","0.02418160198","0.4393937913","","","","","","","","","","","","","","75","K","2","","","47","main_expt",""
"","bandit","127","423453","0.0-89.0-0.0","04267463","wem/bandit_party_1","A38LEVBZ3P5F6T","either","5","702","","","","","","","0","0","1","","0.440318131","0.6","0.2","0.8","0.4","0.4431907244","0.04499733497","0.01182676654","0.440318131","","","","","","","","","","","","","","76","L","3","","","48","main_expt",""
"","bandit","128","425321","0.0-90.0-0.0","04267463","wem/bandit_party_1","A38LEVBZ3P5F6T","either","5","359","","","","","","","0","1","0","","0.4362102412","0.6","0.2","0.8","0.4","0.4187732916","0.07378534534","0.0186287842","0.4362102412","","","","","","","","","","","","","","76","L","3","","","49","main_expt",""
"","bandit","129","427243","0.0-91.0-0.0","04267463","wem/bandit_party_1","A38LEVBZ3P5F6T","either","5","412","","","","","","","1","0","0","0.44488671","","0.6","0.2","0.8","0.4","","","","","0.356579213","0.06168845619","0.02550629551","0.44488671","","","","","","","","","","76","L","3","","","50","main_expt",""
"","bandit","130","429517","0.0-92.0-0.0","04267463","wem/bandit_party_1","A38LEVBZ3P5F6T","either","5","768","","","","","","","0","1","0","","0.4633405548","0.6","0.2","0.8","0.4","0.2629404955","0.1062028567","0.04366809707","0.4633405548","","","","","","","","","","","","","","76","L","3","","","51","main_expt",""
"","bandit","131","431853","0.0-93.0-0.0","04267463","wem/bandit_party_1","A38LEVBZ3P5F6T","either","5","828","","","","","","","0","1","0","","0.4528043762","0.6","0.2","0.8","0.4","0.2919747068","0.1379608546","0.04357168116","0.4528043762","","","","","","","","","","","","","","76","L","3","","","52","main_expt",""
"","bandit","132","434523","0.0-94.0-0.0","04267463","wem/bandit_party_1","A38LEVBZ3P5F6T","either","5","1160","","","","","","","0","0","1","0.4390431751","","0.6","0.2","0.8","0.4","","","","","0.3809901122","0.1356826849","0.03899227154","0.4390431751","","","","","","","","","","76","L","3","","","53","main_expt",""
"","bandit","133","436309","0.0-95.0-0.0","04267463","wem/bandit_party_1","A38LEVBZ3P5F6T","either","5","278","","","","","","","1","0","0","0.3452518694","","0.6","0.2","0.8","0.4","","","","","0.3452518694","0.1038772241","0.04009146386","0.4549270822","","","","","","","","","","72","H","0","img/none_selected.jpg","","54","main_expt",""
"","bandit","134","438320","0.0-96.0-0.0","04267463","wem/bandit_party_1","A38LEVBZ3P5F6T","either","5","501","","","","","","","1","0","0","0.3263112327","","0.6","0.2","0.8","0.4","","","","","0.3263112327","0.1689791829","0.0155768565","0.4710341864","","","","","","","","","","72","H","0","img/none_selected.jpg","","55","main_expt",""
"","bandit","135","440585","0.0-97.0-0.0","04267463","wem/bandit_party_1","A38LEVBZ3P5F6T","either","5","757","","","","","","","0","0","1","0.3308963945","","0.6","0.2","0.8","0.4","","","","","0.3308963945","0.1108888145","0.02112461672","0.4745834276","","","","","","","","","","72","H","0","img/none_selected.jpg","","56","main_expt",""
"","bandit","136","442428","0.0-98.0-0.0","04267463","wem/bandit_party_1","A38LEVBZ3P5F6T","either","5","334","","","","","","","1","0","0","0.489318572","","0.6","0.2","0.8","0.4","","","","","0.3150326571","0.1206542402","0.0126553198","0.489318572","","","","","","","","","","76","L","3","","","57","main_expt",""
"","bandit","137","444255","0.0-99.0-0.0","04267463","wem/bandit_party_1","A38LEVBZ3P5F6T","either","5","317","","","","","","","0","1","0","","0.480037986","0.6","0.2","0.8","0.4","0.3049116772","0.09707343937","0.01131359515","0.480037986","","","","","","","","","","","","","","76","L","3","","","58","main_expt",""
"","bandit","138","446079","0.0-100.0-0.0","04267463","wem/bandit_party_1","A38LEVBZ3P5F6T","either","5","313","","","","","","","0","0","1","","0.4593461039","0.6","0.2","0.8","0.4","0.3050987947","0.1044384952","0.01030075821","0.4593461039","","","","","","","","","","","","","","76","L","3","","","59","main_expt",""
"","bandit","139","447992","0.0-101.0-0.0","04267463","wem/bandit_party_1","A38LEVBZ3P5F6T","either","5","402","","","","","","","0","0","1","","0.3274009355","0.6","0.2","0.8","0.4","0.3274009355","0.08890369623","0.005868957973","0.446051488","","","","","","","","","","","","","","72","H","0","img/none_selected.jpg","","60","main_expt",""
"","bandit","140","449844","0.0-102.0-0.0","04267463","wem/bandit_party_1","A38LEVBZ3P5F6T","either","5","343","","","","","","","1","0","0","0.4391285327","","0.6","0.2","0.8","0.4","","","","","0.3428943983","0.08921221942","0.004361943215","0.4391285327","","","","","","","","","","76","L","3","","","61","main_expt",""
"","bandit","141","451639","0.0-103.0-0.0","04267463","wem/bandit_party_1","A38LEVBZ3P5F6T","either","5","285","","","","","","","1","0","0","0.4063883723","","0.6","0.2","0.8","0.4","","","","","0.3549763931","0.09812025034","0.005208412743","0.4063883723","","","","","","","","","","76","L","3","","","62","main_expt",""
"","bandit","142","453421","0.0-104.0-0.0","04267463","wem/bandit_party_1","A38LEVBZ3P5F6T","either","5","271","","","","","","","0","0","1","0.4330387396","","0.6","0.2","0.8","0.4","","","","","0.3496678451","0.09006279409","0.006461011255","0.4330387396","","","","","","","","","","76","L","3","","","63","main_expt",""
"","bandit","143","455305","0.0-105.0-0.0","04267463","wem/bandit_party_1","A38LEVBZ3P5F6T","either","5","374","","","","","","","0","0","1","","0.4207902426","0.6","0.2","0.8","0.4","0.3188537263","0.1118976224","0.01267926231","0.4207902426","","","","","","","","","","","","","","76","L","3","","","64","main_expt",""
"","bandit","144","457068","0.0-106.0-0.0","04267463","wem/bandit_party_1","A38LEVBZ3P5F6T","either","5","253","","","","","","","0","0","1","","0.3719582347","0.6","0.2","0.8","0.4","0.3191795336","0.1053817613","0.009732787917","0.3719582347","","","","","","","","","","","","","","76","L","3","","","65","main_expt",""
"","bandit","145","459551","0.0-107.0-0.0","04267463","wem/bandit_party_1","A38LEVBZ3P5F6T","either","5","973","","","","","","","0","0","1","","0.3748569955","0.6","0.2","0.8","0.4","0.268616347","0.1307356695","0.01092542651","0.3748569955","","","","","","","","","","","","","","76","L","3","","","66","main_expt",""
"","bandit","146","461234","0.0-108.0-0.0","04267463","wem/bandit_party_1","A38LEVBZ3P5F6T","either","5","174","","","","","","","0","0","1","0.1418436428","","0.6","0.2","0.8","0.4","","","","","0.259194563","0.1418436428","0.02125534741","0.335252031","","","","","","","","","","74","J","1","","","67","main_expt",""
"","bandit","147","463173","0.0-109.0-0.0","04267463","wem/bandit_party_1","A38LEVBZ3P5F6T","either","5","430","","","","","","","0","0","1","0.1459089566","","0.6","0.2","0.8","0.4","","","","","0.2281204868","0.1459089566","0.02360283027","0.3199157278","","","","","","","","","","74","J","1","","","68","main_expt",""
"","bandit","148","465645","0.0-110.0-0.0","04267463","wem/bandit_party_1","A38LEVBZ3P5F6T","either","5","966","","","","","","","0","0","1","","0.02539305756","0.6","0.2","0.8","0.4","0.2195844169","0.1809721424","0.02539305756","0.3068525281","","","","","","","","","","","","","","75","K","2","","","69","main_expt",""
"","bandit","149","467549","0.0-111.0-0.0","04267463","wem/bandit_party_1","A38LEVBZ3P5F6T","either","5","395","","","","","","","0","0","1","0.05014388586","","0.6","0.2","0.8","0.4","","","","","0.1883338509","0.1784068974","0.05014388586","0.3181076016","","","","","","","","","","75","K","2","","","70","main_expt",""
"","bandit","150","469483","0.0-112.0-0.0","04267463","wem/bandit_party_1","A38LEVBZ3P5F6T","either","5","425","","","","","","","0","0","1","","0.1639708178","0.6","0.2","0.8","0.4","0.1639708178","0.1973023396","0.04209054697","0.2926426422","","","","","","","","","","","","","","72","H","0","img/none_selected.jpg","","71","main_expt",""
"","bandit","151","471317","0.0-113.0-0.0","04267463","wem/bandit_party_1","A38LEVBZ3P5F6T","either","5","323","","","","","","","0","0","1","","0.2380263643","0.6","0.2","0.8","0.4","0.1312842785","0.2436342847","0.05611199342","0.2380263643","","","","","","","","","","","","","","76","L","3","","","72","main_expt",""
"","bandit","152","473163","0.0-114.0-0.0","04267463","wem/bandit_party_1","A38LEVBZ3P5F6T","either","5","337","","","","","","","0","0","1","","0.2407197948","0.6","0.2","0.8","0.4","0.1805041857","0.1992173182","0.05293238473","0.2407197948","","","","","","","","","","","","","","76","L","3","","","73","main_expt",""
"","bandit","153","475025","0.0-115.0-0.0","04267463","wem/bandit_party_1","A38LEVBZ3P5F6T","either","5","350","","","","","","","0","0","1","","0.2317468449","0.6","0.2","0.8","0.4","0.1739557812","0.2347098304","0.0318456884","0.2317468449","","","","","","","","","","","","","","76","L","3","","","74","main_expt",""
"","bandit","154","476751","0.0-116.0-0.0","04267463","wem/bandit_party_1","A38LEVBZ3P5F6T","either","5","217","","","","","","","1","0","0","0.2545997551","","0.6","0.2","0.8","0.4","","","","","0.2434916027","0.2641442137","0.03873230677","0.2545997551","","","","","","","","","","76","L","3","","","75","main_expt",""
"","bandit","155","478622","0.0-117.0-0.0","04267463","wem/bandit_party_1","A38LEVBZ3P5F6T","either","5","363","","","","","","","0","0","1","","0.2890845388","0.6","0.2","0.8","0.4","0.2438468568","0.3192644053","0.03304947682","0.2890845388","","","","","","","","","","","","","","76","L","3","","","76","main_expt",""
"","bandit","156","480243","0.0-118.0-0.0","04267463","wem/bandit_party_1","A38LEVBZ3P5F6T","either","5","110","","","","","","","0","0","1","0.2425324642","","0.6","0.2","0.8","0.4","","","","","0.2425324642","0.3351132613","0.02607887458","0.2386362654","","","","","","","","","","72","H","0","img/none_selected.jpg","","77","main_expt",""
"","bandit","157","482027","0.0-119.0-0.0","04267463","wem/bandit_party_1","A38LEVBZ3P5F6T","either","5","274","","","","","","","0","0","1","","0.3086784207","0.6","0.2","0.8","0.4","0.205588479","0.3086784207","0.02492981692","0.2673679704","","","","","","","","","","","","","","74","J","1","","","78","main_expt",""
"","bandit","158","483737","0.0-120.0-0.0","04267463","wem/bandit_party_1","A38LEVBZ3P5F6T","either","5","200","","","","","","","0","0","1","","0.01824110002","0.6","0.2","0.8","0.4","0.213062191","0.3076482073","0.01824110002","0.2813811921","","","","","","","","","","","","","","75","K","2","","","79","main_expt",""
"","bandit","159","485515","0.0-121.0-0.0","04267463","wem/bandit_party_1","A38LEVBZ3P5F6T","either","5","270","","","","","","","0","0","1","0.0202176162","","0.6","0.2","0.8","0.4","","","","","0.1852926048","0.3605025214","0.0202176162","0.2419447949","","","","","","","","","","75","K","2","","","80","main_expt",""
"","bandit","160","487068","0.0-122.0-0.0","04267463","wem/bandit_party_1","A38LEVBZ3P5F6T","either","5","43","","","","","","","0","0","1","0.0252752587","","0.6","0.2","0.8","0.4","","","","","0.2332942271","0.3286166321","0.0252752587","0.323481111","","","","","","","","","","75","K","2","","","81","main_expt",""
"","bandit","161","488587","0.0-123.0-0.0","04267463","wem/bandit_party_1","A38LEVBZ3P5F6T","either","5","7","","","","","","","0","0","1","","0.3459677762","0.6","0.2","0.8","0.4","0.2087797338","0.3459677762","0.05668457717","0.3097244961","","","","","","","","","","","","","","74","J","1","","","82","main_expt",""
"","bandit","162","490315","0.0-124.0-0.0","04267463","wem/bandit_party_1","A38LEVBZ3P5F6T","either","5","217","","","","","","","0","0","1","0.2787498647","","0.6","0.2","0.8","0.4","","","","","0.2049979043","0.3092751195","0.07760530004","0.2787498647","","","","","","","","","","76","L","3","","","83","main_expt",""
"","bandit","163","492083","0.0-125.0-0.0","04267463","wem/bandit_party_1","A38LEVBZ3P5F6T","either","5","259","","","","","","","0","1","0","","0.2589524449","0.6","0.2","0.8","0.4","0.2151780091","0.3044630387","0.03696005566","0.2589524449","","","","","","","","","","","","","","76","L","3","","","84","main_expt",""
"","bandit","164","493880","0.0-126.0-0.0","04267463","wem/bandit_party_1","A38LEVBZ3P5F6T","either","5","288","","","","","","","0","0","1","","0.2769318636","0.6","0.2","0.8","0.4","0.1497615914","0.2812480587","0.04177257934","0.2769318636","","","","","","","","","","","","","","76","L","3","","","85","main_expt",""
"","bandit","165","495660","0.0-127.0-0.0","04267463","wem/bandit_party_1","A38LEVBZ3P5F6T","either","5","275","","","","","","","0","0","1","","0.2849222391","0.6","0.2","0.8","0.4","0.1223687677","0.2506532223","0.0385770192","0.2849222391","","","","","","","","","","","","","","76","L","3","","","86","main_expt",""
"","bandit","166","497381","0.0-128.0-0.0","04267463","wem/bandit_party_1","A38LEVBZ3P5F6T","either","5","212","","","","","","","0","0","1","0.3131087309","","0.6","0.2","0.8","0.4","","","","","0.1472857413","0.2269900387","0.03720252147","0.3131087309","","","","","","","","","","76","L","3","","","87","main_expt",""
"","bandit","167","499071","0.0-129.0-0.0","04267463","wem/bandit_party_1","A38LEVBZ3P5F6T","either","5","182","","","","","","","0","1","0","","0.3038587512","0.6","0.2","0.8","0.4","0.1252586248","0.1504729919","0.06746059371","0.3038587512","","","","","","","","","","","","","","76","L","3","","","88","main_expt",""
"","bandit","168","500851","0.0-130.0-0.0","04267463","wem/bandit_party_1","A38LEVBZ3P5F6T","either","5","272","","","","","","","1","0","0","0.3308022157","","0.6","0.2","0.8","0.4","","","","","0.1194927994","0.1382070302","0.04069757945","0.3308022157","","","","","","","","","","76","L","3","","","89","main_expt",""
"","bandit","169","502615","0.0-131.0-0.0","04267463","wem/bandit_party_1","A38LEVBZ3P5F6T","either","5","254","","","","","","","0","0","1","","0.3574922351","0.6","0.2","0.8","0.4","0.1589750007","0.1364765349","0.07325379503","0.3574922351","","","","","","","","","","","","","","76","L","3","","","90","main_expt",""
"","bandit","170","504183","0.0-132.0-0.0","04267463","wem/bandit_party_1","A38LEVBZ3P5F6T","either","5","59","","","","","","","0","0","1","","0.1859960426","0.6","0.2","0.8","0.4","0.1859960426","0.09318196272","0.06877471811","0.3729517688","","","","","","","","","","","","","","72","H","0","img/none_selected.jpg","","91","main_expt",""
"","bandit","171","505943","0.0-133.0-0.0","04267463","wem/bandit_party_1","A38LEVBZ3P5F6T","either","5","251","","","","","","","0","0","1","","0.06946097624","0.6","0.2","0.8","0.4","0.192419488","0.06946097624","0.04115987362","0.398352994","","","","","","","","","","","","","","74","J","1","","","92","main_expt",""
"","bandit","172","507639","0.0-134.0-0.0","04267463","wem/bandit_party_1","A38LEVBZ3P5F6T","either","5","185","","","","","","","1","0","0","0.07078892783","","0.6","0.2","0.8","0.4","","","","","0.1716033463","0.08102832817","0.07078892783","0.4135860398","","","","","","","","","","75","K","2","","","93","main_expt",""
"","bandit","173","509437","0.0-135.0-0.0","04267463","wem/bandit_party_1","A38LEVBZ3P5F6T","either","5","286","","","","","","","0","0","1","","0.05572868433","0.6","0.2","0.8","0.4","0.1935897604","0.1271360848","0.05572868433","0.3786880174","","","","","","","","","","","","","","75","K","2","","","94","main_expt",""
"","bandit","174","511198","0.0-136.0-0.0","04267463","wem/bandit_party_1","A38LEVBZ3P5F6T","either","5","254","","","","","","","0","0","1","0.05056929995","","0.6","0.2","0.8","0.4","","","","","0.2193228015","0.1097592989","0.05056929995","0.3823424718","","","","","","","","","","75","K","2","","","95","main_expt",""
"","bandit","175","512940","0.0-137.0-0.0","04267463","wem/bandit_party_1","A38LEVBZ3P5F6T","either","5","234","","","","","","","0","0","1","","0.04159874267","0.6","0.2","0.8","0.4","0.3262643469","0.1085490834","0.04159874267","0.3642725552","","","","","","","","","","","","","","75","K","2","","","96","main_expt",""
"","bandit","176","514589","0.0-138.0-0.0","04267463","wem/bandit_party_1","A38LEVBZ3P5F6T","either","5","141","","","","","","","0","0","1","0.03654451862","","0.6","0.2","0.8","0.4","","","","","0.3207405496","0.1049812554","0.03654451862","0.3197717944","","","","","","","","","","75","K","2","","","97","main_expt",""
"","bandit","177","516201","0.0-139.0-0.0","04267463","wem/bandit_party_1","A38LEVBZ3P5F6T","either","5","102","","","","","","","0","0","1","","0.2514424369","0.6","0.2","0.8","0.4","0.3712856991","0.08177978443","0.04190300095","0.2514424369","","","","","","","","","","","","","","76","L","3","","","98","main_expt",""
"","bandit","178","517983","0.0-140.0-0.0","04267463","wem/bandit_party_1","A38LEVBZ3P5F6T","either","5","272","","","","","","","0","0","1","","0.2926772137","0.6","0.2","0.8","0.4","0.3740145378","0.07574087804","0.08742990617","0.2926772137","","","","","","","","","","","","","","76","L","3","","","99","main_expt",""
"","bandit","179","519814","0.0-141.0-0.0","04267463","wem/bandit_party_1","A38LEVBZ3P5F6T","either","5","319","","","","","","","0","0","1","0.234485335","","0.6","0.2","0.8","0.4","","","","","0.3776295542","0.07829319678","0.08966523481","0.234485335","","","","","","","","","","76","L","3","","","100","main_expt",""
"","bandit","180","521471","0.0-142.0-0.0","04267463","wem/bandit_party_1","A38LEVBZ3P5F6T","either","5","149","","","","","","","0","0","1","","0.250352175","0.6","0.2","0.8","0.4","0.3592666398","0.07919243683","0.07849065771","0.250352175","","","","","","","","","","","","","","76","L","3","","","101","main_expt",""
"","bandit","181","523146","0.0-143.0-0.0","04267463","wem/bandit_party_1","A38LEVBZ3P5F6T","either","5","166","","","","","","","0","0","1","0.2139972863","","0.6","0.2","0.8","0.4","","","","","0.3412191773","0.1052753188","0.1054267613","0.2139972863","","","","","","","","","","76","L","3","","","102","main_expt",""
"","bandit","182","524820","0.0-144.0-0.0","04267463","wem/bandit_party_1","A38LEVBZ3P5F6T","either","5","167","","","","","","","1","0","0","0.3133100433","","0.6","0.2","0.8","0.4","","","","","0.3133100433","0.1248526142","0.1120981937","0.20092706","","","","","","","","","","72","H","0","img/none_selected.jpg","","103","main_expt",""
"","bandit","183","526601","0.0-145.0-0.0","04267463","wem/bandit_party_1","A38LEVBZ3P5F6T","either","5","268","","","","","","","0","0","1","0.3219148419","","0.6","0.2","0.8","0.4","","","","","0.3219148419","0.142969925","0.1034740879","0.2305366804","","","","","","","","","","72","H","0","img/none_selected.jpg","","104","main_expt",""
"","bandit","184","528319","0.0-146.0-0.0","04267463","wem/bandit_party_1","A38LEVBZ3P5F6T","either","5","208","","","","","","","0","0","1","0.3300892518","","0.6","0.2","0.8","0.4","","","","","0.3300892518","0.13947254","0.07597240327","0.2102135581","","","","","","","","","","72","H","0","img/none_selected.jpg","","105","main_expt",""
"","bandit","185","529919","0.0-147.0-0.0","04267463","wem/bandit_party_1","A38LEVBZ3P5F6T","either","5","89","","","","","","","0","1","0","","0.3401839058","0.6","0.2","0.8","0.4","0.3401839058","0.1329526997","0.1124257427","0.2219457329","","","","","","","","","","","","","","72","H","0","img/none_selected.jpg","","106","main_expt",""
"","bandit","186","531730","0.0-148.0-0.0","04267463","wem/bandit_party_1","A38LEVBZ3P5F6T","either","5","302","","","","","","","0","1","0","","0.3784706915","0.6","0.2","0.8","0.4","0.3784706915","0.1727290233","0.1133168519","0.3048423019","","","","","","","","","","","","","","72","H","0","img/none_selected.jpg","","107","main_expt",""
"","bandit","187","533541","0.0-149.0-0.0","04267463","wem/bandit_party_1","A38LEVBZ3P5F6T","either","5","301","","","","","","","1","0","0","0.3945753887","","0.6","0.2","0.8","0.4","","","","","0.3945753887","0.1864487031","0.1752395656","0.258150515","","","","","","","","","","72","H","0","img/none_selected.jpg","","108","main_expt",""
"","bandit","188","535312","0.0-150.0-0.0","04267463","wem/bandit_party_1","A38LEVBZ3P5F6T","either","5","263","","","","","","","0","0","1","0.356827327","","0.6","0.2","0.8","0.4","","","","","0.356827327","0.2463216238","0.1862973424","0.1859129148","","","","","","","","","","72","H","0","img/none_selected.jpg","","109","main_expt",""
"","bandit","189","537057","0.0-151.0-0.0","04267463","wem/bandit_party_1","A38LEVBZ3P5F6T","either","5","235","","","","","","","0","0","1","0.2344179837","","0.6","0.2","0.8","0.4","","","","","0.2344179837","0.2431522628","0.2015845776","0.1371624404","","","","","","","","","","72","H","0","img/none_selected.jpg","","110","main_expt",""
"","bandit","190","538726","0.0-152.0-0.0","04267463","wem/bandit_party_1","A38LEVBZ3P5F6T","either","5","159","","","","","","","0","0","1","0.2644823096","","0.6","0.2","0.8","0.4","","","","","0.2644823096","0.1757476643","0.2003651753","0.1258232978","","","","","","","","","","72","H","0","img/none_selected.jpg","","111","main_expt",""
"","bandit","191","540504","0.0-153.0-0.0","04267463","wem/bandit_party_1","A38LEVBZ3P5F6T","either","5","269","","","","","","","0","0","1","","0.28311182","0.6","0.2","0.8","0.4","0.28311182","0.2451518953","0.21392293","0.1529967373","","","","","","","","","","","","","","72","H","0","img/none_selected.jpg","","112","main_expt",""
"","bandit","192","542209","0.0-154.0-0.0","04267463","wem/bandit_party_1","A38LEVBZ3P5F6T","either","5","196","","","","","","","0","1","0","","0.2413269532","0.6","0.2","0.8","0.4","0.2413269532","0.2407836715","0.1606798039","0.148248117","","","","","","","","","","","","","","72","H","0","img/none_selected.jpg","","113","main_expt",""
"","bandit","193","543978","0.0-155.0-0.0","04267463","wem/bandit_party_1","A38LEVBZ3P5F6T","either","5","260","","","","","","","0","0","1","","0.3100969134","0.6","0.2","0.8","0.4","0.3100969134","0.3099317417","0.2095980235","0.1562208239","","","","","","","","","","","","","","72","H","0","img/none_selected.jpg","","114","main_expt",""
"","bandit","194","545828","0.0-156.0-0.0","04267463","wem/bandit_party_1","A38LEVBZ3P5F6T","either","5","343","","","","","","","0","0","1","","0.329842252","0.6","0.2","0.8","0.4","0.329842252","0.3180754701","0.2550279667","0.2138032898","","","","","","","","","","","","","","72","H","0","img/none_selected.jpg","","115","main_expt",""
"","bandit","195","547617","0.0-157.0-0.0","04267463","wem/bandit_party_1","A38LEVBZ3P5F6T","either","5","279","","","","","","","0","0","1","0.3223706096","","0.6","0.2","0.8","0.4","","","","","0.3223706096","0.2919742107","0.2471764387","0.2331260325","","","","","","","","","","72","H","0","img/none_selected.jpg","","116","main_expt",""
"","bandit","196","549272","0.0-158.0-0.0","04267463","wem/bandit_party_1","A38LEVBZ3P5F6T","either","5","143","","","","","","","0","1","0","","0.2799774295","0.6","0.2","0.8","0.4","0.3098408215","0.2799774295","0.2730878341","0.1826309729","","","","","","","","","","","","","","74","J","1","","","117","main_expt",""
"","bandit","197","551020","0.0-159.0-0.0","04267463","wem/bandit_party_1","A38LEVBZ3P5F6T","either","5","238","","","","","","","0","0","1","","0.2646714695","0.6","0.2","0.8","0.4","0.2974554567","0.2646714695","0.2071462199","0.1511269107","","","","","","","","","","","","","","74","J","1","","","118","main_expt",""
"","bandit","198","552607","0.0-160.0-0.0","04267463","wem/bandit_party_1","A38LEVBZ3P5F6T","either","5","76","","","","","","","0","0","1","","0.1559979654","0.6","0.2","0.8","0.4","0.3598468986","0.3179839519","0.2275232499","0.1559979654","","","","","","","","","","","","","","76","L","3","","","119","main_expt",""
"","bandit","199","555143","0.0-161.0-0.0","04267463","wem/bandit_party_1","A38LEVBZ3P5F6T","either","5","1028","","","","","","","0","0","1","0.2767559596","","0.6","0.2","0.8","0.4","","","","","0.2984373086","0.3302262658","0.2767559596","0.1463004055","","","","","","","","","","75","K","2","","","120","main_expt",""
"","bandit","200","557661","0.0-162.0-0.0","04267463","wem/bandit_party_1","A38LEVBZ3P5F6T","either","5","1007","","","","","","","0","0","1","","0.3500549905","0.6","0.2","0.8","0.4","0.2973090059","0.3500549905","0.3448590315","0.1418195479","","","","","","","","","","","","","","74","J","1","","","121","main_expt",""
"","bandit","201","559993","0.0-163.0-0.0","04267463","wem/bandit_party_1","A38LEVBZ3P5F6T","either","5","822","","","","","","","0","0","1","","0.2686616284","0.6","0.2","0.8","0.4","0.3382791822","0.2686616284","0.3593301016","0.1270782113","","","","","","","","","","","","","","74","J","1","","","122","main_expt",""
"","bandit","202","561817","0.0-164.0-0.0","04267463","wem/bandit_party_1","A38LEVBZ3P5F6T","either","5","315","","","","","","","0","0","1","0.2277230314","","0.6","0.2","0.8","0.4","","","","","0.3154347028","0.2277230314","0.3680529171","0.1207154071","","","","","","","","","","74","J","1","","","123","main_expt",""
"","bandit","203","563360","0.0-165.0-0.0","04267463","wem/bandit_party_1","A38LEVBZ3P5F6T","either","5","35","","","","","","","0","0","1","","0.1229329119","0.6","0.2","0.8","0.4","0.2966737815","0.3287090939","0.3476523483","0.1229329119","","","","","","","","","","","","","","76","L","3","","","124","main_expt",""
"","bandit","204","564885","0.0-166.0-0.0","04267463","wem/bandit_party_1","A38LEVBZ3P5F6T","either","5","16","","","","","","","0","0","1","","0.09241122996","0.6","0.2","0.8","0.4","0.3094831126","0.3687339586","0.3564603465","0.09241122996","","","","","","","","","","","","","","76","L","3","","","125","main_expt",""
"","bandit","205","566395","0.0-167.0-0.0","04267463","wem/bandit_party_1","A38LEVBZ3P5F6T","either","5","2","","","","","","","0","0","1","0.3550684458","","0.6","0.2","0.8","0.4","","","","","0.2488993205","0.3836195774","0.3550684458","0.08418962236","","","","","","","","","","75","K","2","","","126","main_expt",""
"","bandit","206","568025","0.0-168.0-0.0","04267463","wem/bandit_party_1","A38LEVBZ3P5F6T","either","5","121","","","","","","","0","0","1","","0.3235559827","0.6","0.2","0.8","0.4","0.1953487027","0.3617365958","0.3235559827","0.154715772","","","","","","","","","","","","","","75","K","2","","","127","main_expt",""
"","bandit","207","570012","0.0-169.0-0.0","04267463","wem/bandit_party_1","A38LEVBZ3P5F6T","either","5","477","","","","","","","0","0","1","0.2171889907","","0.6","0.2","0.8","0.4","","","","","0.2171889907","0.3235283493","0.312087491","0.1556709078","","","","","","","","","","72","H","0","img/none_selected.jpg","","128","main_expt",""
"","bandit","208","571787","0.0-170.0-0.0","04267463","wem/bandit_party_1","A38LEVBZ3P5F6T","either","5","265","","","","","","","0","0","1","","0.2467699801","0.6","0.2","0.8","0.4","0.2467699801","0.3453830546","0.2843272188","0.1214200615","","","","","","","","","","","","","","72","H","0","img/none_selected.jpg","","129","main_expt",""
"","bandit","209","573566","0.0-171.0-0.0","04267463","wem/bandit_party_1","A38LEVBZ3P5F6T","either","5","270","","","","","","","0","0","1","0.2814443482","","0.6","0.2","0.8","0.4","","","","","0.2814443482","0.3242747857","0.2128416856","0.1377283829","","","","","","","","","","72","H","0","img/none_selected.jpg","","130","main_expt",""
"","bandit","210","575204","0.0-172.0-0.0","04267463","wem/bandit_party_1","A38LEVBZ3P5F6T","either","5","129","","","","","","","0","0","1","0.2834176508","","0.6","0.2","0.8","0.4","","","","","0.2834176508","0.3417201858","0.2403879813","0.1397421628","","","","","","","","","","72","H","0","img/none_selected.jpg","","131","main_expt",""
"","bandit","211","576767","0.0-173.0-0.0","04267463","wem/bandit_party_1","A38LEVBZ3P5F6T","either","5","55","","","","","","","0","0","1","","0.3498614837","0.6","0.2","0.8","0.4","0.2429908031","0.3498614837","0.2811421594","0.1061875113","","","","","","","","","","","","","","74","J","1","","","132","main_expt",""
"","bandit","212","578386","0.0-174.0-0.0","04267463","wem/bandit_party_1","A38LEVBZ3P5F6T","either","5","109","","","","","","","0","1","0","","0.3134828643","0.6","0.2","0.8","0.4","0.3053559495","0.3134828643","0.3002858371","0.07774811701","","","","","","","","","","","","","","74","J","1","","","133","main_expt",""
"","bandit","213","580161","0.0-175.0-0.0","04267463","wem/bandit_party_1","A38LEVBZ3P5F6T","either","5","269","","","","","","","0","0","1","","0.3554593188","0.6","0.2","0.8","0.4","0.2693478067","0.3554593188","0.277406375","0.08211281178","","","","","","","","","","","","","","74","J","1","","","134","main_expt",""
"","bandit","214","581688","0.0-176.0-0.0","04267463","wem/bandit_party_1","A38LEVBZ3P5F6T","either","5","17","","","","","","","0","0","1","","0.2897147582","0.6","0.2","0.8","0.4","0.3369166079","0.3150900126","0.2897147582","0.1123817552","","","","","","","","","","","","","","75","K","2","","","135","main_expt",""
"","bandit","215","584043","0.0-177.0-0.0","04267463","wem/bandit_party_1","A38LEVBZ3P5F6T","either","5","845","","","","","","","0","0","1","0.3590576628","","0.6","0.2","0.8","0.4","","","","","0.268603144","0.3199395785","0.3590576628","0.1478339482","","","","","","","","","","75","K","2","","","136","main_expt",""
"","bandit","216","586338","0.0-178.0-0.0","04267463","wem/bandit_party_1","A38LEVBZ3P5F6T","either","5","787","","","","","","","0","1","0","","0.1374936615","0.6","0.2","0.8","0.4","0.2373427956","0.33362357","0.3822427384","0.1374936615","","","","","","","","","","","","","","76","L","3","","","137","main_expt",""
"","bandit","217","588250","0.0-179.0-0.0","04267463","wem/bandit_party_1","A38LEVBZ3P5F6T","either","5","404","","","","","","","0","0","1","","0.159761955","0.6","0.2","0.8","0.4","0.2206869265","0.3611324022","0.3410071165","0.159761955","","","","","","","","","","","","","","76","L","3","","","138","main_expt",""
"","bandit","218","590164","0.0-180.0-0.0","04267463","wem/bandit_party_1","A38LEVBZ3P5F6T","either","5","405","","","","","","","0","0","1","","0.1363721132","0.6","0.2","0.8","0.4","0.2177966349","0.3504145086","0.3738014659","0.1363721132","","","","","","","","","","","","","","76","L","3","","","139","main_expt",""
"","bandit","219","592094","0.0-181.0-0.0","04267463","wem/bandit_party_1","A38LEVBZ3P5F6T","either","5","419","","","","","","","0","0","1","0.1031445192","","0.6","0.2","0.8","0.4","","","","","0.2387685432","0.309774603","0.422575493","0.1031445192","","","","","","","","","","76","L","3","","","140","main_expt",""
"","bandit","220","593713","0.0-182.0-0.0","04267463","wem/bandit_party_1","A38LEVBZ3P5F6T","either","5","110","","","","","","","0","0","1","0.2575087366","","0.6","0.2","0.8","0.4","","","","","0.2575087366","0.3506531288","0.4439129864","0.09805286369","","","","","","","","","","72","H","0","img/none_selected.jpg","","141","main_expt",""
"","bandit","221","595549","0.0-183.0-0.0","04267463","wem/bandit_party_1","A38LEVBZ3P5F6T","either","5","327","","","","","","","0","0","1","0.2392038972","","0.6","0.2","0.8","0.4","","","","","0.2392038972","0.2965027242","0.4323802182","0.1149002948","","","","","","","","","","72","H","0","img/none_selected.jpg","","142","main_expt",""
"","bandit","222","597287","0.0-184.0-0.0","04267463","wem/bandit_party_1","A38LEVBZ3P5F6T","either","5","229","","","","","","","1","0","0","0.2216470548","","0.6","0.2","0.8","0.4","","","","","0.2216470548","0.2087517366","0.4358412593","0.1209542099","","","","","","","","","","72","H","0","img/none_selected.jpg","","143","main_expt",""
"","bandit","223","599195","0.0-185.0-0.0","04267463","wem/bandit_party_1","A38LEVBZ3P5F6T","either","5","398","","","","","","","0","0","1","0.2224896139","","0.6","0.2","0.8","0.4","","","","","0.2224896139","0.2313605626","0.4407373256","0.1202521083","","","","","","","","","","72","H","0","img/none_selected.jpg","","144","main_expt",""
"","bandit","224","600953","0.0-186.0-0.0","04267463","wem/bandit_party_1","A38LEVBZ3P5F6T","either","5","249","","","","","","","0","0","1","0.1925605464","","0.6","0.2","0.8","0.4","","","","","0.1925605464","0.1785565547","0.4661091035","0.1619743669","","","","","","","","","","72","H","0","img/none_selected.jpg","","145","main_expt",""
"","bandit","225","602755","0.0-187.0-0.0","04267463","wem/bandit_party_1","A38LEVBZ3P5F6T","either","5","294","","","","","","","0","0","1","0.1664631043","","0.6","0.2","0.8","0.4","","","","","0.2069800611","0.1770660648","0.4637097668","0.1664631043","","","","","","","","","","76","L","3","","","146","main_expt",""
"","bandit","226","604451","0.0-188.0-0.0","04267463","wem/bandit_party_1","A38LEVBZ3P5F6T","either","5","181","","","","","","","0","0","1","0.1669241763","","0.6","0.2","0.8","0.4","","","","","0.2489662189","0.1063371611","0.4700491642","0.1669241763","","","","","","","","","","76","L","3","","","147","main_expt",""
"","bandit","227","606447","0.0-189.0-0.0","04267463","wem/bandit_party_1","A38LEVBZ3P5F6T","either","5","487","","","","","","","0","0","1","0.4648109734","","0.6","0.2","0.8","0.4","","","","","0.1946464158","0.1216370817","0.4648109734","0.1581456949","","","","","","","","","","75","K","2","","","148","main_expt",""
"","bandit","228","608612","0.0-190.0-0.0","04267463","wem/bandit_party_1","A38LEVBZ3P5F6T","either","5","654","","","","","","","1","0","0","0.4635511513","","0.6","0.2","0.8","0.4","","","","","0.1826562491","0.1024256959","0.4635511513","0.1698392466","","","","","","","","","","75","K","2","","","149","main_expt",""
"","bandit","229","610399","0.0-191.0-0.0","04267463","wem/bandit_party_1","A38LEVBZ3P5F6T","either","5","279","","","","","","","0","0","1","0.4445017148","","0.6","0.2","0.8","0.4","","","","","0.1750473563","0.1371094633","0.4445017148","0.2140114634","","","","","","","","","","75","K","2","","","150","main_expt",""
"","bandit","230","612191","0.0-192.0-0.0","04267463","wem/bandit_party_1","A38LEVBZ3P5F6T","either","5","284","","","","","","","0","0","1","0.4434799742","","0.6","0.2","0.8","0.4","","","","","0.1109536645","0.1702433702","0.4434799742","0.2392960001","","","","","","","","","","75","K","2","","","151","main_expt",""
"","bandit","231","614047","0.0-193.0-0.0","04267463","wem/bandit_party_1","A38LEVBZ3P5F6T","either","5","350","","","","","","","0","0","1","","0.1860489046","0.6","0.2","0.8","0.4","0.1143086707","0.1860489046","0.4451665291","0.2095863317","","","","","","","","","","","","","","74","J","1","","","152","main_expt",""
"","bandit","232","615918","0.0-194.0-0.0","04267463","wem/bandit_party_1","A38LEVBZ3P5F6T","either","5","361","","","","","","","0","0","1","","0.2117094388","0.6","0.2","0.8","0.4","0.1236290712","0.2117094388","0.4401532833","0.2543258611","","","","","","","","","","","","","","74","J","1","","","153","main_expt",""
"","bandit","233","617853","0.0-195.0-0.0","04267463","wem/bandit_party_1","A38LEVBZ3P5F6T","either","5","429","","","","","","","0","0","1","","0.2072389033","0.6","0.2","0.8","0.4","0.1600695342","0.2072389033","0.4516855879","0.2602259906","","","","","","","","","","","","","","74","J","1","","","154","main_expt",""
"","bandit","234","619677","0.0-196.0-0.0","04267463","wem/bandit_party_1","A38LEVBZ3P5F6T","either","5","314","","","","","","","0","0","1","","0.1770288166","0.6","0.2","0.8","0.4","0.1770288166","0.1986333914","0.4480264808","0.2750581274","","","","","","","","","","","","","","72","H","0","img/none_selected.jpg","","155","main_expt",""
"","bandit","235","621503","0.0-197.0-0.0","04267463","wem/bandit_party_1","A38LEVBZ3P5F6T","either","5","315","","","","","","","1","0","0","0.1761817894","","0.6","0.2","0.8","0.4","","","","","0.1761817894","0.2054640346","0.4260414265","0.2438045727","","","","","","","","","","72","H","0","img/none_selected.jpg","","156","main_expt",""
"","bandit","236","623298","0.0-198.0-0.0","04267463","wem/bandit_party_1","A38LEVBZ3P5F6T","either","5","284","","","","","","","0","0","1","","0.1998830888","0.6","0.2","0.8","0.4","0.1998830888","0.1810715383","0.4365201507","0.2857025143","","","","","","","","","","","","","","72","H","0","img/none_selected.jpg","","157","main_expt",""
"","bandit","237","625048","0.0-199.0-0.0","04267463","wem/bandit_party_1","A38LEVBZ3P5F6T","either","5","241","","","","","","","0","0","1","","0.2150354531","0.6","0.2","0.8","0.4","0.2150354531","0.2118906364","0.4076244479","0.2887719476","","","","","","","","","","","","","","72","H","0","img/none_selected.jpg","","158","main_expt",""
"","bandit","238","627075","0.0-200.0-0.0","04267463","wem/bandit_party_1","A38LEVBZ3P5F6T","either","5","517","","","","","","","0","0","1","","0.2221069796","0.6","0.2","0.8","0.4","0.2221069796","0.2293976715","0.403953851","0.2859462397","","","","","","","","","","","","","","72","H","0","img/none_selected.jpg","","159","main_expt",""
"","bandit","239","628819","0.0-201.0-0.0","04267463","wem/bandit_party_1","A38LEVBZ3P5F6T","either","5","235","","","","","","","0","0","1","","0.4282135537","0.6","0.2","0.8","0.4","0.2627335039","0.2186051381","0.4282135537","0.207432816","","","","","","","","","","","","","","75","K","2","","","160","main_expt",""
"","bandit","240","630705","0.0-202.0-0.0","04267463","wem/bandit_party_1","A38LEVBZ3P5F6T","either","5","376","","","","","","","0","0","1","","0.1611694724","0.6","0.2","0.8","0.4","0.2922457848","0.2175927206","0.4479073124","0.1611694724","","","","","","","","","","","","","","76","L","3","","","161","main_expt",""
"","bandit","241","632490","0.0-203.0-0.0","04267463","wem/bandit_party_1","A38LEVBZ3P5F6T","either","5","276","","","","","","","0","0","1","","0.14378348","0.6","0.2","0.8","0.4","0.3040212123","0.2370404117","0.4456201243","0.14378348","","","","","","","","","","","","","","76","L","3","","","162","main_expt",""
"","bandit","242","634336","0.0-204.0-0.0","04267463","wem/bandit_party_1","A38LEVBZ3P5F6T","either","5","336","","","","","","","0","0","1","","0.2778780432","0.6","0.2","0.8","0.4","0.2933359027","0.2778780432","0.4384930657","0.1707099899","","","","","","","","","","","","","","74","J","1","","","163","main_expt",""
"","bandit","243","636769","0.0-205.0-0.0","04267463","wem/bandit_party_1","A38LEVBZ3P5F6T","either","5","921","","","","","","","0","0","1","0.4231568034","","0.6","0.2","0.8","0.4","","","","","0.2388203062","0.2643388611","0.4231568034","0.1933693166","","","","","","","","","","75","K","2","","","164","main_expt",""
"","bandit","244","638791","0.0-206.0-0.0","04267463","wem/bandit_party_1","A38LEVBZ3P5F6T","either","5","510","","","","","","","0","0","1","","0.2406324952","0.6","0.2","0.8","0.4","0.2646204916","0.1967204453","0.4412535734","0.2406324952","","","","","","","","","","","","","","76","L","3","","","165","main_expt",""
"","bandit","245","640645","0.0-207.0-0.0","04267463","wem/bandit_party_1","A38LEVBZ3P5F6T","either","5","342","","","","","","","1","0","0","0.2650462377","","0.6","0.2","0.8","0.4","","","","","0.2591758032","0.1567937345","0.438364003","0.2650462377","","","","","","","","","","76","L","3","","","166","main_expt",""
"","bandit","246","642459","0.0-208.0-0.0","04267463","wem/bandit_party_1","A38LEVBZ3P5F6T","either","5","302","","","","","","","0","0","1","","0.245875583","0.6","0.2","0.8","0.4","0.1955934818","0.1201482918","0.4290991351","0.245875583","","","","","","","","","","","","","","76","L","3","","","167","main_expt",""
"","bandit","247","644273","0.0-209.0-0.0","04267463","wem/bandit_party_1","A38LEVBZ3P5F6T","either","5","304","","","","","","","0","0","1","","0.257303599","0.6","0.2","0.8","0.4","0.2090603634","0.0936051119","0.4510860662","0.257303599","","","","","","","","","","","","","","76","L","3","","","168","main_expt",""
"","bandit","248","645953","0.0-210.0-0.0","04267463","wem/bandit_party_1","A38LEVBZ3P5F6T","either","5","170","","","","","","","0","0","1","","0.2993732043","0.6","0.2","0.8","0.4","0.2678479696","0.08775096918","0.4491424364","0.2993732043","","","","","","","","","","","","","","76","L","3","","","169","main_expt",""
"","bandit","249","647880","0.0-211.0-0.0","04267463","wem/bandit_party_1","A38LEVBZ3P5F6T","either","5","418","","","","","","","0","1","0","","0.3388977639","0.6","0.2","0.8","0.4","0.2532125956","0.06743429675","0.4332244901","0.3388977639","","","","","","","","","","","","","","76","L","3","","","170","main_expt",""
"","bandit","250","649866","0.0-212.0-0.0","04267463","wem/bandit_party_1","A38LEVBZ3P5F6T","either","5","478","","","","","","","0","0","1","0.2947926635","","0.6","0.2","0.8","0.4","","","","","0.2568627054","0.05979118822","0.4405036994","0.2947926635","","","","","","","","","","76","L","3","","","171","main_expt",""
"","bandit","251","651630","0.0-213.0-0.0","04267463","wem/bandit_party_1","A38LEVBZ3P5F6T","either","5","257","","","","","","","0","1","0","","0.2451563353","0.6","0.2","0.8","0.4","0.2451563353","0.03200499914","0.4358521759","0.2892529657","","","","","","","","","","","","","","72","H","0","img/none_selected.jpg","","172","main_expt",""
"","bandit","252","653634","0.0-214.0-0.0","04267463","wem/bandit_party_1","A38LEVBZ3P5F6T","either","5","494","","","","","","","1","0","0","0.3003395367","","0.6","0.2","0.8","0.4","","","","","0.3003395367","0.04613358223","0.4471617722","0.2571917514","","","","","","","","","","72","H","0","img/none_selected.jpg","","173","main_expt",""
"","bandit","253","655477","0.0-215.0-0.0","04267463","wem/bandit_party_1","A38LEVBZ3P5F6T","either","5","333","","","","","","","0","0","1","0.2545998681","","0.6","0.2","0.8","0.4","","","","","0.2545998681","0.05969677181","0.4560251174","0.244173221","","","","","","","","","","72","H","0","img/none_selected.jpg","","174","main_expt",""
"","bandit","254","657269","0.0-216.0-0.0","04267463","wem/bandit_party_1","A38LEVBZ3P5F6T","either","5","283","","","","","","","0","0","1","0.2038098688","","0.6","0.2","0.8","0.4","","","","","0.3383135611","0.05930066603","0.4379349024","0.2038098688","","","","","","","","","","76","L","3","","","175","main_expt",""
"","bandit","255","659041","0.0-217.0-0.0","04267463","wem/bandit_party_1","A38LEVBZ3P5F6T","either","5","263","","","","","","","0","1","0","","0.3880627729","0.6","0.2","0.8","0.4","0.3880627729","0.08110879181","0.4328841116","0.2053823003","","","","","","","","","","","","","","72","H","0","img/none_selected.jpg","","176","main_expt",""
"","bandit","256","660940","0.0-218.0-0.0","04267463","wem/bandit_party_1","A38LEVBZ3P5F6T","either","5","391","","","","","","","0","0","1","0.3920994557","","0.6","0.2","0.8","0.4","","","","","0.3920994557","0.07611568943","0.3965365967","0.2193083282","","","","","","","","","","72","H","0","img/none_selected.jpg","","177","main_expt",""
"","bandit","257","662737","0.0-219.0-0.0","04267463","wem/bandit_party_1","A38LEVBZ3P5F6T","either","5","288","","","","","","","0","0","1","0.3882277994","","0.6","0.2","0.8","0.4","","","","","0.3882277994","0.1220467165","0.3899234309","0.1904263594","","","","","","","","","","72","H","0","img/none_selected.jpg","","178","main_expt",""
"","bandit","258","664561","0.0-220.0-0.0","04267463","wem/bandit_party_1","A38LEVBZ3P5F6T","either","5","307","","","","","","","0","0","1","0.3939691408","","0.6","0.2","0.8","0.4","","","","","0.3939691408","0.1698853315","0.4238443777","0.2212788648","","","","","","","","","","72","H","0","img/none_selected.jpg","","179","main_expt",""
"","bandit","259","666369","0.0-221.0-0.0","04267463","wem/bandit_party_1","A38LEVBZ3P5F6T","either","5","300","","","","","","","1","0","0","0.4074656662","","0.6","0.2","0.8","0.4","","","","","0.4074656662","0.1374762061","0.4487400994","0.2640717145","","","","","","","","","","72","H","0","img/none_selected.jpg","","180","main_expt",""
"","bandit","260","668252","0.0-222.0-0.0","04267463","wem/bandit_party_1","A38LEVBZ3P5F6T","either","5","372","","","","","","","0","0","1","0.3724421945","","0.6","0.2","0.8","0.4","","","","","0.3724421945","0.09961924189","0.4314573438","0.2426483564","","","","","","","","","","72","H","0","img/none_selected.jpg","","181","main_expt",""
"","bandit","261","670052","0.0-223.0-0.0","04267463","wem/bandit_party_1","A38LEVBZ3P5F6T","either","5","290","","","","","","","1","0","0","0.2998177931","","0.6","0.2","0.8","0.4","","","","","0.2998177931","0.1391043194","0.4458059303","0.2001563476","","","","","","","","","","72","H","0","img/none_selected.jpg","","182","main_expt",""
"","bandit","262","671869","0.0-224.0-0.0","04267463","wem/bandit_party_1","A38LEVBZ3P5F6T","either","5","306","","","","","","","0","1","0","","0.3629728763","0.6","0.2","0.8","0.4","0.3629728763","0.1336424596","0.4485460149","0.2167094124","","","","","","","","","","","","","","72","H","0","img/none_selected.jpg","","183","main_expt",""
"","bandit","263","673620","0.0-225.0-0.0","04267463","wem/bandit_party_1","A38LEVBZ3P5F6T","either","5","240","","","","","","","0","0","1","0.3763603645","","0.6","0.2","0.8","0.4","","","","","0.3763603645","0.115911235","0.4078350507","0.2402813617","","","","","","","","","","72","H","0","img/none_selected.jpg","","184","main_expt",""
"","bandit","264","675312","0.0-226.0-0.0","04267463","wem/bandit_party_1","A38LEVBZ3P5F6T","either","5","179","","","","","","","0","0","1","","0.3472982705","0.6","0.2","0.8","0.4","0.3472982705","0.1394203739","0.3805788675","0.2745112141","","","","","","","","","","","","","","72","H","0","img/none_selected.jpg","","185","main_expt",""
"","bandit","265","677108","0.0-227.0-0.0","04267463","wem/bandit_party_1","A38LEVBZ3P5F6T","either","5","288","","","","","","","0","0","1","","0.3095995051","0.6","0.2","0.8","0.4","0.3095995051","0.1557479742","0.4236809331","0.2774566956","","","","","","","","","","","","","","72","H","0","img/none_selected.jpg","","186","main_expt",""
"","bandit","266","679230","0.0-228.0-0.0","04267463","wem/bandit_party_1","A38LEVBZ3P5F6T","either","5","614","","","","","","","0","0","1","0.2567332284","","0.6","0.2","0.8","0.4","","","","","0.2567332284","0.1823611596","0.4058627081","0.2876011691","","","","","","","","","","72","H","0","img/none_selected.jpg","","187","main_expt",""
"","bandit","267","681309","0.0-229.0-0.0","04267463","wem/bandit_party_1","A38LEVBZ3P5F6T","either","5","570","","","","","","","0","1","0","","0.2555256861","0.6","0.2","0.8","0.4","0.2555256861","0.1854179297","0.3913346521","0.2947112378","","","","","","","","","","","","","","72","H","0","img/none_selected.jpg","","188","main_expt",""
"","bandit","268","683150","0.0-230.0-0.0","04267463","wem/bandit_party_1","A38LEVBZ3P5F6T","either","5","331","","","","","","","0","0","1","","0.2009875262","0.6","0.2","0.8","0.4","0.2009875262","0.1875645599","0.3760164219","0.2581494","","","","","","","","","","","","","","72","H","0","img/none_selected.jpg","","189","main_expt",""
"","bandit","269","684751","0.0-231.0-0.0","04267463","wem/bandit_party_1","A38LEVBZ3P5F6T","either","5","92","","","","","","","0","0","1","0.2055488595","","0.6","0.2","0.8","0.4","","","","","0.2055488595","0.2018323604","0.3327352817","0.1756323468","","","","","","","","","","72","H","0","img/none_selected.jpg","","190","main_expt",""
"","bandit","270","686479","0.0-232.0-0.0","04267463","wem/bandit_party_1","A38LEVBZ3P5F6T","either","5","216","","","","","","","0","0","1","0.1506387864","","0.6","0.2","0.8","0.4","","","","","0.1506387864","0.221094727","0.3015177445","0.2521570866","","","","","","","","","","72","H","0","img/none_selected.jpg","","191","main_expt",""
"","bandit","271","688329","0.0-233.0-0.0","04267463","wem/bandit_party_1","A38LEVBZ3P5F6T","either","5","339","","","","","","","0","0","1","0.2027442266","","0.6","0.2","0.8","0.4","","","","","0.2027442266","0.2320570195","0.2773298268","0.2964739449","","","","","","","","","","72","H","0","img/none_selected.jpg","","192","main_expt",""
"","bandit","272","690101","0.0-234.0-0.0","04267463","wem/bandit_party_1","A38LEVBZ3P5F6T","either","5","262","","","","","","","0","0","1","0.1969137872","","0.6","0.2","0.8","0.4","","","","","0.1969137872","0.2948950962","0.2836613797","0.2612966838","","","","","","","","","","72","H","0","img/none_selected.jpg","","193","main_expt",""
"","bandit","273","691841","0.0-235.0-0.0","04267463","wem/bandit_party_1","A38LEVBZ3P5F6T","either","5","229","","","","","","","0","0","1","0.2799350415","","0.6","0.2","0.8","0.4","","","","","0.2114994946","0.2602906927","0.2799350415","0.3292914436","","","","","","","","","","75","K","2","","","194","main_expt",""
"","bandit","274","693655","0.0-236.0-0.0","04267463","wem/bandit_party_1","A38LEVBZ3P5F6T","either","5","300","","","","","","","0","0","1","0.2068597772","","0.6","0.2","0.8","0.4","","","","","0.2467939011","0.1771499101","0.2068597772","0.4070308407","","","","","","","","","","75","K","2","","","195","main_expt",""
"","bandit","275","695515","0.0-237.0-0.0","04267463","wem/bandit_party_1","A38LEVBZ3P5F6T","either","5","347","","","","","","","0","0","1","","0.2679469531","0.6","0.2","0.8","0.4","0.2731811988","0.1746274925","0.2679469531","0.3494820729","","","","","","","","","","","","","","75","K","2","","","196","main_expt",""
"","bandit","276","697389","0.0-238.0-0.0","04267463","wem/bandit_party_1","A38LEVBZ3P5F6T","either","5","364","","","","","","","0","0","1","0.2448078588","","0.6","0.2","0.8","0.4","","","","","0.2512114903","0.193224684","0.2448078588","0.3571939809","","","","","","","","","","75","K","2","","","197","main_expt",""
"","bandit","277","699548","0.0-239.0-0.0","04267463","wem/bandit_party_1","A38LEVBZ3P5F6T","either","5","644","","","","","","","0","0","1","","0.2433987968","0.6","0.2","0.8","0.4","0.190651112","0.1771509929","0.2433987968","0.382430028","","","","","","","","","","","","","","75","K","2","","","198","main_expt",""
"","bandit","278","701412","0.0-240.0-0.0","04267463","wem/bandit_party_1","A38LEVBZ3P5F6T","either","5","358","","","","","","","0","0","1","0.2466668772","","0.6","0.2","0.8","0.4","","","","","0.1701189695","0.2466668772","0.2653624242","0.3353474301","","","","","","","","","","74","J","1","","","199","main_expt",""
"","bandit","279","703317","0.0-241.0-0.0","04267463","wem/bandit_party_1","A38LEVBZ3P5F6T","either","5","395","","","","","","","0","0","1","0.2477816141","","0.6","0.2","0.8","0.4","","","","","0.1656975488","0.2477816141","0.2551376492","0.3321976498","","","","","","","","","","74","J","1","","","200","main_expt",""
"","bandit","280","704948","0.0-242.0-0.0","04267463","wem/bandit_party_1","A38LEVBZ3P5F6T","either","5","124","","","","","","","0","0","1","","0.2744817861","0.6","0.2","0.8","0.4","0.1647298582","0.2744817861","0.2660639347","0.3218117355","","","","","","","","","","","","","","74","J","1","","","201","main_expt",""
"","bandit","281","706485","0.0-243.0-0.0","04267463","wem/bandit_party_1","A38LEVBZ3P5F6T","either","5","27","","","","","","","0","0","1","0.2949214693","","0.6","0.2","0.8","0.4","","","","","0.1242041815","0.3043062986","0.2220900594","0.2949214693","","","","","","","","","","76","L","3","","","202","main_expt",""
"","bandit","282","708153","0.0-244.0-0.0","04267463","wem/bandit_party_1","A38LEVBZ3P5F6T","either","5","156","","","","","","","0","0","1","0.300077299","","0.6","0.2","0.8","0.4","","","","","0.1684487429","0.272185569","0.1543353204","0.300077299","","","","","","","","","","76","L","3","","","203","main_expt",""
"","bandit","283","709769","0.0-245.0-0.0","04267463","wem/bandit_party_1","A38LEVBZ3P5F6T","either","5","104","","","","","","","0","0","1","","0.2866085977","0.6","0.2","0.8","0.4","0.1666409686","0.2610767704","0.1605482003","0.2866085977","","","","","","","","","","","","","","76","L","3","","","204","main_expt",""
"","bandit","284","711466","0.0-246.0-0.0","04267463","wem/bandit_party_1","A38LEVBZ3P5F6T","either","5","185","","","","","","","0","1","0","","0.2695546272","0.6","0.2","0.8","0.4","0.2197286508","0.2832615928","0.1406914754","0.2695546272","","","","","","","","","","","","","","76","L","3","","","205","main_expt",""
"","bandit","285","713310","0.0-247.0-0.0","04267463","wem/bandit_party_1","A38LEVBZ3P5F6T","either","5","333","","","","","","","0","0","1","0.2754509052","","0.6","0.2","0.8","0.4","","","","","0.2754509052","0.300913322","0.1138947463","0.2622178416","","","","","","","","","","72","H","0","img/none_selected.jpg","","206","main_expt",""
"","bandit","286","715063","0.0-248.0-0.0","04267463","wem/bandit_party_1","A38LEVBZ3P5F6T","either","5","243","","","","","","","1","0","0","0.2664869377","","0.6","0.2","0.8","0.4","","","","","0.2664869377","0.3260258847","0.1096702189","0.2498186578","","","","","","","","","","72","H","0","img/none_selected.jpg","","207","main_expt",""
"","bandit","287","716848","0.0-249.0-0.0","04267463","wem/bandit_party_1","A38LEVBZ3P5F6T","either","5","274","","","","","","","0","0","1","","0.2686565688","0.6","0.2","0.8","0.4","0.2686565688","0.3173829003","0.09922356593","0.2335358635","","","","","","","","","","","","","","72","H","0","img/none_selected.jpg","","208","main_expt",""
"","bandit","288","718632","0.0-250.0-0.0","04267463","wem/bandit_party_1","A38LEVBZ3P5F6T","either","5","272","","","","","","","1","0","0","0.2380255957","","0.6","0.2","0.8","0.4","","","","","0.2380255957","0.3153846937","0.101567507","0.2638942681","","","","","","","","","","72","H","0","img/none_selected.jpg","","209","main_expt",""
"","bandit","289","720411","0.0-251.0-0.0","04267463","wem/bandit_party_1","A38LEVBZ3P5F6T","either","5","268","","","","","","","0","0","1","0.2507768727","","0.6","0.2","0.8","0.4","","","","","0.2507768727","0.3010876552","0.08675379402","0.2526926237","","","","","","","","","","72","H","0","img/none_selected.jpg","","210","main_expt",""
"","bandit","290","722123","0.0-252.0-0.0","04267463","wem/bandit_party_1","A38LEVBZ3P5F6T","either","5","202","","","","","","","0","0","1","","0.2685142319","0.6","0.2","0.8","0.4","0.2685142319","0.2864900033","0.07512021269","0.2740367769","","","","","","","","","","","","","","72","H","0","img/none_selected.jpg","","211","main_expt",""
"","bandit","291","723904","0.0-253.0-0.0","04267463","wem/bandit_party_1","A38LEVBZ3P5F6T","either","5","270","","","","","","","1","0","0","0.260511483","","0.6","0.2","0.8","0.4","","","","","0.260511483","0.3163372434","0.08144254236","0.2440836191","","","","","","","","","","72","H","0","img/none_selected.jpg","","212","main_expt",""
"","bandit","292","725687","0.0-254.0-0.0","04267463","wem/bandit_party_1","A38LEVBZ3P5F6T","either","5","273","","","","","","","0","1","0","","0.2579605047","0.6","0.2","0.8","0.4","0.2579605047","0.2701305136","0.06585574052","0.2341903104","","","","","","","","","","","","","","72","H","0","img/none_selected.jpg","","213","main_expt",""
"","bandit","293","727451","0.0-255.0-0.0","04267463","wem/bandit_party_1","A38LEVBZ3P5F6T","either","5","252","","","","","","","0","0","1","","0.2470456849","0.6","0.2","0.8","0.4","0.2470456849","0.302599165","0.08686614453","0.2097526345","","","","","","","","","","","","","","72","H","0","img/none_selected.jpg","","214","main_expt",""
"","bandit","294","729159","0.0-256.0-0.0","04267463","wem/bandit_party_1","A38LEVBZ3P5F6T","either","5","197","","","","","","","0","1","0","","0.3285383036","0.6","0.2","0.8","0.4","0.3285383036","0.2968005471","0.1068548489","0.1796882487","","","","","","","","","","","","","","72","H","0","img/none_selected.jpg","","215","main_expt",""
"","bandit","295","730909","0.0-257.0-0.0","04267463","wem/bandit_party_1","A38LEVBZ3P5F6T","either","5","240","","","","","","","0","1","0","","0.3780044773","0.6","0.2","0.8","0.4","0.3780044773","0.2835536598","0.1211736082","0.2237900511","","","","","","","","","","","","","","72","H","0","img/none_selected.jpg","","216","main_expt",""
"","bandit","296","732675","0.0-258.0-0.0","04267463","wem/bandit_party_1","A38LEVBZ3P5F6T","either","5","256","","","","","","","0","1","0","","0.3939228946","0.6","0.2","0.8","0.4","0.3939228946","0.2520762718","0.09343701815","0.2265358539","","","","","","","","","","","","","","72","H","0","img/none_selected.jpg","","217","main_expt",""
"","bandit","297","734453","0.0-259.0-0.0","04267463","wem/bandit_party_1","A38LEVBZ3P5F6T","either","5","268","","","","","","","1","0","0","0.3198270803","","0.6","0.2","0.8","0.4","","","","","0.3198270803","0.2562699476","0.1001055386","0.2364013437","","","","","","","","","","72","H","0","img/none_selected.jpg","","218","main_expt",""
"","bandit","298","736188","0.0-260.0-0.0","04267463","wem/bandit_party_1","A38LEVBZ3P5F6T","either","5","223","","","","","","","0","1","0","","0.3502502288","0.6","0.2","0.8","0.4","0.3502502288","0.3002431464","0.09524874014","0.2810560361","","","","","","","","","","","","","","72","H","0","img/none_selected.jpg","","219","main_expt",""
"","bandit","299","737910","0.0-261.0-0.0","04267463","wem/bandit_party_1","A38LEVBZ3P5F6T","either","5","210","","","","","","","0","1","0","","0.3402456168","0.6","0.2","0.8","0.4","0.3402456168","0.3365413303","0.1304899995","0.3027429446","","","","","","","","","","","","","","72","H","0","img/none_selected.jpg","","220","main_expt",""
"","bandit","300","739591","0.0-262.0-0.0","04267463","wem/bandit_party_1","A38LEVBZ3P5F6T","either","5","169","","","","","","","0","0","1","","0.2946103072","0.6","0.2","0.8","0.4","0.3770059732","0.2946103072","0.1272814923","0.3132134988","","","","","","","","","","","","","","74","J","1","","","221","main_expt",""
"","bandit","301","741460","0.0-263.0-0.0","04267463","wem/bandit_party_1","A38LEVBZ3P5F6T","either","5","359","","","","","","","0","0","1","0.3864421123","","0.6","0.2","0.8","0.4","","","","","0.3864421123","0.3267284332","0.1654407056","0.2424821827","","","","","","","","","","72","H","0","img/none_selected.jpg","","222","main_expt",""
"","bandit","302","743203","0.0-264.0-0.0","04267463","wem/bandit_party_1","A38LEVBZ3P5F6T","either","5","232","","","","","","","1","0","0","0.4205211408","","0.6","0.2","0.8","0.4","","","","","0.4205211408","0.3175152631","0.1788325852","0.2595367495","","","","","","","","","","72","H","0","img/none_selected.jpg","","223","main_expt",""
"","bandit","303","744937","0.0-265.0-0.0","04267463","wem/bandit_party_1","A38LEVBZ3P5F6T","either","5","224","","","","","","","0","0","1","0.4131889957","","0.6","0.2","0.8","0.4","","","","","0.4131889957","0.3192400935","0.1736623033","0.328819141","","","","","","","","","","72","H","0","img/none_selected.jpg","","224","main_expt",""
"","bandit","304","746727","0.0-266.0-0.0","04267463","wem/bandit_party_1","A38LEVBZ3P5F6T","either","5","280","","","","","","","0","0","1","","0.4001513574","0.6","0.2","0.8","0.4","0.4001513574","0.3096750449","0.1721911447","0.356121412","","","","","","","","","","","","","","72","H","0","img/none_selected.jpg","","225","main_expt",""
"","bandit","305","748504","0.0-267.0-0.0","04267463","wem/bandit_party_1","A38LEVBZ3P5F6T","either","5","267","","","","","","","0","0","1","0.3963688582","","0.6","0.2","0.8","0.4","","","","","0.3963688582","0.3142833063","0.2133818582","0.3394019192","","","","","","","","","","72","H","0","img/none_selected.jpg","","226","main_expt",""
"","bandit","306","750217","0.0-268.0-0.0","04267463","wem/bandit_party_1","A38LEVBZ3P5F6T","either","5","201","","","","","","","0","0","1","","0.3979714495","0.6","0.2","0.8","0.4","0.3979714495","0.3096885674","0.2620007467","0.2860553004","","","","","","","","","","","","","","72","H","0","img/none_selected.jpg","","227","main_expt",""
"","bandit","307","751975","0.0-269.0-0.0","04267463","wem/bandit_party_1","A38LEVBZ3P5F6T","either","5","247","","","","","","","1","0","0","0.3811043637","","0.6","0.2","0.8","0.4","","","","","0.3811043637","0.3048295172","0.2961930455","0.2967856672","","","","","","","","","","72","H","0","img/none_selected.jpg","","228","main_expt",""
"","bandit","308","753739","0.0-270.0-0.0","04267463","wem/bandit_party_1","A38LEVBZ3P5F6T","either","5","251","","","","","","","0","0","1","","0.3488149186","0.6","0.2","0.8","0.4","0.3488149186","0.2553920021","0.3081123415","0.2857745529","","","","","","","","","","","","","","72","H","0","img/none_selected.jpg","","229","main_expt",""
"","bandit","309","755436","0.0-271.0-0.0","04267463","wem/bandit_party_1","A38LEVBZ3P5F6T","either","5","185","","","","","","","0","0","1","0.2883621188","","0.6","0.2","0.8","0.4","","","","","0.2883621188","0.2783794412","0.3027177586","0.2589404948","","","","","","","","","","72","H","0","img/none_selected.jpg","","230","main_expt",""
"","bandit","310","757230","0.0-272.0-0.0","04267463","wem/bandit_party_1","A38LEVBZ3P5F6T","either","5","283","","","","","","","0","0","1","0.2495346478","","0.6","0.2","0.8","0.4","","","","","0.2444465504","0.2735536708","0.2495346478","0.2628441024","","","","","","","","","","75","K","2","","","231","main_expt",""
"","bandit","311","758975","0.0-273.0-0.0","04267463","wem/bandit_party_1","A38LEVBZ3P5F6T","either","5","236","","","","","","","0","0","1","0.2185872191","","0.6","0.2","0.8","0.4","","","","","0.2996930955","0.2262440502","0.2185872191","0.276537748","","","","","","","","","","75","K","2","","","232","main_expt",""
"","bandit","312","760694","0.0-274.0-0.0","04267463","wem/bandit_party_1","A38LEVBZ3P5F6T","either","5","206","","","","","","","1","0","0","0.1874863907","","0.6","0.2","0.8","0.4","","","","","0.3103031796","0.2171974885","0.1874863907","0.2485723575","","","","","","","","","","75","K","2","","","233","main_expt",""
"","bandit","313","762446","0.0-275.0-0.0","04267463","wem/bandit_party_1","A38LEVBZ3P5F6T","either","5","240","","","","","","","0","0","1","0.2165838284","","0.6","0.2","0.8","0.4","","","","","0.2971988612","0.2951485073","0.2165838284","0.2172766866","","","","","","","","","","75","K","2","","","234","main_expt",""
