"consent","trial_type","trial_index","time_elapsed","internal_node_id","subjID","study","MID","cond","drift","rt","responses","button_pressed","key_press","like","value","connected","gems","bombs","no_reward","GemPrChosen","BombPrChosen","GainOverPainPr_0","GainOverPainPr_1","GainOverPainPr_2","GainOverPainPr_3","LosePr_0","LosePr_1","LosePr_2","LosePr_3","WinPr_0","WinPr_1","WinPr_2","WinPr_3","Q0","Q1","Q2","gender","age","ethnicity","label","expt_phase","target","respCharCode","respKey","respChoiceNum","respChoice","practice","trial_counter","trial_label","Q0_index"
"GDM/GDM_behavioral_consent_30min_online.html","consent","0","24105","0.0-0.0","05485637","wem/bandit_party_1","A1BHR5XQ16T7LA","either","5","","","","","","","","","","","","","","","","","","","","","","","","","","","","","","","","","","","","","","","","",""
"","survey-text","1","33961","0.0-1.0","05485637","wem/bandit_party_1","A1BHR5XQ16T7LA","either","5","8846","{""Q0"":""A1BHR5XQ16T7LA""}","","","","","","","","","","","","","","","","","","","","","","","","","","","","","","","","","","","","","","",""
"","button-response","2","38064","0.0-2.0","05485637","wem/bandit_party_1","A1BHR5XQ16T7LA","either","5","3096","","2","","","","","","","","","","","","","","","","","","","","","","","","","","","","","","","","","","","","","",""
"","text-replacement","3","60746","0.0-3.0","05485637","wem/bandit_party_1","A1BHR5XQ16T7LA","either","5","21679","","","32","","","","","","","","","","","","","","","","","","","","","","","","","","","","","","","","","","","","",""
"","text-replacement","4","74281","0.0-4.0","05485637","wem/bandit_party_1","A1BHR5XQ16T7LA","either","5","13532","","","32","","","","","","","","","","","","","","","","","","","","","","","","","","","","","","","","","","","","",""
"","text-replacement","5","84136","0.0-5.0-0.0","05485637","wem/bandit_party_1","A1BHR5XQ16T7LA","either","5","9852","","","32","","","","","","","","","","","","","","","","","","","","","","","","","","","","","","","","","","","","",""
"","identification","6","102659","0.0-6.0-0.0","05485637","wem/bandit_party_1","A1BHR5XQ16T7LA","either","5","18499","","","","2","2","1","","","","","","","","","","","","","","","","","","","","","","","","pre","identification_pre","the Republican party","","","","","","","",""
"","identification","7","115131","0.0-6.0-1.0","05485637","wem/bandit_party_1","A1BHR5XQ16T7LA","either","5","11450","","","","2","2","2","","","","","","","","","","","","","","","","","","","","","","","","pre","identification_pre","the Democratic Party","","","","","","","",""
"","text-replacement","8","125346","0.0-7.0","05485637","wem/bandit_party_1","A1BHR5XQ16T7LA","either","5","9213","","","32","","","","","","","","","","","","","","","","","","","","","","","","","","","","","","","","","","","","",""
"","text-replacement","9","131799","0.0-8.0","05485637","wem/bandit_party_1","A1BHR5XQ16T7LA","either","5","6450","","","32","","","","","","","","","","","","","","","","","","","","","","","","","","","","","","","","","","","","",""
"","text-replacement","10","141402","0.0-9.0","05485637","wem/bandit_party_1","A1BHR5XQ16T7LA","either","5","9600","","","32","","","","","","","","","","","","","","","","","","","","","","","","","","","","","","","","","","","","",""
"","text-replacement","11","145376","0.0-10.0","05485637","wem/bandit_party_1","A1BHR5XQ16T7LA","either","5","3972","","","32","","","","","","","","","","","","","","","","","","","","","","","","","","","","","","","","","","","","",""
"","text-replacement","12","151569","0.0-11.0","05485637","wem/bandit_party_1","A1BHR5XQ16T7LA","either","5","6191","","","32","","","","","","","","","","","","","","","","","","","","","","","","","","","","","","","","","","","","",""
"","bandit","13","156624","0.0-12.0-0.0","05485637","wem/bandit_party_1","A1BHR5XQ16T7LA","either","5","3544","","","","","","","0","0","1","0","0","","","","","0","","","","0","","","","","","","","","","","","","74","J","0","img/none_selected_demo.jpg","true","0","",""
"","bandit","14","160472","0.0-13.0-0.0","05485637","wem/bandit_party_1","A1BHR5XQ16T7LA","either","5","2340","","","","","","","0","0","1","0","0","","","","","0","","","","0","","","","","","","","","","","","","75","K","0","img/none_selected_demo.jpg","true","0","",""
"","text-replacement","15","171114","0.0-14.0","05485637","wem/bandit_party_1","A1BHR5XQ16T7LA","either","5","10639","","","32","","","","","","","","","","","","","","","","","","","","","","","","","","","","","","","","","","","","",""
"","text-replacement","16","182001","0.0-15.0","05485637","wem/bandit_party_1","A1BHR5XQ16T7LA","either","5","10885","","","32","","","","","","","","","","","","","","","","","","","","","","","","","","","","","","","","","","","","",""
"","text-replacement","17","193266","0.0-16.0","05485637","wem/bandit_party_1","A1BHR5XQ16T7LA","either","5","11262","","","32","","","","","","","","","","","","","","","","","","","","","","","","","","","","","","","","","","","","",""
"","text-replacement","18","199146","0.0-17.0","05485637","wem/bandit_party_1","A1BHR5XQ16T7LA","either","5","5876","","","32","","","","","","","","","","","","","","","","","","","","","","","","","","","","","","","","","","","","",""
"","bandit","19","205251","0.0-18.0-0.0","05485637","wem/bandit_party_1","A1BHR5XQ16T7LA","either","5","4595","","","","","","","1","0","0","0.8","","0.5","0.5","","","","","","","0.8","0.2","","","","","","","","","","","","74","J","0","img/none_selected_demo.jpg","true","0","80_20_practice",""
"","bandit","20","210071","0.0-18.0-1.0","05485637","wem/bandit_party_1","A1BHR5XQ16T7LA","either","5","3312","","","","","","","0","0","1","0.2","","0.5","0.5","","","","","","","0.8","0.2","","","","","","","","","","","","75","K","1","","true","0","80_20_practice",""
"","bandit","21","212224","0.0-18.0-2.0","05485637","wem/bandit_party_1","A1BHR5XQ16T7LA","either","5","645","","","","","","","0","1","0","","0.8","0.5","0.5","","","0.8","0.2","","","","","","","","","","","","","","","","74","J","0","img/none_selected_demo.jpg","true","0","80_20_practice",""
"","bandit","22","214552","0.0-18.0-3.0","05485637","wem/bandit_party_1","A1BHR5XQ16T7LA","either","5","819","","","","","","","0","1","0","","0.8","0.5","0.5","","","0.8","0.2","","","","","","","","","","","","","","","","74","J","0","img/none_selected_demo.jpg","true","0","80_20_practice",""
"","bandit","23","216745","0.0-18.0-4.0","05485637","wem/bandit_party_1","A1BHR5XQ16T7LA","either","5","685","","","","","","","1","0","0","0.2","","0.5","0.5","","","","","","","0.8","0.2","","","","","","","","","","","","75","K","1","","true","0","80_20_practice",""
"","bandit","24","219159","0.0-18.0-5.0","05485637","wem/bandit_party_1","A1BHR5XQ16T7LA","either","5","903","","","","","","","1","0","0","0.2","","0.5","0.5","","","","","","","0.8","0.2","","","","","","","","","","","","75","K","1","","true","0","80_20_practice",""
"","bandit","25","221735","0.0-18.0-6.0","05485637","wem/bandit_party_1","A1BHR5XQ16T7LA","either","5","1069","","","","","","","1","0","0","0.8","","0.5","0.5","","","","","","","0.8","0.2","","","","","","","","","","","","74","J","0","img/none_selected_demo.jpg","true","0","80_20_practice",""
"","bandit","26","223889","0.0-18.0-7.0","05485637","wem/bandit_party_1","A1BHR5XQ16T7LA","either","5","645","","","","","","","1","0","0","0.8","","0.5","0.5","","","","","","","0.8","0.2","","","","","","","","","","","","74","J","0","img/none_selected_demo.jpg","true","0","80_20_practice",""
"","bandit","27","225697","0.0-18.0-8.0","05485637","wem/bandit_party_1","A1BHR5XQ16T7LA","either","5","297","","","","","","","1","0","0","0.8","","0.5","0.5","","","","","","","0.8","0.2","","","","","","","","","","","","74","J","0","img/none_selected_demo.jpg","true","0","80_20_practice",""
"","bandit","28","227793","0.0-18.0-9.0","05485637","wem/bandit_party_1","A1BHR5XQ16T7LA","either","5","588","","","","","","","1","0","0","0.8","","0.5","0.5","","","","","","","0.8","0.2","","","","","","","","","","","","74","J","0","img/none_selected_demo.jpg","true","0","80_20_practice",""
"","bandit","29","229640","0.0-18.0-10.0","05485637","wem/bandit_party_1","A1BHR5XQ16T7LA","either","5","341","","","","","","","1","0","0","0.8","","0.5","0.5","","","","","","","0.8","0.2","","","","","","","","","","","","74","J","0","img/none_selected_demo.jpg","true","0","80_20_practice",""
"","bandit","30","232536","0.0-18.0-11.0","05485637","wem/bandit_party_1","A1BHR5XQ16T7LA","either","5","1387","","","","","","","0","0","1","","0.2","0.5","0.5","","","0.8","0.2","","","","","","","","","","","","","","","","75","K","1","","true","0","80_20_practice",""
"","bandit","31","234326","0.0-18.0-12.0","05485637","wem/bandit_party_1","A1BHR5XQ16T7LA","either","5","283","","","","","","","0","0","1","","0.2","0.5","0.5","","","0.8","0.2","","","","","","","","","","","","","","","","75","K","1","","true","0","80_20_practice",""
"","bandit","32","236512","0.0-18.0-13.0","05485637","wem/bandit_party_1","A1BHR5XQ16T7LA","either","5","678","","","","","","","0","1","0","","0.2","0.5","0.5","","","0.8","0.2","","","","","","","","","","","","","","","","75","K","1","","true","0","80_20_practice",""
"","bandit","33","238327","0.0-18.0-14.0","05485637","wem/bandit_party_1","A1BHR5XQ16T7LA","either","5","306","","","","","","","0","0","1","0.8","","0.5","0.5","","","","","","","0.8","0.2","","","","","","","","","","","","74","J","0","img/none_selected_demo.jpg","true","0","80_20_practice",""
"","bandit","34","240383","0.0-18.0-15.0","05485637","wem/bandit_party_1","A1BHR5XQ16T7LA","either","5","547","","","","","","","0","0","1","0.8","","0.5","0.5","","","","","","","0.8","0.2","","","","","","","","","","","","74","J","0","img/none_selected_demo.jpg","true","0","80_20_practice",""
"","bandit","35","242208","0.0-18.0-16.0","05485637","wem/bandit_party_1","A1BHR5XQ16T7LA","either","5","317","","","","","","","0","0","1","0.8","","0.5","0.5","","","","","","","0.8","0.2","","","","","","","","","","","","74","J","0","img/none_selected_demo.jpg","true","0","80_20_practice",""
"","bandit","36","244032","0.0-18.0-17.0","05485637","wem/bandit_party_1","A1BHR5XQ16T7LA","either","5","318","","","","","","","0","0","1","0.8","","0.5","0.5","","","","","","","0.8","0.2","","","","","","","","","","","","74","J","0","img/none_selected_demo.jpg","true","0","80_20_practice",""
"","bandit","37","245829","0.0-18.0-18.0","05485637","wem/bandit_party_1","A1BHR5XQ16T7LA","either","5","291","","","","","","","0","0","1","0.8","","0.5","0.5","","","","","","","0.8","0.2","","","","","","","","","","","","74","J","0","img/none_selected_demo.jpg","true","0","80_20_practice",""
"","bandit","38","247719","0.0-18.0-19.0","05485637","wem/bandit_party_1","A1BHR5XQ16T7LA","either","5","384","","","","","","","0","0","1","","0.2","0.5","0.5","","","0.8","0.2","","","","","","","","","","","","","","","","75","K","1","","true","0","80_20_practice",""
"","text-replacement","39","252128","0.0-19.0","05485637","wem/bandit_party_1","A1BHR5XQ16T7LA","either","5","4405","","","32","","","","","","","","","","","","","","","","","","","","","","","","","","","","","","","","","","","","",""
"","bandit","40","256159","0.0-20.0-0.0","05485637","wem/bandit_party_1","A1BHR5XQ16T7LA","either","5","2521","","","","","","","0","1","0","0","1","","","","","0","1","","","1","0","","","","","","","","","","","","75","K","1","","true","0","",""
"","text-replacement","41","266627","0.0-21.0","05485637","wem/bandit_party_1","A1BHR5XQ16T7LA","either","5","10464","","","32","","","","","","","","","","","","","","","","","","","","","","","","","","","","","","","","","","","","",""
"","text-replacement","42","271153","0.0-22.0","05485637","wem/bandit_party_1","A1BHR5XQ16T7LA","either","5","4523","","","32","","","","","","","","","","","","","","","","","","","","","","","","","","","","","","","","","","","","",""
"","text-replacement","43","274833","0.0-23.0","05485637","wem/bandit_party_1","A1BHR5XQ16T7LA","either","5","3677","","","32","","","","","","","","","","","","","","","","","","","","","","","","","","","","","","","","","","","","",""
"","text-replacement","44","279675","0.0-24.0","05485637","wem/bandit_party_1","A1BHR5XQ16T7LA","either","5","4838","","","32","","","","","","","","","","","","","","","","","","","","","","","","","","","","","","","","","","","","",""
"","text-replacement","45","291499","0.0-25.0","05485637","wem/bandit_party_1","A1BHR5XQ16T7LA","either","5","11820","","","32","","","","","","","","","","","","","","","","","","","","","","","","","","","","","","","","","","","","",""
"","text-replacement","46","297193","0.0-26.0","05485637","wem/bandit_party_1","A1BHR5XQ16T7LA","either","5","5690","","","32","","","","","","","","","","","","","","","","","","","","","","","","","","","","","","","","","","","","",""
"","text-replacement","47","303114","0.0-27.0","05485637","wem/bandit_party_1","A1BHR5XQ16T7LA","either","5","5918","","","32","","","","","","","","","","","","","","","","","","","","","","","","","","","","","","","","","","","","",""
"","text-replacement","48","310105","0.0-28.0","05485637","wem/bandit_party_1","A1BHR5XQ16T7LA","either","5","6987","","","32","","","","","","","","","","","","","","","","","","","","","","","","","","","","","","","","","","","","",""
"","text-replacement","49","317771","0.0-29.0","05485637","wem/bandit_party_1","A1BHR5XQ16T7LA","either","5","7663","","","32","","","","","","","","","","","","","","","","","","","","","","","","","","","","","","","","","","","","",""
"","text-replacement","50","320473","0.0-30.0","05485637","wem/bandit_party_1","A1BHR5XQ16T7LA","either","5","2700","","","32","","","","","","","","","","","","","","","","","","","","","","","","","","","","","","","","","","","","",""
"","text-replacement","51","325289","0.0-31.0","05485637","wem/bandit_party_1","A1BHR5XQ16T7LA","either","5","4813","","","32","","","","","","","","","","","","","","","","","","","","","","","","","","","","","","","","","","","","",""
"","bandit","52","328209","0.0-32.0-0.0","05485637","wem/bandit_party_1","A1BHR5XQ16T7LA","either","5","1409","","","","","","","0","0","1","0.2","","0.5","0.5","0.5","0.5","","","","","0.8","0.2","0.6","0.2","","","","","","","","","","76","L","3","","true","0","full_practice",""
"","bandit","53","331296","0.0-32.0-1.0","05485637","wem/bandit_party_1","A1BHR5XQ16T7LA","either","5","1577","","","","","","","0","1","0","","0.2","0.5","0.5","0.5","0.5","0.8","0.2","0.6","0.2","","","","","","","","","","","","","","76","L","3","","true","0","full_practice",""
"","bandit","54","333640","0.0-32.0-2.0","05485637","wem/bandit_party_1","A1BHR5XQ16T7LA","either","5","834","","","","","","","0","0","1","0.2","","0.5","0.5","0.5","0.5","","","","","0.8","0.2","0.6","0.2","","","","","","","","","","76","L","3","","true","0","full_practice",""
"","bandit","55","335713","0.0-32.0-3.0","05485637","wem/bandit_party_1","A1BHR5XQ16T7LA","either","5","563","","","","","","","0","0","1","","0.2","0.5","0.5","0.5","0.5","0.8","0.2","0.6","0.2","","","","","","","","","","","","","","76","L","3","","true","0","full_practice",""
"","bandit","56","337648","0.0-32.0-4.0","05485637","wem/bandit_party_1","A1BHR5XQ16T7LA","either","5","426","","","","","","","0","1","0","","0.6","0.5","0.5","0.5","0.5","0.8","0.2","0.6","0.2","","","","","","","","","","","","","","75","K","2","","true","0","full_practice",""
"","bandit","57","339463","0.0-32.0-5.0","05485637","wem/bandit_party_1","A1BHR5XQ16T7LA","either","5","306","","","","","","","0","0","1","0.6","","0.5","0.5","0.5","0.5","","","","","0.8","0.2","0.6","0.2","","","","","","","","","","75","K","2","","true","0","full_practice",""
"","bandit","58","341120","0.0-32.0-6.0","05485637","wem/bandit_party_1","A1BHR5XQ16T7LA","either","5","147","","","","","","","0","0","1","","0.6","0.5","0.5","0.5","0.5","0.8","0.2","0.6","0.2","","","","","","","","","","","","","","75","K","2","","true","0","full_practice",""
"","bandit","59","343122","0.0-32.0-7.0","05485637","wem/bandit_party_1","A1BHR5XQ16T7LA","either","5","492","","","","","","","0","1","0","","0.6","0.5","0.5","0.5","0.5","0.8","0.2","0.6","0.2","","","","","","","","","","","","","","75","K","2","","true","0","full_practice",""
"","bandit","60","345336","0.0-32.0-8.0","05485637","wem/bandit_party_1","A1BHR5XQ16T7LA","either","5","705","","","","","","","0","1","0","","0.6","0.5","0.5","0.5","0.5","0.8","0.2","0.6","0.2","","","","","","","","","","","","","","75","K","2","","true","0","full_practice",""
"","bandit","61","347023","0.0-32.0-9.0","05485637","wem/bandit_party_1","A1BHR5XQ16T7LA","either","5","181","","","","","","","1","0","0","0.6","","0.5","0.5","0.5","0.5","","","","","0.8","0.2","0.6","0.2","","","","","","","","","","75","K","2","","true","0","full_practice",""
"","bandit","62","349016","0.0-32.0-10.0","05485637","wem/bandit_party_1","A1BHR5XQ16T7LA","either","5","483","","","","","","","0","0","1","","0.2","0.5","0.5","0.5","0.5","0.8","0.2","0.6","0.2","","","","","","","","","","","","","","74","J","1","","true","0","full_practice",""
"","bandit","63","350805","0.0-32.0-11.0","05485637","wem/bandit_party_1","A1BHR5XQ16T7LA","either","5","284","","","","","","","0","0","1","","0.2","0.5","0.5","0.5","0.5","0.8","0.2","0.6","0.2","","","","","","","","","","","","","","74","J","1","","true","0","full_practice",""
"","bandit","64","352519","0.0-32.0-12.0","05485637","wem/bandit_party_1","A1BHR5XQ16T7LA","either","5","209","","","","","","","0","0","1","","0.2","0.5","0.5","0.5","0.5","0.8","0.2","0.6","0.2","","","","","","","","","","","","","","74","J","1","","true","0","full_practice",""
"","bandit","65","354450","0.0-32.0-13.0","05485637","wem/bandit_party_1","A1BHR5XQ16T7LA","either","5","422","","","","","","","1","0","0","0.2","","0.5","0.5","0.5","0.5","","","","","0.8","0.2","0.6","0.2","","","","","","","","","","74","J","1","","true","0","full_practice",""
"","bandit","66","356145","0.0-32.0-14.0","05485637","wem/bandit_party_1","A1BHR5XQ16T7LA","either","5","184","","","","","","","1","0","0","0.2","","0.5","0.5","0.5","0.5","","","","","0.8","0.2","0.6","0.2","","","","","","","","","","74","J","1","","true","0","full_practice",""
"","bandit","67","358129","0.0-32.0-15.0","05485637","wem/bandit_party_1","A1BHR5XQ16T7LA","either","5","474","","","","","","","0","0","1","","0.2","0.5","0.5","0.5","0.5","0.8","0.2","0.6","0.2","","","","","","","","","","","","","","74","J","1","","true","0","full_practice",""
"","bandit","68","360999","0.0-32.0-16.0","05485637","wem/bandit_party_1","A1BHR5XQ16T7LA","either","5","1361","","","","","","","0","0","1","0.8","","0.5","0.5","0.5","0.5","","","","","0.8","0.2","0.6","0.2","","","","","","","","","","72","H","0","img/none_selected.jpg","true","0","full_practice",""
"","bandit","69","363352","0.0-32.0-17.0","05485637","wem/bandit_party_1","A1BHR5XQ16T7LA","either","5","844","","","","","","","0","1","0","","0.8","0.5","0.5","0.5","0.5","0.8","0.2","0.6","0.2","","","","","","","","","","","","","","72","H","0","img/none_selected.jpg","true","0","full_practice",""
"","bandit","70","365105","0.0-32.0-18.0","05485637","wem/bandit_party_1","A1BHR5XQ16T7LA","either","5","243","","","","","","","0","0","1","0.8","","0.5","0.5","0.5","0.5","","","","","0.8","0.2","0.6","0.2","","","","","","","","","","72","H","0","img/none_selected.jpg","true","0","full_practice",""
"","bandit","71","367233","0.0-32.0-19.0","05485637","wem/bandit_party_1","A1BHR5XQ16T7LA","either","5","610","","","","","","","0","1","0","","0.8","0.5","0.5","0.5","0.5","0.8","0.2","0.6","0.2","","","","","","","","","","","","","","72","H","0","img/none_selected.jpg","true","0","full_practice",""
"","text","72","372178","0.0-33.0","05485637","wem/bandit_party_1","A1BHR5XQ16T7LA","either","5","4933","","","32","","","","","","","","","","","","","","","","","","","","","","","","","","","","","","","","","","","","",""
"","text-replacement","73","386019","0.0-34.0","05485637","wem/bandit_party_1","A1BHR5XQ16T7LA","either","5","12835","","","32","","","","","","","","","","","","","","","","","","","","","","","","","","","","","","","","","","","","",""
"","text-replacement","74","458259","0.0-35.0","05485637","wem/bandit_party_1","A1BHR5XQ16T7LA","either","5","72236","","","32","","","","","","","","","","","","","","","","","","","","","","","","","","","","","","","","","","","","",""
"","text-replacement","75","464776","0.0-36.0","05485637","wem/bandit_party_1","A1BHR5XQ16T7LA","either","5","6512","","","32","","","","","","","","","","","","","","","","","","","","","","","","","","","","","","","","","","","","",""
"","text-replacement","76","472971","0.0-37.0","05485637","wem/bandit_party_1","A1BHR5XQ16T7LA","either","5","8192","","","32","","","","","","","","","","","","","","","","","","","","","","","","","","","","","","","","","","","","",""
"","text-replacement","77","479977","0.0-38.0","05485637","wem/bandit_party_1","A1BHR5XQ16T7LA","either","5","7002","","","32","","","","","","","","","","","","","","","","","","","","","","","","","","","","","","","","","","","","",""
"","survey-multi-choice-replacement","78","488515","0.0-39.0-0.0","05485637","wem/bandit_party_1","A1BHR5XQ16T7LA","either","5","8525","","","","","","","","","","","","","","","","","","","","","","","","Money will be added to the pool for <span style='color:blue;'>DEMOCRATS</span>","","","","","","","attn_check","","","","","","","","","0"
"","survey-multi-choice-replacement","79","496962","0.0-40.0-0.0","05485637","wem/bandit_party_1","A1BHR5XQ16T7LA","either","5","7433","","","","","","","","","","","","","","","","","","","","","","","","Equal amounts of money will be added to the pool for <span style='color:blue;'>DEMOCRATS</span> and subtracted from the pool for <span style='color:red;'>REPUBLICANS</span>","","","","","","","attn_check","","","","","","","","","2"
"","survey-multi-choice-replacement","80","501155","0.0-41.0-0.0","05485637","wem/bandit_party_1","A1BHR5XQ16T7LA","either","5","3178","","","","","","","","","","","","","","","","","","","","","","","","No money will be added to either pool","","","","","","","attn_check","","","","","","","","","3"
"","bandit","81","508313","0.0-42.0-0.0","05485637","wem/bandit_party_1","A1BHR5XQ16T7LA","either","5","4645","","","","","","","1","0","0","0.3340388524","","0.6","0.8","0.2","0.4","","","","","0.4265570961","0.3340388524","0.3897275569","0.1165465043","","","","","","","","","","74","J","1","","","1","main_expt",""
"","bandit","82","510954","0.0-43.0-0.0","05485637","wem/bandit_party_1","A1BHR5XQ16T7LA","either","5","1129","","","","","","","0","0","1","0.4177099958","","0.6","0.8","0.2","0.4","","","","","0.4177099958","0.3223834482","0.3911966266","0.08371899021","","","","","","","","","","72","H","0","img/none_selected.jpg","","2","main_expt",""
"","bandit","83","513448","0.0-44.0-0.0","05485637","wem/bandit_party_1","A1BHR5XQ16T7LA","either","5","984","","","","","","","0","0","1","","0.4074861021","0.6","0.8","0.2","0.4","0.4192185534","0.3585509001","0.4074861021","0.04339790364","","","","","","","","","","","","","","75","K","2","","","3","main_expt",""
"","bandit","84","515567","0.0-45.0-0.0","05485637","wem/bandit_party_1","A1BHR5XQ16T7LA","either","5","610","","","","","","","0","0","1","0.04073472785","","0.6","0.8","0.2","0.4","","","","","0.4241610434","0.3416436242","0.3965638453","0.04073472785","","","","","","","","","","76","L","3","","","4","main_expt",""
"","bandit","85","518193","0.0-46.0-0.0","05485637","wem/bandit_party_1","A1BHR5XQ16T7LA","either","5","1115","","","","","","","0","0","1","0.3444758892","","0.6","0.8","0.2","0.4","","","","","0.4284837315","0.3444758892","0.3688269119","0.04731773769","","","","","","","","","","74","J","1","","","5","main_expt",""
"","bandit","86","520409","0.0-47.0-0.0","05485637","wem/bandit_party_1","A1BHR5XQ16T7LA","either","5","707","","","","","","","0","1","0","","0.4328708062","0.6","0.8","0.2","0.4","0.4328708062","0.3574177426","0.3865867917","0.05617088868","","","","","","","","","","","","","","72","H","0","img/none_selected.jpg","","6","main_expt",""
"","bandit","87","522879","0.0-48.0-0.0","05485637","wem/bandit_party_1","A1BHR5XQ16T7LA","either","5","961","","","","","","","0","0","1","","0.4176545671","0.6","0.8","0.2","0.4","0.4176545671","0.3634052143","0.4294719924","0.05606577856","","","","","","","","","","","","","","72","H","0","img/none_selected.jpg","","7","main_expt",""
"","bandit","88","525544","0.0-49.0-0.0","05485637","wem/bandit_party_1","A1BHR5XQ16T7LA","either","5","1158","","","","","","","0","0","1","0.4210378118","","0.6","0.8","0.2","0.4","","","","","0.4022395488","0.3675420607","0.4210378118","0.09244853328","","","","","","","","","","75","K","2","","","8","main_expt",""
"","bandit","89","527296","0.0-50.0-0.0","05485637","wem/bandit_party_1","A1BHR5XQ16T7LA","either","5","237","","","","","","","0","1","0","","0.1271341085","0.6","0.8","0.2","0.4","0.3929004949","0.3921196104","0.4502112583","0.1271341085","","","","","","","","","","","","","","76","L","3","","","9","main_expt",""
"","bandit","90","529202","0.0-51.0-0.0","05485637","wem/bandit_party_1","A1BHR5XQ16T7LA","either","5","394","","","","","","","0","0","1","","0.1370717255","0.6","0.8","0.2","0.4","0.3863711448","0.4026182126","0.4452653155","0.1370717255","","","","","","","","","","","","","","76","L","3","","","10","main_expt",""
"","bandit","91","531010","0.0-52.0-0.0","05485637","wem/bandit_party_1","A1BHR5XQ16T7LA","either","5","298","","","","","","","0","0","1","0.3543069494","","0.6","0.8","0.2","0.4","","","","","0.4205849279","0.3543069494","0.4352349267","0.1275050207","","","","","","","","","","74","J","1","","","11","main_expt",""
"","bandit","92","532657","0.0-53.0-0.0","05485637","wem/bandit_party_1","A1BHR5XQ16T7LA","either","5","136","","","","","","","0","0","1","0.4525069231","","0.6","0.8","0.2","0.4","","","","","0.4525069231","0.3504097904","0.4029030639","0.122317004","","","","","","","","","","72","H","0","img/none_selected.jpg","","12","main_expt",""
"","bandit","93","534440","0.0-54.0-0.0","05485637","wem/bandit_party_1","A1BHR5XQ16T7LA","either","5","274","","","","","","","0","0","1","0.4485799753","","0.6","0.8","0.2","0.4","","","","","0.4485799753","0.2787441393","0.4198147105","0.1251711411","","","","","","","","","","72","H","0","img/none_selected.jpg","","13","main_expt",""
"","bandit","94","536218","0.0-55.0-0.0","05485637","wem/bandit_party_1","A1BHR5XQ16T7LA","either","5","266","","","","","","","0","0","1","0.2723245106","","0.6","0.8","0.2","0.4","","","","","0.4504049656","0.2723245106","0.3761312174","0.1380641988","","","","","","","","","","74","J","1","","","14","main_expt",""
"","bandit","95","539217","0.0-56.0-0.0","05485637","wem/bandit_party_1","A1BHR5XQ16T7LA","either","5","1487","","","","","","","0","0","1","","0.4017507227","0.6","0.8","0.2","0.4","0.4281165459","0.3687644442","0.4017507227","0.2010812313","","","","","","","","","","","","","","75","K","2","","","15","main_expt",""
"","bandit","96","542147","0.0-57.0-0.0","05485637","wem/bandit_party_1","A1BHR5XQ16T7LA","either","5","1419","","","","","","","0","0","1","","0.1747275657","0.6","0.8","0.2","0.4","0.4035101098","0.3992289848","0.3859888637","0.1747275657","","","","","","","","","","","","","","76","L","3","","","16","main_expt",""
"","bandit","97","545129","0.0-58.0-0.0","05485637","wem/bandit_party_1","A1BHR5XQ16T7LA","either","5","1472","","","","","","","0","0","1","","0.1816524112","0.6","0.8","0.2","0.4","0.4063691663","0.4067061876","0.3706978481","0.1816524112","","","","","","","","","","","","","","76","L","3","","","17","main_expt",""
"","bandit","98","546993","0.0-59.0-0.0","05485637","wem/bandit_party_1","A1BHR5XQ16T7LA","either","5","344","","","","","","","0","1","0","","0.3323991027","0.6","0.8","0.2","0.4","0.4201618032","0.3969002131","0.3323991027","0.1700798448","","","","","","","","","","","","","","75","K","2","","","18","main_expt",""
"","bandit","99","549146","0.0-60.0-0.0","05485637","wem/bandit_party_1","A1BHR5XQ16T7LA","either","5","645","","","","","","","0","0","1","0.3301718366","","0.6","0.8","0.2","0.4","","","","","0.3868389751","0.3930099592","0.3301718366","0.1998500639","","","","","","","","","","75","K","2","","","19","main_expt",""
"","bandit","100","550897","0.0-61.0-0.0","05485637","wem/bandit_party_1","A1BHR5XQ16T7LA","either","5","242","","","","","","","0","1","0","","0.3714618997","0.6","0.8","0.2","0.4","0.3868875991","0.3791602553","0.3714618997","0.2418808817","","","","","","","","","","","","","","75","K","2","","","20","main_expt",""
"","bandit","101","552746","0.0-62.0-0.0","05485637","wem/bandit_party_1","A1BHR5XQ16T7LA","either","5","337","","","","","","","0","0","1","","0.3621694591","0.6","0.8","0.2","0.4","0.4253770554","0.4127515201","0.3621694591","0.2293341009","","","","","","","","","","","","","","75","K","2","","","21","main_expt",""
"","bandit","102","554354","0.0-63.0-0.0","05485637","wem/bandit_party_1","A1BHR5XQ16T7LA","either","5","97","","","","","","","0","0","1","0.3648829928","","0.6","0.8","0.2","0.4","","","","","0.4285762007","0.4164833055","0.3648829928","0.2074184163","","","","","","","","","","75","K","2","","","22","main_expt",""
"","bandit","103","556168","0.0-64.0-0.0","05485637","wem/bandit_party_1","A1BHR5XQ16T7LA","either","5","303","","","","","","","1","0","0","0.4143027846","","0.6","0.8","0.2","0.4","","","","","0.4082522222","0.4143027846","0.2856994719","0.1832507358","","","","","","","","","","74","J","1","","","23","main_expt",""
"","bandit","104","557944","0.0-65.0-0.0","05485637","wem/bandit_party_1","A1BHR5XQ16T7LA","either","5","266","","","","","","","0","0","1","","0.3649270698","0.6","0.8","0.2","0.4","0.4027270218","0.3649270698","0.3152516524","0.1469425149","","","","","","","","","","","","","","74","J","1","","","24","main_expt",""
"","bandit","105","559682","0.0-66.0-0.0","05485637","wem/bandit_party_1","A1BHR5XQ16T7LA","either","5","227","","","","","","","0","0","1","0.392676409","","0.6","0.8","0.2","0.4","","","","","0.4100212433","0.392676409","0.2778145345","0.102794739","","","","","","","","","","74","J","1","","","25","main_expt",""
"","bandit","106","561474","0.0-67.0-0.0","05485637","wem/bandit_party_1","A1BHR5XQ16T7LA","either","5","279","","","","","","","1","0","0","0.4031565401","","0.6","0.8","0.2","0.4","","","","","0.4190791169","0.4031565401","0.3170506137","0.1173732637","","","","","","","","","","74","J","1","","","26","main_expt",""
"","bandit","107","563603","0.0-68.0-0.0","05485637","wem/bandit_party_1","A1BHR5XQ16T7LA","either","5","619","","","","","","","0","1","0","","0.4245959001","0.6","0.8","0.2","0.4","0.4527212376","0.4245959001","0.3223143746","0.08835016803","","","","","","","","","","","","","","74","J","1","","","27","main_expt",""
"","bandit","108","565392","0.0-69.0-0.0","05485637","wem/bandit_party_1","A1BHR5XQ16T7LA","either","5","278","","","","","","","0","0","1","0.4232885055","","0.6","0.8","0.2","0.4","","","","","0.4480998813","0.4232885055","0.3234472479","0.1134440288","","","","","","","","","","74","J","1","","","28","main_expt",""
"","bandit","109","567345","0.0-70.0-0.0","05485637","wem/bandit_party_1","A1BHR5XQ16T7LA","either","5","443","","","","","","","0","0","1","0.4628669208","","0.6","0.8","0.2","0.4","","","","","0.4628669208","0.4495512981","0.2881425904","0.1982905849","","","","","","","","","","72","H","0","img/none_selected.jpg","","29","main_expt",""
"","bandit","110","569033","0.0-71.0-0.0","05485637","wem/bandit_party_1","A1BHR5XQ16T7LA","either","5","178","","","","","","","0","0","1","0.4565655028","","0.6","0.8","0.2","0.4","","","","","0.4565655028","0.4485299892","0.2326555855","0.2366655967","","","","","","","","","","72","H","0","img/none_selected.jpg","","30","main_expt",""
"","bandit","111","571577","0.0-72.0-0.0","05485637","wem/bandit_party_1","A1BHR5XQ16T7LA","either","5","1033","","","","","","","0","0","1","0.4686031056","","0.6","0.8","0.2","0.4","","","","","0.4686031056","0.4599237238","0.2364604256","0.1622470467","","","","","","","","","","72","H","0","img/none_selected.jpg","","31","main_expt",""
"","bandit","112","574723","0.0-73.0-0.0","05485637","wem/bandit_party_1","A1BHR5XQ16T7LA","either","5","1634","","","","","","","0","1","0","","0.4508116693","0.6","0.8","0.2","0.4","0.4659582456","0.4508116693","0.2451982598","0.1771911602","","","","","","","","","","","","","","74","J","1","","","32","main_expt",""
"","bandit","113","576552","0.0-74.0-0.0","05485637","wem/bandit_party_1","A1BHR5XQ16T7LA","either","5","317","","","","","","","0","0","1","0.45101727","","0.6","0.8","0.2","0.4","","","","","0.4810757035","0.45101727","0.2360369815","0.1622836308","","","","","","","","","","74","J","1","","","33","main_expt",""
"","bandit","114","578775","0.0-75.0-0.0","05485637","wem/bandit_party_1","A1BHR5XQ16T7LA","either","5","706","","","","","","","1","0","0","0.4340174653","","0.6","0.8","0.2","0.4","","","","","0.4842727378","0.4340174653","0.2317763892","0.1655985557","","","","","","","","","","74","J","1","","","34","main_expt",""
"","bandit","115","580955","0.0-76.0-0.0","05485637","wem/bandit_party_1","A1BHR5XQ16T7LA","either","5","667","","","","","","","0","0","1","0.4040147441","","0.6","0.8","0.2","0.4","","","","","0.4745470136","0.4040147441","0.2527891731","0.1492797185","","","","","","","","","","74","J","1","","","35","main_expt",""
"","bandit","116","582873","0.0-77.0-0.0","05485637","wem/bandit_party_1","A1BHR5XQ16T7LA","either","5","409","","","","","","","0","0","1","","0.2641283143","0.6","0.8","0.2","0.4","0.4440965139","0.4268829696","0.2641283143","0.1504543003","","","","","","","","","","","","","","75","K","2","","","36","main_expt",""
"","bandit","117","584571","0.0-78.0-0.0","05485637","wem/bandit_party_1","A1BHR5XQ16T7LA","either","5","187","","","","","","","0","0","1","","0.2309310423","0.6","0.8","0.2","0.4","0.4544425755","0.4562327564","0.2309310423","0.1064249526","","","","","","","","","","","","","","75","K","2","","","37","main_expt",""
"","bandit","118","586364","0.0-79.0-0.0","05485637","wem/bandit_party_1","A1BHR5XQ16T7LA","either","5","280","","","","","","","0","0","1","","0.2093170459","0.6","0.8","0.2","0.4","0.4700138218","0.4481627861","0.2093170459","0.1346530267","","","","","","","","","","","","","","75","K","2","","","38","main_expt",""
"","bandit","119","588911","0.0-80.0-0.0","05485637","wem/bandit_party_1","A1BHR5XQ16T7LA","either","5","1039","","","","","","","0","1","0","","0.1303494481","0.6","0.8","0.2","0.4","0.466948448","0.4475890948","0.1398625959","0.1303494481","","","","","","","","","","","","","","76","L","3","","","39","main_expt",""
"","bandit","120","591215","0.0-81.0-0.0","05485637","wem/bandit_party_1","A1BHR5XQ16T7LA","either","5","800","","","","","","","0","0","1","","0.1492074344","0.6","0.8","0.2","0.4","0.4679256248","0.4501575696","0.09690087606","0.1492074344","","","","","","","","","","","","","","76","L","3","","","40","main_expt",""
"","bandit","121","592784","0.0-82.0-0.0","05485637","wem/bandit_party_1","A1BHR5XQ16T7LA","either","5","61","","","","","","","0","0","1","0.1370672299","","0.6","0.8","0.2","0.4","","","","","0.445537573","0.4121884666","0.1129569356","0.1370672299","","","","","","","","","","76","L","3","","","41","main_expt",""
"","bandit","122","594602","0.0-83.0-0.0","05485637","wem/bandit_party_1","A1BHR5XQ16T7LA","either","5","306","","","","","","","0","0","1","0.08144147181","","0.6","0.8","0.2","0.4","","","","","0.4521531226","0.4379939247","0.1227033228","0.08144147181","","","","","","","","","","76","L","3","","","42","main_expt",""
"","bandit","123","596484","0.0-84.0-0.0","05485637","wem/bandit_party_1","A1BHR5XQ16T7LA","either","5","371","","","","","","","1","0","0","0.4271747655","","0.6","0.8","0.2","0.4","","","","","0.4695072217","0.4271747655","0.08393287497","0.06793865388","","","","","","","","","","74","J","1","","","43","main_expt",""
"","bandit","124","598034","0.0-85.0-0.0","05485637","wem/bandit_party_1","A1BHR5XQ16T7LA","either","5","37","","","","","","","0","0","1","0.4480494518","","0.6","0.8","0.2","0.4","","","","","0.4807409838","0.4480494518","0.06260074275","0.05295344446","","","","","","","","","","74","J","1","","","44","main_expt",""
"","bandit","125","599763","0.0-86.0-0.0","05485637","wem/bandit_party_1","A1BHR5XQ16T7LA","either","5","216","","","","","","","0","0","1","0.4269729589","","0.6","0.8","0.2","0.4","","","","","0.4507048108","0.4269729589","0.08062123592","0.02744239742","","","","","","","","","","74","J","1","","","45","main_expt",""
"","bandit","126","601683","0.0-87.0-0.0","05485637","wem/bandit_party_1","A1BHR5XQ16T7LA","either","5","405","","","","","","","1","0","0","0.4475746277","","0.6","0.8","0.2","0.4","","","","","0.4382321206","0.4475746277","0.1110847749","0.02347437243","","","","","","","","","","74","J","1","","","46","main_expt",""
"","bandit","127","603530","0.0-88.0-0.0","05485637","wem/bandit_party_1","A1BHR5XQ16T7LA","either","5","334","","","","","","","0","0","1","0.4295618238","","0.6","0.8","0.2","0.4","","","","","0.4393937913","0.4295618238","0.05346849493","0.02418160198","","","","","","","","","","74","J","1","","","47","main_expt",""
"","bandit","128","605281","0.0-89.0-0.0","05485637","wem/bandit_party_1","A1BHR5XQ16T7LA","either","5","239","","","","","","","0","0","1","0.4431907244","","0.6","0.8","0.2","0.4","","","","","0.440318131","0.4431907244","0.04499733497","0.01182676654","","","","","","","","","","74","J","1","","","48","main_expt",""
"","bandit","129","607079","0.0-90.0-0.0","05485637","wem/bandit_party_1","A1BHR5XQ16T7LA","either","5","283","","","","","","","0","1","0","","0.4187732916","0.6","0.8","0.2","0.4","0.4362102412","0.4187732916","0.07378534534","0.0186287842","","","","","","","","","","","","","","74","J","1","","","49","main_expt",""
"","bandit","130","608858","0.0-91.0-0.0","05485637","wem/bandit_party_1","A1BHR5XQ16T7LA","either","5","266","","","","","","","0","0","1","0.356579213","","0.6","0.8","0.2","0.4","","","","","0.44488671","0.356579213","0.06168845619","0.02550629551","","","","","","","","","","74","J","1","","","50","main_expt",""
"","bandit","131","611122","0.0-92.0-0.0","05485637","wem/bandit_party_1","A1BHR5XQ16T7LA","either","5","752","","","","","","","0","0","1","0.2629404955","","0.6","0.8","0.2","0.4","","","","","0.4633405548","0.2629404955","0.1062028567","0.04366809707","","","","","","","","","","74","J","1","","","51","main_expt",""
"","bandit","132","612890","0.0-93.0-0.0","05485637","wem/bandit_party_1","A1BHR5XQ16T7LA","either","5","255","","","","","","","0","0","1","0.1379608546","","0.6","0.8","0.2","0.4","","","","","0.4528043762","0.2919747068","0.1379608546","0.04357168116","","","","","","","","","","75","K","2","","","52","main_expt",""
"","bandit","133","614665","0.0-94.0-0.0","05485637","wem/bandit_party_1","A1BHR5XQ16T7LA","either","5","265","","","","","","","0","0","1","","0.1356826849","0.6","0.8","0.2","0.4","0.4390431751","0.3809901122","0.1356826849","0.03899227154","","","","","","","","","","","","","","75","K","2","","","53","main_expt",""
"","bandit","134","616458","0.0-95.0-0.0","05485637","wem/bandit_party_1","A1BHR5XQ16T7LA","either","5","280","","","","","","","0","0","1","","0.04009146386","0.6","0.8","0.2","0.4","0.4549270822","0.3452518694","0.1038772241","0.04009146386","","","","","","","","","","","","","","76","L","3","","","54","main_expt",""
"","bandit","135","618244","0.0-96.0-0.0","05485637","wem/bandit_party_1","A1BHR5XQ16T7LA","either","5","274","","","","","","","0","0","1","","0.0155768565","0.6","0.8","0.2","0.4","0.4710341864","0.3263112327","0.1689791829","0.0155768565","","","","","","","","","","","","","","76","L","3","","","55","main_expt",""
"","bandit","136","621235","0.0-97.0-0.0","05485637","wem/bandit_party_1","A1BHR5XQ16T7LA","either","5","1477","","","","","","","0","0","1","0.02112461672","","0.6","0.8","0.2","0.4","","","","","0.4745834276","0.3308963945","0.1108888145","0.02112461672","","","","","","","","","","76","L","3","","","56","main_expt",""
"","bandit","137","623402","0.0-98.0-0.0","05485637","wem/bandit_party_1","A1BHR5XQ16T7LA","either","5","655","","","","","","","0","0","1","0.489318572","","0.6","0.8","0.2","0.4","","","","","0.489318572","0.3150326571","0.1206542402","0.0126553198","","","","","","","","","","72","H","0","img/none_selected.jpg","","57","main_expt",""
"","bandit","138","624976","0.0-99.0-0.0","05485637","wem/bandit_party_1","A1BHR5XQ16T7LA","either","5","64","","","","","","","0","0","1","","0.480037986","0.6","0.8","0.2","0.4","0.480037986","0.3049116772","0.09707343937","0.01131359515","","","","","","","","","","","","","","72","H","0","img/none_selected.jpg","","58","main_expt",""
"","bandit","139","626803","0.0-100.0-0.0","05485637","wem/bandit_party_1","A1BHR5XQ16T7LA","either","5","314","","","","","","","1","0","0","0.4593461039","","0.6","0.8","0.2","0.4","","","","","0.4593461039","0.3050987947","0.1044384952","0.01030075821","","","","","","","","","","72","H","0","img/none_selected.jpg","","59","main_expt",""
"","bandit","140","628861","0.0-101.0-0.0","05485637","wem/bandit_party_1","A1BHR5XQ16T7LA","either","5","545","","","","","","","0","1","0","","0.446051488","0.6","0.8","0.2","0.4","0.446051488","0.3274009355","0.08890369623","0.005868957973","","","","","","","","","","","","","","72","H","0","img/none_selected.jpg","","60","main_expt",""
"","bandit","141","631122","0.0-102.0-0.0","05485637","wem/bandit_party_1","A1BHR5XQ16T7LA","either","5","750","","","","","","","1","0","0","0.4391285327","","0.6","0.8","0.2","0.4","","","","","0.4391285327","0.3428943983","0.08921221942","0.004361943215","","","","","","","","","","72","H","0","img/none_selected.jpg","","61","main_expt",""
"","bandit","142","633009","0.0-103.0-0.0","05485637","wem/bandit_party_1","A1BHR5XQ16T7LA","either","5","376","","","","","","","0","0","1","0.4063883723","","0.6","0.8","0.2","0.4","","","","","0.4063883723","0.3549763931","0.09812025034","0.005208412743","","","","","","","","","","72","H","0","img/none_selected.jpg","","62","main_expt",""
"","bandit","143","634794","0.0-104.0-0.0","05485637","wem/bandit_party_1","A1BHR5XQ16T7LA","either","5","272","","","","","","","0","0","1","","0.4330387396","0.6","0.8","0.2","0.4","0.4330387396","0.3496678451","0.09006279409","0.006461011255","","","","","","","","","","","","","","72","H","0","img/none_selected.jpg","","63","main_expt",""
"","bandit","144","636977","0.0-105.0-0.0","05485637","wem/bandit_party_1","A1BHR5XQ16T7LA","either","5","671","","","","","","","0","0","1","0.4207902426","","0.6","0.8","0.2","0.4","","","","","0.4207902426","0.3188537263","0.1118976224","0.01267926231","","","","","","","","","","72","H","0","img/none_selected.jpg","","64","main_expt",""
"","bandit","145","638674","0.0-106.0-0.0","05485637","wem/bandit_party_1","A1BHR5XQ16T7LA","either","5","184","","","","","","","0","0","1","0.3191795336","","0.6","0.8","0.2","0.4","","","","","0.3719582347","0.3191795336","0.1053817613","0.009732787917","","","","","","","","","","74","J","1","","","65","main_expt",""
"","bandit","146","641218","0.0-107.0-0.0","05485637","wem/bandit_party_1","A1BHR5XQ16T7LA","either","5","1033","","","","","","","0","1","0","","0.1307356695","0.6","0.8","0.2","0.4","0.3748569955","0.268616347","0.1307356695","0.01092542651","","","","","","","","","","","","","","75","K","2","","","66","main_expt",""
"","bandit","147","643442","0.0-108.0-0.0","05485637","wem/bandit_party_1","A1BHR5XQ16T7LA","either","5","710","","","","","","","0","0","1","","0.1418436428","0.6","0.8","0.2","0.4","0.335252031","0.259194563","0.1418436428","0.02125534741","","","","","","","","","","","","","","75","K","2","","","67","main_expt",""
"","bandit","148","645304","0.0-109.0-0.0","05485637","wem/bandit_party_1","A1BHR5XQ16T7LA","either","5","351","","","","","","","0","0","1","0.1459089566","","0.6","0.8","0.2","0.4","","","","","0.3199157278","0.2281204868","0.1459089566","0.02360283027","","","","","","","","","","75","K","2","","","68","main_expt",""
"","bandit","149","647024","0.0-110.0-0.0","05485637","wem/bandit_party_1","A1BHR5XQ16T7LA","either","5","207","","","","","","","0","0","1","0.1809721424","","0.6","0.8","0.2","0.4","","","","","0.3068525281","0.2195844169","0.1809721424","0.02539305756","","","","","","","","","","75","K","2","","","69","main_expt",""
"","bandit","150","648768","0.0-111.0-0.0","05485637","wem/bandit_party_1","A1BHR5XQ16T7LA","either","5","232","","","","","","","0","0","1","","0.1784068974","0.6","0.8","0.2","0.4","0.3181076016","0.1883338509","0.1784068974","0.05014388586","","","","","","","","","","","","","","75","K","2","","","70","main_expt",""
"","bandit","151","650721","0.0-112.0-0.0","05485637","wem/bandit_party_1","A1BHR5XQ16T7LA","either","5","444","","","","","","","0","0","1","","0.1973023396","0.6","0.8","0.2","0.4","0.2926426422","0.1639708178","0.1973023396","0.04209054697","","","","","","","","","","","","","","75","K","2","","","71","main_expt",""
"","bandit","152","652812","0.0-113.0-0.0","05485637","wem/bandit_party_1","A1BHR5XQ16T7LA","either","5","577","","","","","","","0","0","1","","0.05611199342","0.6","0.8","0.2","0.4","0.2380263643","0.1312842785","0.2436342847","0.05611199342","","","","","","","","","","","","","","76","L","3","","","72","main_expt",""
"","bandit","153","654666","0.0-114.0-0.0","05485637","wem/bandit_party_1","A1BHR5XQ16T7LA","either","5","341","","","","","","","0","0","1","","0.05293238473","0.6","0.8","0.2","0.4","0.2407197948","0.1805041857","0.1992173182","0.05293238473","","","","","","","","","","","","","","76","L","3","","","73","main_expt",""
"","bandit","154","656666","0.0-115.0-0.0","05485637","wem/bandit_party_1","A1BHR5XQ16T7LA","either","5","485","","","","","","","0","0","1","0.0318456884","","0.6","0.8","0.2","0.4","","","","","0.2317468449","0.1739557812","0.2347098304","0.0318456884","","","","","","","","","","76","L","3","","","74","main_expt",""
"","bandit","155","658561","0.0-116.0-0.0","05485637","wem/bandit_party_1","A1BHR5XQ16T7LA","either","5","382","","","","","","","0","0","1","","0.2545997551","0.6","0.8","0.2","0.4","0.2545997551","0.2434916027","0.2641442137","0.03873230677","","","","","","","","","","","","","","72","H","0","img/none_selected.jpg","","75","main_expt",""
"","bandit","156","660201","0.0-117.0-0.0","05485637","wem/bandit_party_1","A1BHR5XQ16T7LA","either","5","126","","","","","","","0","0","1","0.2890845388","","0.6","0.8","0.2","0.4","","","","","0.2890845388","0.2438468568","0.3192644053","0.03304947682","","","","","","","","","","72","H","0","img/none_selected.jpg","","76","main_expt",""
"","bandit","157","662057","0.0-118.0-0.0","05485637","wem/bandit_party_1","A1BHR5XQ16T7LA","either","5","343","","","","","","","1","0","0","0.2425324642","","0.6","0.8","0.2","0.4","","","","","0.2386362654","0.2425324642","0.3351132613","0.02607887458","","","","","","","","","","74","J","1","","","77","main_expt",""
"","bandit","158","663843","0.0-119.0-0.0","05485637","wem/bandit_party_1","A1BHR5XQ16T7LA","either","5","270","","","","","","","0","0","1","","0.205588479","0.6","0.8","0.2","0.4","0.2673679704","0.205588479","0.3086784207","0.02492981692","","","","","","","","","","","","","","74","J","1","","","78","main_expt",""
"","bandit","159","665762","0.0-120.0-0.0","05485637","wem/bandit_party_1","A1BHR5XQ16T7LA","either","5","405","","","","","","","0","0","1","0.213062191","","0.6","0.8","0.2","0.4","","","","","0.2813811921","0.213062191","0.3076482073","0.01824110002","","","","","","","","","","74","J","1","","","79","main_expt",""
"","bandit","160","669521","0.0-121.0-0.0","05485637","wem/bandit_party_1","A1BHR5XQ16T7LA","either","5","2245","","","","","","","0","0","1","","0.1852926048","0.6","0.8","0.2","0.4","0.2419447949","0.1852926048","0.3605025214","0.0202176162","","","","","","","","","","","","","","74","J","1","","","80","main_expt",""
"","bandit","161","671667","0.0-122.0-0.0","05485637","wem/bandit_party_1","A1BHR5XQ16T7LA","either","5","632","","","","","","","0","0","1","0.2332942271","","0.6","0.8","0.2","0.4","","","","","0.323481111","0.2332942271","0.3286166321","0.0252752587","","","","","","","","","","74","J","1","","","81","main_expt",""
"","bandit","162","673939","0.0-123.0-0.0","05485637","wem/bandit_party_1","A1BHR5XQ16T7LA","either","5","758","","","","","","","0","0","1","","0.05668457717","0.6","0.8","0.2","0.4","0.3097244961","0.2087797338","0.3459677762","0.05668457717","","","","","","","","","","","","","","76","L","3","","","82","main_expt",""
"","bandit","163","675946","0.0-124.0-0.0","05485637","wem/bandit_party_1","A1BHR5XQ16T7LA","either","5","493","","","","","","","0","0","1","0.07760530004","","0.6","0.8","0.2","0.4","","","","","0.2787498647","0.2049979043","0.3092751195","0.07760530004","","","","","","","","","","76","L","3","","","83","main_expt",""
"","bandit","164","678793","0.0-125.0-0.0","05485637","wem/bandit_party_1","A1BHR5XQ16T7LA","either","5","1333","","","","","","","1","0","0","0.2151780091","","0.6","0.8","0.2","0.4","","","","","0.2589524449","0.2151780091","0.3044630387","0.03696005566","","","","","","","","","","74","J","1","","","84","main_expt",""
"","bandit","165","680832","0.0-126.0-0.0","05485637","wem/bandit_party_1","A1BHR5XQ16T7LA","either","5","527","","","","","","","0","0","1","0.1497615914","","0.6","0.8","0.2","0.4","","","","","0.2769318636","0.1497615914","0.2812480587","0.04177257934","","","","","","","","","","74","J","1","","","85","main_expt",""
"","bandit","166","682595","0.0-127.0-0.0","05485637","wem/bandit_party_1","A1BHR5XQ16T7LA","either","5","247","","","","","","","0","0","1","0.1223687677","","0.6","0.8","0.2","0.4","","","","","0.2849222391","0.1223687677","0.2506532223","0.0385770192","","","","","","","","","","74","J","1","","","86","main_expt",""
"","bandit","167","684392","0.0-128.0-0.0","05485637","wem/bandit_party_1","A1BHR5XQ16T7LA","either","5","279","","","","","","","0","1","0","","0.1472857413","0.6","0.8","0.2","0.4","0.3131087309","0.1472857413","0.2269900387","0.03720252147","","","","","","","","","","","","","","74","J","1","","","87","main_expt",""
"","bandit","168","686201","0.0-129.0-0.0","05485637","wem/bandit_party_1","A1BHR5XQ16T7LA","either","5","289","","","","","","","0","0","1","0.1252586248","","0.6","0.8","0.2","0.4","","","","","0.3038587512","0.1252586248","0.1504729919","0.06746059371","","","","","","","","","","74","J","1","","","88","main_expt",""
"","bandit","169","688065","0.0-130.0-0.0","05485637","wem/bandit_party_1","A1BHR5XQ16T7LA","either","5","350","","","","","","","0","0","1","","0.1194927994","0.6","0.8","0.2","0.4","0.3308022157","0.1194927994","0.1382070302","0.04069757945","","","","","","","","","","","","","","74","J","1","","","89","main_expt",""
"","bandit","170","690243","0.0-131.0-0.0","05485637","wem/bandit_party_1","A1BHR5XQ16T7LA","either","5","663","","","","","","","0","0","1","0.1589750007","","0.6","0.8","0.2","0.4","","","","","0.3574922351","0.1589750007","0.1364765349","0.07325379503","","","","","","","","","","74","J","1","","","90","main_expt",""
"","bandit","171","692098","0.0-132.0-0.0","05485637","wem/bandit_party_1","A1BHR5XQ16T7LA","either","5","341","","","","","","","0","1","0","","0.3729517688","0.6","0.8","0.2","0.4","0.3729517688","0.1859960426","0.09318196272","0.06877471811","","","","","","","","","","","","","","72","H","0","img/none_selected.jpg","","91","main_expt",""
"","bandit","172","693946","0.0-133.0-0.0","05485637","wem/bandit_party_1","A1BHR5XQ16T7LA","either","5","335","","","","","","","0","0","1","0.398352994","","0.6","0.8","0.2","0.4","","","","","0.398352994","0.192419488","0.06946097624","0.04115987362","","","","","","","","","","72","H","0","img/none_selected.jpg","","92","main_expt",""
"","bandit","173","695779","0.0-134.0-0.0","05485637","wem/bandit_party_1","A1BHR5XQ16T7LA","either","5","319","","","","","","","0","0","1","","0.4135860398","0.6","0.8","0.2","0.4","0.4135860398","0.1716033463","0.08102832817","0.07078892783","","","","","","","","","","","","","","72","H","0","img/none_selected.jpg","","93","main_expt",""
"","bandit","174","697579","0.0-135.0-0.0","05485637","wem/bandit_party_1","A1BHR5XQ16T7LA","either","5","286","","","","","","","0","0","1","0.3786880174","","0.6","0.8","0.2","0.4","","","","","0.3786880174","0.1935897604","0.1271360848","0.05572868433","","","","","","","","","","72","H","0","img/none_selected.jpg","","94","main_expt",""
"","bandit","175","699322","0.0-136.0-0.0","05485637","wem/bandit_party_1","A1BHR5XQ16T7LA","either","5","228","","","","","","","0","0","1","","0.3823424718","0.6","0.8","0.2","0.4","0.3823424718","0.2193228015","0.1097592989","0.05056929995","","","","","","","","","","","","","","72","H","0","img/none_selected.jpg","","95","main_expt",""
"","bandit","176","701136","0.0-137.0-0.0","05485637","wem/bandit_party_1","A1BHR5XQ16T7LA","either","5","303","","","","","","","0","1","0","","0.3262643469","0.6","0.8","0.2","0.4","0.3642725552","0.3262643469","0.1085490834","0.04159874267","","","","","","","","","","","","","","74","J","1","","","96","main_expt",""
"","bandit","177","703035","0.0-138.0-0.0","05485637","wem/bandit_party_1","A1BHR5XQ16T7LA","either","5","383","","","","","","","0","0","1","0.3197717944","","0.6","0.8","0.2","0.4","","","","","0.3197717944","0.3207405496","0.1049812554","0.03654451862","","","","","","","","","","72","H","0","img/none_selected.jpg","","97","main_expt",""
"","bandit","178","704696","0.0-139.0-0.0","05485637","wem/bandit_party_1","A1BHR5XQ16T7LA","either","5","146","","","","","","","1","0","0","0.3712856991","","0.6","0.8","0.2","0.4","","","","","0.2514424369","0.3712856991","0.08177978443","0.04190300095","","","","","","","","","","74","J","1","","","98","main_expt",""
"","bandit","179","707676","0.0-140.0-0.0","05485637","wem/bandit_party_1","A1BHR5XQ16T7LA","either","5","1463","","","","","","","0","0","1","","0.3740145378","0.6","0.8","0.2","0.4","0.2926772137","0.3740145378","0.07574087804","0.08742990617","","","","","","","","","","","","","","74","J","1","","","99","main_expt",""
"","bandit","180","709715","0.0-141.0-0.0","05485637","wem/bandit_party_1","A1BHR5XQ16T7LA","either","5","524","","","","","","","0","0","1","0.07829319678","","0.6","0.8","0.2","0.4","","","","","0.234485335","0.3776295542","0.07829319678","0.08966523481","","","","","","","","","","75","K","2","","","100","main_expt",""
"","bandit","181","711536","0.0-142.0-0.0","05485637","wem/bandit_party_1","A1BHR5XQ16T7LA","either","5","308","","","","","","","0","0","1","","0.07919243683","0.6","0.8","0.2","0.4","0.250352175","0.3592666398","0.07919243683","0.07849065771","","","","","","","","","","","","","","75","K","2","","","101","main_expt",""
"","bandit","182","713272","0.0-143.0-0.0","05485637","wem/bandit_party_1","A1BHR5XQ16T7LA","either","5","228","","","","","","","0","0","1","","0.1052753188","0.6","0.8","0.2","0.4","0.2139972863","0.3412191773","0.1052753188","0.1054267613","","","","","","","","","","","","","","75","K","2","","","102","main_expt",""
"","bandit","183","715034","0.0-144.0-0.0","05485637","wem/bandit_party_1","A1BHR5XQ16T7LA","either","5","246","","","","","","","0","0","1","0.1248526142","","0.6","0.8","0.2","0.4","","","","","0.20092706","0.3133100433","0.1248526142","0.1120981937","","","","","","","","","","75","K","2","","","103","main_expt",""
"","bandit","184","716762","0.0-145.0-0.0","05485637","wem/bandit_party_1","A1BHR5XQ16T7LA","either","5","215","","","","","","","0","0","1","","0.1034740879","0.6","0.8","0.2","0.4","0.2305366804","0.3219148419","0.142969925","0.1034740879","","","","","","","","","","","","","","76","L","3","","","104","main_expt",""
"","bandit","185","718509","0.0-146.0-0.0","05485637","wem/bandit_party_1","A1BHR5XQ16T7LA","either","5","233","","","","","","","0","0","1","","0.07597240327","0.6","0.8","0.2","0.4","0.2102135581","0.3300892518","0.13947254","0.07597240327","","","","","","","","","","","","","","76","L","3","","","105","main_expt",""
"","bandit","186","720659","0.0-147.0-0.0","05485637","wem/bandit_party_1","A1BHR5XQ16T7LA","either","5","634","","","","","","","0","0","1","0.1124257427","","0.6","0.8","0.2","0.4","","","","","0.2219457329","0.3401839058","0.1329526997","0.1124257427","","","","","","","","","","76","L","3","","","106","main_expt",""
"","bandit","187","722585","0.0-148.0-0.0","05485637","wem/bandit_party_1","A1BHR5XQ16T7LA","either","5","412","","","","","","","0","0","1","0.1133168519","","0.6","0.8","0.2","0.4","","","","","0.3048423019","0.3784706915","0.1727290233","0.1133168519","","","","","","","","","","76","L","3","","","107","main_expt",""
"","bandit","188","725442","0.0-149.0-0.0","05485637","wem/bandit_party_1","A1BHR5XQ16T7LA","either","5","1342","","","","","","","0","0","1","0.3945753887","","0.6","0.8","0.2","0.4","","","","","0.258150515","0.3945753887","0.1864487031","0.1752395656","","","","","","","","","","74","J","1","","","108","main_expt",""
"","bandit","189","727739","0.0-150.0-0.0","05485637","wem/bandit_party_1","A1BHR5XQ16T7LA","either","5","781","","","","","","","1","0","0","0.356827327","","0.6","0.8","0.2","0.4","","","","","0.1859129148","0.356827327","0.2463216238","0.1862973424","","","","","","","","","","74","J","1","","","109","main_expt",""
"","bandit","190","729497","0.0-151.0-0.0","05485637","wem/bandit_party_1","A1BHR5XQ16T7LA","either","5","245","","","","","","","0","0","1","0.2344179837","","0.6","0.8","0.2","0.4","","","","","0.1371624404","0.2344179837","0.2431522628","0.2015845776","","","","","","","","","","74","J","1","","","110","main_expt",""
"","bandit","191","731626","0.0-152.0-0.0","05485637","wem/bandit_party_1","A1BHR5XQ16T7LA","either","5","614","","","","","","","0","0","1","0.2644823096","","0.6","0.8","0.2","0.4","","","","","0.1258232978","0.2644823096","0.1757476643","0.2003651753","","","","","","","","","","74","J","1","","","111","main_expt",""
"","bandit","192","733450","0.0-153.0-0.0","05485637","wem/bandit_party_1","A1BHR5XQ16T7LA","either","5","308","","","","","","","0","0","1","0.28311182","","0.6","0.8","0.2","0.4","","","","","0.1529967373","0.28311182","0.2451518953","0.21392293","","","","","","","","","","74","J","1","","","112","main_expt",""
"","bandit","193","736754","0.0-154.0-0.0","05485637","wem/bandit_party_1","A1BHR5XQ16T7LA","either","5","1790","","","","","","","1","0","0","0.148248117","","0.6","0.8","0.2","0.4","","","","","0.148248117","0.2413269532","0.2407836715","0.1606798039","","","","","","","","","","72","H","0","img/none_selected.jpg","","113","main_expt",""
"","bandit","194","738738","0.0-155.0-0.0","05485637","wem/bandit_party_1","A1BHR5XQ16T7LA","either","5","470","","","","","","","0","0","1","0.1562208239","","0.6","0.8","0.2","0.4","","","","","0.1562208239","0.3100969134","0.3099317417","0.2095980235","","","","","","","","","","72","H","0","img/none_selected.jpg","","114","main_expt",""
"","bandit","195","740610","0.0-156.0-0.0","05485637","wem/bandit_party_1","A1BHR5XQ16T7LA","either","5","354","","","","","","","0","0","1","","0.2138032898","0.6","0.8","0.2","0.4","0.2138032898","0.329842252","0.3180754701","0.2550279667","","","","","","","","","","","","","","72","H","0","img/none_selected.jpg","","115","main_expt",""
"","bandit","196","742665","0.0-157.0-0.0","05485637","wem/bandit_party_1","A1BHR5XQ16T7LA","either","5","541","","","","","","","1","0","0","0.2331260325","","0.6","0.8","0.2","0.4","","","","","0.2331260325","0.3223706096","0.2919742107","0.2471764387","","","","","","","","","","72","H","0","img/none_selected.jpg","","116","main_expt",""
"","bandit","197","745042","0.0-158.0-0.0","05485637","wem/bandit_party_1","A1BHR5XQ16T7LA","either","5","862","","","","","","","0","0","1","0.1826309729","","0.6","0.8","0.2","0.4","","","","","0.1826309729","0.3098408215","0.2799774295","0.2730878341","","","","","","","","","","72","H","0","img/none_selected.jpg","","117","main_expt",""
"","bandit","198","746954","0.0-159.0-0.0","05485637","wem/bandit_party_1","A1BHR5XQ16T7LA","either","5","398","","","","","","","0","0","1","0.1511269107","","0.6","0.8","0.2","0.4","","","","","0.1511269107","0.2974554567","0.2646714695","0.2071462199","","","","","","","","","","72","H","0","img/none_selected.jpg","","118","main_expt",""
"","bandit","199","749866","0.0-160.0-0.0","05485637","wem/bandit_party_1","A1BHR5XQ16T7LA","either","5","1397","","","","","","","0","0","1","0.3598468986","","0.6","0.8","0.2","0.4","","","","","0.1559979654","0.3598468986","0.3179839519","0.2275232499","","","","","","","","","","74","J","1","","","119","main_expt",""
"","bandit","200","751933","0.0-161.0-0.0","05485637","wem/bandit_party_1","A1BHR5XQ16T7LA","either","5","550","","","","","","","0","0","1","0.2984373086","","0.6","0.8","0.2","0.4","","","","","0.1463004055","0.2984373086","0.3302262658","0.2767559596","","","","","","","","","","74","J","1","","","120","main_expt",""
"","bandit","201","754163","0.0-162.0-0.0","05485637","wem/bandit_party_1","A1BHR5XQ16T7LA","either","5","714","","","","","","","0","0","1","","0.1418195479","0.6","0.8","0.2","0.4","0.1418195479","0.2973090059","0.3500549905","0.3448590315","","","","","","","","","","","","","","72","H","0","img/none_selected.jpg","","121","main_expt",""
"","bandit","202","758121","0.0-163.0-0.0","05485637","wem/bandit_party_1","A1BHR5XQ16T7LA","either","5","2444","","","","","","","0","0","1","","0.2686616284","0.6","0.8","0.2","0.4","0.1270782113","0.3382791822","0.2686616284","0.3593301016","","","","","","","","","","","","","","75","K","2","","","122","main_expt",""
"","bandit","203","759841","0.0-164.0-0.0","05485637","wem/bandit_party_1","A1BHR5XQ16T7LA","either","5","213","","","","","","","0","0","1","","0.2277230314","0.6","0.8","0.2","0.4","0.1207154071","0.3154347028","0.2277230314","0.3680529171","","","","","","","","","","","","","","75","K","2","","","123","main_expt",""
"","bandit","204","762189","0.0-165.0-0.0","05485637","wem/bandit_party_1","A1BHR5XQ16T7LA","either","5","832","","","","","","","0","1","0","","0.3476523483","0.6","0.8","0.2","0.4","0.1229329119","0.2966737815","0.3287090939","0.3476523483","","","","","","","","","","","","","","76","L","3","","","124","main_expt",""
"","bandit","205","763937","0.0-166.0-0.0","05485637","wem/bandit_party_1","A1BHR5XQ16T7LA","either","5","232","","","","","","","0","0","1","","0.3564603465","0.6","0.8","0.2","0.4","0.09241122996","0.3094831126","0.3687339586","0.3564603465","","","","","","","","","","","","","","76","L","3","","","125","main_expt",""
"","bandit","206","765722","0.0-167.0-0.0","05485637","wem/bandit_party_1","A1BHR5XQ16T7LA","either","5","271","","","","","","","0","1","0","","0.3550684458","0.6","0.8","0.2","0.4","0.08418962236","0.2488993205","0.3836195774","0.3550684458","","","","","","","","","","","","","","76","L","3","","","126","main_expt",""
"","bandit","207","768066","0.0-168.0-0.0","05485637","wem/bandit_party_1","A1BHR5XQ16T7LA","either","5","828","","","","","","","0","0","1","","0.3235559827","0.6","0.8","0.2","0.4","0.154715772","0.1953487027","0.3617365958","0.3235559827","","","","","","","","","","","","","","76","L","3","","","127","main_expt",""
"","bandit","208","769906","0.0-169.0-0.0","05485637","wem/bandit_party_1","A1BHR5XQ16T7LA","either","5","329","","","","","","","0","0","1","","0.312087491","0.6","0.8","0.2","0.4","0.1556709078","0.2171889907","0.3235283493","0.312087491","","","","","","","","","","","","","","76","L","3","","","128","main_expt",""
"","bandit","209","771676","0.0-170.0-0.0","05485637","wem/bandit_party_1","A1BHR5XQ16T7LA","either","5","253","","","","","","","0","0","1","0.2843272188","","0.6","0.8","0.2","0.4","","","","","0.1214200615","0.2467699801","0.3453830546","0.2843272188","","","","","","","","","","76","L","3","","","129","main_expt",""
"","bandit","210","774003","0.0-171.0-0.0","05485637","wem/bandit_party_1","A1BHR5XQ16T7LA","either","5","812","","","","","","","0","0","1","","0.3242747857","0.6","0.8","0.2","0.4","0.1377283829","0.2814443482","0.3242747857","0.2128416856","","","","","","","","","","","","","","75","K","2","","","130","main_expt",""
"","bandit","211","775932","0.0-172.0-0.0","05485637","wem/bandit_party_1","A1BHR5XQ16T7LA","either","5","411","","","","","","","1","0","0","0.3417201858","","0.6","0.8","0.2","0.4","","","","","0.1397421628","0.2834176508","0.3417201858","0.2403879813","","","","","","","","","","75","K","2","","","131","main_expt",""
"","bandit","212","777577","0.0-173.0-0.0","05485637","wem/bandit_party_1","A1BHR5XQ16T7LA","either","5","131","","","","","","","0","0","1","0.3498614837","","0.6","0.8","0.2","0.4","","","","","0.1061875113","0.2429908031","0.3498614837","0.2811421594","","","","","","","","","","75","K","2","","","132","main_expt",""
"","bandit","213","779316","0.0-174.0-0.0","05485637","wem/bandit_party_1","A1BHR5XQ16T7LA","either","5","221","","","","","","","0","0","1","","0.3134828643","0.6","0.8","0.2","0.4","0.07774811701","0.3053559495","0.3134828643","0.3002858371","","","","","","","","","","","","","","75","K","2","","","133","main_expt",""
"","bandit","214","780915","0.0-175.0-0.0","05485637","wem/bandit_party_1","A1BHR5XQ16T7LA","either","5","83","","","","","","","0","0","1","0.3554593188","","0.6","0.8","0.2","0.4","","","","","0.08211281178","0.2693478067","0.3554593188","0.277406375","","","","","","","","","","75","K","2","","","134","main_expt",""
"","bandit","215","782715","0.0-176.0-0.0","05485637","wem/bandit_party_1","A1BHR5XQ16T7LA","either","5","283","","","","","","","0","0","1","","0.3150900126","0.6","0.8","0.2","0.4","0.1123817552","0.3369166079","0.3150900126","0.2897147582","","","","","","","","","","","","","","75","K","2","","","135","main_expt",""
"","bandit","216","784620","0.0-177.0-0.0","05485637","wem/bandit_party_1","A1BHR5XQ16T7LA","either","5","389","","","","","","","0","0","1","0.268603144","","0.6","0.8","0.2","0.4","","","","","0.1478339482","0.268603144","0.3199395785","0.3590576628","","","","","","","","","","74","J","1","","","136","main_expt",""
"","bandit","217","786610","0.0-178.0-0.0","05485637","wem/bandit_party_1","A1BHR5XQ16T7LA","either","5","473","","","","","","","0","0","1","0.2373427956","","0.6","0.8","0.2","0.4","","","","","0.1374936615","0.2373427956","0.33362357","0.3822427384","","","","","","","","","","74","J","1","","","137","main_expt",""
"","bandit","218","788785","0.0-179.0-0.0","05485637","wem/bandit_party_1","A1BHR5XQ16T7LA","either","5","661","","","","","","","1","0","0","0.2206869265","","0.6","0.8","0.2","0.4","","","","","0.159761955","0.2206869265","0.3611324022","0.3410071165","","","","","","","","","","74","J","1","","","138","main_expt",""
"","bandit","219","790874","0.0-180.0-0.0","05485637","wem/bandit_party_1","A1BHR5XQ16T7LA","either","5","573","","","","","","","0","0","1","0.2177966349","","0.6","0.8","0.2","0.4","","","","","0.1363721132","0.2177966349","0.3504145086","0.3738014659","","","","","","","","","","74","J","1","","","139","main_expt",""
"","bandit","220","792849","0.0-181.0-0.0","05485637","wem/bandit_party_1","A1BHR5XQ16T7LA","either","5","461","","","","","","","0","0","1","0.1031445192","","0.6","0.8","0.2","0.4","","","","","0.1031445192","0.2387685432","0.309774603","0.422575493","","","","","","","","","","72","H","0","img/none_selected.jpg","","140","main_expt",""
"","bandit","221","794772","0.0-182.0-0.0","05485637","wem/bandit_party_1","A1BHR5XQ16T7LA","either","5","407","","","","","","","0","0","1","","0.09805286369","0.6","0.8","0.2","0.4","0.09805286369","0.2575087366","0.3506531288","0.4439129864","","","","","","","","","","","","","","72","H","0","img/none_selected.jpg","","141","main_expt",""
"","bandit","222","796369","0.0-183.0-0.0","05485637","wem/bandit_party_1","A1BHR5XQ16T7LA","either","5","88","","","","","","","1","0","0","0.1149002948","","0.6","0.8","0.2","0.4","","","","","0.1149002948","0.2392038972","0.2965027242","0.4323802182","","","","","","","","","","72","H","0","img/none_selected.jpg","","142","main_expt",""
"","bandit","223","799077","0.0-184.0-0.0","05485637","wem/bandit_party_1","A1BHR5XQ16T7LA","either","5","1188","","","","","","","0","0","1","","0.1209542099","0.6","0.8","0.2","0.4","0.1209542099","0.2216470548","0.2087517366","0.4358412593","","","","","","","","","","","","","","72","H","0","img/none_selected.jpg","","143","main_expt",""
"","bandit","224","800969","0.0-185.0-0.0","05485637","wem/bandit_party_1","A1BHR5XQ16T7LA","either","5","378","","","","","","","0","0","1","","0.1202521083","0.6","0.8","0.2","0.4","0.1202521083","0.2224896139","0.2313605626","0.4407373256","","","","","","","","","","","","","","72","H","0","img/none_selected.jpg","","144","main_expt",""
"","bandit","225","802746","0.0-186.0-0.0","05485637","wem/bandit_party_1","A1BHR5XQ16T7LA","either","5","260","","","","","","","0","0","1","0.1619743669","","0.6","0.8","0.2","0.4","","","","","0.1619743669","0.1925605464","0.1785565547","0.4661091035","","","","","","","","","","72","H","0","img/none_selected.jpg","","145","main_expt",""
"","bandit","226","805260","0.0-187.0-0.0","05485637","wem/bandit_party_1","A1BHR5XQ16T7LA","either","5","998","","","","","","","0","0","1","0.2069800611","","0.6","0.8","0.2","0.4","","","","","0.1664631043","0.2069800611","0.1770660648","0.4637097668","","","","","","","","","","74","J","1","","","146","main_expt",""
"","bandit","227","808585","0.0-188.0-0.0","05485637","wem/bandit_party_1","A1BHR5XQ16T7LA","either","5","1809","","","","","","","1","0","0","0.1669241763","","0.6","0.8","0.2","0.4","","","","","0.1669241763","0.2489662189","0.1063371611","0.4700491642","","","","","","","","","","72","H","0","img/none_selected.jpg","","147","main_expt",""
"","bandit","228","810881","0.0-189.0-0.0","05485637","wem/bandit_party_1","A1BHR5XQ16T7LA","either","5","781","","","","","","","0","0","1","0.1581456949","","0.6","0.8","0.2","0.4","","","","","0.1581456949","0.1946464158","0.1216370817","0.4648109734","","","","","","","","","","72","H","0","img/none_selected.jpg","","148","main_expt",""
"","bandit","229","813579","0.0-190.0-0.0","05485637","wem/bandit_party_1","A1BHR5XQ16T7LA","either","5","1180","","","","","","","0","0","1","","0.1698392466","0.6","0.8","0.2","0.4","0.1698392466","0.1826562491","0.1024256959","0.4635511513","","","","","","","","","","","","","","72","H","0","img/none_selected.jpg","","149","main_expt",""
"","bandit","230","815381","0.0-191.0-0.0","05485637","wem/bandit_party_1","A1BHR5XQ16T7LA","either","5","289","","","","","","","0","0","1","","0.2140114634","0.6","0.8","0.2","0.4","0.2140114634","0.1750473563","0.1371094633","0.4445017148","","","","","","","","","","","","","","72","H","0","img/none_selected.jpg","","150","main_expt",""
"","bandit","231","817124","0.0-192.0-0.0","05485637","wem/bandit_party_1","A1BHR5XQ16T7LA","either","5","224","","","","","","","0","0","1","","0.2392960001","0.6","0.8","0.2","0.4","0.2392960001","0.1109536645","0.1702433702","0.4434799742","","","","","","","","","","","","","","72","H","0","img/none_selected.jpg","","151","main_expt",""
"","bandit","232","818937","0.0-193.0-0.0","05485637","wem/bandit_party_1","A1BHR5XQ16T7LA","either","5","299","","","","","","","0","0","1","0.1143086707","","0.6","0.8","0.2","0.4","","","","","0.2095863317","0.1143086707","0.1860489046","0.4451665291","","","","","","","","","","74","J","1","","","152","main_expt",""
"","bandit","233","820760","0.0-194.0-0.0","05485637","wem/bandit_party_1","A1BHR5XQ16T7LA","either","5","307","","","","","","","0","1","0","","0.1236290712","0.6","0.8","0.2","0.4","0.2543258611","0.1236290712","0.2117094388","0.4401532833","","","","","","","","","","","","","","74","J","1","","","153","main_expt",""
"","bandit","234","822666","0.0-195.0-0.0","05485637","wem/bandit_party_1","A1BHR5XQ16T7LA","either","5","391","","","","","","","0","0","1","0.1600695342","","0.6","0.8","0.2","0.4","","","","","0.2602259906","0.1600695342","0.2072389033","0.4516855879","","","","","","","","","","74","J","1","","","154","main_expt",""
"","bandit","235","824594","0.0-196.0-0.0","05485637","wem/bandit_party_1","A1BHR5XQ16T7LA","either","5","411","","","","","","","0","0","1","0.1770288166","","0.6","0.8","0.2","0.4","","","","","0.2750581274","0.1770288166","0.1986333914","0.4480264808","","","","","","","","","","74","J","1","","","155","main_expt",""
"","bandit","236","826268","0.0-197.0-0.0","05485637","wem/bandit_party_1","A1BHR5XQ16T7LA","either","5","158","","","","","","","0","0","1","0.1761817894","","0.6","0.8","0.2","0.4","","","","","0.2438045727","0.1761817894","0.2054640346","0.4260414265","","","","","","","","","","74","J","1","","","156","main_expt",""
"","bandit","237","828171","0.0-198.0-0.0","05485637","wem/bandit_party_1","A1BHR5XQ16T7LA","either","5","384","","","","","","","0","0","1","","0.1810715383","0.6","0.8","0.2","0.4","0.2857025143","0.1998830888","0.1810715383","0.4365201507","","","","","","","","","","","","","","75","K","2","","","157","main_expt",""
"","bandit","238","830098","0.0-199.0-0.0","05485637","wem/bandit_party_1","A1BHR5XQ16T7LA","either","5","410","","","","","","","0","0","1","","0.2118906364","0.6","0.8","0.2","0.4","0.2887719476","0.2150354531","0.2118906364","0.4076244479","","","","","","","","","","","","","","75","K","2","","","158","main_expt",""
"","bandit","239","832522","0.0-200.0-0.0","05485637","wem/bandit_party_1","A1BHR5XQ16T7LA","either","5","906","","","","","","","0","0","1","","0.2293976715","0.6","0.8","0.2","0.4","0.2859462397","0.2221069796","0.2293976715","0.403953851","","","","","","","","","","","","","","75","K","2","","","159","main_expt",""
"","bandit","240","834859","0.0-201.0-0.0","05485637","wem/bandit_party_1","A1BHR5XQ16T7LA","either","5","820","","","","","","","1","0","0","0.4282135537","","0.6","0.8","0.2","0.4","","","","","0.207432816","0.2627335039","0.2186051381","0.4282135537","","","","","","","","","","76","L","3","","","160","main_expt",""
"","bandit","241","836739","0.0-202.0-0.0","05485637","wem/bandit_party_1","A1BHR5XQ16T7LA","either","5","363","","","","","","","0","0","1","","0.4479073124","0.6","0.8","0.2","0.4","0.1611694724","0.2922457848","0.2175927206","0.4479073124","","","","","","","","","","","","","","76","L","3","","","161","main_expt",""
"","bandit","242","838793","0.0-203.0-0.0","05485637","wem/bandit_party_1","A1BHR5XQ16T7LA","either","5","534","","","","","","","0","1","0","","0.4456201243","0.6","0.8","0.2","0.4","0.14378348","0.3040212123","0.2370404117","0.4456201243","","","","","","","","","","","","","","76","L","3","","","162","main_expt",""
"","bandit","243","840546","0.0-204.0-0.0","05485637","wem/bandit_party_1","A1BHR5XQ16T7LA","either","5","240","","","","","","","1","0","0","0.4384930657","","0.6","0.8","0.2","0.4","","","","","0.1707099899","0.2933359027","0.2778780432","0.4384930657","","","","","","","","","","76","L","3","","","163","main_expt",""
"","bandit","244","842290","0.0-205.0-0.0","05485637","wem/bandit_party_1","A1BHR5XQ16T7LA","either","5","227","","","","","","","0","0","1","","0.4231568034","0.6","0.8","0.2","0.4","0.1933693166","0.2388203062","0.2643388611","0.4231568034","","","","","","","","","","","","","","76","L","3","","","164","main_expt",""
"","bandit","245","843905","0.0-206.0-0.0","05485637","wem/bandit_party_1","A1BHR5XQ16T7LA","either","5","98","","","","","","","0","1","0","","0.4412535734","0.6","0.8","0.2","0.4","0.2406324952","0.2646204916","0.1967204453","0.4412535734","","","","","","","","","","","","","","76","L","3","","","165","main_expt",""
"","bandit","246","845899","0.0-207.0-0.0","05485637","wem/bandit_party_1","A1BHR5XQ16T7LA","either","5","471","","","","","","","0","0","1","0.438364003","","0.6","0.8","0.2","0.4","","","","","0.2650462377","0.2591758032","0.1567937345","0.438364003","","","","","","","","","","76","L","3","","","166","main_expt",""
"","bandit","247","848764","0.0-208.0-0.0","05485637","wem/bandit_party_1","A1BHR5XQ16T7LA","either","5","1346","","","","","","","0","0","1","","0.4290991351","0.6","0.8","0.2","0.4","0.245875583","0.1955934818","0.1201482918","0.4290991351","","","","","","","","","","","","","","76","L","3","","","167","main_expt",""
"","bandit","248","850987","0.0-209.0-0.0","05485637","wem/bandit_party_1","A1BHR5XQ16T7LA","either","5","707","","","","","","","0","0","1","","0.4510860662","0.6","0.8","0.2","0.4","0.257303599","0.2090603634","0.0936051119","0.4510860662","","","","","","","","","","","","","","76","L","3","","","168","main_expt",""
"","bandit","249","852508","0.0-210.0-0.0","05485637","wem/bandit_party_1","A1BHR5XQ16T7LA","either","5","1","","","","","","","0","0","1","","0.08775096918","0.6","0.8","0.2","0.4","0.2993732043","0.2678479696","0.08775096918","0.4491424364","","","","","","","","","","","","","","75","K","2","","","169","main_expt",""
"","bandit","250","854610","0.0-211.0-0.0","05485637","wem/bandit_party_1","A1BHR5XQ16T7LA","either","5","585","","","","","","","0","0","1","","0.06743429675","0.6","0.8","0.2","0.4","0.3388977639","0.2532125956","0.06743429675","0.4332244901","","","","","","","","","","","","","","75","K","2","","","170","main_expt",""
"","bandit","251","857314","0.0-212.0-0.0","05485637","wem/bandit_party_1","A1BHR5XQ16T7LA","either","5","1187","","","","","","","0","0","1","0.05979118822","","0.6","0.8","0.2","0.4","","","","","0.2947926635","0.2568627054","0.05979118822","0.4405036994","","","","","","","","","","75","K","2","","","171","main_expt",""
"","bandit","252","860178","0.0-213.0-0.0","05485637","wem/bandit_party_1","A1BHR5XQ16T7LA","either","5","1347","","","","","","","0","0","1","0.03200499914","","0.6","0.8","0.2","0.4","","","","","0.2892529657","0.2451563353","0.03200499914","0.4358521759","","","","","","","","","","75","K","2","","","172","main_expt",""
"","bandit","253","861979","0.0-214.0-0.0","05485637","wem/bandit_party_1","A1BHR5XQ16T7LA","either","5","282","","","","","","","1","0","0","0.3003395367","","0.6","0.8","0.2","0.4","","","","","0.2571917514","0.3003395367","0.04613358223","0.4471617722","","","","","","","","","","74","J","1","","","173","main_expt",""
"","bandit","254","863786","0.0-215.0-0.0","05485637","wem/bandit_party_1","A1BHR5XQ16T7LA","either","5","289","","","","","","","0","0","1","","0.2545998681","0.6","0.8","0.2","0.4","0.244173221","0.2545998681","0.05969677181","0.4560251174","","","","","","","","","","","","","","74","J","1","","","174","main_expt",""
"","bandit","255","865699","0.0-216.0-0.0","05485637","wem/bandit_party_1","A1BHR5XQ16T7LA","either","5","401","","","","","","","0","1","0","","0.3383135611","0.6","0.8","0.2","0.4","0.2038098688","0.3383135611","0.05930066603","0.4379349024","","","","","","","","","","","","","","74","J","1","","","175","main_expt",""
"","bandit","256","867518","0.0-217.0-0.0","05485637","wem/bandit_party_1","A1BHR5XQ16T7LA","either","5","299","","","","","","","0","0","1","0.3880627729","","0.6","0.8","0.2","0.4","","","","","0.2053823003","0.3880627729","0.08110879181","0.4328841116","","","","","","","","","","74","J","1","","","176","main_expt",""
"","bandit","257","869354","0.0-218.0-0.0","05485637","wem/bandit_party_1","A1BHR5XQ16T7LA","either","5","317","","","","","","","0","0","1","0.3920994557","","0.6","0.8","0.2","0.4","","","","","0.2193083282","0.3920994557","0.07611568943","0.3965365967","","","","","","","","","","74","J","1","","","177","main_expt",""
"","bandit","258","871381","0.0-219.0-0.0","05485637","wem/bandit_party_1","A1BHR5XQ16T7LA","either","5","508","","","","","","","1","0","0","0.1904263594","","0.6","0.8","0.2","0.4","","","","","0.1904263594","0.3882277994","0.1220467165","0.3899234309","","","","","","","","","","72","H","0","img/none_selected.jpg","","178","main_expt",""
"","bandit","259","873260","0.0-220.0-0.0","05485637","wem/bandit_party_1","A1BHR5XQ16T7LA","either","5","358","","","","","","","1","0","0","0.2212788648","","0.6","0.8","0.2","0.4","","","","","0.2212788648","0.3939691408","0.1698853315","0.4238443777","","","","","","","","","","72","H","0","img/none_selected.jpg","","179","main_expt",""
"","bandit","260","875091","0.0-221.0-0.0","05485637","wem/bandit_party_1","A1BHR5XQ16T7LA","either","5","313","","","","","","","0","0","1","","0.2640717145","0.6","0.8","0.2","0.4","0.2640717145","0.4074656662","0.1374762061","0.4487400994","","","","","","","","","","","","","","72","H","0","img/none_selected.jpg","","180","main_expt",""
"","bandit","261","877450","0.0-222.0-0.0","05485637","wem/bandit_party_1","A1BHR5XQ16T7LA","either","5","840","","","","","","","1","0","0","0.2426483564","","0.6","0.8","0.2","0.4","","","","","0.2426483564","0.3724421945","0.09961924189","0.4314573438","","","","","","","","","","72","H","0","img/none_selected.jpg","","181","main_expt",""
"","bandit","262","879221","0.0-223.0-0.0","05485637","wem/bandit_party_1","A1BHR5XQ16T7LA","either","5","245","","","","","","","0","0","1","0.2001563476","","0.6","0.8","0.2","0.4","","","","","0.2001563476","0.2998177931","0.1391043194","0.4458059303","","","","","","","","","","72","H","0","img/none_selected.jpg","","182","main_expt",""
"","bandit","263","881619","0.0-224.0-0.0","05485637","wem/bandit_party_1","A1BHR5XQ16T7LA","either","5","878","","","","","","","0","0","1","","0.2167094124","0.6","0.8","0.2","0.4","0.2167094124","0.3629728763","0.1336424596","0.4485460149","","","","","","","","","","","","","","72","H","0","img/none_selected.jpg","","183","main_expt",""
"","bandit","264","883450","0.0-225.0-0.0","05485637","wem/bandit_party_1","A1BHR5XQ16T7LA","either","5","312","","","","","","","0","0","1","0.2402813617","","0.6","0.8","0.2","0.4","","","","","0.2402813617","0.3763603645","0.115911235","0.4078350507","","","","","","","","","","72","H","0","img/none_selected.jpg","","184","main_expt",""
"","bandit","265","885773","0.0-226.0-0.0","05485637","wem/bandit_party_1","A1BHR5XQ16T7LA","either","5","793","","","","","","","1","0","0","0.2745112141","","0.6","0.8","0.2","0.4","","","","","0.2745112141","0.3472982705","0.1394203739","0.3805788675","","","","","","","","","","72","H","0","img/none_selected.jpg","","185","main_expt",""
"","bandit","266","887867","0.0-227.0-0.0","05485637","wem/bandit_party_1","A1BHR5XQ16T7LA","either","5","581","","","","","","","0","1","0","","0.2774566956","0.6","0.8","0.2","0.4","0.2774566956","0.3095995051","0.1557479742","0.4236809331","","","","","","","","","","","","","","72","H","0","img/none_selected.jpg","","186","main_expt",""
"","bandit","267","889893","0.0-228.0-0.0","05485637","wem/bandit_party_1","A1BHR5XQ16T7LA","either","5","506","","","","","","","0","0","1","","0.2876011691","0.6","0.8","0.2","0.4","0.2876011691","0.2567332284","0.1823611596","0.4058627081","","","","","","","","","","","","","","72","H","0","img/none_selected.jpg","","187","main_expt",""
"","bandit","268","892004","0.0-229.0-0.0","05485637","wem/bandit_party_1","A1BHR5XQ16T7LA","either","5","592","","","","","","","0","0","1","","0.2947112378","0.6","0.8","0.2","0.4","0.2947112378","0.2555256861","0.1854179297","0.3913346521","","","","","","","","","","","","","","72","H","0","img/none_selected.jpg","","188","main_expt",""
"","bandit","269","894433","0.0-230.0-0.0","05485637","wem/bandit_party_1","A1BHR5XQ16T7LA","either","5","910","","","","","","","1","0","0","0.2581494","","0.6","0.8","0.2","0.4","","","","","0.2581494","0.2009875262","0.1875645599","0.3760164219","","","","","","","","","","72","H","0","img/none_selected.jpg","","189","main_expt",""
"","bandit","270","896516","0.0-231.0-0.0","05485637","wem/bandit_party_1","A1BHR5XQ16T7LA","either","5","562","","","","","","","0","0","1","","0.1756323468","0.6","0.8","0.2","0.4","0.1756323468","0.2055488595","0.2018323604","0.3327352817","","","","","","","","","","","","","","72","H","0","img/none_selected.jpg","","190","main_expt",""
"","bandit","271","898586","0.0-232.0-0.0","05485637","wem/bandit_party_1","A1BHR5XQ16T7LA","either","5","550","","","","","","","0","0","1","0.2521570866","","0.6","0.8","0.2","0.4","","","","","0.2521570866","0.1506387864","0.221094727","0.3015177445","","","","","","","","","","72","H","0","img/none_selected.jpg","","191","main_expt",""
"","bandit","272","900761","0.0-233.0-0.0","05485637","wem/bandit_party_1","A1BHR5XQ16T7LA","either","5","664","","","","","","","0","1","0","","0.2964739449","0.6","0.8","0.2","0.4","0.2964739449","0.2027442266","0.2320570195","0.2773298268","","","","","","","","","","","","","","72","H","0","img/none_selected.jpg","","192","main_expt",""
"","bandit","273","902619","0.0-234.0-0.0","05485637","wem/bandit_party_1","A1BHR5XQ16T7LA","either","5","337","","","","","","","0","0","1","","0.2612966838","0.6","0.8","0.2","0.4","0.2612966838","0.1969137872","0.2948950962","0.2836613797","","","","","","","","","","","","","","72","H","0","img/none_selected.jpg","","193","main_expt",""
"","bandit","274","904578","0.0-235.0-0.0","05485637","wem/bandit_party_1","A1BHR5XQ16T7LA","either","5","440","","","","","","","0","1","0","","0.3292914436","0.6","0.8","0.2","0.4","0.3292914436","0.2114994946","0.2602906927","0.2799350415","","","","","","","","","","","","","","72","H","0","img/none_selected.jpg","","194","main_expt",""
"","bandit","275","906507","0.0-236.0-0.0","05485637","wem/bandit_party_1","A1BHR5XQ16T7LA","either","5","408","","","","","","","0","0","1","0.4070308407","","0.6","0.8","0.2","0.4","","","","","0.4070308407","0.2467939011","0.1771499101","0.2068597772","","","","","","","","","","72","H","0","img/none_selected.jpg","","195","main_expt",""
"","bandit","276","908300","0.0-237.0-0.0","05485637","wem/bandit_party_1","A1BHR5XQ16T7LA","either","5","273","","","","","","","0","0","1","","0.3494820729","0.6","0.8","0.2","0.4","0.3494820729","0.2731811988","0.1746274925","0.2679469531","","","","","","","","","","","","","","72","H","0","img/none_selected.jpg","","196","main_expt",""
"","bandit","277","910080","0.0-238.0-0.0","05485637","wem/bandit_party_1","A1BHR5XQ16T7LA","either","5","263","","","","","","","0","0","1","0.3571939809","","0.6","0.8","0.2","0.4","","","","","0.3571939809","0.2512114903","0.193224684","0.2448078588","","","","","","","","","","72","H","0","img/none_selected.jpg","","197","main_expt",""
"","bandit","278","911826","0.0-239.0-0.0","05485637","wem/bandit_party_1","A1BHR5XQ16T7LA","either","5","236","","","","","","","0","0","1","0.190651112","","0.6","0.8","0.2","0.4","","","","","0.382430028","0.190651112","0.1771509929","0.2433987968","","","","","","","","","","74","J","1","","","198","main_expt",""
"","bandit","279","913596","0.0-240.0-0.0","05485637","wem/bandit_party_1","A1BHR5XQ16T7LA","either","5","258","","","","","","","0","1","0","","0.1701189695","0.6","0.8","0.2","0.4","0.3353474301","0.1701189695","0.2466668772","0.2653624242","","","","","","","","","","","","","","74","J","1","","","199","main_expt",""
"","bandit","280","915442","0.0-241.0-0.0","05485637","wem/bandit_party_1","A1BHR5XQ16T7LA","either","5","325","","","","","","","0","0","1","0.1656975488","","0.6","0.8","0.2","0.4","","","","","0.3321976498","0.1656975488","0.2477816141","0.2551376492","","","","","","","","","","74","J","1","","","200","main_expt",""
"","bandit","281","917626","0.0-242.0-0.0","05485637","wem/bandit_party_1","A1BHR5XQ16T7LA","either","5","665","","","","","","","0","0","1","0.1647298582","","0.6","0.8","0.2","0.4","","","","","0.3218117355","0.1647298582","0.2744817861","0.2660639347","","","","","","","","","","74","J","1","","","201","main_expt",""
"","bandit","282","920371","0.0-243.0-0.0","05485637","wem/bandit_party_1","A1BHR5XQ16T7LA","either","5","1224","","","","","","","0","0","1","0.1242041815","","0.6","0.8","0.2","0.4","","","","","0.2949214693","0.1242041815","0.3043062986","0.2220900594","","","","","","","","","","74","J","1","","","202","main_expt",""
"","bandit","283","922228","0.0-244.0-0.0","05485637","wem/bandit_party_1","A1BHR5XQ16T7LA","either","5","335","","","","","","","1","0","0","0.272185569","","0.6","0.8","0.2","0.4","","","","","0.300077299","0.1684487429","0.272185569","0.1543353204","","","","","","","","","","75","K","2","","","203","main_expt",""
"","bandit","284","923986","0.0-245.0-0.0","05485637","wem/bandit_party_1","A1BHR5XQ16T7LA","either","5","239","","","","","","","0","0","1","","0.2610767704","0.6","0.8","0.2","0.4","0.2866085977","0.1666409686","0.2610767704","0.1605482003","","","","","","","","","","","","","","75","K","2","","","204","main_expt",""
"","bandit","285","925883","0.0-246.0-0.0","05485637","wem/bandit_party_1","A1BHR5XQ16T7LA","either","5","377","","","","","","","0","1","0","","0.2832615928","0.6","0.8","0.2","0.4","0.2695546272","0.2197286508","0.2832615928","0.1406914754","","","","","","","","","","","","","","75","K","2","","","205","main_expt",""
"","bandit","286","927730","0.0-247.0-0.0","05485637","wem/bandit_party_1","A1BHR5XQ16T7LA","either","5","328","","","","","","","0","1","0","","0.300913322","0.6","0.8","0.2","0.4","0.2622178416","0.2754509052","0.300913322","0.1138947463","","","","","","","","","","","","","","75","K","2","","","206","main_expt",""
"","bandit","287","929497","0.0-248.0-0.0","05485637","wem/bandit_party_1","A1BHR5XQ16T7LA","either","5","247","","","","","","","0","1","0","","0.3260258847","0.6","0.8","0.2","0.4","0.2498186578","0.2664869377","0.3260258847","0.1096702189","","","","","","","","","","","","","","75","K","2","","","207","main_expt",""
"","bandit","288","931305","0.0-249.0-0.0","05485637","wem/bandit_party_1","A1BHR5XQ16T7LA","either","5","289","","","","","","","0","1","0","","0.3173829003","0.6","0.8","0.2","0.4","0.2335358635","0.2686565688","0.3173829003","0.09922356593","","","","","","","","","","","","","","75","K","2","","","208","main_expt",""
"","bandit","289","933124","0.0-250.0-0.0","05485637","wem/bandit_party_1","A1BHR5XQ16T7LA","either","5","298","","","","","","","0","0","1","","0.3153846937","0.6","0.8","0.2","0.4","0.2638942681","0.2380255957","0.3153846937","0.101567507","","","","","","","","","","","","","","75","K","2","","","209","main_expt",""
"","bandit","290","934921","0.0-251.0-0.0","05485637","wem/bandit_party_1","A1BHR5XQ16T7LA","either","5","279","","","","","","","0","1","0","","0.3010876552","0.6","0.8","0.2","0.4","0.2526926237","0.2507768727","0.3010876552","0.08675379402","","","","","","","","","","","","","","75","K","2","","","210","main_expt",""
"","bandit","291","937058","0.0-252.0-0.0","05485637","wem/bandit_party_1","A1BHR5XQ16T7LA","either","5","618","","","","","","","0","1","0","","0.2864900033","0.6","0.8","0.2","0.4","0.2740367769","0.2685142319","0.2864900033","0.07512021269","","","","","","","","","","","","","","75","K","2","","","211","main_expt",""
"","bandit","292","938938","0.0-253.0-0.0","05485637","wem/bandit_party_1","A1BHR5XQ16T7LA","either","5","361","","","","","","","0","0","1","0.3163372434","","0.6","0.8","0.2","0.4","","","","","0.2440836191","0.260511483","0.3163372434","0.08144254236","","","","","","","","","","75","K","2","","","212","main_expt",""
"","bandit","293","940827","0.0-254.0-0.0","05485637","wem/bandit_party_1","A1BHR5XQ16T7LA","either","5","371","","","","","","","0","1","0","","0.2701305136","0.6","0.8","0.2","0.4","0.2341903104","0.2579605047","0.2701305136","0.06585574052","","","","","","","","","","","","","","75","K","2","","","213","main_expt",""
"","bandit","294","942699","0.0-255.0-0.0","05485637","wem/bandit_party_1","A1BHR5XQ16T7LA","either","5","352","","","","","","","1","0","0","0.302599165","","0.6","0.8","0.2","0.4","","","","","0.2097526345","0.2470456849","0.302599165","0.08686614453","","","","","","","","","","75","K","2","","","214","main_expt",""
"","bandit","295","944454","0.0-256.0-0.0","05485637","wem/bandit_party_1","A1BHR5XQ16T7LA","either","5","232","","","","","","","0","1","0","","0.2968005471","0.6","0.8","0.2","0.4","0.1796882487","0.3285383036","0.2968005471","0.1068548489","","","","","","","","","","","","","","75","K","2","","","215","main_expt",""
"","bandit","296","946203","0.0-257.0-0.0","05485637","wem/bandit_party_1","A1BHR5XQ16T7LA","either","5","227","","","","","","","0","0","1","","0.2835536598","0.6","0.8","0.2","0.4","0.2237900511","0.3780044773","0.2835536598","0.1211736082","","","","","","","","","","","","","","75","K","2","","","216","main_expt",""
"","bandit","297","947970","0.0-258.0-0.0","05485637","wem/bandit_party_1","A1BHR5XQ16T7LA","either","5","245","","","","","","","0","0","1","","0.2520762718","0.6","0.8","0.2","0.4","0.2265358539","0.3939228946","0.2520762718","0.09343701815","","","","","","","","","","","","","","75","K","2","","","217","main_expt",""
"","bandit","298","949784","0.0-259.0-0.0","05485637","wem/bandit_party_1","A1BHR5XQ16T7LA","either","5","295","","","","","","","0","0","1","","0.2562699476","0.6","0.8","0.2","0.4","0.2364013437","0.3198270803","0.2562699476","0.1001055386","","","","","","","","","","","","","","75","K","2","","","218","main_expt",""
"","bandit","299","951372","0.0-260.0-0.0","05485637","wem/bandit_party_1","A1BHR5XQ16T7LA","either","5","76","","","","","","","0","0","1","","0.09524874014","0.6","0.8","0.2","0.4","0.2810560361","0.3502502288","0.3002431464","0.09524874014","","","","","","","","","","","","","","76","L","3","","","219","main_expt",""
"","bandit","300","953291","0.0-261.0-0.0","05485637","wem/bandit_party_1","A1BHR5XQ16T7LA","either","5","398","","","","","","","1","0","0","0.1304899995","","0.6","0.8","0.2","0.4","","","","","0.3027429446","0.3402456168","0.3365413303","0.1304899995","","","","","","","","","","76","L","3","","","220","main_expt",""
"","bandit","301","955157","0.0-262.0-0.0","05485637","wem/bandit_party_1","A1BHR5XQ16T7LA","either","5","344","","","","","","","0","0","1","","0.1272814923","0.6","0.8","0.2","0.4","0.3132134988","0.3770059732","0.2946103072","0.1272814923","","","","","","","","","","","","","","76","L","3","","","221","main_expt",""
"","bandit","302","957003","0.0-263.0-0.0","05485637","wem/bandit_party_1","A1BHR5XQ16T7LA","either","5","325","","","","","","","0","0","1","","0.1654407056","0.6","0.8","0.2","0.4","0.2424821827","0.3864421123","0.3267284332","0.1654407056","","","","","","","","","","","","","","76","L","3","","","222","main_expt",""
"","bandit","303","958802","0.0-264.0-0.0","05485637","wem/bandit_party_1","A1BHR5XQ16T7LA","either","5","280","","","","","","","0","0","1","0.1788325852","","0.6","0.8","0.2","0.4","","","","","0.2595367495","0.4205211408","0.3175152631","0.1788325852","","","","","","","","","","76","L","3","","","223","main_expt",""
"","bandit","304","961702","0.0-265.0-0.0","05485637","wem/bandit_party_1","A1BHR5XQ16T7LA","either","5","1378","","","","","","","0","0","1","0.4131889957","","0.6","0.8","0.2","0.4","","","","","0.328819141","0.4131889957","0.3192400935","0.1736623033","","","","","","","","","","74","J","1","","","224","main_expt",""
"","bandit","305","963588","0.0-266.0-0.0","05485637","wem/bandit_party_1","A1BHR5XQ16T7LA","either","5","364","","","","","","","1","0","0","0.4001513574","","0.6","0.8","0.2","0.4","","","","","0.356121412","0.4001513574","0.3096750449","0.1721911447","","","","","","","","","","74","J","1","","","225","main_expt",""
"","bandit","306","965430","0.0-267.0-0.0","05485637","wem/bandit_party_1","A1BHR5XQ16T7LA","either","5","320","","","","","","","0","0","1","0.3963688582","","0.6","0.8","0.2","0.4","","","","","0.3394019192","0.3963688582","0.3142833063","0.2133818582","","","","","","","","","","74","J","1","","","226","main_expt",""
"","bandit","307","967988","0.0-268.0-0.0","05485637","wem/bandit_party_1","A1BHR5XQ16T7LA","either","5","1035","","","","","","","0","0","1","0.3979714495","","0.6","0.8","0.2","0.4","","","","","0.2860553004","0.3979714495","0.3096885674","0.2620007467","","","","","","","","","","74","J","1","","","227","main_expt",""
"","bandit","308","969940","0.0-269.0-0.0","05485637","wem/bandit_party_1","A1BHR5XQ16T7LA","either","5","430","","","","","","","0","0","1","0.3811043637","","0.6","0.8","0.2","0.4","","","","","0.2967856672","0.3811043637","0.3048295172","0.2961930455","","","","","","","","","","74","J","1","","","228","main_expt",""
"","bandit","309","972300","0.0-270.0-0.0","05485637","wem/bandit_party_1","A1BHR5XQ16T7LA","either","5","838","","","","","","","1","0","0","0.3488149186","","0.6","0.8","0.2","0.4","","","","","0.2857745529","0.3488149186","0.2553920021","0.3081123415","","","","","","","","","","74","J","1","","","229","main_expt",""
"","bandit","310","973931","0.0-271.0-0.0","05485637","wem/bandit_party_1","A1BHR5XQ16T7LA","either","5","108","","","","","","","1","0","0","0.2883621188","","0.6","0.8","0.2","0.4","","","","","0.2589404948","0.2883621188","0.2783794412","0.3027177586","","","","","","","","","","74","J","1","","","230","main_expt",""
"","bandit","311","975810","0.0-272.0-0.0","05485637","wem/bandit_party_1","A1BHR5XQ16T7LA","either","5","369","","","","","","","0","0","1","0.2444465504","","0.6","0.8","0.2","0.4","","","","","0.2628441024","0.2444465504","0.2735536708","0.2495346478","","","","","","","","","","74","J","1","","","231","main_expt",""
"","bandit","312","977570","0.0-273.0-0.0","05485637","wem/bandit_party_1","A1BHR5XQ16T7LA","either","5","239","","","","","","","0","0","1","0.2996930955","","0.6","0.8","0.2","0.4","","","","","0.276537748","0.2996930955","0.2262440502","0.2185872191","","","","","","","","","","74","J","1","","","232","main_expt",""
"","bandit","313","979355","0.0-274.0-0.0","05485637","wem/bandit_party_1","A1BHR5XQ16T7LA","either","5","264","","","","","","","0","1","0","","0.3103031796","0.6","0.8","0.2","0.4","0.2485723575","0.3103031796","0.2171974885","0.1874863907","","","","","","","","","","","","","","74","J","1","","","233","main_expt",""
"","bandit","314","981332","0.0-275.0-0.0","05485637","wem/bandit_party_1","A1BHR5XQ16T7LA","either","5","455","","","","","","","0","0","1","0.2971988612","","0.6","0.8","0.2","0.4","","","","","0.2172766866","0.2971988612","0.2951485073","0.2165838284","","","","","","","","","","74","J","1","","","234","main_expt",""
"","bandit","315","983073","0.0-276.0-0.0","05485637","wem/bandit_party_1","A1BHR5XQ16T7LA","either","5","220","","","","","","","0","0","1","0.3266576642","","0.6","0.8","0.2","0.4","","","","","0.221542824","0.3266576642","0.3135740045","0.1791302586","","","","","","","","","","74","J","1","","","235","main_expt",""
"","bandit","316","985034","0.0-277.0-0.0","05485637","wem/bandit_party_1","A1BHR5XQ16T7LA","either","5","450","","","","","","","0","0","1","0.3596878827","","0.6","0.8","0.2","0.4","","","","","0.2200573756","0.3596878827","0.2945285262","0.2463713802","","","","","","","","","","74","J","1","","","236","main_expt",""
