"consent","trial_type","trial_index","time_elapsed","internal_node_id","subjID","study","MID","cond","drift","rt","responses","button_pressed","key_press","like","value","connected","gems","bombs","no_reward","GemPrChosen","BombPrChosen","GainOverPainPr_0","GainOverPainPr_1","GainOverPainPr_2","GainOverPainPr_3","LosePr_0","LosePr_1","LosePr_2","LosePr_3","WinPr_0","WinPr_1","WinPr_2","WinPr_3","Q0","Q1","Q2","gender","age","ethnicity","label","expt_phase","target","respCharCode","respKey","respChoiceNum","respChoice","practice","trial_counter","trial_label","Q0_index"
"GDM/GDM_behavioral_consent_30min_online.html","consent","0","5599","0.0-0.0","05758273","wem/bandit_party_1","A1J8TVICSRC70W","either","2","","","","","","","","","","","","","","","","","","","","","","","","","","","","","","","","","","","","","","","","",""
"","survey-text","1","9713","0.0-1.0","05758273","wem/bandit_party_1","A1J8TVICSRC70W","either","2","3095","{""Q0"":""A1J8TVICSRC70W""}","","","","","","","","","","","","","","","","","","","","","","","","","","","","","","","","","","","","","","",""
"","button-response","2","15541","0.0-2.0","05758273","wem/bandit_party_1","A1J8TVICSRC70W","either","2","4819","","1","","","","","","","","","","","","","","","","","","","","","","","","","","","","","","","","","","","","","",""
"","text-replacement","3","22047","0.0-3.0","05758273","wem/bandit_party_1","A1J8TVICSRC70W","either","2","5500","","","32","","","","","","","","","","","","","","","","","","","","","","","","","","","","","","","","","","","","",""
"","text-replacement","4","25536","0.0-4.0","05758273","wem/bandit_party_1","A1J8TVICSRC70W","either","2","3487","","","32","","","","","","","","","","","","","","","","","","","","","","","","","","","","","","","","","","","","",""
"","identification","5","29502","0.0-6.0-0.0","05758273","wem/bandit_party_1","A1J8TVICSRC70W","either","2","3937","","","","4","4","2","","","","","","","","","","","","","","","","","","","","","","","","pre","identification_pre","the Democratic Party","","","","","","","",""
"","identification","6","33662","0.0-6.0-1.0","05758273","wem/bandit_party_1","A1J8TVICSRC70W","either","2","3134","","","","1","0","1","","","","","","","","","","","","","","","","","","","","","","","","pre","identification_pre","the Republican party","","","","","","","",""
"","text-replacement","7","38265","0.0-7.0","05758273","wem/bandit_party_1","A1J8TVICSRC70W","either","2","3600","","","32","","","","","","","","","","","","","","","","","","","","","","","","","","","","","","","","","","","","",""
"","text-replacement","8","40379","0.0-8.0","05758273","wem/bandit_party_1","A1J8TVICSRC70W","either","2","2112","","","32","","","","","","","","","","","","","","","","","","","","","","","","","","","","","","","","","","","","",""
"","text-replacement","9","45751","0.0-9.0","05758273","wem/bandit_party_1","A1J8TVICSRC70W","either","2","5371","","","32","","","","","","","","","","","","","","","","","","","","","","","","","","","","","","","","","","","","",""
"","text-replacement","10","47726","0.0-10.0","05758273","wem/bandit_party_1","A1J8TVICSRC70W","either","2","1972","","","32","","","","","","","","","","","","","","","","","","","","","","","","","","","","","","","","","","","","",""
"","text-replacement","11","49401","0.0-11.0","05758273","wem/bandit_party_1","A1J8TVICSRC70W","either","2","1672","","","32","","","","","","","","","","","","","","","","","","","","","","","","","","","","","","","","","","","","",""
"","bandit","12","52322","0.0-12.0-0.0","05758273","wem/bandit_party_1","A1J8TVICSRC70W","either","2","1409","","","","","","","0","0","1","0","0","","","","","0","","","","0","","","","","","","","","","","","","74","J","0","img/none_selected_demo.jpg","true","0","",""
"","bandit","13","54560","0.0-13.0-0.0","05758273","wem/bandit_party_1","A1J8TVICSRC70W","either","2","731","","","","","","","0","0","1","0","0","","","","","0","","","","0","","","","","","","","","","","","","75","K","0","img/none_selected_demo.jpg","true","0","",""
"","text-replacement","14","57606","0.0-14.0","05758273","wem/bandit_party_1","A1J8TVICSRC70W","either","2","3042","","","32","","","","","","","","","","","","","","","","","","","","","","","","","","","","","","","","","","","","",""
"","text-replacement","15","145157","0.0-15.0","05758273","wem/bandit_party_1","A1J8TVICSRC70W","either","2","87547","","","32","","","","","","","","","","","","","","","","","","","","","","","","","","","","","","","","","","","","",""
"","text-replacement","16","148054","0.0-16.0","05758273","wem/bandit_party_1","A1J8TVICSRC70W","either","2","2893","","","32","","","","","","","","","","","","","","","","","","","","","","","","","","","","","","","","","","","","",""
"","text-replacement","17","150384","0.0-17.0","05758273","wem/bandit_party_1","A1J8TVICSRC70W","either","2","2327","","","32","","","","","","","","","","","","","","","","","","","","","","","","","","","","","","","","","","","","",""
"","bandit","18","152967","0.0-18.0-0.0","05758273","wem/bandit_party_1","A1J8TVICSRC70W","either","2","1074","","","","","","","0","1","0","","0.8","0.5","0.5","","","0.8","0.2","","","","","","","","","","","","","","","","74","J","0","img/none_selected_demo.jpg","true","0","80_20_practice",""
"","bandit","19","154770","0.0-18.0-1.0","05758273","wem/bandit_party_1","A1J8TVICSRC70W","either","2","293","","","","","","","1","0","0","0.8","","0.5","0.5","","","","","","","0.8","0.2","","","","","","","","","","","","74","J","0","img/none_selected_demo.jpg","true","0","80_20_practice",""
"","bandit","20","156531","0.0-18.0-2.0","05758273","wem/bandit_party_1","A1J8TVICSRC70W","either","2","250","","","","","","","0","1","0","","0.8","0.5","0.5","","","0.8","0.2","","","","","","","","","","","","","","","","74","J","0","img/none_selected_demo.jpg","true","0","80_20_practice",""
"","bandit","21","158323","0.0-18.0-3.0","05758273","wem/bandit_party_1","A1J8TVICSRC70W","either","2","281","","","","","","","0","1","0","","0.8","0.5","0.5","","","0.8","0.2","","","","","","","","","","","","","","","","74","J","0","img/none_selected_demo.jpg","true","0","80_20_practice",""
"","bandit","22","160105","0.0-18.0-4.0","05758273","wem/bandit_party_1","A1J8TVICSRC70W","either","2","270","","","","","","","1","0","0","0.8","","0.5","0.5","","","","","","","0.8","0.2","","","","","","","","","","","","74","J","0","img/none_selected_demo.jpg","true","0","80_20_practice",""
"","bandit","23","161837","0.0-18.0-5.0","05758273","wem/bandit_party_1","A1J8TVICSRC70W","either","2","223","","","","","","","0","0","1","","0.8","0.5","0.5","","","0.8","0.2","","","","","","","","","","","","","","","","74","J","0","img/none_selected_demo.jpg","true","0","80_20_practice",""
"","bandit","24","163717","0.0-18.0-6.0","05758273","wem/bandit_party_1","A1J8TVICSRC70W","either","2","372","","","","","","","1","0","0","0.8","","0.5","0.5","","","","","","","0.8","0.2","","","","","","","","","","","","74","J","0","img/none_selected_demo.jpg","true","0","80_20_practice",""
"","bandit","25","165424","0.0-18.0-7.0","05758273","wem/bandit_party_1","A1J8TVICSRC70W","either","2","198","","","","","","","0","1","0","","0.8","0.5","0.5","","","0.8","0.2","","","","","","","","","","","","","","","","74","J","0","img/none_selected_demo.jpg","true","0","80_20_practice",""
"","bandit","26","172429","0.0-18.0-8.0","05758273","wem/bandit_party_1","A1J8TVICSRC70W","either","2","5497","","","","","","","0","1","0","","0.8","0.5","0.5","","","0.8","0.2","","","","","","","","","","","","","","","","74","J","0","img/none_selected_demo.jpg","true","0","80_20_practice",""
"","bandit","27","174812","0.0-18.0-9.0","05758273","wem/bandit_party_1","A1J8TVICSRC70W","either","2","875","","","","","","","0","1","0","","0.8","0.5","0.5","","","0.8","0.2","","","","","","","","","","","","","","","","74","J","0","img/none_selected_demo.jpg","true","0","80_20_practice",""
"","bandit","28","178800","0.0-18.0-10.0","05758273","wem/bandit_party_1","A1J8TVICSRC70W","either","2","2479","","","","","","","1","0","0","0.8","","0.5","0.5","","","","","","","0.8","0.2","","","","","","","","","","","","74","J","0","img/none_selected_demo.jpg","true","0","80_20_practice",""
"","bandit","29","188226","0.0-18.0-11.0","05758273","wem/bandit_party_1","A1J8TVICSRC70W","either","2","7919","","","","","","","1","0","0","0.8","","0.5","0.5","","","","","","","0.8","0.2","","","","","","","","","","","","74","J","0","img/none_selected_demo.jpg","true","0","80_20_practice",""
"","bandit","30","191672","0.0-18.0-12.0","05758273","wem/bandit_party_1","A1J8TVICSRC70W","either","2","1937","","","","","","","0","0","1","","0.8","0.5","0.5","","","0.8","0.2","","","","","","","","","","","","","","","","74","J","0","img/none_selected_demo.jpg","true","0","80_20_practice",""
"","bandit","31","194862","0.0-18.0-13.0","05758273","wem/bandit_party_1","A1J8TVICSRC70W","either","2","1681","","","","","","","1","0","0","0.8","","0.5","0.5","","","","","","","0.8","0.2","","","","","","","","","","","","74","J","0","img/none_selected_demo.jpg","true","0","80_20_practice",""
"","bandit","32","196670","0.0-18.0-14.0","05758273","wem/bandit_party_1","A1J8TVICSRC70W","either","2","299","","","","","","","1","0","0","0.8","","0.5","0.5","","","","","","","0.8","0.2","","","","","","","","","","","","74","J","0","img/none_selected_demo.jpg","true","0","80_20_practice",""
"","bandit","33","198494","0.0-18.0-15.0","05758273","wem/bandit_party_1","A1J8TVICSRC70W","either","2","315","","","","","","","0","1","0","","0.8","0.5","0.5","","","0.8","0.2","","","","","","","","","","","","","","","","74","J","0","img/none_selected_demo.jpg","true","0","80_20_practice",""
"","bandit","34","202634","0.0-18.0-16.0","05758273","wem/bandit_party_1","A1J8TVICSRC70W","either","2","2629","","","","","","","0","1","0","","0.8","0.5","0.5","","","0.8","0.2","","","","","","","","","","","","","","","","74","J","0","img/none_selected_demo.jpg","true","0","80_20_practice",""
"","bandit","35","204278","0.0-18.0-17.0","05758273","wem/bandit_party_1","A1J8TVICSRC70W","either","2","134","","","","","","","1","0","0","0.8","","0.5","0.5","","","","","","","0.8","0.2","","","","","","","","","","","","74","J","0","img/none_selected_demo.jpg","true","0","80_20_practice",""
"","bandit","36","213916","0.0-18.0-18.0","05758273","wem/bandit_party_1","A1J8TVICSRC70W","either","2","8125","","","","","","","0","0","1","","0.8","0.5","0.5","","","0.8","0.2","","","","","","","","","","","","","","","","74","J","0","img/none_selected_demo.jpg","true","0","80_20_practice",""
"","bandit","37","215742","0.0-18.0-19.0","05758273","wem/bandit_party_1","A1J8TVICSRC70W","either","2","315","","","","","","","0","0","1","0.8","","0.5","0.5","","","","","","","0.8","0.2","","","","","","","","","","","","74","J","0","img/none_selected_demo.jpg","true","0","80_20_practice",""
"","text-replacement","38","223300","0.0-19.0","05758273","wem/bandit_party_1","A1J8TVICSRC70W","either","2","7554","","","32","","","","","","","","","","","","","","","","","","","","","","","","","","","","","","","","","","","","",""
"","bandit","39","225466","0.0-20.0-0.0","05758273","wem/bandit_party_1","A1J8TVICSRC70W","either","2","655","","","","","","","1","0","0","1","0","","","","","0","1","","","1","0","","","","","","","","","","","","74","J","0","img/none_selected_demo.jpg","true","0","",""
"","text-replacement","40","227022","0.0-21.0","05758273","wem/bandit_party_1","A1J8TVICSRC70W","either","2","1552","","","74","","","","","","","","","","","","","","","","","","","","","","","","","","","","","","","","","","","","",""
"","text-replacement","41","229006","0.0-22.0","05758273","wem/bandit_party_1","A1J8TVICSRC70W","either","2","1979","","","32","","","","","","","","","","","","","","","","","","","","","","","","","","","","","","","","","","","","",""
"","text-replacement","42","229800","0.0-23.0","05758273","wem/bandit_party_1","A1J8TVICSRC70W","either","2","790","","","32","","","","","","","","","","","","","","","","","","","","","","","","","","","","","","","","","","","","",""
"","text-replacement","43","230525","0.0-24.0","05758273","wem/bandit_party_1","A1J8TVICSRC70W","either","2","722","","","32","","","","","","","","","","","","","","","","","","","","","","","","","","","","","","","","","","","","",""
"","text-replacement","44","232401","0.0-25.0","05758273","wem/bandit_party_1","A1J8TVICSRC70W","either","2","1873","","","32","","","","","","","","","","","","","","","","","","","","","","","","","","","","","","","","","","","","",""
"","text-replacement","45","232870","0.0-26.0","05758273","wem/bandit_party_1","A1J8TVICSRC70W","either","2","466","","","32","","","","","","","","","","","","","","","","","","","","","","","","","","","","","","","","","","","","",""
"","text-replacement","46","233355","0.0-27.0","05758273","wem/bandit_party_1","A1J8TVICSRC70W","either","2","478","","","32","","","","","","","","","","","","","","","","","","","","","","","","","","","","","","","","","","","","",""
"","text-replacement","47","233771","0.0-28.0","05758273","wem/bandit_party_1","A1J8TVICSRC70W","either","2","409","","","32","","","","","","","","","","","","","","","","","","","","","","","","","","","","","","","","","","","","",""
"","text-replacement","48","234647","0.0-29.0","05758273","wem/bandit_party_1","A1J8TVICSRC70W","either","2","872","","","32","","","","","","","","","","","","","","","","","","","","","","","","","","","","","","","","","","","","",""
"","text-replacement","49","235445","0.0-30.0","05758273","wem/bandit_party_1","A1J8TVICSRC70W","either","2","795","","","32","","","","","","","","","","","","","","","","","","","","","","","","","","","","","","","","","","","","",""
"","text-replacement","50","239782","0.0-31.0","05758273","wem/bandit_party_1","A1J8TVICSRC70W","either","2","4333","","","32","","","","","","","","","","","","","","","","","","","","","","","","","","","","","","","","","","","","",""
"","bandit","51","242666","0.0-32.0-0.0","05758273","wem/bandit_party_1","A1J8TVICSRC70W","either","2","1375","","","","","","","0","1","0","","0.8","0.5","0.5","0.5","0.5","0.8","0.2","0.6","0.2","","","","","","","","","","","","","","72","H","0","img/none_selected.jpg","true","0","full_practice",""
"","bandit","52","244543","0.0-32.0-1.0","05758273","wem/bandit_party_1","A1J8TVICSRC70W","either","2","366","","","","","","","1","0","0","0.8","","0.5","0.5","0.5","0.5","","","","","0.8","0.2","0.6","0.2","","","","","","","","","","72","H","0","img/none_selected.jpg","true","0","full_practice",""
"","bandit","53","246321","0.0-32.0-2.0","05758273","wem/bandit_party_1","A1J8TVICSRC70W","either","2","271","","","","","","","1","0","0","0.8","","0.5","0.5","0.5","0.5","","","","","0.8","0.2","0.6","0.2","","","","","","","","","","72","H","0","img/none_selected.jpg","true","0","full_practice",""
"","bandit","54","248261","0.0-32.0-3.0","05758273","wem/bandit_party_1","A1J8TVICSRC70W","either","2","430","","","","","","","1","0","0","0.8","","0.5","0.5","0.5","0.5","","","","","0.8","0.2","0.6","0.2","","","","","","","","","","72","H","0","img/none_selected.jpg","true","0","full_practice",""
"","bandit","55","250017","0.0-32.0-4.0","05758273","wem/bandit_party_1","A1J8TVICSRC70W","either","2","245","","","","","","","1","0","0","0.8","","0.5","0.5","0.5","0.5","","","","","0.8","0.2","0.6","0.2","","","","","","","","","","72","H","0","img/none_selected.jpg","true","0","full_practice",""
"","bandit","56","251793","0.0-32.0-5.0","05758273","wem/bandit_party_1","A1J8TVICSRC70W","either","2","265","","","","","","","0","0","1","","0.8","0.5","0.5","0.5","0.5","0.8","0.2","0.6","0.2","","","","","","","","","","","","","","72","H","0","img/none_selected.jpg","true","0","full_practice",""
"","bandit","57","253583","0.0-32.0-6.0","05758273","wem/bandit_party_1","A1J8TVICSRC70W","either","2","279","","","","","","","0","0","1","0.8","","0.5","0.5","0.5","0.5","","","","","0.8","0.2","0.6","0.2","","","","","","","","","","72","H","0","img/none_selected.jpg","true","0","full_practice",""
"","bandit","58","255486","0.0-32.0-7.0","05758273","wem/bandit_party_1","A1J8TVICSRC70W","either","2","393","","","","","","","0","0","1","","0.2","0.5","0.5","0.5","0.5","0.8","0.2","0.6","0.2","","","","","","","","","","","","","","74","J","1","","true","0","full_practice",""
"","bandit","59","257357","0.0-32.0-8.0","05758273","wem/bandit_party_1","A1J8TVICSRC70W","either","2","362","","","","","","","0","0","1","0.6","","0.5","0.5","0.5","0.5","","","","","0.8","0.2","0.6","0.2","","","","","","","","","","75","K","2","","true","0","full_practice",""
"","bandit","60","259115","0.0-32.0-9.0","05758273","wem/bandit_party_1","A1J8TVICSRC70W","either","2","247","","","","","","","0","0","1","0.2","","0.5","0.5","0.5","0.5","","","","","0.8","0.2","0.6","0.2","","","","","","","","","","76","L","3","","true","0","full_practice",""
"","bandit","61","260654","0.0-32.0-10.0","05758273","wem/bandit_party_1","A1J8TVICSRC70W","either","2","28","","","","","","","0","0","1","0.2","","0.5","0.5","0.5","0.5","","","","","0.8","0.2","0.6","0.2","","","","","","","","","","74","J","1","","true","0","full_practice",""
"","bandit","62","262404","0.0-32.0-11.0","05758273","wem/bandit_party_1","A1J8TVICSRC70W","either","2","241","","","","","","","1","0","0","0.6","","0.5","0.5","0.5","0.5","","","","","0.8","0.2","0.6","0.2","","","","","","","","","","75","K","2","","true","0","full_practice",""
"","bandit","63","264217","0.0-32.0-12.0","05758273","wem/bandit_party_1","A1J8TVICSRC70W","either","2","302","","","","","","","0","0","1","0.6","","0.5","0.5","0.5","0.5","","","","","0.8","0.2","0.6","0.2","","","","","","","","","","75","K","2","","true","0","full_practice",""
"","bandit","64","265994","0.0-32.0-13.0","05758273","wem/bandit_party_1","A1J8TVICSRC70W","either","2","269","","","","","","","0","0","1","","0.2","0.5","0.5","0.5","0.5","0.8","0.2","0.6","0.2","","","","","","","","","","","","","","76","L","3","","true","0","full_practice",""
"","bandit","65","268369","0.0-32.0-14.0","05758273","wem/bandit_party_1","A1J8TVICSRC70W","either","2","864","","","","","","","1","0","0","0.8","","0.5","0.5","0.5","0.5","","","","","0.8","0.2","0.6","0.2","","","","","","","","","","72","H","0","img/none_selected.jpg","true","0","full_practice",""
"","bandit","66","270174","0.0-32.0-15.0","05758273","wem/bandit_party_1","A1J8TVICSRC70W","either","2","296","","","","","","","1","0","0","0.8","","0.5","0.5","0.5","0.5","","","","","0.8","0.2","0.6","0.2","","","","","","","","","","72","H","0","img/none_selected.jpg","true","0","full_practice",""
"","bandit","67","271938","0.0-32.0-16.0","05758273","wem/bandit_party_1","A1J8TVICSRC70W","either","2","254","","","","","","","0","1","0","","0.8","0.5","0.5","0.5","0.5","0.8","0.2","0.6","0.2","","","","","","","","","","","","","","72","H","0","img/none_selected.jpg","true","0","full_practice",""
"","bandit","68","273665","0.0-32.0-17.0","05758273","wem/bandit_party_1","A1J8TVICSRC70W","either","2","217","","","","","","","1","0","0","0.8","","0.5","0.5","0.5","0.5","","","","","0.8","0.2","0.6","0.2","","","","","","","","","","72","H","0","img/none_selected.jpg","true","0","full_practice",""
"","bandit","69","275358","0.0-32.0-18.0","05758273","wem/bandit_party_1","A1J8TVICSRC70W","either","2","186","","","","","","","0","1","0","","0.8","0.5","0.5","0.5","0.5","0.8","0.2","0.6","0.2","","","","","","","","","","","","","","72","H","0","img/none_selected.jpg","true","0","full_practice",""
"","bandit","70","277766","0.0-32.0-19.0","05758273","wem/bandit_party_1","A1J8TVICSRC70W","either","2","892","","","","","","","0","1","0","","0.8","0.5","0.5","0.5","0.5","0.8","0.2","0.6","0.2","","","","","","","","","","","","","","72","H","0","img/none_selected.jpg","true","0","full_practice",""
"","text","71","304804","0.0-33.0","05758273","wem/bandit_party_1","A1J8TVICSRC70W","either","2","27028","","","32","","","","","","","","","","","","","","","","","","","","","","","","","","","","","","","","","","","","",""
"","text-replacement","72","311579","0.0-34.0","05758273","wem/bandit_party_1","A1J8TVICSRC70W","either","2","5771","","","32","","","","","","","","","","","","","","","","","","","","","","","","","","","","","","","","","","","","",""
"","text-replacement","73","319851","0.0-35.0","05758273","wem/bandit_party_1","A1J8TVICSRC70W","either","2","8267","","","32","","","","","","","","","","","","","","","","","","","","","","","","","","","","","","","","","","","","",""
"","text-replacement","74","323060","0.0-36.0","05758273","wem/bandit_party_1","A1J8TVICSRC70W","either","2","3203","","","32","","","","","","","","","","","","","","","","","","","","","","","","","","","","","","","","","","","","",""
"","text-replacement","75","326771","0.0-37.0","05758273","wem/bandit_party_1","A1J8TVICSRC70W","either","2","3706","","","32","","","","","","","","","","","","","","","","","","","","","","","","","","","","","","","","","","","","",""
"","text-replacement","76","328421","0.0-38.0","05758273","wem/bandit_party_1","A1J8TVICSRC70W","either","2","1645","","","32","","","","","","","","","","","","","","","","","","","","","","","","","","","","","","","","","","","","",""
"","survey-multi-choice-replacement","77","331100","0.0-39.0-0.0","05758273","wem/bandit_party_1","A1J8TVICSRC70W","either","2","2663","","","","","","","","","","","","","","","","","","","","","","","","Money will be added to the pool for <span style='color:blue;'>DEMOCRATS</span>","","","","","","","attn_check","","","","","","","","","0"
"","survey-multi-choice-replacement","78","335304","0.0-40.0-0.0","05758273","wem/bandit_party_1","A1J8TVICSRC70W","either","2","3185","","","","","","","","","","","","","","","","","","","","","","","","Equal amounts of money will be added to the pool for <span style='color:blue;'>DEMOCRATS</span> and subtracted from the pool for <span style='color:red;'>REPUBLICANS</span>","","","","","","","attn_check","","","","","","","","","2"
"","survey-multi-choice-replacement","79","340405","0.0-41.0-0.0","05758273","wem/bandit_party_1","A1J8TVICSRC70W","either","2","4071","","","","","","","","","","","","","","","","","","","","","","","","No money will be added to either pool","","","","","","","attn_check","","","","","","","","","3"
"","bandit","80","344674","0.0-42.0-0.0","05758273","wem/bandit_party_1","A1J8TVICSRC70W","either","2","1754","","","","","","","0","0","1","0.4781977867","","0.4","0.2","0.6","0.8","","","","","0.4781977867","0.3653736811","0.362799796","0.326135308","","","","","","","","","","72","H","0","img/none_selected.jpg","","1","main_expt",""
"","bandit","81","346576","0.0-43.0-0.0","05758273","wem/bandit_party_1","A1J8TVICSRC70W","either","2","390","","","","","","","0","0","1","","0.3999069229","0.4","0.2","0.6","0.8","0.4765481994","0.3999069229","0.3891507205","0.3564958201","","","","","","","","","","","","","","74","J","1","","","2","main_expt",""
"","bandit","82","348356","0.0-44.0-0.0","05758273","wem/bandit_party_1","A1J8TVICSRC70W","either","2","270","","","","","","","0","1","0","","0.3151339382","0.4","0.2","0.6","0.8","0.4722158263","0.4363582421","0.3151339382","0.3309056029","","","","","","","","","","","","","","75","K","2","","","3","main_expt",""
"","bandit","83","350283","0.0-45.0-0.0","05758273","wem/bandit_party_1","A1J8TVICSRC70W","either","2","416","","","","","","","0","0","1","","0.250648122","0.4","0.2","0.6","0.8","0.4609570051","0.4300921111","0.250648122","0.308467875","","","","","","","","","","","","","","75","K","2","","","4","main_expt",""
"","bandit","84","352082","0.0-46.0-0.0","05758273","wem/bandit_party_1","A1J8TVICSRC70W","either","2","286","","","","","","","0","1","0","","0.2382585344","0.4","0.2","0.6","0.8","0.4707799186","0.3863220662","0.2382585344","0.3349995635","","","","","","","","","","","","","","75","K","2","","","5","main_expt",""
"","bandit","85","353864","0.0-47.0-0.0","05758273","wem/bandit_party_1","A1J8TVICSRC70W","either","2","271","","","","","","","0","0","1","","0.2088101903","0.4","0.2","0.6","0.8","0.4676743975","0.4192648028","0.2088101903","0.3743101545","","","","","","","","","","","","","","75","K","2","","","6","main_expt",""
"","bandit","86","355574","0.0-48.0-0.0","05758273","wem/bandit_party_1","A1J8TVICSRC70W","either","2","199","","","","","","","0","0","1","0.377506125","","0.4","0.2","0.6","0.8","","","","","0.4767364015","0.4218548145","0.1884279889","0.377506125","","","","","","","","","","76","L","3","","","7","main_expt",""
"","bandit","87","357385","0.0-49.0-0.0","05758273","wem/bandit_party_1","A1J8TVICSRC70W","either","2","297","","","","","","","0","0","1","0.3452849142","","0.4","0.2","0.6","0.8","","","","","0.4837409877","0.4298914749","0.2297930851","0.3452849142","","","","","","","","","","76","L","3","","","8","main_expt",""
"","bandit","88","359204","0.0-50.0-0.0","05758273","wem/bandit_party_1","A1J8TVICSRC70W","either","2","310","","","","","","","0","0","1","0.2713567333","","0.4","0.2","0.6","0.8","","","","","0.4825212187","0.4215440671","0.2219539873","0.2713567333","","","","","","","","","","76","L","3","","","9","main_expt",""
"","bandit","89","361432","0.0-51.0-0.0","05758273","wem/bandit_party_1","A1J8TVICSRC70W","either","2","710","","","","","","","1","0","0","0.4791264729","","0.4","0.2","0.6","0.8","","","","","0.4791264729","0.3991616263","0.2398128751","0.2712708503","","","","","","","","","","72","H","0","img/none_selected.jpg","","10","main_expt",""
"","bandit","90","363150","0.0-52.0-0.0","05758273","wem/bandit_party_1","A1J8TVICSRC70W","either","2","207","","","","","","","0","0","1","","0.4762013833","0.4","0.2","0.6","0.8","0.4762013833","0.4002673883","0.2551733424","0.2635531688","","","","","","","","","","","","","","72","H","0","img/none_selected.jpg","","11","main_expt",""
"","bandit","91","364768","0.0-53.0-0.0","05758273","wem/bandit_party_1","A1J8TVICSRC70W","either","2","107","","","","","","","0","0","1","0.4729837645","","0.4","0.2","0.6","0.8","","","","","0.4729837645","0.368629831","0.2593424883","0.2669056975","","","","","","","","","","72","H","0","img/none_selected.jpg","","12","main_expt",""
"","bandit","92","366544","0.0-54.0-0.0","05758273","wem/bandit_party_1","A1J8TVICSRC70W","either","2","264","","","","","","","1","0","0","0.4749786695","","0.4","0.2","0.6","0.8","","","","","0.4749786695","0.4189726289","0.2493591627","0.3204456557","","","","","","","","","","72","H","0","img/none_selected.jpg","","13","main_expt",""
"","bandit","93","368233","0.0-55.0-0.0","05758273","wem/bandit_party_1","A1J8TVICSRC70W","either","2","177","","","","","","","0","0","1","","0.4810115094","0.4","0.2","0.6","0.8","0.4810115094","0.4352425359","0.2686446846","0.3466526728","","","","","","","","","","","","","","72","H","0","img/none_selected.jpg","","14","main_expt",""
"","bandit","94","370004","0.0-56.0-0.0","05758273","wem/bandit_party_1","A1J8TVICSRC70W","either","2","262","","","","","","","0","0","1","","0.3819090161","0.4","0.2","0.6","0.8","0.4705329286","0.3819090161","0.2690169042","0.3736671224","","","","","","","","","","","","","","74","J","1","","","15","main_expt",""
"","bandit","95","371719","0.0-57.0-0.0","05758273","wem/bandit_party_1","A1J8TVICSRC70W","either","2","208","","","","","","","0","0","1","0.3737760256","","0.4","0.2","0.6","0.8","","","","","0.4687419894","0.3737760256","0.2518303543","0.3778143907","","","","","","","","","","74","J","1","","","16","main_expt",""
"","bandit","96","373433","0.0-58.0-0.0","05758273","wem/bandit_party_1","A1J8TVICSRC70W","either","2","202","","","","","","","1","0","0","0.4151791473","","0.4","0.2","0.6","0.8","","","","","0.4594180265","0.4151791473","0.2406549936","0.3845750066","","","","","","","","","","74","J","1","","","17","main_expt",""
"","bandit","97","375111","0.0-59.0-0.0","05758273","wem/bandit_party_1","A1J8TVICSRC70W","either","2","158","","","","","","","0","1","0","","0.4137363134","0.4","0.2","0.6","0.8","0.425397146","0.4137363134","0.2670149403","0.4041286345","","","","","","","","","","","","","","74","J","1","","","18","main_expt",""
"","bandit","98","376845","0.0-60.0-0.0","05758273","wem/bandit_party_1","A1J8TVICSRC70W","either","2","223","","","","","","","0","0","1","","0.4084056464","0.4","0.2","0.6","0.8","0.4201246927","0.4084056464","0.2658482338","0.4127350431","","","","","","","","","","","","","","74","J","1","","","19","main_expt",""
"","bandit","99","378554","0.0-61.0-0.0","05758273","wem/bandit_party_1","A1J8TVICSRC70W","either","2","198","","","","","","","0","1","0","","0.4129175496","0.4","0.2","0.6","0.8","0.3954271328","0.4129175496","0.2452433766","0.4107359536","","","","","","","","","","","","","","74","J","1","","","20","main_expt",""
"","bandit","100","380188","0.0-62.0-0.0","05758273","wem/bandit_party_1","A1J8TVICSRC70W","either","2","123","","","","","","","0","0","1","0.3888488162","","0.4","0.2","0.6","0.8","","","","","0.4196431029","0.3888488162","0.2298761452","0.3954861765","","","","","","","","","","74","J","1","","","21","main_expt",""
"","bandit","101","381758","0.0-63.0-0.0","05758273","wem/bandit_party_1","A1J8TVICSRC70W","either","2","58","","","","","","","0","1","0","","0.3873149631","0.4","0.2","0.6","0.8","0.3843335182","0.3873149631","0.266827693","0.3805979297","","","","","","","","","","","","","","74","J","1","","","22","main_expt",""
"","bandit","102","383504","0.0-64.0-0.0","05758273","wem/bandit_party_1","A1J8TVICSRC70W","either","2","235","","","","","","","0","0","1","","0.3659772031","0.4","0.2","0.6","0.8","0.3839977458","0.3659772031","0.2519769849","0.425451992","","","","","","","","","","","","","","74","J","1","","","23","main_expt",""
"","bandit","103","385147","0.0-65.0-0.0","05758273","wem/bandit_party_1","A1J8TVICSRC70W","either","2","132","","","","","","","0","0","1","0.2447613107","","0.4","0.2","0.6","0.8","","","","","0.3338939571","0.3594327093","0.2447613107","0.4699447661","","","","","","","","","","75","K","2","","","24","main_expt",""
"","bandit","104","386878","0.0-66.0-0.0","05758273","wem/bandit_party_1","A1J8TVICSRC70W","either","2","218","","","","","","","0","0","1","0.2350413847","","0.4","0.2","0.6","0.8","","","","","0.324486952","0.3719143394","0.2350413847","0.4484050393","","","","","","","","","","75","K","2","","","25","main_expt",""
"","bandit","105","388567","0.0-67.0-0.0","05758273","wem/bandit_party_1","A1J8TVICSRC70W","either","2","179","","","","","","","0","1","0","","0.207774486","0.4","0.2","0.6","0.8","0.3095710384","0.3690014044","0.207774486","0.4190234423","","","","","","","","","","","","","","75","K","2","","","26","main_expt",""
"","bandit","106","390337","0.0-68.0-0.0","05758273","wem/bandit_party_1","A1J8TVICSRC70W","either","2","260","","","","","","","0","0","1","","0.2164182795","0.4","0.2","0.6","0.8","0.3355629191","0.3940030818","0.2164182795","0.4251478254","","","","","","","","","","","","","","75","K","2","","","27","main_expt",""
"","bandit","107","392027","0.0-69.0-0.0","05758273","wem/bandit_party_1","A1J8TVICSRC70W","either","2","177","","","","","","","0","0","1","","0.2164031865","0.4","0.2","0.6","0.8","0.3668681485","0.4111080327","0.2164031865","0.4287328697","","","","","","","","","","","","","","75","K","2","","","28","main_expt",""
"","bandit","108","393732","0.0-70.0-0.0","05758273","wem/bandit_party_1","A1J8TVICSRC70W","either","2","194","","","","","","","1","0","0","0.4106025245","","0.4","0.2","0.6","0.8","","","","","0.343198694","0.41290056","0.2770000278","0.4106025245","","","","","","","","","","76","L","3","","","29","main_expt",""
"","bandit","109","395345","0.0-71.0-0.0","05758273","wem/bandit_party_1","A1J8TVICSRC70W","either","2","101","","","","","","","0","0","1","0.3942494676","","0.4","0.2","0.6","0.8","","","","","0.326069126","0.3937480262","0.2354797847","0.3942494676","","","","","","","","","","76","L","3","","","30","main_expt",""
"","bandit","110","397083","0.0-72.0-0.0","05758273","wem/bandit_party_1","A1J8TVICSRC70W","either","2","232","","","","","","","1","0","0","0.4285056211","","0.4","0.2","0.6","0.8","","","","","0.3390127419","0.3997016236","0.2692030882","0.4285056211","","","","","","","","","","76","L","3","","","31","main_expt",""
"","bandit","111","398826","0.0-73.0-0.0","05758273","wem/bandit_party_1","A1J8TVICSRC70W","either","2","230","","","","","","","0","0","1","0.4249454459","","0.4","0.2","0.6","0.8","","","","","0.3360649894","0.3574295763","0.2471118655","0.4249454459","","","","","","","","","","76","L","3","","","32","main_expt",""
"","bandit","112","400386","0.0-74.0-0.0","05758273","wem/bandit_party_1","A1J8TVICSRC70W","either","2","49","","","","","","","1","0","0","0.416417765","","0.4","0.2","0.6","0.8","","","","","0.3052602024","0.3877818659","0.2879199001","0.416417765","","","","","","","","","","76","L","3","","","33","main_expt",""
"","bandit","113","402156","0.0-75.0-0.0","05758273","wem/bandit_party_1","A1J8TVICSRC70W","either","2","251","","","","","","","0","0","1","","0.4623714429","0.4","0.2","0.6","0.8","0.3594788954","0.3799496232","0.3180115212","0.4623714429","","","","","","","","","","","","","","76","L","3","","","34","main_expt",""
"","bandit","114","403775","0.0-76.0-0.0","05758273","wem/bandit_party_1","A1J8TVICSRC70W","either","2","106","","","","","","","0","1","0","","0.4591977302","0.4","0.2","0.6","0.8","0.380235832","0.3577573403","0.2524306687","0.4591977302","","","","","","","","","","","","","","76","L","3","","","35","main_expt",""
"","bandit","115","405426","0.0-77.0-0.0","05758273","wem/bandit_party_1","A1J8TVICSRC70W","either","2","139","","","","","","","0","0","1","0.4686235256","","0.4","0.2","0.6","0.8","","","","","0.3459989602","0.3895375856","0.2351869563","0.4686235256","","","","","","","","","","76","L","3","","","36","main_expt",""
"","bandit","116","407040","0.0-78.0-0.0","05758273","wem/bandit_party_1","A1J8TVICSRC70W","either","2","98","","","","","","","1","0","0","0.4571547709","","0.4","0.2","0.6","0.8","","","","","0.3320905149","0.3783527007","0.2629170466","0.4571547709","","","","","","","","","","76","L","3","","","37","main_expt",""
"","bandit","117","408822","0.0-79.0-0.0","05758273","wem/bandit_party_1","A1J8TVICSRC70W","either","2","271","","","","","","","1","0","0","0.4688430709","","0.4","0.2","0.6","0.8","","","","","0.3471020919","0.284076782","0.3090194305","0.4688430709","","","","","","","","","","76","L","3","","","38","main_expt",""
"","bandit","118","410412","0.0-80.0-0.0","05758273","wem/bandit_party_1","A1J8TVICSRC70W","either","2","76","","","","","","","1","0","0","0.4612923778","","0.4","0.2","0.6","0.8","","","","","0.3401763967","0.3388972186","0.2845371228","0.4612923778","","","","","","","","","","76","L","3","","","39","main_expt",""
"","bandit","119","412203","0.0-81.0-0.0","05758273","wem/bandit_party_1","A1J8TVICSRC70W","either","2","279","","","","","","","0","0","1","0.4576194683","","0.4","0.2","0.6","0.8","","","","","0.3260487483","0.2663655232","0.3076259244","0.4576194683","","","","","","","","","","76","L","3","","","40","main_expt",""
"","bandit","120","413829","0.0-82.0-0.0","05758273","wem/bandit_party_1","A1J8TVICSRC70W","either","2","112","","","","","","","0","1","0","","0.4473921051","0.4","0.2","0.6","0.8","0.3390218734","0.2608266697","0.2888769276","0.4473921051","","","","","","","","","","","","","","76","L","3","","","41","main_expt",""
"","bandit","121","415609","0.0-83.0-0.0","05758273","wem/bandit_party_1","A1J8TVICSRC70W","either","2","268","","","","","","","0","0","1","","0.425470286","0.4","0.2","0.6","0.8","0.2889680017","0.2287676803","0.2639198141","0.425470286","","","","","","","","","","","","","","76","L","3","","","42","main_expt",""
"","bandit","122","417404","0.0-84.0-0.0","05758273","wem/bandit_party_1","A1J8TVICSRC70W","either","2","282","","","","","","","1","0","0","0.4030522017","","0.4","0.2","0.6","0.8","","","","","0.2784828801","0.2043112358","0.2255441472","0.4030522017","","","","","","","","","","76","L","3","","","43","main_expt",""
"","bandit","123","418947","0.0-85.0-0.0","05758273","wem/bandit_party_1","A1J8TVICSRC70W","either","2","30","","","","","","","0","0","1","0.4106315797","","0.4","0.2","0.6","0.8","","","","","0.2805729819","0.1957049551","0.2050272072","0.4106315797","","","","","","","","","","76","L","3","","","44","main_expt",""
"","bandit","124","420706","0.0-86.0-0.0","05758273","wem/bandit_party_1","A1J8TVICSRC70W","either","2","245","","","","","","","1","0","0","0.2195119073","","0.4","0.2","0.6","0.8","","","","","0.2195119073","0.2207366272","0.239455925","0.4258527362","","","","","","","","","","72","H","0","img/none_selected.jpg","","45","main_expt",""
"","bandit","125","422474","0.0-87.0-0.0","05758273","wem/bandit_party_1","A1J8TVICSRC70W","either","2","256","","","","","","","0","0","1","","0.2657932304","0.4","0.2","0.6","0.8","0.2657932304","0.1727988076","0.2414778298","0.4425966235","","","","","","","","","","","","","","72","H","0","img/none_selected.jpg","","46","main_expt",""
"","bandit","126","424065","0.0-88.0-0.0","05758273","wem/bandit_party_1","A1J8TVICSRC70W","either","2","78","","","","","","","0","0","1","0.2678398397","","0.4","0.2","0.6","0.8","","","","","0.2678398397","0.1446735631","0.1884211613","0.4428977597","","","","","","","","","","72","H","0","img/none_selected.jpg","","47","main_expt",""
"","bandit","127","425625","0.0-89.0-0.0","05758273","wem/bandit_party_1","A1J8TVICSRC70W","either","2","53","","","","","","","0","0","1","0.2866904938","","0.4","0.2","0.6","0.8","","","","","0.2866904938","0.1681765936","0.1755274282","0.4479964269","","","","","","","","","","72","H","0","img/none_selected.jpg","","48","main_expt",""
"","bandit","128","428286","0.0-90.0-0.0","05758273","wem/bandit_party_1","A1J8TVICSRC70W","either","2","1149","","","","","","","0","0","1","","0.1473883531","0.4","0.2","0.6","0.8","0.2803848884","0.1473883531","0.1646396384","0.4660387519","","","","","","","","","","","","","","74","J","1","","","49","main_expt",""
"","bandit","129","429857","0.0-91.0-0.0","05758273","wem/bandit_party_1","A1J8TVICSRC70W","either","2","59","","","","","","","0","0","1","","0.1378170987","0.4","0.2","0.6","0.8","0.2587411269","0.1378170987","0.2024226619","0.4345757832","","","","","","","","","","","","","","74","J","1","","","50","main_expt",""
"","bandit","130","431481","0.0-92.0-0.0","05758273","wem/bandit_party_1","A1J8TVICSRC70W","either","2","111","","","","","","","0","0","1","0.1430360168","","0.4","0.2","0.6","0.8","","","","","0.2212901065","0.1430360168","0.1976760068","0.4450950844","","","","","","","","","","74","J","1","","","51","main_expt",""
"","bandit","131","433258","0.0-93.0-0.0","05758273","wem/bandit_party_1","A1J8TVICSRC70W","either","2","265","","","","","","","1","0","0","0.1796352224","","0.4","0.2","0.6","0.8","","","","","0.236006857","0.1731798725","0.1796352224","0.4475354499","","","","","","","","","","75","K","2","","","52","main_expt",""
"","bandit","132","434851","0.0-94.0-0.0","05758273","wem/bandit_party_1","A1J8TVICSRC70W","either","2","81","","","","","","","0","0","1","","0.2451732725","0.4","0.2","0.6","0.8","0.2660825342","0.1312409056","0.2451732725","0.4627294295","","","","","","","","","","","","","","75","K","2","","","53","main_expt",""
"","bandit","133","436539","0.0-95.0-0.0","05758273","wem/bandit_party_1","A1J8TVICSRC70W","either","2","177","","","","","","","0","0","1","0.2621482643","","0.4","0.2","0.6","0.8","","","","","0.2458345041","0.1862053218","0.2621482643","0.44829207","","","","","","","","","","75","K","2","","","54","main_expt",""
"","bandit","134","438624","0.0-96.0-0.0","05758273","wem/bandit_party_1","A1J8TVICSRC70W","either","2","571","","","","","","","1","0","0","0.2441780383","","0.4","0.2","0.6","0.8","","","","","0.2265690781","0.1733563037","0.2441780383","0.4505537928","","","","","","","","","","75","K","2","","","55","main_expt",""
"","bandit","135","440384","0.0-97.0-0.0","05758273","wem/bandit_party_1","A1J8TVICSRC70W","either","2","248","","","","","","","0","0","1","","0.199729785","0.4","0.2","0.6","0.8","0.2741820357","0.1728369204","0.199729785","0.4686400132","","","","","","","","","","","","","","75","K","2","","","56","main_expt",""
"","bandit","136","441994","0.0-98.0-0.0","05758273","wem/bandit_party_1","A1J8TVICSRC70W","either","2","97","","","","","","","0","0","1","","0.1945085845","0.4","0.2","0.6","0.8","0.2937641054","0.09176359954","0.1945085845","0.4572679106","","","","","","","","","","","","","","75","K","2","","","57","main_expt",""
"","bandit","137","443619","0.0-99.0-0.0","05758273","wem/bandit_party_1","A1J8TVICSRC70W","either","2","111","","","","","","","1","0","0","0.2614759052","","0.4","0.2","0.6","0.8","","","","","0.2949827607","0.04991422033","0.2614759052","0.4300169527","","","","","","","","","","75","K","2","","","58","main_expt",""
"","bandit","138","445234","0.0-100.0-0.0","05758273","wem/bandit_party_1","A1J8TVICSRC70W","either","2","101","","","","","","","1","0","0","0.2426118991","","0.4","0.2","0.6","0.8","","","","","0.2710075273","0.053239915","0.2426118991","0.4050829606","","","","","","","","","","75","K","2","","","59","main_expt",""
"","bandit","139","446907","0.0-101.0-0.0","05758273","wem/bandit_party_1","A1J8TVICSRC70W","either","2","160","","","","","","","0","0","1","0.2623750897","","0.4","0.2","0.6","0.8","","","","","0.2766623035","0.06994226662","0.2623750897","0.4070720156","","","","","","","","","","75","K","2","","","60","main_expt",""
"","bandit","140","448579","0.0-102.0-0.0","05758273","wem/bandit_party_1","A1J8TVICSRC70W","either","2","158","","","","","","","0","0","1","","0.2139103784","0.4","0.2","0.6","0.8","0.2574592035","0.07064832373","0.2139103784","0.3895400789","","","","","","","","","","","","","","75","K","2","","","61","main_expt",""
"","bandit","141","450224","0.0-103.0-0.0","05758273","wem/bandit_party_1","A1J8TVICSRC70W","either","2","131","","","","","","","0","0","1","0.2566580444","","0.4","0.2","0.6","0.8","","","","","0.2425209234","0.08925217872","0.2566580444","0.4050708951","","","","","","","","","","75","K","2","","","62","main_expt",""
"","bandit","142","451765","0.0-104.0-0.0","05758273","wem/bandit_party_1","A1J8TVICSRC70W","either","2","28","","","","","","","1","0","0","0.3765761212","","0.4","0.2","0.6","0.8","","","","","0.2294211584","0.08505035955","0.2393402704","0.3765761212","","","","","","","","","","76","L","3","","","63","main_expt",""
"","bandit","143","453569","0.0-105.0-0.0","05758273","wem/bandit_party_1","A1J8TVICSRC70W","either","2","294","","","","","","","0","0","1","0.3859881554","","0.4","0.2","0.6","0.8","","","","","0.2350173232","0.09892528285","0.300105392","0.3859881554","","","","","","","","","","76","L","3","","","64","main_expt",""
"","bandit","144","455229","0.0-106.0-0.0","05758273","wem/bandit_party_1","A1J8TVICSRC70W","either","2","148","","","","","","","0","0","1","0.3817039273","","0.4","0.2","0.6","0.8","","","","","0.2775473173","0.1428545766","0.2584268813","0.3817039273","","","","","","","","","","76","L","3","","","65","main_expt",""
"","bandit","145","456975","0.0-107.0-0.0","05758273","wem/bandit_party_1","A1J8TVICSRC70W","either","2","232","","","","","","","1","0","0","0.3622232449","","0.4","0.2","0.6","0.8","","","","","0.298861572","0.120440259","0.2536378703","0.3622232449","","","","","","","","","","76","L","3","","","66","main_expt",""
"","bandit","146","458876","0.0-108.0-0.0","05758273","wem/bandit_party_1","A1J8TVICSRC70W","either","2","389","","","","","","","0","1","0","","0.3768721334","0.4","0.2","0.6","0.8","0.3043747659","0.2019700983","0.2548884231","0.3768721334","","","","","","","","","","","","","","76","L","3","","","67","main_expt",""
"","bandit","147","460693","0.0-109.0-0.0","05758273","wem/bandit_party_1","A1J8TVICSRC70W","either","2","302","","","","","","","0","0","1","0.3826604183","","0.4","0.2","0.6","0.8","","","","","0.2533072519","0.1467862533","0.2105458193","0.3826604183","","","","","","","","","","76","L","3","","","68","main_expt",""
"","bandit","148","462544","0.0-110.0-0.0","05758273","wem/bandit_party_1","A1J8TVICSRC70W","either","2","337","","","","","","","1","0","0","0.3981811202","","0.4","0.2","0.6","0.8","","","","","0.2451677402","0.09022805221","0.2901666962","0.3981811202","","","","","","","","","","76","L","3","","","69","main_expt",""
"","bandit","149","464621","0.0-111.0-0.0","05758273","wem/bandit_party_1","A1J8TVICSRC70W","either","2","563","","","","","","","1","0","0","0.3936557204","","0.4","0.2","0.6","0.8","","","","","0.2403061491","0.1128827508","0.2973761433","0.3936557204","","","","","","","","","","76","L","3","","","70","main_expt",""
"","bandit","150","467981","0.0-112.0-0.0","05758273","wem/bandit_party_1","A1J8TVICSRC70W","either","2","1845","","","","","","","0","0","1","","0.3949471057","0.4","0.2","0.6","0.8","0.1917576795","0.1184182172","0.2737706179","0.3949471057","","","","","","","","","","","","","","76","L","3","","","71","main_expt",""
"","bandit","151","472999","0.0-113.0-0.0","05758273","wem/bandit_party_1","A1J8TVICSRC70W","either","2","3506","","","","","","","1","0","0","0.3888869603","","0.4","0.2","0.6","0.8","","","","","0.1894079546","0.1038133506","0.3005227265","0.3888869603","","","","","","","","","","76","L","3","","","72","main_expt",""
"","bandit","152","475285","0.0-114.0-0.0","05758273","wem/bandit_party_1","A1J8TVICSRC70W","either","2","770","","","","","","","0","0","1","0.4015056825","","0.4","0.2","0.6","0.8","","","","","0.235909594","0.07830871569","0.3205676235","0.4015056825","","","","","","","","","","76","L","3","","","73","main_expt",""
"","bandit","153","489489","0.0-115.0-0.0","05758273","wem/bandit_party_1","A1J8TVICSRC70W","either","2","12691","","","","","","","0","1","0","","0.3040473008","0.4","0.2","0.6","0.8","0.2772030277","0.09226686474","0.3040473008","0.4200542591","","","","","","","","","","","","","","75","K","2","","","74","main_expt",""
"","bandit","154","491264","0.0-116.0-0.0","05758273","wem/bandit_party_1","A1J8TVICSRC70W","either","2","262","","","","","","","0","0","1","0.2686744794","","0.4","0.2","0.6","0.8","","","","","0.2237268092","0.07948082514","0.2686744794","0.4353174817","","","","","","","","","","75","K","2","","","75","main_expt",""
"","bandit","155","492805","0.0-117.0-0.0","05758273","wem/bandit_party_1","A1J8TVICSRC70W","either","2","27","","","","","","","1","0","0","0.4196821318","","0.4","0.2","0.6","0.8","","","","","0.1739375455","0.1279570505","0.258707356","0.4196821318","","","","","","","","","","76","L","3","","","76","main_expt",""
"","bandit","156","494825","0.0-118.0-0.0","05758273","wem/bandit_party_1","A1J8TVICSRC70W","either","2","507","","","","","","","0","0","1","0.3787369199","","0.4","0.2","0.6","0.8","","","","","0.1648796623","0.1202820049","0.3010070056","0.3787369199","","","","","","","","","","76","L","3","","","77","main_expt",""
"","bandit","157","496399","0.0-119.0-0.0","05758273","wem/bandit_party_1","A1J8TVICSRC70W","either","2","62","","","","","","","0","0","1","0.4314930014","","0.4","0.2","0.6","0.8","","","","","0.1637798684","0.1054071572","0.2648586626","0.4314930014","","","","","","","","","","76","L","3","","","78","main_expt",""
"","bandit","158","503469","0.0-120.0-0.0","05758273","wem/bandit_party_1","A1J8TVICSRC70W","either","2","5556","","","","","","","0","0","1","0.4155078174","","0.4","0.2","0.6","0.8","","","","","0.1490076182","0.1403095361","0.1984114041","0.4155078174","","","","","","","","","","76","L","3","","","79","main_expt",""
"","bandit","159","507247","0.0-121.0-0.0","05758273","wem/bandit_party_1","A1J8TVICSRC70W","either","2","2262","","","","","","","0","0","1","0.4226243671","","0.4","0.2","0.6","0.8","","","","","0.1093198388","0.1891235553","0.180325551","0.4226243671","","","","","","","","","","76","L","3","","","80","main_expt",""
"","bandit","160","538936","0.0-122.0-0.0","05758273","wem/bandit_party_1","A1J8TVICSRC70W","either","2","30173","","","","","","","0","0","1","0.224531153","","0.4","0.2","0.6","0.8","","","","","0.08868186825","0.1858030354","0.224531153","0.4474166549","","","","","","","","","","75","K","2","","","81","main_expt",""
"","bandit","161","540592","0.0-123.0-0.0","05758273","wem/bandit_party_1","A1J8TVICSRC70W","either","2","142","","","","","","","1","0","0","0.4636297045","","0.4","0.2","0.6","0.8","","","","","0.1073880826","0.2476542501","0.221125015","0.4636297045","","","","","","","","","","76","L","3","","","82","main_expt",""
"","bandit","162","542174","0.0-124.0-0.0","05758273","wem/bandit_party_1","A1J8TVICSRC70W","either","2","69","","","","","","","0","0","1","","0.467509749","0.4","0.2","0.6","0.8","0.1022587498","0.2188241074","0.2143237207","0.467509749","","","","","","","","","","","","","","76","L","3","","","83","main_expt",""
"","bandit","163","559862","0.0-125.0-0.0","05758273","wem/bandit_party_1","A1J8TVICSRC70W","either","2","16171","","","","","","","0","0","1","0.2097367537","","0.4","0.2","0.6","0.8","","","","","0.1085807699","0.2754771977","0.2097367537","0.4551111531","","","","","","","","","","75","K","2","","","84","main_expt",""
"","bandit","164","561724","0.0-126.0-0.0","05758273","wem/bandit_party_1","A1J8TVICSRC70W","either","2","348","","","","","","","1","0","0","0.4621419017","","0.4","0.2","0.6","0.8","","","","","0.1263918358","0.2965575968","0.1661536269","0.4621419017","","","","","","","","","","76","L","3","","","85","main_expt",""
"","bandit","165","563371","0.0-127.0-0.0","05758273","wem/bandit_party_1","A1J8TVICSRC70W","either","2","135","","","","","","","1","0","0","0.4612050897","","0.4","0.2","0.6","0.8","","","","","0.1481941301","0.257129161","0.1364458955","0.4612050897","","","","","","","","","","76","L","3","","","86","main_expt",""
"","bandit","166","565114","0.0-128.0-0.0","05758273","wem/bandit_party_1","A1J8TVICSRC70W","either","2","234","","","","","","","0","0","1","0.4334675206","","0.4","0.2","0.6","0.8","","","","","0.1447872846","0.2338967043","0.08235553135","0.4334675206","","","","","","","","","","76","L","3","","","87","main_expt",""
"","bandit","167","627150","0.0-129.0-0.0","05758273","wem/bandit_party_1","A1J8TVICSRC70W","either","2","60520","","","","","","","0","0","1","0.0754832669","","0.4","0.2","0.6","0.8","","","","","0.1391637727","0.2161535794","0.0754832669","0.4397617206","","","","","","","","","","75","K","2","","","88","main_expt",""
"","bandit","168","629152","0.0-130.0-0.0","05758273","wem/bandit_party_1","A1J8TVICSRC70W","either","2","489","","","","","","","0","0","1","0.4635478967","","0.4","0.2","0.6","0.8","","","","","0.1476089376","0.2043146745","0.109361408","0.4635478967","","","","","","","","","","76","L","3","","","89","main_expt",""
"","bandit","169","630814","0.0-131.0-0.0","05758273","wem/bandit_party_1","A1J8TVICSRC70W","either","2","149","","","","","","","0","0","1","0.2081489191","","0.4","0.2","0.6","0.8","","","","","0.2081489191","0.2346009907","0.07391079866","0.4234969579","","","","","","","","","","72","H","0","img/none_selected.jpg","","90","main_expt",""
"","bandit","170","632427","0.0-132.0-0.0","05758273","wem/bandit_party_1","A1J8TVICSRC70W","either","2","99","","","","","","","0","1","0","","0.2333967219","0.4","0.2","0.6","0.8","0.1834039029","0.2333967219","0.1164594673","0.4267507071","","","","","","","","","","","","","","74","J","1","","","91","main_expt",""
"","bandit","171","634114","0.0-133.0-0.0","05758273","wem/bandit_party_1","A1J8TVICSRC70W","either","2","172","","","","","","","0","1","0","","0.2150480475","0.4","0.2","0.6","0.8","0.2027314649","0.2150480475","0.113043345","0.4089505196","","","","","","","","","","","","","","74","J","1","","","92","main_expt",""
"","bandit","172","635758","0.0-134.0-0.0","05758273","wem/bandit_party_1","A1J8TVICSRC70W","either","2","124","","","","","","","0","1","0","","0.2588080464","0.4","0.2","0.6","0.8","0.1738894496","0.2588080464","0.1714352716","0.4112501448","","","","","","","","","","","","","","74","J","1","","","93","main_expt",""
"","bandit","173","637483","0.0-135.0-0.0","05758273","wem/bandit_party_1","A1J8TVICSRC70W","either","2","210","","","","","","","0","0","1","","0.2748849181","0.4","0.2","0.6","0.8","0.2484708832","0.2748849181","0.1253024032","0.452415855","","","","","","","","","","","","","","74","J","1","","","94","main_expt",""
"","bandit","174","639080","0.0-136.0-0.0","05758273","wem/bandit_party_1","A1J8TVICSRC70W","either","2","82","","","","","","","0","0","1","0.2791739054","","0.4","0.2","0.6","0.8","","","","","0.2914685715","0.2791739054","0.1401284447","0.4589197587","","","","","","","","","","74","J","1","","","95","main_expt",""
"","bandit","175","640677","0.0-137.0-0.0","05758273","wem/bandit_party_1","A1J8TVICSRC70W","either","2","88","","","","","","","0","1","0","","0.3149564315","0.4","0.2","0.6","0.8","0.2417524935","0.3149564315","0.1320491369","0.4481870348","","","","","","","","","","","","","","74","J","1","","","96","main_expt",""
"","bandit","176","642254","0.0-138.0-0.0","05758273","wem/bandit_party_1","A1J8TVICSRC70W","either","2","59","","","","","","","0","0","1","","0.372564007","0.4","0.2","0.6","0.8","0.2492821404","0.372564007","0.1518453759","0.4597072186","","","","","","","","","","","","","","74","J","1","","","97","main_expt",""
"","bandit","177","643825","0.0-139.0-0.0","05758273","wem/bandit_party_1","A1J8TVICSRC70W","either","2","55","","","","","","","1","0","0","0.393328365","","0.4","0.2","0.6","0.8","","","","","0.3002958449","0.393328365","0.2173959583","0.4705619112","","","","","","","","","","74","J","1","","","98","main_expt",""
"","bandit","178","645361","0.0-140.0-0.0","05758273","wem/bandit_party_1","A1J8TVICSRC70W","either","2","22","","","","","","","0","0","1","","0.421239771","0.4","0.2","0.6","0.8","0.3544832656","0.421239771","0.2618725657","0.4800968761","","","","","","","","","","","","","","74","J","1","","","99","main_expt",""
"","bandit","179","646891","0.0-141.0-0.0","05758273","wem/bandit_party_1","A1J8TVICSRC70W","either","2","11","","","","","","","0","0","1","0.4130759476","","0.4","0.2","0.6","0.8","","","","","0.3810954338","0.4130759476","0.2487788848","0.4780143146","","","","","","","","","","74","J","1","","","100","main_expt",""
"","bandit","180","648499","0.0-142.0-0.0","05758273","wem/bandit_party_1","A1J8TVICSRC70W","either","2","96","","","","","","","0","1","0","","0.4089462913","0.4","0.2","0.6","0.8","0.4042362267","0.4089462913","0.2890792313","0.4849002763","","","","","","","","","","","","","","74","J","1","","","101","main_expt",""
"","bandit","181","650735","0.0-143.0-0.0","05758273","wem/bandit_party_1","A1J8TVICSRC70W","either","2","722","","","","","","","0","1","0","","0.370330464","0.4","0.2","0.6","0.8","0.4594696392","0.370330464","0.3136369757","0.4886078379","","","","","","","","","","","","","","74","J","1","","","102","main_expt",""
"","bandit","182","652413","0.0-144.0-0.0","05758273","wem/bandit_party_1","A1J8TVICSRC70W","either","2","162","","","","","","","0","0","1","","0.3306315663","0.4","0.2","0.6","0.8","0.4588766667","0.3306315663","0.2364671533","0.47121906","","","","","","","","","","","","","","74","J","1","","","103","main_expt",""
"","bandit","183","654124","0.0-145.0-0.0","05758273","wem/bandit_party_1","A1J8TVICSRC70W","either","2","204","","","","","","","1","0","0","0.354634178","","0.4","0.2","0.6","0.8","","","","","0.4372785745","0.354634178","0.2202486688","0.4760763377","","","","","","","","","","74","J","1","","","104","main_expt",""
"","bandit","184","655749","0.0-146.0-0.0","05758273","wem/bandit_party_1","A1J8TVICSRC70W","either","2","111","","","","","","","0","0","1","","0.3896605338","0.4","0.2","0.6","0.8","0.4063887309","0.3896605338","0.1854418088","0.4701389446","","","","","","","","","","","","","","74","J","1","","","105","main_expt",""
"","bandit","185","657426","0.0-147.0-0.0","05758273","wem/bandit_party_1","A1J8TVICSRC70W","either","2","163","","","","","","","0","0","1","","0.414339711","0.4","0.2","0.6","0.8","0.3778019321","0.414339711","0.1596754559","0.471324938","","","","","","","","","","","","","","74","J","1","","","106","main_expt",""
"","bandit","186","693879","0.0-148.0-0.0","05758273","wem/bandit_party_1","A1J8TVICSRC70W","either","2","34939","","","","","","","0","0","1","","0.4164239898","0.4","0.2","0.6","0.8","0.3614143111","0.4164239898","0.137099288","0.4786694594","","","","","","","","","","","","","","74","J","1","","","107","main_expt",""
"","bandit","187","696008","0.0-149.0-0.0","05758273","wem/bandit_party_1","A1J8TVICSRC70W","either","2","620","","","","","","","0","0","1","","0.3681250399","0.4","0.2","0.6","0.8","0.3681250399","0.3836571442","0.1443984823","0.4810065258","","","","","","","","","","","","","","72","H","0","img/none_selected.jpg","","108","main_expt",""
"","bandit","188","697819","0.0-150.0-0.0","05758273","wem/bandit_party_1","A1J8TVICSRC70W","either","2","296","","","","","","","0","0","1","0.3446081275","","0.4","0.2","0.6","0.8","","","","","0.3446081275","0.3881214568","0.1409511773","0.4816764674","","","","","","","","","","72","H","0","img/none_selected.jpg","","109","main_expt",""
"","bandit","189","699587","0.0-151.0-0.0","05758273","wem/bandit_party_1","A1J8TVICSRC70W","either","2","254","","","","","","","0","1","0","","0.4266873791","0.4","0.2","0.6","0.8","0.3681270965","0.4266873791","0.1787750665","0.4882082215","","","","","","","","","","","","","","74","J","1","","","110","main_expt",""
"","bandit","190","701164","0.0-152.0-0.0","05758273","wem/bandit_party_1","A1J8TVICSRC70W","either","2","59","","","","","","","0","0","1","0.4475699482","","0.4","0.2","0.6","0.8","","","","","0.391379093","0.4475699482","0.1862786225","0.478642168","","","","","","","","","","74","J","1","","","111","main_expt",""
"","bandit","191","702688","0.0-153.0-0.0","05758273","wem/bandit_party_1","A1J8TVICSRC70W","either","2","8","","","","","","","0","0","1","0.4190314983","","0.4","0.2","0.6","0.8","","","","","0.4131544452","0.4190314983","0.1654620982","0.4841415165","","","","","","","","","","74","J","1","","","112","main_expt",""
"","bandit","192","704235","0.0-154.0-0.0","05758273","wem/bandit_party_1","A1J8TVICSRC70W","either","2","32","","","","","","","0","0","1","","0.3666128881","0.4","0.2","0.6","0.8","0.3963985948","0.3666128881","0.1582981878","0.4883212127","","","","","","","","","","","","","","74","J","1","","","113","main_expt",""
"","bandit","193","705806","0.0-155.0-0.0","05758273","wem/bandit_party_1","A1J8TVICSRC70W","either","2","56","","","","","","","0","0","1","0.3866259854","","0.4","0.2","0.6","0.8","","","","","0.4117985871","0.3866259854","0.1922757069","0.4883790739","","","","","","","","","","74","J","1","","","114","main_expt",""
"","bandit","194","707590","0.0-156.0-0.0","05758273","wem/bandit_party_1","A1J8TVICSRC70W","either","2","268","","","","","","","0","1","0","","0.354161152","0.4","0.2","0.6","0.8","0.394381103","0.354161152","0.185618385","0.4902011966","","","","","","","","","","","","","","74","J","1","","","115","main_expt",""
"","bandit","195","709220","0.0-157.0-0.0","05758273","wem/bandit_party_1","A1J8TVICSRC70W","either","2","115","","","","","","","0","0","1","","0.3170745426","0.4","0.2","0.6","0.8","0.3762408663","0.3170745426","0.2057277395","0.4844723045","","","","","","","","","","","","","","74","J","1","","","116","main_expt",""
"","bandit","196","710885","0.0-158.0-0.0","05758273","wem/bandit_party_1","A1J8TVICSRC70W","either","2","148","","","","","","","0","1","0","","0.304536318","0.4","0.2","0.6","0.8","0.3823674378","0.304536318","0.2288411079","0.4895589844","","","","","","","","","","","","","","74","J","1","","","117","main_expt",""
"","bandit","197","713089","0.0-159.0-0.0","05758273","wem/bandit_party_1","A1J8TVICSRC70W","either","2","690","","","","","","","0","0","1","","0.3411026949","0.4","0.2","0.6","0.8","0.4050195855","0.3411026949","0.2207517482","0.4899729034","","","","","","","","","","","","","","74","J","1","","","118","main_expt",""
"","bandit","198","715223","0.0-160.0-0.0","05758273","wem/bandit_party_1","A1J8TVICSRC70W","either","2","625","","","","","","","0","0","1","","0.3447942488","0.4","0.2","0.6","0.8","0.4227562767","0.3447942488","0.1955286499","0.4947041593","","","","","","","","","","","","","","74","J","1","","","119","main_expt",""
"","bandit","199","718796","0.0-161.0-0.0","05758273","wem/bandit_party_1","A1J8TVICSRC70W","either","2","2059","","","","","","","0","0","1","","0.3686185352","0.4","0.2","0.6","0.8","0.4163810796","0.3686185352","0.2427950695","0.4916865355","","","","","","","","","","","","","","74","J","1","","","120","main_expt",""
"","bandit","200","720957","0.0-162.0-0.0","05758273","wem/bandit_party_1","A1J8TVICSRC70W","either","2","646","","","","","","","0","0","1","","0.3547669752","0.4","0.2","0.6","0.8","0.406821829","0.3547669752","0.2479682904","0.4860386064","","","","","","","","","","","","","","74","J","1","","","121","main_expt",""
"","bandit","201","722494","0.0-163.0-0.0","05758273","wem/bandit_party_1","A1J8TVICSRC70W","either","2","23","","","","","","","0","0","1","","0.365994073","0.4","0.2","0.6","0.8","0.3999449125","0.365994073","0.3081985406","0.483083859","","","","","","","","","","","","","","74","J","1","","","122","main_expt",""
"","bandit","202","724304","0.0-164.0-0.0","05758273","wem/bandit_party_1","A1J8TVICSRC70W","either","2","294","","","","","","","0","0","1","","0.3120596142","0.4","0.2","0.6","0.8","0.366626489","0.3120596142","0.3089359708","0.4791491275","","","","","","","","","","","","","","74","J","1","","","123","main_expt",""
"","bandit","203","726162","0.0-165.0-0.0","05758273","wem/bandit_party_1","A1J8TVICSRC70W","either","2","336","","","","","","","1","0","0","0.302161917","","0.4","0.2","0.6","0.8","","","","","0.3706278578","0.302161917","0.3298338218","0.4776777384","","","","","","","","","","74","J","1","","","124","main_expt",""
"","bandit","204","727957","0.0-166.0-0.0","05758273","wem/bandit_party_1","A1J8TVICSRC70W","either","2","279","","","","","","","0","0","1","0.2795250441","","0.4","0.2","0.6","0.8","","","","","0.3545504723","0.2794370347","0.2795250441","0.478983255","","","","","","","","","","75","K","2","","","125","main_expt",""
"","bandit","205","729565","0.0-167.0-0.0","05758273","wem/bandit_party_1","A1J8TVICSRC70W","either","2","94","","","","","","","0","1","0","","0.4724726719","0.4","0.2","0.6","0.8","0.3106298006","0.2466154908","0.2184127205","0.4724726719","","","","","","","","","","","","","","76","L","3","","","126","main_expt",""
"","bandit","206","731372","0.0-168.0-0.0","05758273","wem/bandit_party_1","A1J8TVICSRC70W","either","2","293","","","","","","","0","0","1","0.4796244369","","0.4","0.2","0.6","0.8","","","","","0.3351405197","0.2712823261","0.2488858907","0.4796244369","","","","","","","","","","76","L","3","","","127","main_expt",""
"","bandit","207","732984","0.0-169.0-0.0","05758273","wem/bandit_party_1","A1J8TVICSRC70W","either","2","103","","","","","","","0","0","1","","0.2095517986","0.4","0.2","0.6","0.8","0.2984422464","0.2095517986","0.2850827173","0.4825212971","","","","","","","","","","","","","","74","J","1","","","128","main_expt",""
"","bandit","208","734540","0.0-170.0-0.0","05758273","wem/bandit_party_1","A1J8TVICSRC70W","either","2","41","","","","","","","0","0","1","","0.1986866195","0.4","0.2","0.6","0.8","0.2027892291","0.1986866195","0.2867242009","0.4877535013","","","","","","","","","","","","","","74","J","1","","","129","main_expt",""
"","bandit","209","736314","0.0-171.0-0.0","05758273","wem/bandit_party_1","A1J8TVICSRC70W","either","2","258","","","","","","","0","0","1","0.4833646461","","0.4","0.2","0.6","0.8","","","","","0.13768179","0.172959111","0.2509552002","0.4833646461","","","","","","","","","","76","L","3","","","130","main_expt",""
"","bandit","210","737937","0.0-172.0-0.0","05758273","wem/bandit_party_1","A1J8TVICSRC70W","either","2","104","","","","","","","0","1","0","","0.4790990265","0.4","0.2","0.6","0.8","0.1352832961","0.163172462","0.2172434631","0.4790990265","","","","","","","","","","","","","","76","L","3","","","131","main_expt",""
"","bandit","211","739615","0.0-173.0-0.0","05758273","wem/bandit_party_1","A1J8TVICSRC70W","either","2","161","","","","","","","0","0","1","0.4882311922","","0.4","0.2","0.6","0.8","","","","","0.08660982753","0.161148659","0.158295755","0.4882311922","","","","","","","","","","76","L","3","","","132","main_expt",""
"","bandit","212","741195","0.0-174.0-0.0","05758273","wem/bandit_party_1","A1J8TVICSRC70W","either","2","65","","","","","","","1","0","0","0.4889625365","","0.4","0.2","0.6","0.8","","","","","0.1020907376","0.1735641072","0.185310911","0.4889625365","","","","","","","","","","76","L","3","","","133","main_expt",""
"","bandit","213","742791","0.0-175.0-0.0","05758273","wem/bandit_party_1","A1J8TVICSRC70W","either","2","82","","","","","","","0","0","1","0.4916783795","","0.4","0.2","0.6","0.8","","","","","0.1231499397","0.1597390633","0.1966535246","0.4916783795","","","","","","","","","","76","L","3","","","134","main_expt",""
"","bandit","214","744826","0.0-176.0-0.0","05758273","wem/bandit_party_1","A1J8TVICSRC70W","either","2","527","","","","","","","0","0","1","","0.1460070414","0.4","0.2","0.6","0.8","0.1524236556","0.1460070414","0.2290191974","0.4904315354","","","","","","","","","","","","","","74","J","1","","","135","main_expt",""
"","bandit","215","746911","0.0-177.0-0.0","05758273","wem/bandit_party_1","A1J8TVICSRC70W","either","2","568","","","","","","","0","0","1","0.1954247664","","0.4","0.2","0.6","0.8","","","","","0.1954247664","0.105474526","0.2929229053","0.491666595","","","","","","","","","","72","H","0","img/none_selected.jpg","","136","main_expt",""
"","bandit","216","748900","0.0-178.0-0.0","05758273","wem/bandit_party_1","A1J8TVICSRC70W","either","2","472","","","","","","","0","0","1","0.1833989084","","0.4","0.2","0.6","0.8","","","","","0.1833989084","0.08835118593","0.2780805385","0.4917142499","","","","","","","","","","72","H","0","img/none_selected.jpg","","137","main_expt",""
"","bandit","217","750475","0.0-179.0-0.0","05758273","wem/bandit_party_1","A1J8TVICSRC70W","either","2","59","","","","","","","0","0","1","","0.1490533902","0.4","0.2","0.6","0.8","0.1490533902","0.06418360449","0.217224157","0.4870170403","","","","","","","","","","","","","","72","H","0","img/none_selected.jpg","","138","main_expt",""
"","bandit","218","752034","0.0-180.0-0.0","05758273","wem/bandit_party_1","A1J8TVICSRC70W","either","2","44","","","","","","","0","0","1","","0.03554325754","0.4","0.2","0.6","0.8","0.1318817547","0.03554325754","0.2323391466","0.4834992155","","","","","","","","","","","","","","74","J","1","","","139","main_expt",""
"","bandit","219","753693","0.0-181.0-0.0","05758273","wem/bandit_party_1","A1J8TVICSRC70W","either","2","144","","","","","","","0","0","1","","0.04477370895","0.4","0.2","0.6","0.8","0.1877412345","0.04477370895","0.244475209","0.4927392517","","","","","","","","","","","","","","74","J","1","","","140","main_expt",""
"","bandit","220","755322","0.0-182.0-0.0","05758273","wem/bandit_party_1","A1J8TVICSRC70W","either","2","113","","","","","","","0","0","1","","0.03780119019","0.4","0.2","0.6","0.8","0.2363671377","0.03780119019","0.232604034","0.4872377518","","","","","","","","","","","","","","74","J","1","","","141","main_expt",""
"","bandit","221","757284","0.0-183.0-0.0","05758273","wem/bandit_party_1","A1J8TVICSRC70W","either","2","447","","","","","","","0","1","0","","0.2447345556","0.4","0.2","0.6","0.8","0.2546402356","0.03149913875","0.2447345556","0.4846254936","","","","","","","","","","","","","","75","K","2","","","142","main_expt",""
"","bandit","222","758984","0.0-184.0-0.0","05758273","wem/bandit_party_1","A1J8TVICSRC70W","either","2","183","","","","","","","0","0","1","","0.26413271","0.4","0.2","0.6","0.8","0.2825544685","0.04191513266","0.26413271","0.4815328815","","","","","","","","","","","","","","75","K","2","","","143","main_expt",""
"","bandit","223","760618","0.0-185.0-0.0","05758273","wem/bandit_party_1","A1J8TVICSRC70W","either","2","117","","","","","","","1","0","0","0.1988203511","","0.4","0.2","0.6","0.8","","","","","0.2731230023","0.05613120157","0.1988203511","0.4854048375","","","","","","","","","","75","K","2","","","144","main_expt",""
"","bandit","224","762348","0.0-186.0-0.0","05758273","wem/bandit_party_1","A1J8TVICSRC70W","either","2","212","","","","","","","0","0","1","","0.217822638","0.4","0.2","0.6","0.8","0.2943814715","0.03827589539","0.217822638","0.4813029389","","","","","","","","","","","","","","75","K","2","","","145","main_expt",""
"","bandit","225","763958","0.0-187.0-0.0","05758273","wem/bandit_party_1","A1J8TVICSRC70W","either","2","94","","","","","","","0","0","1","","0.2009042904","0.4","0.2","0.6","0.8","0.328634005","0.02861175853","0.2009042904","0.4884824202","","","","","","","","","","","","","","75","K","2","","","146","main_expt",""
"","bandit","226","765678","0.0-188.0-0.0","05758273","wem/bandit_party_1","A1J8TVICSRC70W","either","2","203","","","","","","","0","0","1","0.2080446297","","0.4","0.2","0.6","0.8","","","","","0.3511209141","0.02140640811","0.2080446297","0.4835291327","","","","","","","","","","75","K","2","","","147","main_expt",""
"","bandit","227","767240","0.0-189.0-0.0","05758273","wem/bandit_party_1","A1J8TVICSRC70W","either","2","45","","","","","","","0","0","1","0.1536700415","","0.4","0.2","0.6","0.8","","","","","0.3874996206","0.0202041473","0.1536700415","0.4716003481","","","","","","","","","","75","K","2","","","148","main_expt",""
"","bandit","228","768898","0.0-190.0-0.0","05758273","wem/bandit_party_1","A1J8TVICSRC70W","either","2","143","","","","","","","0","0","1","0.1593661633","","0.4","0.2","0.6","0.8","","","","","0.3476646045","0.01154190459","0.1593661633","0.4341886607","","","","","","","","","","75","K","2","","","149","main_expt",""
"","bandit","229","770600","0.0-191.0-0.0","05758273","wem/bandit_party_1","A1J8TVICSRC70W","either","2","186","","","","","","","0","0","1","0.4014438172","","0.4","0.2","0.6","0.8","","","","","0.3323010919","0.01291237021","0.144955896","0.4014438172","","","","","","","","","","76","L","3","","","150","main_expt",""
"","bandit","230","772229","0.0-192.0-0.0","05758273","wem/bandit_party_1","A1J8TVICSRC70W","either","2","112","","","","","","","0","0","1","","0.3980713407","0.4","0.2","0.6","0.8","0.3954477196","0.0137789916","0.2123564028","0.3980713407","","","","","","","","","","","","","","76","L","3","","","151","main_expt",""
"","bandit","231","774007","0.0-193.0-0.0","05758273","wem/bandit_party_1","A1J8TVICSRC70W","either","2","262","","","","","","","0","0","1","0.4002357887","","0.4","0.2","0.6","0.8","","","","","0.4186327087","0.01985271471","0.2301890466","0.4002357887","","","","","","","","","","76","L","3","","","152","main_expt",""
"","bandit","232","775681","0.0-194.0-0.0","05758273","wem/bandit_party_1","A1J8TVICSRC70W","either","2","158","","","","","","","1","0","0","0.4029566754","","0.4","0.2","0.6","0.8","","","","","0.4029566754","0.02951100453","0.2295153641","0.388677987","","","","","","","","","","72","H","0","img/none_selected.jpg","","153","main_expt",""
"","bandit","233","777413","0.0-195.0-0.0","05758273","wem/bandit_party_1","A1J8TVICSRC70W","either","2","218","","","","","","","0","0","1","","0.4037751878","0.4","0.2","0.6","0.8","0.4037751878","0.02325572033","0.2163321136","0.3817747688","","","","","","","","","","","","","","72","H","0","img/none_selected.jpg","","154","main_expt",""
"","bandit","234","779139","0.0-196.0-0.0","05758273","wem/bandit_party_1","A1J8TVICSRC70W","either","2","211","","","","","","","0","0","1","","0.4078727314","0.4","0.2","0.6","0.8","0.4078727314","0.03925092562","0.2257858177","0.327727533","","","","","","","","","","","","","","72","H","0","img/none_selected.jpg","","155","main_expt",""
"","bandit","235","780902","0.0-197.0-0.0","05758273","wem/bandit_party_1","A1J8TVICSRC70W","either","2","247","","","","","","","0","0","1","","0.3941681487","0.4","0.2","0.6","0.8","0.3941681487","0.05532081832","0.2077891775","0.2821504166","","","","","","","","","","","","","","72","H","0","img/none_selected.jpg","","156","main_expt",""
"","bandit","236","782475","0.0-198.0-0.0","05758273","wem/bandit_party_1","A1J8TVICSRC70W","either","2","56","","","","","","","0","0","1","","0.05983660039","0.4","0.2","0.6","0.8","0.3417147062","0.05983660039","0.1742908387","0.2784527126","","","","","","","","","","","","","","74","J","1","","","157","main_expt",""
"","bandit","237","784125","0.0-199.0-0.0","05758273","wem/bandit_party_1","A1J8TVICSRC70W","either","2","132","","","","","","","0","0","1","0.09347744845","","0.4","0.2","0.6","0.8","","","","","0.2963220618","0.09347744845","0.162057643","0.2857058734","","","","","","","","","","74","J","1","","","158","main_expt",""
"","bandit","238","785851","0.0-200.0-0.0","05758273","wem/bandit_party_1","A1J8TVICSRC70W","either","2","208","","","","","","","0","0","1","","0.09649648717","0.4","0.2","0.6","0.8","0.2961528309","0.09649648717","0.1805514511","0.2349295223","","","","","","","","","","","","","","74","J","1","","","159","main_expt",""
"","bandit","239","787414","0.0-201.0-0.0","05758273","wem/bandit_party_1","A1J8TVICSRC70W","either","2","45","","","","","","","0","0","1","0.1724629995","","0.4","0.2","0.6","0.8","","","","","0.2842772575","0.08382429791","0.1724629995","0.2275717407","","","","","","","","","","75","K","2","","","160","main_expt",""
"","bandit","240","789229","0.0-202.0-0.0","05758273","wem/bandit_party_1","A1J8TVICSRC70W","either","2","298","","","","","","","0","0","1","0.1660992999","","0.4","0.2","0.6","0.8","","","","","0.2747674873","0.1466352983","0.1660992999","0.2559884592","","","","","","","","","","75","K","2","","","161","main_expt",""
"","bandit","241","790962","0.0-203.0-0.0","05758273","wem/bandit_party_1","A1J8TVICSRC70W","either","2","217","","","","","","","0","0","1","0.2281832109","","0.4","0.2","0.6","0.8","","","","","0.2993190406","0.1569467617","0.2281832109","0.2670526618","","","","","","","","","","75","K","2","","","162","main_expt",""
"","bandit","242","792663","0.0-204.0-0.0","05758273","wem/bandit_party_1","A1J8TVICSRC70W","either","2","180","","","","","","","0","0","1","0.2618894379","","0.4","0.2","0.6","0.8","","","","","0.3102408377","0.1437935099","0.2144285545","0.2618894379","","","","","","","","","","76","L","3","","","163","main_expt",""
"","bandit","243","794287","0.0-205.0-0.0","05758273","wem/bandit_party_1","A1J8TVICSRC70W","either","2","100","","","","","","","0","0","1","0.2977476978","","0.4","0.2","0.6","0.8","","","","","0.2607878409","0.1503677763","0.2131293933","0.2977476978","","","","","","","","","","76","L","3","","","164","main_expt",""
"","bandit","244","795925","0.0-206.0-0.0","05758273","wem/bandit_party_1","A1J8TVICSRC70W","either","2","120","","","","","","","0","0","1","0.3138636066","","0.4","0.2","0.6","0.8","","","","","0.2470054868","0.1574825995","0.251698227","0.3138636066","","","","","","","","","","76","L","3","","","165","main_expt",""
"","bandit","245","798083","0.0-207.0-0.0","05758273","wem/bandit_party_1","A1J8TVICSRC70W","either","2","646","","","","","","","0","0","1","","0.2629624785","0.4","0.2","0.6","0.8","0.2629624785","0.1500633275","0.2831539445","0.3204338644","","","","","","","","","","","","","","72","H","0","img/none_selected.jpg","","166","main_expt",""
"","bandit","246","800074","0.0-208.0-0.0","05758273","wem/bandit_party_1","A1J8TVICSRC70W","either","2","474","","","","","","","1","0","0","0.2745713682","","0.4","0.2","0.6","0.8","","","","","0.2745713682","0.1137242654","0.2496169508","0.3600517585","","","","","","","","","","72","H","0","img/none_selected.jpg","","167","main_expt",""
"","bandit","247","801977","0.0-209.0-0.0","05758273","wem/bandit_party_1","A1J8TVICSRC70W","either","2","388","","","","","","","1","0","0","0.2557249153","","0.4","0.2","0.6","0.8","","","","","0.2557249153","0.145192941","0.2315540067","0.3678373827","","","","","","","","","","72","H","0","img/none_selected.jpg","","168","main_expt",""
"","bandit","248","803964","0.0-210.0-0.0","05758273","wem/bandit_party_1","A1J8TVICSRC70W","either","2","471","","","","","","","0","0","1","0.2016321063","","0.4","0.2","0.6","0.8","","","","","0.2016321063","0.1863479632","0.1825517174","0.3421512568","","","","","","","","","","72","H","0","img/none_selected.jpg","","169","main_expt",""
"","bandit","249","805871","0.0-211.0-0.0","05758273","wem/bandit_party_1","A1J8TVICSRC70W","either","2","388","","","","","","","0","0","1","","0.2210696627","0.4","0.2","0.6","0.8","0.2210696627","0.142304713","0.2535959064","0.3917895485","","","","","","","","","","","","","","72","H","0","img/none_selected.jpg","","170","main_expt",""
"","bandit","250","807783","0.0-212.0-0.0","05758273","wem/bandit_party_1","A1J8TVICSRC70W","either","2","396","","","","","","","0","0","1","0.1627904758","","0.4","0.2","0.6","0.8","","","","","0.1627904758","0.1739768979","0.3004284576","0.3206692194","","","","","","","","","","72","H","0","img/none_selected.jpg","","171","main_expt",""
"","bandit","251","809341","0.0-213.0-0.0","05758273","wem/bandit_party_1","A1J8TVICSRC70W","either","2","39","","","","","","","0","0","1","","0.1421076649","0.4","0.2","0.6","0.8","0.1421076649","0.2172659048","0.2716191145","0.3198600846","","","","","","","","","","","","","","72","H","0","img/none_selected.jpg","","172","main_expt",""
"","bandit","252","811106","0.0-214.0-0.0","05758273","wem/bandit_party_1","A1J8TVICSRC70W","either","2","256","","","","","","","0","0","1","","0.165050165","0.4","0.2","0.6","0.8","0.165050165","0.2419731025","0.3253138029","0.2641483633","","","","","","","","","","","","","","72","H","0","img/none_selected.jpg","","173","main_expt",""
"","bandit","253","812724","0.0-215.0-0.0","05758273","wem/bandit_party_1","A1J8TVICSRC70W","either","2","101","","","","","","","0","0","1","","0.2239571331","0.4","0.2","0.6","0.8","0.1406738207","0.2239571331","0.3419591401","0.2248062597","","","","","","","","","","","","","","74","J","1","","","174","main_expt",""
"","bandit","254","814506","0.0-216.0-0.0","05758273","wem/bandit_party_1","A1J8TVICSRC70W","either","2","264","","","","","","","0","0","1","","0.2311410243","0.4","0.2","0.6","0.8","0.138310495","0.2311410243","0.3442692367","0.2370379408","","","","","","","","","","","","","","74","J","1","","","175","main_expt",""
"","bandit","255","816308","0.0-217.0-0.0","05758273","wem/bandit_party_1","A1J8TVICSRC70W","either","2","283","","","","","","","0","0","1","0.2610077479","","0.4","0.2","0.6","0.8","","","","","0.1675243642","0.2610077479","0.3397266539","0.2157433706","","","","","","","","","","74","J","1","","","176","main_expt",""
"","bandit","256","817985","0.0-218.0-0.0","05758273","wem/bandit_party_1","A1J8TVICSRC70W","either","2","159","","","","","","","0","0","1","0.2997078274","","0.4","0.2","0.6","0.8","","","","","0.1919885971","0.2780938204","0.2997078274","0.2014791824","","","","","","","","","","75","K","2","","","177","main_expt",""
"","bandit","257","819818","0.0-219.0-0.0","05758273","wem/bandit_party_1","A1J8TVICSRC70W","either","2","311","","","","","","","0","0","1","","0.3064007527","0.4","0.2","0.6","0.8","0.2365392944","0.3151752793","0.3064007527","0.1913564418","","","","","","","","","","","","","","75","K","2","","","178","main_expt",""
"","bandit","258","821451","0.0-220.0-0.0","05758273","wem/bandit_party_1","A1J8TVICSRC70W","either","2","114","","","","","","","0","0","1","","0.3533432679","0.4","0.2","0.6","0.8","0.2509455726","0.2799621139","0.3533432679","0.1980728016","","","","","","","","","","","","","","75","K","2","","","179","main_expt",""
"","bandit","259","823220","0.0-221.0-0.0","05758273","wem/bandit_party_1","A1J8TVICSRC70W","either","2","252","","","","","","","1","0","0","0.1833491223","","0.4","0.2","0.6","0.8","","","","","0.2767223981","0.3170936092","0.3652522579","0.1833491223","","","","","","","","","","76","L","3","","","180","main_expt",""
"","bandit","260","825004","0.0-222.0-0.0","05758273","wem/bandit_party_1","A1J8TVICSRC70W","either","2","264","","","","","","","0","0","1","0.1342686697","","0.4","0.2","0.6","0.8","","","","","0.314600373","0.28101752","0.3383156657","0.1342686697","","","","","","","","","","76","L","3","","","181","main_expt",""
"","bandit","261","826882","0.0-223.0-0.0","05758273","wem/bandit_party_1","A1J8TVICSRC70W","either","2","359","","","","","","","0","0","1","","0.1636660304","0.4","0.2","0.6","0.8","0.3943610609","0.3043342224","0.2902116232","0.1636660304","","","","","","","","","","","","","","76","L","3","","","182","main_expt",""
"","bandit","262","828824","0.0-224.0-0.0","05758273","wem/bandit_party_1","A1J8TVICSRC70W","either","2","423","","","","","","","0","0","1","0.136761637","","0.4","0.2","0.6","0.8","","","","","0.3586422101","0.3192524042","0.3026157476","0.136761637","","","","","","","","","","76","L","3","","","183","main_expt",""
"","bandit","263","830398","0.0-225.0-0.0","05758273","wem/bandit_party_1","A1J8TVICSRC70W","either","2","56","","","","","","","1","0","0","0.3879999062","","0.4","0.2","0.6","0.8","","","","","0.3879999062","0.3332516821","0.3360229169","0.1685989701","","","","","","","","","","72","H","0","img/none_selected.jpg","","184","main_expt",""
"","bandit","264","832135","0.0-226.0-0.0","05758273","wem/bandit_party_1","A1J8TVICSRC70W","either","2","218","","","","","","","1","0","0","0.3831340227","","0.4","0.2","0.6","0.8","","","","","0.3831340227","0.3228184693","0.3336456265","0.1663529744","","","","","","","","","","72","H","0","img/none_selected.jpg","","185","main_expt",""
"","bandit","265","833919","0.0-227.0-0.0","05758273","wem/bandit_party_1","A1J8TVICSRC70W","either","2","267","","","","","","","1","0","0","0.3999004662","","0.4","0.2","0.6","0.8","","","","","0.3999004662","0.3111703144","0.3308881938","0.1916836285","","","","","","","","","","72","H","0","img/none_selected.jpg","","186","main_expt",""
"","bandit","266","835654","0.0-228.0-0.0","05758273","wem/bandit_party_1","A1J8TVICSRC70W","either","2","216","","","","","","","0","0","1","0.3875363153","","0.4","0.2","0.6","0.8","","","","","0.3875363153","0.3353611299","0.325530054","0.1686829448","","","","","","","","","","72","H","0","img/none_selected.jpg","","187","main_expt",""
"","bandit","267","837364","0.0-229.0-0.0","05758273","wem/bandit_party_1","A1J8TVICSRC70W","either","2","192","","","","","","","0","1","0","","0.3875691392","0.4","0.2","0.6","0.8","0.3875691392","0.3646937268","0.3055482451","0.1461675531","","","","","","","","","","","","","","72","H","0","img/none_selected.jpg","","188","main_expt",""
"","bandit","268","839180","0.0-230.0-0.0","05758273","wem/bandit_party_1","A1J8TVICSRC70W","either","2","307","","","","","","","0","0","1","0.4166866882","","0.4","0.2","0.6","0.8","","","","","0.4166866882","0.3891323825","0.3002345065","0.1382971047","","","","","","","","","","72","H","0","img/none_selected.jpg","","189","main_expt",""
"","bandit","269","840814","0.0-231.0-0.0","05758273","wem/bandit_party_1","A1J8TVICSRC70W","either","2","115","","","","","","","0","0","1","","0.4124474499","0.4","0.2","0.6","0.8","0.4124474499","0.3860741766","0.2693931213","0.1898135375","","","","","","","","","","","","","","72","H","0","img/none_selected.jpg","","190","main_expt",""
"","bandit","270","842476","0.0-232.0-0.0","05758273","wem/bandit_party_1","A1J8TVICSRC70W","either","2","144","","","","","","","0","0","1","0.3638199534","","0.4","0.2","0.6","0.8","","","","","0.3638199534","0.3864243721","0.3009284261","0.1264917812","","","","","","","","","","72","H","0","img/none_selected.jpg","","191","main_expt",""
"","bandit","271","844248","0.0-233.0-0.0","05758273","wem/bandit_party_1","A1J8TVICSRC70W","either","2","255","","","","","","","0","1","0","","0.400448014","0.4","0.2","0.6","0.8","0.3711146034","0.400448014","0.3157917784","0.1185409567","","","","","","","","","","","","","","74","J","1","","","192","main_expt",""
"","bandit","272","845918","0.0-234.0-0.0","05758273","wem/bandit_party_1","A1J8TVICSRC70W","either","2","150","","","","","","","0","0","1","","0.3895367297","0.4","0.2","0.6","0.8","0.3654165885","0.3895367297","0.2999212614","0.09837948322","","","","","","","","","","","","","","74","J","1","","","193","main_expt",""
"","bandit","273","847528","0.0-235.0-0.0","05758273","wem/bandit_party_1","A1J8TVICSRC70W","either","2","91","","","","","","","0","0","1","0.4032313792","","0.4","0.2","0.6","0.8","","","","","0.3537818584","0.4032313792","0.3287494418","0.137690802","","","","","","","","","","74","J","1","","","194","main_expt",""
"","bandit","274","849292","0.0-236.0-0.0","05758273","wem/bandit_party_1","A1J8TVICSRC70W","either","2","241","","","","","","","0","1","0","","0.337234763","0.4","0.2","0.6","0.8","0.3597494918","0.337234763","0.3031978913","0.1683354775","","","","","","","","","","","","","","74","J","1","","","195","main_expt",""
"","bandit","275","850935","0.0-237.0-0.0","05758273","wem/bandit_party_1","A1J8TVICSRC70W","either","2","122","","","","","","","0","1","0","","0.3950764453","0.4","0.2","0.6","0.8","0.3479121901","0.3950764453","0.2901303692","0.1561951964","","","","","","","","","","","","","","74","J","1","","","196","main_expt",""
"","bandit","276","852700","0.0-238.0-0.0","05758273","wem/bandit_party_1","A1J8TVICSRC70W","either","2","246","","","","","","","0","0","1","0.4193743727","","0.4","0.2","0.6","0.8","","","","","0.3596292454","0.4193743727","0.2444781728","0.1329868482","","","","","","","","","","74","J","1","","","197","main_expt",""
"","bandit","277","854528","0.0-239.0-0.0","05758273","wem/bandit_party_1","A1J8TVICSRC70W","either","2","309","","","","","","","1","0","0","0.4375347816","","0.4","0.2","0.6","0.8","","","","","0.3555371828","0.4375347816","0.2140047665","0.1730826789","","","","","","","","","","74","J","1","","","198","main_expt",""
"","bandit","278","856242","0.0-240.0-0.0","05758273","wem/bandit_party_1","A1J8TVICSRC70W","either","2","195","","","","","","","0","1","0","","0.4315030007","0.4","0.2","0.6","0.8","0.4016486285","0.4315030007","0.2077842613","0.1385649096","","","","","","","","","","","","","","74","J","1","","","199","main_expt",""
"","bandit","279","858585","0.0-241.0-0.0","05758273","wem/bandit_party_1","A1J8TVICSRC70W","either","2","823","","","","","","","0","1","0","","0.4340108373","0.4","0.2","0.6","0.8","0.3871107612","0.4340108373","0.180488049","0.1941139053","","","","","","","","","","","","","","74","J","1","","","200","main_expt",""
"","bandit","280","860360","0.0-242.0-0.0","05758273","wem/bandit_party_1","A1J8TVICSRC70W","either","2","258","","","","","","","0","0","1","","0.441078118","0.4","0.2","0.6","0.8","0.3856539452","0.441078118","0.2084987087","0.1825013029","","","","","","","","","","","","","","74","J","1","","","201","main_expt",""
"","bandit","281","862587","0.0-243.0-0.0","05758273","wem/bandit_party_1","A1J8TVICSRC70W","either","2","712","","","","","","","0","0","1","","0.4143682719","0.4","0.2","0.6","0.8","0.358588673","0.4143682719","0.1869669721","0.162440572","","","","","","","","","","","","","","74","J","1","","","202","main_expt",""
"","bandit","282","864258","0.0-244.0-0.0","05758273","wem/bandit_party_1","A1J8TVICSRC70W","either","2","153","","","","","","","0","0","1","","0.4280720422","0.4","0.2","0.6","0.8","0.3460881607","0.4280720422","0.1383076553","0.1914238456","","","","","","","","","","","","","","74","J","1","","","203","main_expt",""
"","bandit","283","866089","0.0-245.0-0.0","05758273","wem/bandit_party_1","A1J8TVICSRC70W","either","2","313","","","","","","","1","0","0","0.4113524858","","0.4","0.2","0.6","0.8","","","","","0.3091432968","0.4113524858","0.1656187697","0.1849793247","","","","","","","","","","74","J","1","","","204","main_expt",""
"","bandit","284","867863","0.0-246.0-0.0","05758273","wem/bandit_party_1","A1J8TVICSRC70W","either","2","256","","","","","","","0","1","0","","0.4151465815","0.4","0.2","0.6","0.8","0.3016396897","0.4151465815","0.1699285253","0.1722293799","","","","","","","","","","","","","","74","J","1","","","205","main_expt",""
"","bandit","285","869487","0.0-247.0-0.0","05758273","wem/bandit_party_1","A1J8TVICSRC70W","either","2","105","","","","","","","0","1","0","","0.4002359997","0.4","0.2","0.6","0.8","0.3300702997","0.4002359997","0.161732949","0.1625694713","","","","","","","","","","","","","","74","J","1","","","206","main_expt",""
"","bandit","286","871287","0.0-248.0-0.0","05758273","wem/bandit_party_1","A1J8TVICSRC70W","either","2","281","","","","","","","0","1","0","","0.3692387261","0.4","0.2","0.6","0.8","0.2648848683","0.3692387261","0.1699017951","0.1079769143","","","","","","","","","","","","","","74","J","1","","","207","main_expt",""
"","bandit","287","873068","0.0-249.0-0.0","05758273","wem/bandit_party_1","A1J8TVICSRC70W","either","2","258","","","","","","","0","0","1","","0.3283471685","0.4","0.2","0.6","0.8","0.2502792914","0.3283471685","0.1592107695","0.1380178959","","","","","","","","","","","","","","74","J","1","","","208","main_expt",""
"","bandit","288","875074","0.0-250.0-0.0","05758273","wem/bandit_party_1","A1J8TVICSRC70W","either","2","481","","","","","","","0","0","1","","0.2924758898","0.4","0.2","0.6","0.8","0.2770073026","0.2924758898","0.1659907122","0.1538506734","","","","","","","","","","","","","","74","J","1","","","209","main_expt",""
"","bandit","289","876848","0.0-251.0-0.0","05758273","wem/bandit_party_1","A1J8TVICSRC70W","either","2","257","","","","","","","0","0","1","0.2279470939","","0.4","0.2","0.6","0.8","","","","","0.3451435735","0.2279470939","0.229525517","0.1406222791","","","","","","","","","","74","J","1","","","210","main_expt",""
"","bandit","290","878555","0.0-252.0-0.0","05758273","wem/bandit_party_1","A1J8TVICSRC70W","either","2","188","","","","","","","0","0","1","0.2434605193","","0.4","0.2","0.6","0.8","","","","","0.3514478275","0.2131844406","0.2434605193","0.08987887408","","","","","","","","","","75","K","2","","","211","main_expt",""
"","bandit","291","880279","0.0-253.0-0.0","05758273","wem/bandit_party_1","A1J8TVICSRC70W","either","2","205","","","","","","","0","1","0","","0.1633214123","0.4","0.2","0.6","0.8","0.3579324364","0.1601793481","0.1633214123","0.1277875359","","","","","","","","","","","","","","75","K","2","","","212","main_expt",""
"","bandit","292","882053","0.0-254.0-0.0","05758273","wem/bandit_party_1","A1J8TVICSRC70W","either","2","254","","","","","","","0","0","1","","0.1014835246","0.4","0.2","0.6","0.8","0.3231243524","0.1354109392","0.1014835246","0.134271297","","","","","","","","","","","","","","75","K","2","","","213","main_expt",""
"","bandit","293","883813","0.0-255.0-0.0","05758273","wem/bandit_party_1","A1J8TVICSRC70W","either","2","242","","","","","","","0","0","1","","0.09587264096","0.4","0.2","0.6","0.8","0.2798540136","0.1142105534","0.09587264096","0.1385204111","","","","","","","","","","","","","","75","K","2","","","214","main_expt",""
"","bandit","294","885594","0.0-256.0-0.0","05758273","wem/bandit_party_1","A1J8TVICSRC70W","either","2","261","","","","","","","0","0","1","0.08342689115","","0.4","0.2","0.6","0.8","","","","","0.2469391402","0.1031311673","0.08342689115","0.1089132689","","","","","","","","","","75","K","2","","","215","main_expt",""
"","bandit","295","887413","0.0-257.0-0.0","05758273","wem/bandit_party_1","A1J8TVICSRC70W","either","2","300","","","","","","","0","0","1","","0.05361264496","0.4","0.2","0.6","0.8","0.3211823944","0.1031732366","0.05361264496","0.1299508563","","","","","","","","","","","","","","75","K","2","","","216","main_expt",""
"","bandit","296","888934","0.0-258.0-0.0","05758273","wem/bandit_party_1","A1J8TVICSRC70W","either","2","1","","","","","","","0","0","1","0.09912420903","","0.4","0.2","0.6","0.8","","","","","0.3545519007","0.1188097379","0.09912420903","0.131109262","","","","","","","","","","75","K","2","","","217","main_expt",""
"","bandit","297","890715","0.0-259.0-0.0","05758273","wem/bandit_party_1","A1J8TVICSRC70W","either","2","260","","","","","","","0","0","1","","0.1039495344","0.4","0.2","0.6","0.8","0.3781539282","0.1096623481","0.1021137889","0.1039495344","","","","","","","","","","","","","","76","L","3","","","218","main_expt",""
"","bandit","298","892376","0.0-260.0-0.0","05758273","wem/bandit_party_1","A1J8TVICSRC70W","either","2","141","","","","","","","0","0","1","0.09488552944","","0.4","0.2","0.6","0.8","","","","","0.3674409598","0.08679630722","0.1025207236","0.09488552944","","","","","","","","","","76","L","3","","","219","main_expt",""
"","bandit","299","894324","0.0-261.0-0.0","05758273","wem/bandit_party_1","A1J8TVICSRC70W","either","2","433","","","","","","","0","0","1","0.1311925698","","0.4","0.2","0.6","0.8","","","","","0.315237632","0.1482089448","0.1049734862","0.1311925698","","","","","","","","","","76","L","3","","","220","main_expt",""
"","bandit","300","897008","0.0-262.0-0.0","05758273","wem/bandit_party_1","A1J8TVICSRC70W","either","2","1163","","","","","","","0","0","1","","0.08224132258","0.4","0.2","0.6","0.8","0.3572442142","0.217172314","0.08244295151","0.08224132258","","","","","","","","","","","","","","76","L","3","","","221","main_expt",""
"","bandit","301","898839","0.0-263.0-0.0","05758273","wem/bandit_party_1","A1J8TVICSRC70W","either","2","310","","","","","","","0","0","1","0.06870998364","","0.4","0.2","0.6","0.8","","","","","0.2796125419","0.2227738938","0.09815111748","0.06870998364","","","","","","","","","","76","L","3","","","222","main_expt",""
"","bandit","302","900914","0.0-264.0-0.0","05758273","wem/bandit_party_1","A1J8TVICSRC70W","either","2","555","","","","","","","0","0","1","","0.2265565182","0.4","0.2","0.6","0.8","0.2265565182","0.2768694491","0.09925351505","0.111762886","","","","","","","","","","","","","","72","H","0","img/none_selected.jpg","","223","main_expt",""
"","bandit","303","902865","0.0-265.0-0.0","05758273","wem/bandit_party_1","A1J8TVICSRC70W","either","2","427","","","","","","","0","0","1","0.1727872262","","0.4","0.2","0.6","0.8","","","","","0.1727872262","0.2895694018","0.07842644678","0.09652303785","","","","","","","","","","72","H","0","img/none_selected.jpg","","224","main_expt",""
"","bandit","304","904669","0.0-266.0-0.0","05758273","wem/bandit_party_1","A1J8TVICSRC70W","either","2","285","","","","","","","0","1","0","","0.1580797834","0.4","0.2","0.6","0.8","0.1580797834","0.3515154126","0.05284632075","0.09424892582","","","","","","","","","","","","","","72","H","0","img/none_selected.jpg","","225","main_expt",""
"","bandit","305","906576","0.0-267.0-0.0","05758273","wem/bandit_party_1","A1J8TVICSRC70W","either","2","388","","","","","","","0","0","1","","0.1206031336","0.4","0.2","0.6","0.8","0.1206031336","0.3960872924","0.06788221328","0.1094697254","","","","","","","","","","","","","","72","H","0","img/none_selected.jpg","","226","main_expt",""
"","bandit","306","908464","0.0-268.0-0.0","05758273","wem/bandit_party_1","A1J8TVICSRC70W","either","2","368","","","","","","","0","0","1","0.1218099769","","0.4","0.2","0.6","0.8","","","","","0.1218099769","0.3301105445","0.04226868229","0.1055794081","","","","","","","","","","72","H","0","img/none_selected.jpg","","227","main_expt",""
"","bandit","307","910485","0.0-269.0-0.0","05758273","wem/bandit_party_1","A1J8TVICSRC70W","either","2","501","","","","","","","0","0","1","","0.08458740206","0.4","0.2","0.6","0.8","0.08458740206","0.3679650562","0.06174471126","0.1210232629","","","","","","","","","","","","","","72","H","0","img/none_selected.jpg","","228","main_expt",""
"","bandit","308","913020","0.0-270.0-0.0","05758273","wem/bandit_party_1","A1J8TVICSRC70W","either","2","1015","","","","","","","0","0","1","0.06311990622","","0.4","0.2","0.6","0.8","","","","","0.06311990622","0.3413725311","0.06122033102","0.1249199002","","","","","","","","","","72","H","0","img/none_selected.jpg","","229","main_expt",""
"","bandit","309","914919","0.0-271.0-0.0","05758273","wem/bandit_party_1","A1J8TVICSRC70W","either","2","379","","","","","","","0","0","1","","0.04674316758","0.4","0.2","0.6","0.8","0.04674316758","0.3652503211","0.09369367087","0.1423167866","","","","","","","","","","","","","","72","H","0","img/none_selected.jpg","","230","main_expt",""
"","bandit","310","916645","0.0-272.0-0.0","05758273","wem/bandit_party_1","A1J8TVICSRC70W","either","2","205","","","","","","","0","0","1","","0.3774172636","0.4","0.2","0.6","0.8","0.06697327866","0.3774172636","0.1378364932","0.1441411413","","","","","","","","","","","","","","74","J","1","","","231","main_expt",""
"","bandit","311","918331","0.0-273.0-0.0","05758273","wem/bandit_party_1","A1J8TVICSRC70W","either","2","166","","","","","","","0","1","0","","0.3507397895","0.4","0.2","0.6","0.8","0.08617656909","0.3507397895","0.1138343256","0.1132866493","","","","","","","","","","","","","","74","J","1","","","232","main_expt",""
"","bandit","312","920115","0.0-274.0-0.0","05758273","wem/bandit_party_1","A1J8TVICSRC70W","either","2","263","","","","","","","1","0","0","0.3228668676","","0.4","0.2","0.6","0.8","","","","","0.08388286328","0.3228668676","0.1602674987","0.07587191469","","","","","","","","","","74","J","1","","","233","main_expt",""
"","bandit","313","921909","0.0-275.0-0.0","05758273","wem/bandit_party_1","A1J8TVICSRC70W","either","2","273","","","","","","","1","0","0","0.3219168209","","0.4","0.2","0.6","0.8","","","","","0.08303297831","0.3219168209","0.1399599793","0.08330376307","","","","","","","","","","74","J","1","","","234","main_expt",""
"","bandit","314","923704","0.0-276.0-0.0","05758273","wem/bandit_party_1","A1J8TVICSRC70W","either","2","275","","","","","","","0","0","1","","0.2907257894","0.4","0.2","0.6","0.8","0.08228619446","0.2907257894","0.1577883936","0.07960395758","","","","","","","","","","","","","","74","J","1","","","235","main_expt",""
"","bandit","315","925315","0.0-277.0-0.0","05758273","wem/bandit_party_1","A1J8TVICSRC70W","either","2","90","","","","","","","0","0","1","","0.2879125653","0.4","0.2","0.6","0.8","0.07856112713","0.2879125653","0.1206463377","0.06703487678","","","","","","","","","","","","","","74","J","1","","","236","main_expt",""
"","bandit","316","927523","0.0-278.0-0.0","05758273","wem/bandit_party_1","A1J8TVICSRC70W","either","2","688","","","","","","","0","0","1","","0.3055933028","0.4","0.2","0.6","0.8","0.09394336493","0.3055933028","0.1224948263","0.07970276757","","","","","","","","","","","","","","74","J","1","","","237","main_expt",""
