"consent","trial_type","trial_index","time_elapsed","internal_node_id","subjID","study","MID","cond","drift","rt","responses","button_pressed","key_press","like","value","connected","gems","bombs","no_reward","GemPrChosen","BombPrChosen","GainOverPainPr_0","GainOverPainPr_1","GainOverPainPr_2","GainOverPainPr_3","LosePr_0","LosePr_1","LosePr_2","LosePr_3","WinPr_0","WinPr_1","WinPr_2","WinPr_3","Q0","Q1","Q2","gender","age","ethnicity","label","expt_phase","target","respCharCode","respKey","respChoiceNum","respChoice","practice","trial_counter","trial_label","Q0_index"
"GDM/GDM_behavioral_consent_30min_online.html","consent","0","8185","0.0-0.0","06573332","wem/bandit_party_1","A11THU6UGG3THR","either","5","","","","","","","","","","","","","","","","","","","","","","","","","","","","","","","","","","","","","","","","",""
"","survey-text","1","13451","0.0-1.0","06573332","wem/bandit_party_1","A11THU6UGG3THR","either","5","4237","{""Q0"":""A11THU6UGG3THR""}","","","","","","","","","","","","","","","","","","","","","","","","","","","","","","","","","","","","","","",""
"","button-response","2","16791","0.0-2.0","06573332","wem/bandit_party_1","A11THU6UGG3THR","either","5","2322","","2","","","","","","","","","","","","","","","","","","","","","","","","","","","","","","","","","","","","","",""
"","text-replacement","3","26495","0.0-3.0","06573332","wem/bandit_party_1","A11THU6UGG3THR","either","5","8692","","","32","","","","","","","","","","","","","","","","","","","","","","","","","","","","","","","","","","","","",""
"","text-replacement","4","32944","0.0-4.0","06573332","wem/bandit_party_1","A11THU6UGG3THR","either","5","6438","","","32","","","","","","","","","","","","","","","","","","","","","","","","","","","","","","","","","","","","",""
"","text-replacement","5","42085","0.0-5.0-0.0","06573332","wem/bandit_party_1","A11THU6UGG3THR","either","5","9134","","","32","","","","","","","","","","","","","","","","","","","","","","","","","","","","","","","","","","","","",""
"","identification","6","51630","0.0-6.0-0.0","06573332","wem/bandit_party_1","A11THU6UGG3THR","either","5","9490","","","","0","0","1","","","","","","","","","","","","","","","","","","","","","","","","pre","identification_pre","the Democratic Party","","","","","","","",""
"","identification","7","69090","0.0-6.0-1.0","06573332","wem/bandit_party_1","A11THU6UGG3THR","either","5","16369","","","","0","0","0","","","","","","","","","","","","","","","","","","","","","","","","pre","identification_pre","the Republican party","","","","","","","",""
"","text-replacement","8","75577","0.0-7.0","06573332","wem/bandit_party_1","A11THU6UGG3THR","either","5","5472","","","32","","","","","","","","","","","","","","","","","","","","","","","","","","","","","","","","","","","","",""
"","text-replacement","9","79736","0.0-8.0","06573332","wem/bandit_party_1","A11THU6UGG3THR","either","5","4138","","","32","","","","","","","","","","","","","","","","","","","","","","","","","","","","","","","","","","","","",""
"","text-replacement","10","87531","0.0-9.0","06573332","wem/bandit_party_1","A11THU6UGG3THR","either","5","7779","","","32","","","","","","","","","","","","","","","","","","","","","","","","","","","","","","","","","","","","",""
"","text-replacement","11","90276","0.0-10.0","06573332","wem/bandit_party_1","A11THU6UGG3THR","either","5","2728","","","32","","","","","","","","","","","","","","","","","","","","","","","","","","","","","","","","","","","","",""
"","text-replacement","12","97332","0.0-11.0","06573332","wem/bandit_party_1","A11THU6UGG3THR","either","5","7044","","","32","","","","","","","","","","","","","","","","","","","","","","","","","","","","","","","","","","","","",""
"","bandit","13","100306","0.0-12.0-0.0","06573332","wem/bandit_party_1","A11THU6UGG3THR","either","5","1414","","","","","","","0","0","1","0","0","","","","","0","","","","0","","","","","","","","","","","","","74","J","0","img/none_selected_demo.jpg","true","0","",""
"","bandit","14","103103","0.0-13.0-0.0","06573332","wem/bandit_party_1","A11THU6UGG3THR","either","5","1252","","","","","","","0","0","1","0","0","","","","","0","","","","0","","","","","","","","","","","","","75","K","0","img/none_selected_demo.jpg","true","0","",""
"","text-replacement","15","109907","0.0-14.0","06573332","wem/bandit_party_1","A11THU6UGG3THR","either","5","6794","","","32","","","","","","","","","","","","","","","","","","","","","","","","","","","","","","","","","","","","",""
"","text-replacement","16","113841","0.0-15.0","06573332","wem/bandit_party_1","A11THU6UGG3THR","either","5","3925","","","32","","","","","","","","","","","","","","","","","","","","","","","","","","","","","","","","","","","","",""
"","text-replacement","17","119802","0.0-16.0","06573332","wem/bandit_party_1","A11THU6UGG3THR","either","5","5955","","","32","","","","","","","","","","","","","","","","","","","","","","","","","","","","","","","","","","","","",""
"","text-replacement","18","123338","0.0-17.0","06573332","wem/bandit_party_1","A11THU6UGG3THR","either","5","3528","","","32","","","","","","","","","","","","","","","","","","","","","","","","","","","","","","","","","","","","",""
"","bandit","19","125594","0.0-18.0-0.0","06573332","wem/bandit_party_1","A11THU6UGG3THR","either","5","716","","","","","","","0","0","1","","0.8","0.5","0.5","","","0.8","0.2","","","","","","","","","","","","","","","","74","J","0","img/none_selected_demo.jpg","true","0","80_20_practice",""
"","bandit","20","127546","0.0-18.0-1.0","06573332","wem/bandit_party_1","A11THU6UGG3THR","either","5","412","","","","","","","1","0","0","0.8","","0.5","0.5","","","","","","","0.8","0.2","","","","","","","","","","","","74","J","0","img/none_selected_demo.jpg","true","0","80_20_practice",""
"","bandit","21","129529","0.0-18.0-2.0","06573332","wem/bandit_party_1","A11THU6UGG3THR","either","5","454","","","","","","","1","0","0","0.8","","0.5","0.5","","","","","","","0.8","0.2","","","","","","","","","","","","74","J","0","img/none_selected_demo.jpg","true","0","80_20_practice",""
"","bandit","22","131505","0.0-18.0-3.0","06573332","wem/bandit_party_1","A11THU6UGG3THR","either","5","440","","","","","","","0","0","1","0.2","","0.5","0.5","","","","","","","0.8","0.2","","","","","","","","","","","","75","K","1","","true","0","80_20_practice",""
"","bandit","23","133463","0.0-18.0-4.0","06573332","wem/bandit_party_1","A11THU6UGG3THR","either","5","410","","","","","","","0","0","1","0.2","","0.5","0.5","","","","","","","0.8","0.2","","","","","","","","","","","","75","K","1","","true","0","80_20_practice",""
"","bandit","24","135325","0.0-18.0-5.0","06573332","wem/bandit_party_1","A11THU6UGG3THR","either","5","331","","","","","","","0","1","0","","0.2","0.5","0.5","","","0.8","0.2","","","","","","","","","","","","","","","","75","K","1","","true","0","80_20_practice",""
"","bandit","25","137266","0.0-18.0-6.0","06573332","wem/bandit_party_1","A11THU6UGG3THR","either","5","421","","","","","","","0","1","0","","0.8","0.5","0.5","","","0.8","0.2","","","","","","","","","","","","","","","","74","J","0","img/none_selected_demo.jpg","true","0","80_20_practice",""
"","bandit","26","139119","0.0-18.0-7.0","06573332","wem/bandit_party_1","A11THU6UGG3THR","either","5","318","","","","","","","1","0","0","0.8","","0.5","0.5","","","","","","","0.8","0.2","","","","","","","","","","","","74","J","0","img/none_selected_demo.jpg","true","0","80_20_practice",""
"","bandit","27","141017","0.0-18.0-8.0","06573332","wem/bandit_party_1","A11THU6UGG3THR","either","5","346","","","","","","","0","0","1","0.8","","0.5","0.5","","","","","","","0.8","0.2","","","","","","","","","","","","74","J","0","img/none_selected_demo.jpg","true","0","80_20_practice",""
"","bandit","28","142864","0.0-18.0-9.0","06573332","wem/bandit_party_1","A11THU6UGG3THR","either","5","306","","","","","","","1","0","0","0.8","","0.5","0.5","","","","","","","0.8","0.2","","","","","","","","","","","","74","J","0","img/none_selected_demo.jpg","true","0","80_20_practice",""
"","bandit","29","145010","0.0-18.0-10.0","06573332","wem/bandit_party_1","A11THU6UGG3THR","either","5","605","","","","","","","0","1","0","","0.8","0.5","0.5","","","0.8","0.2","","","","","","","","","","","","","","","","74","J","0","img/none_selected_demo.jpg","true","0","80_20_practice",""
"","bandit","30","146901","0.0-18.0-11.0","06573332","wem/bandit_party_1","A11THU6UGG3THR","either","5","348","","","","","","","0","1","0","","0.8","0.5","0.5","","","0.8","0.2","","","","","","","","","","","","","","","","74","J","0","img/none_selected_demo.jpg","true","0","80_20_practice",""
"","bandit","31","148799","0.0-18.0-12.0","06573332","wem/bandit_party_1","A11THU6UGG3THR","either","5","363","","","","","","","0","1","0","","0.8","0.5","0.5","","","0.8","0.2","","","","","","","","","","","","","","","","74","J","0","img/none_selected_demo.jpg","true","0","80_20_practice",""
"","bandit","32","150736","0.0-18.0-13.0","06573332","wem/bandit_party_1","A11THU6UGG3THR","either","5","372","","","","","","","1","0","0","0.8","","0.5","0.5","","","","","","","0.8","0.2","","","","","","","","","","","","74","J","0","img/none_selected_demo.jpg","true","0","80_20_practice",""
"","bandit","33","152673","0.0-18.0-14.0","06573332","wem/bandit_party_1","A11THU6UGG3THR","either","5","404","","","","","","","0","1","0","","0.8","0.5","0.5","","","0.8","0.2","","","","","","","","","","","","","","","","74","J","0","img/none_selected_demo.jpg","true","0","80_20_practice",""
"","bandit","34","154476","0.0-18.0-15.0","06573332","wem/bandit_party_1","A11THU6UGG3THR","either","5","269","","","","","","","0","1","0","","0.8","0.5","0.5","","","0.8","0.2","","","","","","","","","","","","","","","","74","J","0","img/none_selected_demo.jpg","true","0","80_20_practice",""
"","bandit","35","156367","0.0-18.0-16.0","06573332","wem/bandit_party_1","A11THU6UGG3THR","either","5","354","","","","","","","1","0","0","0.8","","0.5","0.5","","","","","","","0.8","0.2","","","","","","","","","","","","74","J","0","img/none_selected_demo.jpg","true","0","80_20_practice",""
"","bandit","36","158190","0.0-18.0-17.0","06573332","wem/bandit_party_1","A11THU6UGG3THR","either","5","289","","","","","","","1","0","0","0.8","","0.5","0.5","","","","","","","0.8","0.2","","","","","","","","","","","","74","J","0","img/none_selected_demo.jpg","true","0","80_20_practice",""
"","bandit","37","160052","0.0-18.0-18.0","06573332","wem/bandit_party_1","A11THU6UGG3THR","either","5","325","","","","","","","0","0","1","0.8","","0.5","0.5","","","","","","","0.8","0.2","","","","","","","","","","","","74","J","0","img/none_selected_demo.jpg","true","0","80_20_practice",""
"","bandit","38","163029","0.0-18.0-19.0","06573332","wem/bandit_party_1","A11THU6UGG3THR","either","5","1443","","","","","","","0","1","0","","0.8","0.5","0.5","","","0.8","0.2","","","","","","","","","","","","","","","","74","J","0","img/none_selected_demo.jpg","true","0","80_20_practice",""
"","text-replacement","39","165800","0.0-19.0","06573332","wem/bandit_party_1","A11THU6UGG3THR","either","5","2761","","","32","","","","","","","","","","","","","","","","","","","","","","","","","","","","","","","","","","","","",""
"","bandit","40","168292","0.0-20.0-0.0","06573332","wem/bandit_party_1","A11THU6UGG3THR","either","5","956","","","","","","","1","0","0","1","0","","","","","0","1","","","1","0","","","","","","","","","","","","74","J","0","img/none_selected_demo.jpg","true","0","",""
"","text-replacement","41","171528","0.0-21.0","06573332","wem/bandit_party_1","A11THU6UGG3THR","either","5","3224","","","32","","","","","","","","","","","","","","","","","","","","","","","","","","","","","","","","","","","","",""
"","text-replacement","42","173376","0.0-22.0","06573332","wem/bandit_party_1","A11THU6UGG3THR","either","5","1829","","","32","","","","","","","","","","","","","","","","","","","","","","","","","","","","","","","","","","","","",""
"","text-replacement","43","175056","0.0-23.0","06573332","wem/bandit_party_1","A11THU6UGG3THR","either","5","1668","","","32","","","","","","","","","","","","","","","","","","","","","","","","","","","","","","","","","","","","",""
"","text-replacement","44","177799","0.0-24.0","06573332","wem/bandit_party_1","A11THU6UGG3THR","either","5","2733","","","32","","","","","","","","","","","","","","","","","","","","","","","","","","","","","","","","","","","","",""
"","text-replacement","45","181127","0.0-25.0","06573332","wem/bandit_party_1","A11THU6UGG3THR","either","5","3317","","","32","","","","","","","","","","","","","","","","","","","","","","","","","","","","","","","","","","","","",""
"","text-replacement","46","184679","0.0-26.0","06573332","wem/bandit_party_1","A11THU6UGG3THR","either","5","3540","","","32","","","","","","","","","","","","","","","","","","","","","","","","","","","","","","","","","","","","",""
"","text-replacement","47","188351","0.0-27.0","06573332","wem/bandit_party_1","A11THU6UGG3THR","either","5","3655","","","32","","","","","","","","","","","","","","","","","","","","","","","","","","","","","","","","","","","","",""
"","text-replacement","48","193439","0.0-28.0","06573332","wem/bandit_party_1","A11THU6UGG3THR","either","5","5075","","","32","","","","","","","","","","","","","","","","","","","","","","","","","","","","","","","","","","","","",""
"","text-replacement","49","196686","0.0-29.0","06573332","wem/bandit_party_1","A11THU6UGG3THR","either","5","3237","","","32","","","","","","","","","","","","","","","","","","","","","","","","","","","","","","","","","","","","",""
"","text-replacement","50","198630","0.0-30.0","06573332","wem/bandit_party_1","A11THU6UGG3THR","either","5","1932","","","32","","","","","","","","","","","","","","","","","","","","","","","","","","","","","","","","","","","","",""
"","text-replacement","51","201542","0.0-31.0","06573332","wem/bandit_party_1","A11THU6UGG3THR","either","5","2901","","","32","","","","","","","","","","","","","","","","","","","","","","","","","","","","","","","","","","","","",""
"","bandit","52","203626","0.0-32.0-0.0","06573332","wem/bandit_party_1","A11THU6UGG3THR","either","5","548","","","","","","","0","0","1","","0.8","0.5","0.5","0.5","0.5","0.8","0.2","0.6","0.2","","","","","","","","","","","","","","72","H","0","img/none_selected.jpg","true","0","full_practice",""
"","bandit","53","205506","0.0-32.0-1.0","06573332","wem/bandit_party_1","A11THU6UGG3THR","either","5","347","","","","","","","0","1","0","","0.8","0.5","0.5","0.5","0.5","0.8","0.2","0.6","0.2","","","","","","","","","","","","","","72","H","0","img/none_selected.jpg","true","0","full_practice",""
"","bandit","54","207362","0.0-32.0-2.0","06573332","wem/bandit_party_1","A11THU6UGG3THR","either","5","310","","","","","","","0","1","0","","0.8","0.5","0.5","0.5","0.5","0.8","0.2","0.6","0.2","","","","","","","","","","","","","","72","H","0","img/none_selected.jpg","true","0","full_practice",""
"","bandit","55","209239","0.0-32.0-3.0","06573332","wem/bandit_party_1","A11THU6UGG3THR","either","5","338","","","","","","","0","0","1","","0.2","0.5","0.5","0.5","0.5","0.8","0.2","0.6","0.2","","","","","","","","","","","","","","74","J","1","","true","0","full_practice",""
"","bandit","56","211079","0.0-32.0-4.0","06573332","wem/bandit_party_1","A11THU6UGG3THR","either","5","307","","","","","","","0","1","0","","0.2","0.5","0.5","0.5","0.5","0.8","0.2","0.6","0.2","","","","","","","","","","","","","","74","J","1","","true","0","full_practice",""
"","bandit","57","212924","0.0-32.0-5.0","06573332","wem/bandit_party_1","A11THU6UGG3THR","either","5","296","","","","","","","0","0","1","","0.2","0.5","0.5","0.5","0.5","0.8","0.2","0.6","0.2","","","","","","","","","","","","","","74","J","1","","true","0","full_practice",""
"","bandit","58","214794","0.0-32.0-6.0","06573332","wem/bandit_party_1","A11THU6UGG3THR","either","5","314","","","","","","","0","0","1","","0.6","0.5","0.5","0.5","0.5","0.8","0.2","0.6","0.2","","","","","","","","","","","","","","75","K","2","","true","0","full_practice",""
"","bandit","59","216682","0.0-32.0-7.0","06573332","wem/bandit_party_1","A11THU6UGG3THR","either","5","347","","","","","","","0","0","1","0.6","","0.5","0.5","0.5","0.5","","","","","0.8","0.2","0.6","0.2","","","","","","","","","","75","K","2","","true","0","full_practice",""
"","bandit","60","218498","0.0-32.0-8.0","06573332","wem/bandit_party_1","A11THU6UGG3THR","either","5","279","","","","","","","0","0","1","0.6","","0.5","0.5","0.5","0.5","","","","","0.8","0.2","0.6","0.2","","","","","","","","","","75","K","2","","true","0","full_practice",""
"","bandit","61","220300","0.0-32.0-9.0","06573332","wem/bandit_party_1","A11THU6UGG3THR","either","5","275","","","","","","","0","0","1","","0.2","0.5","0.5","0.5","0.5","0.8","0.2","0.6","0.2","","","","","","","","","","","","","","76","L","3","","true","0","full_practice",""
"","bandit","62","222272","0.0-32.0-10.0","06573332","wem/bandit_party_1","A11THU6UGG3THR","either","5","434","","","","","","","0","0","1","0.2","","0.5","0.5","0.5","0.5","","","","","0.8","0.2","0.6","0.2","","","","","","","","","","76","L","3","","true","0","full_practice",""
"","bandit","63","224162","0.0-32.0-11.0","06573332","wem/bandit_party_1","A11THU6UGG3THR","either","5","352","","","","","","","0","0","1","0.2","","0.5","0.5","0.5","0.5","","","","","0.8","0.2","0.6","0.2","","","","","","","","","","76","L","3","","true","0","full_practice",""
"","bandit","64","226024","0.0-32.0-12.0","06573332","wem/bandit_party_1","A11THU6UGG3THR","either","5","328","","","","","","","0","1","0","","0.8","0.5","0.5","0.5","0.5","0.8","0.2","0.6","0.2","","","","","","","","","","","","","","72","H","0","img/none_selected.jpg","true","0","full_practice",""
"","bandit","65","227889","0.0-32.0-13.0","06573332","wem/bandit_party_1","A11THU6UGG3THR","either","5","329","","","","","","","1","0","0","0.8","","0.5","0.5","0.5","0.5","","","","","0.8","0.2","0.6","0.2","","","","","","","","","","72","H","0","img/none_selected.jpg","true","0","full_practice",""
"","bandit","66","229834","0.0-32.0-14.0","06573332","wem/bandit_party_1","A11THU6UGG3THR","either","5","407","","","","","","","0","1","0","","0.8","0.5","0.5","0.5","0.5","0.8","0.2","0.6","0.2","","","","","","","","","","","","","","72","H","0","img/none_selected.jpg","true","0","full_practice",""
"","bandit","67","231614","0.0-32.0-15.0","06573332","wem/bandit_party_1","A11THU6UGG3THR","either","5","247","","","","","","","0","1","0","","0.8","0.5","0.5","0.5","0.5","0.8","0.2","0.6","0.2","","","","","","","","","","","","","","72","H","0","img/none_selected.jpg","true","0","full_practice",""
"","bandit","68","233410","0.0-32.0-16.0","06573332","wem/bandit_party_1","A11THU6UGG3THR","either","5","260","","","","","","","0","0","1","","0.8","0.5","0.5","0.5","0.5","0.8","0.2","0.6","0.2","","","","","","","","","","","","","","72","H","0","img/none_selected.jpg","true","0","full_practice",""
"","bandit","69","235185","0.0-32.0-17.0","06573332","wem/bandit_party_1","A11THU6UGG3THR","either","5","233","","","","","","","0","1","0","","0.8","0.5","0.5","0.5","0.5","0.8","0.2","0.6","0.2","","","","","","","","","","","","","","72","H","0","img/none_selected.jpg","true","0","full_practice",""
"","bandit","70","237097","0.0-32.0-18.0","06573332","wem/bandit_party_1","A11THU6UGG3THR","either","5","375","","","","","","","1","0","0","0.8","","0.5","0.5","0.5","0.5","","","","","0.8","0.2","0.6","0.2","","","","","","","","","","72","H","0","img/none_selected.jpg","true","0","full_practice",""
"","bandit","71","238931","0.0-32.0-19.0","06573332","wem/bandit_party_1","A11THU6UGG3THR","either","5","294","","","","","","","0","0","1","","0.8","0.5","0.5","0.5","0.5","0.8","0.2","0.6","0.2","","","","","","","","","","","","","","72","H","0","img/none_selected.jpg","true","0","full_practice",""
"","text","72","241261","0.0-33.0","06573332","wem/bandit_party_1","A11THU6UGG3THR","either","5","2300","","","32","","","","","","","","","","","","","","","","","","","","","","","","","","","","","","","","","","","","",""
"","text-replacement","73","249493","0.0-34.0","06573332","wem/bandit_party_1","A11THU6UGG3THR","either","5","7215","","","32","","","","","","","","","","","","","","","","","","","","","","","","","","","","","","","","","","","","",""
"","text-replacement","74","256885","0.0-35.0","06573332","wem/bandit_party_1","A11THU6UGG3THR","either","5","7374","","","32","","","","","","","","","","","","","","","","","","","","","","","","","","","","","","","","","","","","",""
"","text-replacement","75","261868","0.0-36.0","06573332","wem/bandit_party_1","A11THU6UGG3THR","either","5","4965","","","32","","","","","","","","","","","","","","","","","","","","","","","","","","","","","","","","","","","","",""
"","text-replacement","76","267756","0.0-37.0","06573332","wem/bandit_party_1","A11THU6UGG3THR","either","5","5872","","","32","","","","","","","","","","","","","","","","","","","","","","","","","","","","","","","","","","","","",""
"","text-replacement","77","270836","0.0-38.0","06573332","wem/bandit_party_1","A11THU6UGG3THR","either","5","3063","","","32","","","","","","","","","","","","","","","","","","","","","","","","","","","","","","","","","","","","",""
"","survey-multi-choice-replacement","78","276805","0.0-39.0-0.0","06573332","wem/bandit_party_1","A11THU6UGG3THR","either","5","5924","","","","","","","","","","","","","","","","","","","","","","","","Money will be added to the pool for <span style='color:red;'>REPUBLICANS</span>","","","","","","","attn_check","","","","","","","","","0"
"","survey-multi-choice-replacement","79","281204","0.0-40.0-0.0","06573332","wem/bandit_party_1","A11THU6UGG3THR","either","5","3346","","","","","","","","","","","","","","","","","","","","","","","","Equal amounts of money will be added to the pool for <span style='color:red;'>REPUBLICANS</span> and subtracted from the pool for <span style='color:blue;'>DEMOCRATS</span>","","","","","","","attn_check","","","","","","","","","2"
"","survey-multi-choice-replacement","80","284587","0.0-41.0-0.0","06573332","wem/bandit_party_1","A11THU6UGG3THR","either","5","2331","","","","","","","","","","","","","","","","","","","","","","","","No money will be added to either pool","","","","","","","attn_check","","","","","","","","","3"
"","bandit","81","289025","0.0-42.0-0.0","06573332","wem/bandit_party_1","A11THU6UGG3THR","either","5","1909","","","","","","","0","0","1","0.3897275569","","0.6","0.4","0.8","0.2","","","","","0.3897275569","0.1165465043","0.3340388524","0.4265570961","","","","","","","","","","72","H","0","img/none_selected.jpg","","1","main_expt",""
"","bandit","82","291054","0.0-43.0-0.0","06573332","wem/bandit_party_1","A11THU6UGG3THR","either","5","501","","","","","","","0","0","1","0.08371899021","","0.6","0.4","0.8","0.2","","","","","0.3911966266","0.08371899021","0.3223834482","0.4177099958","","","","","","","","","","74","J","1","","","2","main_expt",""
"","bandit","83","292942","0.0-44.0-0.0","06573332","wem/bandit_party_1","A11THU6UGG3THR","either","5","307","","","","","","","1","0","0","0.3585509001","","0.6","0.4","0.8","0.2","","","","","0.4074861021","0.04339790364","0.3585509001","0.4192185534","","","","","","","","","","75","K","2","","","3","main_expt",""
"","bandit","84","294799","0.0-45.0-0.0","06573332","wem/bandit_party_1","A11THU6UGG3THR","either","5","311","","","","","","","0","0","1","0.3416436242","","0.6","0.4","0.8","0.2","","","","","0.3965638453","0.04073472785","0.3416436242","0.4241610434","","","","","","","","","","75","K","2","","","4","main_expt",""
"","bandit","85","296673","0.0-46.0-0.0","06573332","wem/bandit_party_1","A11THU6UGG3THR","either","5","333","","","","","","","0","0","1","0.4284837315","","0.6","0.4","0.8","0.2","","","","","0.3688269119","0.04731773769","0.3444758892","0.4284837315","","","","","","","","","","76","L","3","","","5","main_expt",""
"","bandit","86","298512","0.0-47.0-0.0","06573332","wem/bandit_party_1","A11THU6UGG3THR","either","5","304","","","","","","","0","0","1","0.3574177426","","0.6","0.4","0.8","0.2","","","","","0.3865867917","0.05617088868","0.3574177426","0.4328708062","","","","","","","","","","75","K","2","","","6","main_expt",""
"","bandit","87","300497","0.0-48.0-0.0","06573332","wem/bandit_party_1","A11THU6UGG3THR","either","5","441","","","","","","","0","0","1","0.05606577856","","0.6","0.4","0.8","0.2","","","","","0.4294719924","0.05606577856","0.3634052143","0.4176545671","","","","","","","","","","74","J","1","","","7","main_expt",""
"","bandit","88","302350","0.0-49.0-0.0","06573332","wem/bandit_party_1","A11THU6UGG3THR","either","5","317","","","","","","","1","0","0","0.4210378118","","0.6","0.4","0.8","0.2","","","","","0.4210378118","0.09244853328","0.3675420607","0.4022395488","","","","","","","","","","72","H","0","img/none_selected.jpg","","8","main_expt",""
"","bandit","89","304349","0.0-50.0-0.0","06573332","wem/bandit_party_1","A11THU6UGG3THR","either","5","455","","","","","","","0","0","1","","0.4502112583","0.6","0.4","0.8","0.2","0.4502112583","0.1271341085","0.3921196104","0.3929004949","","","","","","","","","","","","","","72","H","0","img/none_selected.jpg","","9","main_expt",""
"","bandit","90","306055","0.0-51.0-0.0","06573332","wem/bandit_party_1","A11THU6UGG3THR","either","5","162","","","","","","","0","1","0","","0.4026182126","0.6","0.4","0.8","0.2","0.4452653155","0.1370717255","0.4026182126","0.3863711448","","","","","","","","","","","","","","75","K","2","","","10","main_expt",""
"","bandit","91","307921","0.0-52.0-0.0","06573332","wem/bandit_party_1","A11THU6UGG3THR","either","5","322","","","","","","","0","0","1","0.3543069494","","0.6","0.4","0.8","0.2","","","","","0.4352349267","0.1275050207","0.3543069494","0.4205849279","","","","","","","","","","75","K","2","","","11","main_expt",""
"","bandit","92","309748","0.0-53.0-0.0","06573332","wem/bandit_party_1","A11THU6UGG3THR","either","5","287","","","","","","","0","0","1","0.4029030639","","0.6","0.4","0.8","0.2","","","","","0.4029030639","0.122317004","0.3504097904","0.4525069231","","","","","","","","","","72","H","0","img/none_selected.jpg","","12","main_expt",""
"","bandit","93","311580","0.0-54.0-0.0","06573332","wem/bandit_party_1","A11THU6UGG3THR","either","5","293","","","","","","","0","0","1","","0.4198147105","0.6","0.4","0.8","0.2","0.4198147105","0.1251711411","0.2787441393","0.4485799753","","","","","","","","","","","","","","72","H","0","img/none_selected.jpg","","13","main_expt",""
"","bandit","94","313416","0.0-55.0-0.0","06573332","wem/bandit_party_1","A11THU6UGG3THR","either","5","292","","","","","","","0","0","1","0.2723245106","","0.6","0.4","0.8","0.2","","","","","0.3761312174","0.1380641988","0.2723245106","0.4504049656","","","","","","","","","","75","K","2","","","14","main_expt",""
"","bandit","95","315208","0.0-56.0-0.0","06573332","wem/bandit_party_1","A11THU6UGG3THR","either","5","248","","","","","","","0","0","1","0.3687644442","","0.6","0.4","0.8","0.2","","","","","0.4017507227","0.2010812313","0.3687644442","0.4281165459","","","","","","","","","","75","K","2","","","15","main_expt",""
"","bandit","96","316896","0.0-57.0-0.0","06573332","wem/bandit_party_1","A11THU6UGG3THR","either","5","140","","","","","","","0","0","1","0.1747275657","","0.6","0.4","0.8","0.2","","","","","0.3859888637","0.1747275657","0.3992289848","0.4035101098","","","","","","","","","","74","J","1","","","16","main_expt",""
"","bandit","97","318730","0.0-58.0-0.0","06573332","wem/bandit_party_1","A11THU6UGG3THR","either","5","295","","","","","","","0","1","0","","0.4063691663","0.6","0.4","0.8","0.2","0.3706978481","0.1816524112","0.4067061876","0.4063691663","","","","","","","","","","","","","","76","L","3","","","17","main_expt",""
"","bandit","98","320583","0.0-59.0-0.0","06573332","wem/bandit_party_1","A11THU6UGG3THR","either","5","309","","","","","","","0","0","1","","0.4201618032","0.6","0.4","0.8","0.2","0.3323991027","0.1700798448","0.3969002131","0.4201618032","","","","","","","","","","","","","","76","L","3","","","18","main_expt",""
"","bandit","99","322446","0.0-60.0-0.0","06573332","wem/bandit_party_1","A11THU6UGG3THR","either","5","319","","","","","","","0","0","1","","0.3868389751","0.6","0.4","0.8","0.2","0.3301718366","0.1998500639","0.3930099592","0.3868389751","","","","","","","","","","","","","","76","L","3","","","19","main_expt",""
"","bandit","100","324304","0.0-61.0-0.0","06573332","wem/bandit_party_1","A11THU6UGG3THR","either","5","314","","","","","","","0","0","1","","0.3868875991","0.6","0.4","0.8","0.2","0.3714618997","0.2418808817","0.3791602553","0.3868875991","","","","","","","","","","","","","","76","L","3","","","20","main_expt",""
"","bandit","101","325947","0.0-62.0-0.0","06573332","wem/bandit_party_1","A11THU6UGG3THR","either","5","105","","","","","","","1","0","0","0.3621694591","","0.6","0.4","0.8","0.2","","","","","0.3621694591","0.2293341009","0.4127515201","0.4253770554","","","","","","","","","","72","H","0","img/none_selected.jpg","","21","main_expt",""
"","bandit","102","327812","0.0-63.0-0.0","06573332","wem/bandit_party_1","A11THU6UGG3THR","either","5","323","","","","","","","0","0","1","0.3648829928","","0.6","0.4","0.8","0.2","","","","","0.3648829928","0.2074184163","0.4164833055","0.4285762007","","","","","","","","","","72","H","0","img/none_selected.jpg","","22","main_expt",""
"","bandit","103","331110","0.0-64.0-0.0","06573332","wem/bandit_party_1","A11THU6UGG3THR","either","5","1754","","","","","","","0","0","1","0.2856994719","","0.6","0.4","0.8","0.2","","","","","0.2856994719","0.1832507358","0.4143027846","0.4082522222","","","","","","","","","","72","H","0","img/none_selected.jpg","","23","main_expt",""
"","bandit","104","333078","0.0-65.0-0.0","06573332","wem/bandit_party_1","A11THU6UGG3THR","either","5","424","","","","","","","0","0","1","0.3649270698","","0.6","0.4","0.8","0.2","","","","","0.3152516524","0.1469425149","0.3649270698","0.4027270218","","","","","","","","","","75","K","2","","","24","main_expt",""
"","bandit","105","334977","0.0-66.0-0.0","06573332","wem/bandit_party_1","A11THU6UGG3THR","either","5","352","","","","","","","1","0","0","0.392676409","","0.6","0.4","0.8","0.2","","","","","0.2778145345","0.102794739","0.392676409","0.4100212433","","","","","","","","","","75","K","2","","","25","main_expt",""
"","bandit","106","337083","0.0-67.0-0.0","06573332","wem/bandit_party_1","A11THU6UGG3THR","either","5","567","","","","","","","0","0","1","0.4031565401","","0.6","0.4","0.8","0.2","","","","","0.3170506137","0.1173732637","0.4031565401","0.4190791169","","","","","","","","","","75","K","2","","","26","main_expt",""
"","bandit","107","338994","0.0-68.0-0.0","06573332","wem/bandit_party_1","A11THU6UGG3THR","either","5","364","","","","","","","0","0","1","0.4245959001","","0.6","0.4","0.8","0.2","","","","","0.3223143746","0.08835016803","0.4245959001","0.4527212376","","","","","","","","","","75","K","2","","","27","main_expt",""
"","bandit","108","340874","0.0-69.0-0.0","06573332","wem/bandit_party_1","A11THU6UGG3THR","either","5","328","","","","","","","0","0","1","","0.4480998813","0.6","0.4","0.8","0.2","0.3234472479","0.1134440288","0.4232885055","0.4480998813","","","","","","","","","","","","","","76","L","3","","","28","main_expt",""
"","bandit","109","342695","0.0-70.0-0.0","06573332","wem/bandit_party_1","A11THU6UGG3THR","either","5","279","","","","","","","0","0","1","","0.4628669208","0.6","0.4","0.8","0.2","0.2881425904","0.1982905849","0.4495512981","0.4628669208","","","","","","","","","","","","","","76","L","3","","","29","main_expt",""
"","bandit","110","344534","0.0-71.0-0.0","06573332","wem/bandit_party_1","A11THU6UGG3THR","either","5","295","","","","","","","0","0","1","0.2366655967","","0.6","0.4","0.8","0.2","","","","","0.2326555855","0.2366655967","0.4485299892","0.4565655028","","","","","","","","","","74","J","1","","","30","main_expt",""
"","bandit","111","346353","0.0-72.0-0.0","06573332","wem/bandit_party_1","A11THU6UGG3THR","either","5","274","","","","","","","1","0","0","0.4599237238","","0.6","0.4","0.8","0.2","","","","","0.2364604256","0.1622470467","0.4599237238","0.4686031056","","","","","","","","","","75","K","2","","","31","main_expt",""
"","bandit","112","348629","0.0-73.0-0.0","06573332","wem/bandit_party_1","A11THU6UGG3THR","either","5","718","","","","","","","1","0","0","0.4508116693","","0.6","0.4","0.8","0.2","","","","","0.2451982598","0.1771911602","0.4508116693","0.4659582456","","","","","","","","","","75","K","2","","","32","main_expt",""
"","bandit","113","350529","0.0-74.0-0.0","06573332","wem/bandit_party_1","A11THU6UGG3THR","either","5","319","","","","","","","1","0","0","0.45101727","","0.6","0.4","0.8","0.2","","","","","0.2360369815","0.1622836308","0.45101727","0.4810757035","","","","","","","","","","75","K","2","","","33","main_expt",""
"","bandit","114","352343","0.0-75.0-0.0","06573332","wem/bandit_party_1","A11THU6UGG3THR","either","5","275","","","","","","","0","0","1","0.4340174653","","0.6","0.4","0.8","0.2","","","","","0.2317763892","0.1655985557","0.4340174653","0.4842727378","","","","","","","","","","75","K","2","","","34","main_expt",""
"","bandit","115","354052","0.0-76.0-0.0","06573332","wem/bandit_party_1","A11THU6UGG3THR","either","5","173","","","","","","","1","0","0","0.4040147441","","0.6","0.4","0.8","0.2","","","","","0.2527891731","0.1492797185","0.4040147441","0.4745470136","","","","","","","","","","75","K","2","","","35","main_expt",""
"","bandit","116","355990","0.0-77.0-0.0","06573332","wem/bandit_party_1","A11THU6UGG3THR","either","5","391","","","","","","","0","0","1","0.4268829696","","0.6","0.4","0.8","0.2","","","","","0.2641283143","0.1504543003","0.4268829696","0.4440965139","","","","","","","","","","75","K","2","","","36","main_expt",""
"","bandit","117","357773","0.0-78.0-0.0","06573332","wem/bandit_party_1","A11THU6UGG3THR","either","5","242","","","","","","","0","0","1","0.4562327564","","0.6","0.4","0.8","0.2","","","","","0.2309310423","0.1064249526","0.4562327564","0.4544425755","","","","","","","","","","75","K","2","","","37","main_expt",""
"","bandit","118","359678","0.0-79.0-0.0","06573332","wem/bandit_party_1","A11THU6UGG3THR","either","5","370","","","","","","","0","0","1","0.4481627861","","0.6","0.4","0.8","0.2","","","","","0.2093170459","0.1346530267","0.4481627861","0.4700138218","","","","","","","","","","75","K","2","","","38","main_expt",""
"","bandit","119","361408","0.0-80.0-0.0","06573332","wem/bandit_party_1","A11THU6UGG3THR","either","5","185","","","","","","","0","0","1","","0.1398625959","0.6","0.4","0.8","0.2","0.1398625959","0.1303494481","0.4475890948","0.466948448","","","","","","","","","","","","","","72","H","0","img/none_selected.jpg","","39","main_expt",""
"","bandit","120","363424","0.0-81.0-0.0","06573332","wem/bandit_party_1","A11THU6UGG3THR","either","5","473","","","","","","","0","0","1","0.09690087606","","0.6","0.4","0.8","0.2","","","","","0.09690087606","0.1492074344","0.4501575696","0.4679256248","","","","","","","","","","72","H","0","img/none_selected.jpg","","40","main_expt",""
"","bandit","121","365636","0.0-82.0-0.0","06573332","wem/bandit_party_1","A11THU6UGG3THR","either","5","679","","","","","","","1","0","0","0.445537573","","0.6","0.4","0.8","0.2","","","","","0.1129569356","0.1370672299","0.4121884666","0.445537573","","","","","","","","","","76","L","3","","","41","main_expt",""
"","bandit","122","367622","0.0-83.0-0.0","06573332","wem/bandit_party_1","A11THU6UGG3THR","either","5","438","","","","","","","0","0","1","","0.4521531226","0.6","0.4","0.8","0.2","0.1227033228","0.08144147181","0.4379939247","0.4521531226","","","","","","","","","","","","","","76","L","3","","","42","main_expt",""
"","bandit","123","369495","0.0-84.0-0.0","06573332","wem/bandit_party_1","A11THU6UGG3THR","either","5","338","","","","","","","0","0","1","","0.4271747655","0.6","0.4","0.8","0.2","0.08393287497","0.06793865388","0.4271747655","0.4695072217","","","","","","","","","","","","","","75","K","2","","","43","main_expt",""
"","bandit","124","371280","0.0-85.0-0.0","06573332","wem/bandit_party_1","A11THU6UGG3THR","either","5","250","","","","","","","0","1","0","","0.4807409838","0.6","0.4","0.8","0.2","0.06260074275","0.05295344446","0.4480494518","0.4807409838","","","","","","","","","","","","","","76","L","3","","","44","main_expt",""
"","bandit","125","373153","0.0-86.0-0.0","06573332","wem/bandit_party_1","A11THU6UGG3THR","either","5","329","","","","","","","1","0","0","0.4507048108","","0.6","0.4","0.8","0.2","","","","","0.08062123592","0.02744239742","0.4269729589","0.4507048108","","","","","","","","","","76","L","3","","","45","main_expt",""
"","bandit","126","375037","0.0-87.0-0.0","06573332","wem/bandit_party_1","A11THU6UGG3THR","either","5","349","","","","","","","0","1","0","","0.4382321206","0.6","0.4","0.8","0.2","0.1110847749","0.02347437243","0.4475746277","0.4382321206","","","","","","","","","","","","","","76","L","3","","","46","main_expt",""
"","bandit","127","376834","0.0-88.0-0.0","06573332","wem/bandit_party_1","A11THU6UGG3THR","either","5","254","","","","","","","0","0","1","","0.4393937913","0.6","0.4","0.8","0.2","0.05346849493","0.02418160198","0.4295618238","0.4393937913","","","","","","","","","","","","","","76","L","3","","","47","main_expt",""
"","bandit","128","378657","0.0-89.0-0.0","06573332","wem/bandit_party_1","A11THU6UGG3THR","either","5","282","","","","","","","0","1","0","","0.440318131","0.6","0.4","0.8","0.2","0.04499733497","0.01182676654","0.4431907244","0.440318131","","","","","","","","","","","","","","76","L","3","","","48","main_expt",""
"","bandit","129","380559","0.0-90.0-0.0","06573332","wem/bandit_party_1","A11THU6UGG3THR","either","5","295","","","","","","","0","0","1","","0.4362102412","0.6","0.4","0.8","0.2","0.07378534534","0.0186287842","0.4187732916","0.4362102412","","","","","","","","","","","","","","76","L","3","","","49","main_expt",""
"","bandit","130","383393","0.0-91.0-0.0","06573332","wem/bandit_party_1","A11THU6UGG3THR","either","5","1195","","","","","","","0","1","0","","0.44488671","0.6","0.4","0.8","0.2","0.06168845619","0.02550629551","0.356579213","0.44488671","","","","","","","","","","","","","","76","L","3","","","50","main_expt",""
"","bandit","131","385230","0.0-92.0-0.0","06573332","wem/bandit_party_1","A11THU6UGG3THR","either","5","291","","","","","","","0","0","1","","0.4633405548","0.6","0.4","0.8","0.2","0.1062028567","0.04366809707","0.2629404955","0.4633405548","","","","","","","","","","","","","","76","L","3","","","51","main_expt",""
"","bandit","132","387113","0.0-93.0-0.0","06573332","wem/bandit_party_1","A11THU6UGG3THR","either","5","332","","","","","","","1","0","0","0.4528043762","","0.6","0.4","0.8","0.2","","","","","0.1379608546","0.04357168116","0.2919747068","0.4528043762","","","","","","","","","","76","L","3","","","52","main_expt",""
"","bandit","133","389027","0.0-94.0-0.0","06573332","wem/bandit_party_1","A11THU6UGG3THR","either","5","365","","","","","","","0","1","0","","0.4390431751","0.6","0.4","0.8","0.2","0.1356826849","0.03899227154","0.3809901122","0.4390431751","","","","","","","","","","","","","","76","L","3","","","53","main_expt",""
"","bandit","134","390979","0.0-95.0-0.0","06573332","wem/bandit_party_1","A11THU6UGG3THR","either","5","412","","","","","","","0","1","0","","0.4549270822","0.6","0.4","0.8","0.2","0.1038772241","0.04009146386","0.3452518694","0.4549270822","","","","","","","","","","","","","","76","L","3","","","54","main_expt",""
"","bandit","135","392907","0.0-96.0-0.0","06573332","wem/bandit_party_1","A11THU6UGG3THR","either","5","379","","","","","","","0","1","0","","0.4710341864","0.6","0.4","0.8","0.2","0.1689791829","0.0155768565","0.3263112327","0.4710341864","","","","","","","","","","","","","","76","L","3","","","55","main_expt",""
"","bandit","136","394824","0.0-97.0-0.0","06573332","wem/bandit_party_1","A11THU6UGG3THR","either","5","346","","","","","","","0","0","1","0.4745834276","","0.6","0.4","0.8","0.2","","","","","0.1108888145","0.02112461672","0.3308963945","0.4745834276","","","","","","","","","","76","L","3","","","56","main_expt",""
"","bandit","137","396582","0.0-98.0-0.0","06573332","wem/bandit_party_1","A11THU6UGG3THR","either","5","216","","","","","","","0","0","1","","0.1206542402","0.6","0.4","0.8","0.2","0.1206542402","0.0126553198","0.3150326571","0.489318572","","","","","","","","","","","","","","72","H","0","img/none_selected.jpg","","57","main_expt",""
"","bandit","138","398438","0.0-99.0-0.0","06573332","wem/bandit_party_1","A11THU6UGG3THR","either","5","310","","","","","","","0","0","1","0.01131359515","","0.6","0.4","0.8","0.2","","","","","0.09707343937","0.01131359515","0.3049116772","0.480037986","","","","","","","","","","74","J","1","","","58","main_expt",""
"","bandit","139","400279","0.0-100.0-0.0","06573332","wem/bandit_party_1","A11THU6UGG3THR","either","5","294","","","","","","","1","0","0","0.3050987947","","0.6","0.4","0.8","0.2","","","","","0.1044384952","0.01030075821","0.3050987947","0.4593461039","","","","","","","","","","75","K","2","","","59","main_expt",""
"","bandit","140","402133","0.0-101.0-0.0","06573332","wem/bandit_party_1","A11THU6UGG3THR","either","5","314","","","","","","","0","0","1","0.3274009355","","0.6","0.4","0.8","0.2","","","","","0.08890369623","0.005868957973","0.3274009355","0.446051488","","","","","","","","","","75","K","2","","","60","main_expt",""
"","bandit","141","404027","0.0-102.0-0.0","06573332","wem/bandit_party_1","A11THU6UGG3THR","either","5","352","","","","","","","0","0","1","0.4391285327","","0.6","0.4","0.8","0.2","","","","","0.08921221942","0.004361943215","0.3428943983","0.4391285327","","","","","","","","","","76","L","3","","","61","main_expt",""
"","bandit","142","405851","0.0-103.0-0.0","06573332","wem/bandit_party_1","A11THU6UGG3THR","either","5","284","","","","","","","0","0","1","","0.4063883723","0.6","0.4","0.8","0.2","0.09812025034","0.005208412743","0.3549763931","0.4063883723","","","","","","","","","","","","","","76","L","3","","","62","main_expt",""
"","bandit","143","407668","0.0-104.0-0.0","06573332","wem/bandit_party_1","A11THU6UGG3THR","either","5","271","","","","","","","0","0","1","0.3496678451","","0.6","0.4","0.8","0.2","","","","","0.09006279409","0.006461011255","0.3496678451","0.4330387396","","","","","","","","","","75","K","2","","","63","main_expt",""
"","bandit","144","409472","0.0-105.0-0.0","06573332","wem/bandit_party_1","A11THU6UGG3THR","either","5","274","","","","","","","1","0","0","0.3188537263","","0.6","0.4","0.8","0.2","","","","","0.1118976224","0.01267926231","0.3188537263","0.4207902426","","","","","","","","","","75","K","2","","","64","main_expt",""
"","bandit","145","411307","0.0-106.0-0.0","06573332","wem/bandit_party_1","A11THU6UGG3THR","either","5","287","","","","","","","1","0","0","0.3191795336","","0.6","0.4","0.8","0.2","","","","","0.1053817613","0.009732787917","0.3191795336","0.3719582347","","","","","","","","","","75","K","2","","","65","main_expt",""
"","bandit","146","413317","0.0-107.0-0.0","06573332","wem/bandit_party_1","A11THU6UGG3THR","either","5","463","","","","","","","0","0","1","0.268616347","","0.6","0.4","0.8","0.2","","","","","0.1307356695","0.01092542651","0.268616347","0.3748569955","","","","","","","","","","75","K","2","","","66","main_expt",""
"","bandit","147","415275","0.0-108.0-0.0","06573332","wem/bandit_party_1","A11THU6UGG3THR","either","5","413","","","","","","","1","0","0","0.259194563","","0.6","0.4","0.8","0.2","","","","","0.1418436428","0.02125534741","0.259194563","0.335252031","","","","","","","","","","75","K","2","","","67","main_expt",""
"","bandit","148","417211","0.0-109.0-0.0","06573332","wem/bandit_party_1","A11THU6UGG3THR","either","5","394","","","","","","","1","0","0","0.2281204868","","0.6","0.4","0.8","0.2","","","","","0.1459089566","0.02360283027","0.2281204868","0.3199157278","","","","","","","","","","75","K","2","","","68","main_expt",""
"","bandit","149","419242","0.0-110.0-0.0","06573332","wem/bandit_party_1","A11THU6UGG3THR","either","5","483","","","","","","","0","0","1","","0.2195844169","0.6","0.4","0.8","0.2","0.1809721424","0.02539305756","0.2195844169","0.3068525281","","","","","","","","","","","","","","75","K","2","","","69","main_expt",""
"","bandit","150","421298","0.0-111.0-0.0","06573332","wem/bandit_party_1","A11THU6UGG3THR","either","5","373","","","","","","","0","0","1","","0.1883338509","0.6","0.4","0.8","0.2","0.1784068974","0.05014388586","0.1883338509","0.3181076016","","","","","","","","","","","","","","75","K","2","","","70","main_expt",""
"","bandit","151","423159","0.0-112.0-0.0","06573332","wem/bandit_party_1","A11THU6UGG3THR","either","5","328","","","","","","","0","0","1","0.1639708178","","0.6","0.4","0.8","0.2","","","","","0.1973023396","0.04209054697","0.1639708178","0.2926426422","","","","","","","","","","75","K","2","","","71","main_expt",""
"","bandit","152","425025","0.0-113.0-0.0","06573332","wem/bandit_party_1","A11THU6UGG3THR","either","5","331","","","","","","","0","0","1","0.1312842785","","0.6","0.4","0.8","0.2","","","","","0.2436342847","0.05611199342","0.1312842785","0.2380263643","","","","","","","","","","75","K","2","","","72","main_expt",""
"","bandit","153","426679","0.0-114.0-0.0","06573332","wem/bandit_party_1","A11THU6UGG3THR","either","5","120","","","","","","","0","1","0","","0.1992173182","0.6","0.4","0.8","0.2","0.1992173182","0.05293238473","0.1805041857","0.2407197948","","","","","","","","","","","","","","72","H","0","img/none_selected.jpg","","73","main_expt",""
"","bandit","154","428571","0.0-115.0-0.0","06573332","wem/bandit_party_1","A11THU6UGG3THR","either","5","351","","","","","","","0","0","1","0.2347098304","","0.6","0.4","0.8","0.2","","","","","0.2347098304","0.0318456884","0.1739557812","0.2317468449","","","","","","","","","","72","H","0","img/none_selected.jpg","","74","main_expt",""
"","bandit","155","430465","0.0-116.0-0.0","06573332","wem/bandit_party_1","A11THU6UGG3THR","either","5","360","","","","","","","0","0","1","0.2641442137","","0.6","0.4","0.8","0.2","","","","","0.2641442137","0.03873230677","0.2434916027","0.2545997551","","","","","","","","","","72","H","0","img/none_selected.jpg","","75","main_expt",""
"","bandit","156","432412","0.0-117.0-0.0","06573332","wem/bandit_party_1","A11THU6UGG3THR","either","5","394","","","","","","","0","0","1","0.3192644053","","0.6","0.4","0.8","0.2","","","","","0.3192644053","0.03304947682","0.2438468568","0.2890845388","","","","","","","","","","72","H","0","img/none_selected.jpg","","76","main_expt",""
"","bandit","157","434352","0.0-118.0-0.0","06573332","wem/bandit_party_1","A11THU6UGG3THR","either","5","391","","","","","","","1","0","0","0.3351132613","","0.6","0.4","0.8","0.2","","","","","0.3351132613","0.02607887458","0.2425324642","0.2386362654","","","","","","","","","","72","H","0","img/none_selected.jpg","","77","main_expt",""
"","bandit","158","436326","0.0-119.0-0.0","06573332","wem/bandit_party_1","A11THU6UGG3THR","either","5","432","","","","","","","1","0","0","0.3086784207","","0.6","0.4","0.8","0.2","","","","","0.3086784207","0.02492981692","0.205588479","0.2673679704","","","","","","","","","","72","H","0","img/none_selected.jpg","","78","main_expt",""
"","bandit","159","438533","0.0-120.0-0.0","06573332","wem/bandit_party_1","A11THU6UGG3THR","either","5","660","","","","","","","0","0","1","0.3076482073","","0.6","0.4","0.8","0.2","","","","","0.3076482073","0.01824110002","0.213062191","0.2813811921","","","","","","","","","","72","H","0","img/none_selected.jpg","","79","main_expt",""
"","bandit","160","440680","0.0-121.0-0.0","06573332","wem/bandit_party_1","A11THU6UGG3THR","either","5","615","","","","","","","0","0","1","0.3605025214","","0.6","0.4","0.8","0.2","","","","","0.3605025214","0.0202176162","0.1852926048","0.2419447949","","","","","","","","","","72","H","0","img/none_selected.jpg","","80","main_expt",""
"","bandit","161","442562","0.0-122.0-0.0","06573332","wem/bandit_party_1","A11THU6UGG3THR","either","5","336","","","","","","","0","0","1","0.3286166321","","0.6","0.4","0.8","0.2","","","","","0.3286166321","0.0252752587","0.2332942271","0.323481111","","","","","","","","","","72","H","0","img/none_selected.jpg","","81","main_expt",""
"","bandit","162","444583","0.0-123.0-0.0","06573332","wem/bandit_party_1","A11THU6UGG3THR","either","5","475","","","","","","","0","0","1","","0.05668457717","0.6","0.4","0.8","0.2","0.3459677762","0.05668457717","0.2087797338","0.3097244961","","","","","","","","","","","","","","74","J","1","","","82","main_expt",""
"","bandit","163","446406","0.0-124.0-0.0","06573332","wem/bandit_party_1","A11THU6UGG3THR","either","5","289","","","","","","","0","0","1","","0.2049979043","0.6","0.4","0.8","0.2","0.3092751195","0.07760530004","0.2049979043","0.2787498647","","","","","","","","","","","","","","75","K","2","","","83","main_expt",""
"","bandit","164","448286","0.0-125.0-0.0","06573332","wem/bandit_party_1","A11THU6UGG3THR","either","5","286","","","","","","","0","1","0","","0.2589524449","0.6","0.4","0.8","0.2","0.3044630387","0.03696005566","0.2151780091","0.2589524449","","","","","","","","","","","","","","76","L","3","","","84","main_expt",""
"","bandit","165","450206","0.0-126.0-0.0","06573332","wem/bandit_party_1","A11THU6UGG3THR","either","5","363","","","","","","","0","1","0","","0.2769318636","0.6","0.4","0.8","0.2","0.2812480587","0.04177257934","0.1497615914","0.2769318636","","","","","","","","","","","","","","76","L","3","","","85","main_expt",""
"","bandit","166","452162","0.0-127.0-0.0","06573332","wem/bandit_party_1","A11THU6UGG3THR","either","5","417","","","","","","","1","0","0","0.2849222391","","0.6","0.4","0.8","0.2","","","","","0.2506532223","0.0385770192","0.1223687677","0.2849222391","","","","","","","","","","76","L","3","","","86","main_expt",""
"","bandit","167","454105","0.0-128.0-0.0","06573332","wem/bandit_party_1","A11THU6UGG3THR","either","5","393","","","","","","","0","0","1","","0.3131087309","0.6","0.4","0.8","0.2","0.2269900387","0.03720252147","0.1472857413","0.3131087309","","","","","","","","","","","","","","76","L","3","","","87","main_expt",""
"","bandit","168","455692","0.0-129.0-0.0","06573332","wem/bandit_party_1","A11THU6UGG3THR","either","5","45","","","","","","","0","0","1","","0.3038587512","0.6","0.4","0.8","0.2","0.1504729919","0.06746059371","0.1252586248","0.3038587512","","","","","","","","","","","","","","76","L","3","","","88","main_expt",""
"","bandit","169","457626","0.0-130.0-0.0","06573332","wem/bandit_party_1","A11THU6UGG3THR","either","5","379","","","","","","","0","0","1","","0.3308022157","0.6","0.4","0.8","0.2","0.1382070302","0.04069757945","0.1194927994","0.3308022157","","","","","","","","","","","","","","76","L","3","","","89","main_expt",""
"","bandit","170","459629","0.0-131.0-0.0","06573332","wem/bandit_party_1","A11THU6UGG3THR","either","5","461","","","","","","","0","0","1","0.1589750007","","0.6","0.4","0.8","0.2","","","","","0.1364765349","0.07325379503","0.1589750007","0.3574922351","","","","","","","","","","75","K","2","","","90","main_expt",""
"","bandit","171","461474","0.0-132.0-0.0","06573332","wem/bandit_party_1","A11THU6UGG3THR","either","5","292","","","","","","","0","1","0","","0.06877471811","0.6","0.4","0.8","0.2","0.09318196272","0.06877471811","0.1859960426","0.3729517688","","","","","","","","","","","","","","74","J","1","","","91","main_expt",""
"","bandit","172","463411","0.0-133.0-0.0","06573332","wem/bandit_party_1","A11THU6UGG3THR","either","5","392","","","","","","","0","0","1","","0.04115987362","0.6","0.4","0.8","0.2","0.06946097624","0.04115987362","0.192419488","0.398352994","","","","","","","","","","","","","","74","J","1","","","92","main_expt",""
"","bandit","173","465452","0.0-134.0-0.0","06573332","wem/bandit_party_1","A11THU6UGG3THR","either","5","488","","","","","","","0","0","1","","0.07078892783","0.6","0.4","0.8","0.2","0.08102832817","0.07078892783","0.1716033463","0.4135860398","","","","","","","","","","","","","","74","J","1","","","93","main_expt",""
"","bandit","174","467032","0.0-135.0-0.0","06573332","wem/bandit_party_1","A11THU6UGG3THR","either","5","31","","","","","","","0","0","1","0.1271360848","","0.6","0.4","0.8","0.2","","","","","0.1271360848","0.05572868433","0.1935897604","0.3786880174","","","","","","","","","","72","H","0","img/none_selected.jpg","","94","main_expt",""
"","bandit","175","468939","0.0-136.0-0.0","06573332","wem/bandit_party_1","A11THU6UGG3THR","either","5","363","","","","","","","0","0","1","","0.1097592989","0.6","0.4","0.8","0.2","0.1097592989","0.05056929995","0.2193228015","0.3823424718","","","","","","","","","","","","","","72","H","0","img/none_selected.jpg","","95","main_expt",""
"","bandit","176","470787","0.0-137.0-0.0","06573332","wem/bandit_party_1","A11THU6UGG3THR","either","5","300","","","","","","","0","0","1","0.1085490834","","0.6","0.4","0.8","0.2","","","","","0.1085490834","0.04159874267","0.3262643469","0.3642725552","","","","","","","","","","72","H","0","img/none_selected.jpg","","96","main_expt",""
"","bandit","177","472519","0.0-138.0-0.0","06573332","wem/bandit_party_1","A11THU6UGG3THR","either","5","181","","","","","","","1","0","0","0.3207405496","","0.6","0.4","0.8","0.2","","","","","0.1049812554","0.03654451862","0.3207405496","0.3197717944","","","","","","","","","","75","K","2","","","97","main_expt",""
"","bandit","178","474371","0.0-139.0-0.0","06573332","wem/bandit_party_1","A11THU6UGG3THR","either","5","306","","","","","","","0","0","1","0.3712856991","","0.6","0.4","0.8","0.2","","","","","0.08177978443","0.04190300095","0.3712856991","0.2514424369","","","","","","","","","","75","K","2","","","98","main_expt",""
"","bandit","179","476209","0.0-140.0-0.0","06573332","wem/bandit_party_1","A11THU6UGG3THR","either","5","292","","","","","","","1","0","0","0.3740145378","","0.6","0.4","0.8","0.2","","","","","0.07574087804","0.08742990617","0.3740145378","0.2926772137","","","","","","","","","","75","K","2","","","99","main_expt",""
"","bandit","180","477957","0.0-141.0-0.0","06573332","wem/bandit_party_1","A11THU6UGG3THR","either","5","196","","","","","","","1","0","0","0.3776295542","","0.6","0.4","0.8","0.2","","","","","0.07829319678","0.08966523481","0.3776295542","0.234485335","","","","","","","","","","75","K","2","","","100","main_expt",""
"","bandit","181","479713","0.0-142.0-0.0","06573332","wem/bandit_party_1","A11THU6UGG3THR","either","5","203","","","","","","","0","0","1","0.3592666398","","0.6","0.4","0.8","0.2","","","","","0.07919243683","0.07849065771","0.3592666398","0.250352175","","","","","","","","","","75","K","2","","","101","main_expt",""
"","bandit","182","481422","0.0-143.0-0.0","06573332","wem/bandit_party_1","A11THU6UGG3THR","either","5","167","","","","","","","0","0","1","0.3412191773","","0.6","0.4","0.8","0.2","","","","","0.1052753188","0.1054267613","0.3412191773","0.2139972863","","","","","","","","","","75","K","2","","","102","main_expt",""
"","bandit","183","483178","0.0-144.0-0.0","06573332","wem/bandit_party_1","A11THU6UGG3THR","either","5","211","","","","","","","0","0","1","0.3133100433","","0.6","0.4","0.8","0.2","","","","","0.1248526142","0.1120981937","0.3133100433","0.20092706","","","","","","","","","","75","K","2","","","103","main_expt",""
"","bandit","184","484849","0.0-145.0-0.0","06573332","wem/bandit_party_1","A11THU6UGG3THR","either","5","118","","","","","","","0","0","1","0.3219148419","","0.6","0.4","0.8","0.2","","","","","0.142969925","0.1034740879","0.3219148419","0.2305366804","","","","","","","","","","75","K","2","","","104","main_expt",""
"","bandit","185","487140","0.0-146.0-0.0","06573332","wem/bandit_party_1","A11THU6UGG3THR","either","5","744","","","","","","","0","1","0","","0.2102135581","0.6","0.4","0.8","0.2","0.13947254","0.07597240327","0.3300892518","0.2102135581","","","","","","","","","","","","","","76","L","3","","","105","main_expt",""
"","bandit","186","488897","0.0-147.0-0.0","06573332","wem/bandit_party_1","A11THU6UGG3THR","either","5","205","","","","","","","0","0","1","","0.2219457329","0.6","0.4","0.8","0.2","0.1329526997","0.1124257427","0.3401839058","0.2219457329","","","","","","","","","","","","","","76","L","3","","","106","main_expt",""
"","bandit","187","490745","0.0-148.0-0.0","06573332","wem/bandit_party_1","A11THU6UGG3THR","either","5","303","","","","","","","0","0","1","","0.3048423019","0.6","0.4","0.8","0.2","0.1727290233","0.1133168519","0.3784706915","0.3048423019","","","","","","","","","","","","","","76","L","3","","","107","main_expt",""
"","bandit","188","492633","0.0-149.0-0.0","06573332","wem/bandit_party_1","A11THU6UGG3THR","either","5","339","","","","","","","0","0","1","0.1752395656","","0.6","0.4","0.8","0.2","","","","","0.1864487031","0.1752395656","0.3945753887","0.258150515","","","","","","","","","","74","J","1","","","108","main_expt",""
"","bandit","189","494514","0.0-150.0-0.0","06573332","wem/bandit_party_1","A11THU6UGG3THR","either","5","337","","","","","","","0","0","1","","0.1862973424","0.6","0.4","0.8","0.2","0.2463216238","0.1862973424","0.356827327","0.1859129148","","","","","","","","","","","","","","74","J","1","","","109","main_expt",""
"","bandit","190","496330","0.0-151.0-0.0","06573332","wem/bandit_party_1","A11THU6UGG3THR","either","5","293","","","","","","","0","1","0","","0.2015845776","0.6","0.4","0.8","0.2","0.2431522628","0.2015845776","0.2344179837","0.1371624404","","","","","","","","","","","","","","74","J","1","","","110","main_expt",""
"","bandit","191","498162","0.0-152.0-0.0","06573332","wem/bandit_party_1","A11THU6UGG3THR","either","5","281","","","","","","","0","0","1","0.1757476643","","0.6","0.4","0.8","0.2","","","","","0.1757476643","0.2003651753","0.2644823096","0.1258232978","","","","","","","","","","72","H","0","img/none_selected.jpg","","111","main_expt",""
"","bandit","192","500018","0.0-153.0-0.0","06573332","wem/bandit_party_1","A11THU6UGG3THR","either","5","309","","","","","","","0","0","1","","0.2451518953","0.6","0.4","0.8","0.2","0.2451518953","0.21392293","0.28311182","0.1529967373","","","","","","","","","","","","","","72","H","0","img/none_selected.jpg","","112","main_expt",""
"","bandit","193","501865","0.0-154.0-0.0","06573332","wem/bandit_party_1","A11THU6UGG3THR","either","5","299","","","","","","","0","0","1","0.2407836715","","0.6","0.4","0.8","0.2","","","","","0.2407836715","0.1606798039","0.2413269532","0.148248117","","","","","","","","","","72","H","0","img/none_selected.jpg","","113","main_expt",""
"","bandit","194","503593","0.0-155.0-0.0","06573332","wem/bandit_party_1","A11THU6UGG3THR","either","5","171","","","","","","","0","0","1","","0.2095980235","0.6","0.4","0.8","0.2","0.3099317417","0.2095980235","0.3100969134","0.1562208239","","","","","","","","","","","","","","74","J","1","","","114","main_expt",""
"","bandit","195","505456","0.0-156.0-0.0","06573332","wem/bandit_party_1","A11THU6UGG3THR","either","5","316","","","","","","","0","0","1","","0.2550279667","0.6","0.4","0.8","0.2","0.3180754701","0.2550279667","0.329842252","0.2138032898","","","","","","","","","","","","","","74","J","1","","","115","main_expt",""
"","bandit","196","507297","0.0-157.0-0.0","06573332","wem/bandit_party_1","A11THU6UGG3THR","either","5","275","","","","","","","0","0","1","","0.2331260325","0.6","0.4","0.8","0.2","0.2919742107","0.2471764387","0.3223706096","0.2331260325","","","","","","","","","","","","","","76","L","3","","","116","main_expt",""
"","bandit","197","509209","0.0-158.0-0.0","06573332","wem/bandit_party_1","A11THU6UGG3THR","either","5","356","","","","","","","0","0","1","","0.1826309729","0.6","0.4","0.8","0.2","0.2799774295","0.2730878341","0.3098408215","0.1826309729","","","","","","","","","","","","","","76","L","3","","","117","main_expt",""
"","bandit","198","511037","0.0-159.0-0.0","06573332","wem/bandit_party_1","A11THU6UGG3THR","either","5","272","","","","","","","0","1","0","","0.2974554567","0.6","0.4","0.8","0.2","0.2646714695","0.2071462199","0.2974554567","0.1511269107","","","","","","","","","","","","","","75","K","2","","","118","main_expt",""
"","bandit","199","512747","0.0-160.0-0.0","06573332","wem/bandit_party_1","A11THU6UGG3THR","either","5","144","","","","","","","0","0","1","0.3598468986","","0.6","0.4","0.8","0.2","","","","","0.3179839519","0.2275232499","0.3598468986","0.1559979654","","","","","","","","","","75","K","2","","","119","main_expt",""
"","bandit","200","514602","0.0-161.0-0.0","06573332","wem/bandit_party_1","A11THU6UGG3THR","either","5","307","","","","","","","0","0","1","","0.2984373086","0.6","0.4","0.8","0.2","0.3302262658","0.2767559596","0.2984373086","0.1463004055","","","","","","","","","","","","","","75","K","2","","","120","main_expt",""
"","bandit","201","517079","0.0-162.0-0.0","06573332","wem/bandit_party_1","A11THU6UGG3THR","either","5","932","","","","","","","0","0","1","","0.2973090059","0.6","0.4","0.8","0.2","0.3500549905","0.3448590315","0.2973090059","0.1418195479","","","","","","","","","","","","","","75","K","2","","","121","main_expt",""
"","bandit","202","518655","0.0-163.0-0.0","06573332","wem/bandit_party_1","A11THU6UGG3THR","either","5","30","","","","","","","0","0","1","0.1270782113","","0.6","0.4","0.8","0.2","","","","","0.2686616284","0.3593301016","0.3382791822","0.1270782113","","","","","","","","","","76","L","3","","","122","main_expt",""
"","bandit","203","520488","0.0-164.0-0.0","06573332","wem/bandit_party_1","A11THU6UGG3THR","either","5","293","","","","","","","0","0","1","","0.1207154071","0.6","0.4","0.8","0.2","0.2277230314","0.3680529171","0.3154347028","0.1207154071","","","","","","","","","","","","","","76","L","3","","","123","main_expt",""
"","bandit","204","522600","0.0-165.0-0.0","06573332","wem/bandit_party_1","A11THU6UGG3THR","either","5","565","","","","","","","0","0","1","0.3287090939","","0.6","0.4","0.8","0.2","","","","","0.3287090939","0.3476523483","0.2966737815","0.1229329119","","","","","","","","","","72","H","0","img/none_selected.jpg","","124","main_expt",""
"","bandit","205","524493","0.0-166.0-0.0","06573332","wem/bandit_party_1","A11THU6UGG3THR","either","5","355","","","","","","","0","1","0","","0.3687339586","0.6","0.4","0.8","0.2","0.3687339586","0.3564603465","0.3094831126","0.09241122996","","","","","","","","","","","","","","72","H","0","img/none_selected.jpg","","125","main_expt",""
"","bandit","206","526409","0.0-167.0-0.0","06573332","wem/bandit_party_1","A11THU6UGG3THR","either","5","361","","","","","","","0","0","1","0.3836195774","","0.6","0.4","0.8","0.2","","","","","0.3836195774","0.3550684458","0.2488993205","0.08418962236","","","","","","","","","","72","H","0","img/none_selected.jpg","","126","main_expt",""
"","bandit","207","528912","0.0-168.0-0.0","06573332","wem/bandit_party_1","A11THU6UGG3THR","either","5","948","","","","","","","0","0","1","","0.3235559827","0.6","0.4","0.8","0.2","0.3617365958","0.3235559827","0.1953487027","0.154715772","","","","","","","","","","","","","","74","J","1","","","127","main_expt",""
"","bandit","208","530823","0.0-169.0-0.0","06573332","wem/bandit_party_1","A11THU6UGG3THR","either","5","362","","","","","","","1","0","0","0.312087491","","0.6","0.4","0.8","0.2","","","","","0.3235283493","0.312087491","0.2171889907","0.1556709078","","","","","","","","","","74","J","1","","","128","main_expt",""
"","bandit","209","532600","0.0-170.0-0.0","06573332","wem/bandit_party_1","A11THU6UGG3THR","either","5","218","","","","","","","1","0","0","0.2843272188","","0.6","0.4","0.8","0.2","","","","","0.3453830546","0.2843272188","0.2467699801","0.1214200615","","","","","","","","","","74","J","1","","","129","main_expt",""
"","bandit","210","535271","0.0-171.0-0.0","06573332","wem/bandit_party_1","A11THU6UGG3THR","either","5","1120","","","","","","","0","0","1","","0.2128416856","0.6","0.4","0.8","0.2","0.3242747857","0.2128416856","0.2814443482","0.1377283829","","","","","","","","","","","","","","74","J","1","","","130","main_expt",""
"","bandit","211","537452","0.0-172.0-0.0","06573332","wem/bandit_party_1","A11THU6UGG3THR","either","5","622","","","","","","","0","1","0","","0.2403879813","0.6","0.4","0.8","0.2","0.3417201858","0.2403879813","0.2834176508","0.1397421628","","","","","","","","","","","","","","74","J","1","","","131","main_expt",""
"","bandit","212","539500","0.0-173.0-0.0","06573332","wem/bandit_party_1","A11THU6UGG3THR","either","5","509","","","","","","","0","0","1","","0.2811421594","0.6","0.4","0.8","0.2","0.3498614837","0.2811421594","0.2429908031","0.1061875113","","","","","","","","","","","","","","74","J","1","","","132","main_expt",""
"","bandit","213","541799","0.0-174.0-0.0","06573332","wem/bandit_party_1","A11THU6UGG3THR","either","5","748","","","","","","","0","1","0","","0.3002858371","0.6","0.4","0.8","0.2","0.3134828643","0.3002858371","0.3053559495","0.07774811701","","","","","","","","","","","","","","74","J","1","","","133","main_expt",""
"","bandit","214","543776","0.0-175.0-0.0","06573332","wem/bandit_party_1","A11THU6UGG3THR","either","5","357","","","","","","","0","0","1","0.277406375","","0.6","0.4","0.8","0.2","","","","","0.3554593188","0.277406375","0.2693478067","0.08211281178","","","","","","","","","","74","J","1","","","134","main_expt",""
"","bandit","215","545943","0.0-176.0-0.0","06573332","wem/bandit_party_1","A11THU6UGG3THR","either","5","611","","","","","","","0","0","1","0.2897147582","","0.6","0.4","0.8","0.2","","","","","0.3150900126","0.2897147582","0.3369166079","0.1123817552","","","","","","","","","","74","J","1","","","135","main_expt",""
"","bandit","216","547955","0.0-177.0-0.0","06573332","wem/bandit_party_1","A11THU6UGG3THR","either","5","456","","","","","","","0","0","1","","0.3590576628","0.6","0.4","0.8","0.2","0.3199395785","0.3590576628","0.268603144","0.1478339482","","","","","","","","","","","","","","74","J","1","","","136","main_expt",""
"","bandit","217","550382","0.0-178.0-0.0","06573332","wem/bandit_party_1","A11THU6UGG3THR","either","5","877","","","","","","","0","0","1","","0.3822427384","0.6","0.4","0.8","0.2","0.33362357","0.3822427384","0.2373427956","0.1374936615","","","","","","","","","","","","","","74","J","1","","","137","main_expt",""
"","bandit","218","552392","0.0-179.0-0.0","06573332","wem/bandit_party_1","A11THU6UGG3THR","either","5","467","","","","","","","0","1","0","","0.3410071165","0.6","0.4","0.8","0.2","0.3611324022","0.3410071165","0.2206869265","0.159761955","","","","","","","","","","","","","","74","J","1","","","138","main_expt",""
"","bandit","219","554371","0.0-180.0-0.0","06573332","wem/bandit_party_1","A11THU6UGG3THR","either","5","421","","","","","","","1","0","0","0.3738014659","","0.6","0.4","0.8","0.2","","","","","0.3504145086","0.3738014659","0.2177966349","0.1363721132","","","","","","","","","","74","J","1","","","139","main_expt",""
"","bandit","220","556337","0.0-181.0-0.0","06573332","wem/bandit_party_1","A11THU6UGG3THR","either","5","417","","","","","","","1","0","0","0.422575493","","0.6","0.4","0.8","0.2","","","","","0.309774603","0.422575493","0.2387685432","0.1031445192","","","","","","","","","","74","J","1","","","140","main_expt",""
"","bandit","221","558319","0.0-182.0-0.0","06573332","wem/bandit_party_1","A11THU6UGG3THR","either","5","432","","","","","","","0","0","1","","0.4439129864","0.6","0.4","0.8","0.2","0.3506531288","0.4439129864","0.2575087366","0.09805286369","","","","","","","","","","","","","","74","J","1","","","141","main_expt",""
"","bandit","222","560371","0.0-183.0-0.0","06573332","wem/bandit_party_1","A11THU6UGG3THR","either","5","466","","","","","","","0","0","1","0.4323802182","","0.6","0.4","0.8","0.2","","","","","0.2965027242","0.4323802182","0.2392038972","0.1149002948","","","","","","","","","","74","J","1","","","142","main_expt",""
"","bandit","223","562462","0.0-184.0-0.0","06573332","wem/bandit_party_1","A11THU6UGG3THR","either","5","565","","","","","","","0","1","0","","0.4358412593","0.6","0.4","0.8","0.2","0.2087517366","0.4358412593","0.2216470548","0.1209542099","","","","","","","","","","","","","","74","J","1","","","143","main_expt",""
"","bandit","224","564436","0.0-185.0-0.0","06573332","wem/bandit_party_1","A11THU6UGG3THR","either","5","407","","","","","","","1","0","0","0.4407373256","","0.6","0.4","0.8","0.2","","","","","0.2313605626","0.4407373256","0.2224896139","0.1202521083","","","","","","","","","","74","J","1","","","144","main_expt",""
"","bandit","225","566597","0.0-186.0-0.0","06573332","wem/bandit_party_1","A11THU6UGG3THR","either","5","614","","","","","","","0","1","0","","0.4661091035","0.6","0.4","0.8","0.2","0.1785565547","0.4661091035","0.1925605464","0.1619743669","","","","","","","","","","","","","","74","J","1","","","145","main_expt",""
"","bandit","226","568772","0.0-187.0-0.0","06573332","wem/bandit_party_1","A11THU6UGG3THR","either","5","644","","","","","","","0","1","0","","0.4637097668","0.6","0.4","0.8","0.2","0.1770660648","0.4637097668","0.2069800611","0.1664631043","","","","","","","","","","","","","","74","J","1","","","146","main_expt",""
"","bandit","227","570836","0.0-188.0-0.0","06573332","wem/bandit_party_1","A11THU6UGG3THR","either","5","469","","","","","","","0","1","0","","0.4700491642","0.6","0.4","0.8","0.2","0.1063371611","0.4700491642","0.2489662189","0.1669241763","","","","","","","","","","","","","","74","J","1","","","147","main_expt",""
"","bandit","228","572721","0.0-189.0-0.0","06573332","wem/bandit_party_1","A11THU6UGG3THR","either","5","349","","","","","","","0","0","1","","0.4648109734","0.6","0.4","0.8","0.2","0.1216370817","0.4648109734","0.1946464158","0.1581456949","","","","","","","","","","","","","","74","J","1","","","148","main_expt",""
"","bandit","229","574694","0.0-190.0-0.0","06573332","wem/bandit_party_1","A11THU6UGG3THR","either","5","428","","","","","","","0","0","1","0.4635511513","","0.6","0.4","0.8","0.2","","","","","0.1024256959","0.4635511513","0.1826562491","0.1698392466","","","","","","","","","","74","J","1","","","149","main_expt",""
"","bandit","230","576807","0.0-191.0-0.0","06573332","wem/bandit_party_1","A11THU6UGG3THR","either","5","561","","","","","","","0","0","1","","0.4445017148","0.6","0.4","0.8","0.2","0.1371094633","0.4445017148","0.1750473563","0.2140114634","","","","","","","","","","","","","","74","J","1","","","150","main_expt",""
"","bandit","231","579063","0.0-192.0-0.0","06573332","wem/bandit_party_1","A11THU6UGG3THR","either","5","713","","","","","","","0","0","1","","0.4434799742","0.6","0.4","0.8","0.2","0.1702433702","0.4434799742","0.1109536645","0.2392960001","","","","","","","","","","","","","","74","J","1","","","151","main_expt",""
"","bandit","232","581085","0.0-193.0-0.0","06573332","wem/bandit_party_1","A11THU6UGG3THR","either","5","466","","","","","","","0","0","1","","0.4451665291","0.6","0.4","0.8","0.2","0.1860489046","0.4451665291","0.1143086707","0.2095863317","","","","","","","","","","","","","","74","J","1","","","152","main_expt",""
"","bandit","233","583593","0.0-194.0-0.0","06573332","wem/bandit_party_1","A11THU6UGG3THR","either","5","962","","","","","","","0","1","0","","0.4401532833","0.6","0.4","0.8","0.2","0.2117094388","0.4401532833","0.1236290712","0.2543258611","","","","","","","","","","","","","","74","J","1","","","153","main_expt",""
"","bandit","234","586886","0.0-195.0-0.0","06573332","wem/bandit_party_1","A11THU6UGG3THR","either","5","1737","","","","","","","1","0","0","0.4516855879","","0.6","0.4","0.8","0.2","","","","","0.2072389033","0.4516855879","0.1600695342","0.2602259906","","","","","","","","","","74","J","1","","","154","main_expt",""
"","bandit","235","589280","0.0-196.0-0.0","06573332","wem/bandit_party_1","A11THU6UGG3THR","either","5","847","","","","","","","0","0","1","","0.1986333914","0.6","0.4","0.8","0.2","0.1986333914","0.4480264808","0.1770288166","0.2750581274","","","","","","","","","","","","","","72","H","0","img/none_selected.jpg","","155","main_expt",""
"","bandit","236","591301","0.0-197.0-0.0","06573332","wem/bandit_party_1","A11THU6UGG3THR","either","5","458","","","","","","","0","1","0","","0.4260414265","0.6","0.4","0.8","0.2","0.2054640346","0.4260414265","0.1761817894","0.2438045727","","","","","","","","","","","","","","74","J","1","","","156","main_expt",""
"","bandit","237","594125","0.0-198.0-0.0","06573332","wem/bandit_party_1","A11THU6UGG3THR","either","5","1269","","","","","","","0","1","0","","0.4365201507","0.6","0.4","0.8","0.2","0.1810715383","0.4365201507","0.1998830888","0.2857025143","","","","","","","","","","","","","","74","J","1","","","157","main_expt",""
"","bandit","238","596171","0.0-199.0-0.0","06573332","wem/bandit_party_1","A11THU6UGG3THR","either","5","505","","","","","","","0","0","1","0.4076244479","","0.6","0.4","0.8","0.2","","","","","0.2118906364","0.4076244479","0.2150354531","0.2887719476","","","","","","","","","","74","J","1","","","158","main_expt",""
"","bandit","239","598903","0.0-200.0-0.0","06573332","wem/bandit_party_1","A11THU6UGG3THR","either","5","1177","","","","","","","0","0","1","0.403953851","","0.6","0.4","0.8","0.2","","","","","0.2293976715","0.403953851","0.2221069796","0.2859462397","","","","","","","","","","74","J","1","","","159","main_expt",""
"","bandit","240","601157","0.0-201.0-0.0","06573332","wem/bandit_party_1","A11THU6UGG3THR","either","5","703","","","","","","","0","0","1","0.4282135537","","0.6","0.4","0.8","0.2","","","","","0.2186051381","0.4282135537","0.2627335039","0.207432816","","","","","","","","","","74","J","1","","","160","main_expt",""
"","bandit","241","603516","0.0-202.0-0.0","06573332","wem/bandit_party_1","A11THU6UGG3THR","either","5","817","","","","","","","0","0","1","0.1611694724","","0.6","0.4","0.8","0.2","","","","","0.2175927206","0.4479073124","0.2922457848","0.1611694724","","","","","","","","","","76","L","3","","","161","main_expt",""
"","bandit","242","605281","0.0-203.0-0.0","06573332","wem/bandit_party_1","A11THU6UGG3THR","either","5","224","","","","","","","0","0","1","0.3040212123","","0.6","0.4","0.8","0.2","","","","","0.2370404117","0.4456201243","0.3040212123","0.14378348","","","","","","","","","","75","K","2","","","162","main_expt",""
"","bandit","243","607144","0.0-204.0-0.0","06573332","wem/bandit_party_1","A11THU6UGG3THR","either","5","302","","","","","","","0","0","1","0.1707099899","","0.6","0.4","0.8","0.2","","","","","0.2778780432","0.4384930657","0.2933359027","0.1707099899","","","","","","","","","","76","L","3","","","163","main_expt",""
"","bandit","244","608972","0.0-205.0-0.0","06573332","wem/bandit_party_1","A11THU6UGG3THR","either","5","275","","","","","","","1","0","0","0.2388203062","","0.6","0.4","0.8","0.2","","","","","0.2643388611","0.4231568034","0.2388203062","0.1933693166","","","","","","","","","","75","K","2","","","164","main_expt",""
"","bandit","245","610789","0.0-206.0-0.0","06573332","wem/bandit_party_1","A11THU6UGG3THR","either","5","272","","","","","","","0","0","1","0.1967204453","","0.6","0.4","0.8","0.2","","","","","0.1967204453","0.4412535734","0.2646204916","0.2406324952","","","","","","","","","","72","H","0","img/none_selected.jpg","","165","main_expt",""
"","bandit","246","612626","0.0-207.0-0.0","06573332","wem/bandit_party_1","A11THU6UGG3THR","either","5","276","","","","","","","0","1","0","","0.2591758032","0.6","0.4","0.8","0.2","0.1567937345","0.438364003","0.2591758032","0.2650462377","","","","","","","","","","","","","","75","K","2","","","166","main_expt",""
"","bandit","247","614426","0.0-208.0-0.0","06573332","wem/bandit_party_1","A11THU6UGG3THR","either","5","257","","","","","","","0","0","1","","0.1201482918","0.6","0.4","0.8","0.2","0.1201482918","0.4290991351","0.1955934818","0.245875583","","","","","","","","","","","","","","72","H","0","img/none_selected.jpg","","167","main_expt",""
"","bandit","248","616010","0.0-209.0-0.0","06573332","wem/bandit_party_1","A11THU6UGG3THR","either","5","28","","","","","","","0","0","1","0.2090603634","","0.6","0.4","0.8","0.2","","","","","0.0936051119","0.4510860662","0.2090603634","0.257303599","","","","","","","","","","75","K","2","","","168","main_expt",""
"","bandit","249","617950","0.0-210.0-0.0","06573332","wem/bandit_party_1","A11THU6UGG3THR","either","5","389","","","","","","","0","0","1","","0.4491424364","0.6","0.4","0.8","0.2","0.08775096918","0.4491424364","0.2678479696","0.2993732043","","","","","","","","","","","","","","74","J","1","","","169","main_expt",""
"","bandit","250","619788","0.0-211.0-0.0","06573332","wem/bandit_party_1","A11THU6UGG3THR","either","5","288","","","","","","","0","0","1","0.2532125956","","0.6","0.4","0.8","0.2","","","","","0.06743429675","0.4332244901","0.2532125956","0.3388977639","","","","","","","","","","75","K","2","","","170","main_expt",""
"","bandit","251","621659","0.0-212.0-0.0","06573332","wem/bandit_party_1","A11THU6UGG3THR","either","5","322","","","","","","","0","0","1","0.2568627054","","0.6","0.4","0.8","0.2","","","","","0.05979118822","0.4405036994","0.2568627054","0.2947926635","","","","","","","","","","75","K","2","","","171","main_expt",""
"","bandit","252","623573","0.0-213.0-0.0","06573332","wem/bandit_party_1","A11THU6UGG3THR","either","5","384","","","","","","","0","0","1","0.2451563353","","0.6","0.4","0.8","0.2","","","","","0.03200499914","0.4358521759","0.2451563353","0.2892529657","","","","","","","","","","75","K","2","","","172","main_expt",""
"","bandit","253","625303","0.0-214.0-0.0","06573332","wem/bandit_party_1","A11THU6UGG3THR","either","5","191","","","","","","","0","0","1","","0.2571917514","0.6","0.4","0.8","0.2","0.04613358223","0.4471617722","0.3003395367","0.2571917514","","","","","","","","","","","","","","76","L","3","","","173","main_expt",""
"","bandit","254","626913","0.0-215.0-0.0","06573332","wem/bandit_party_1","A11THU6UGG3THR","either","5","70","","","","","","","0","0","1","0.4560251174","","0.6","0.4","0.8","0.2","","","","","0.05969677181","0.4560251174","0.2545998681","0.244173221","","","","","","","","","","74","J","1","","","174","main_expt",""
"","bandit","255","630165","0.0-216.0-0.0","06573332","wem/bandit_party_1","A11THU6UGG3THR","either","5","1691","","","","","","","0","0","1","","0.4379349024","0.6","0.4","0.8","0.2","0.05930066603","0.4379349024","0.3383135611","0.2038098688","","","","","","","","","","","","","","74","J","1","","","175","main_expt",""
"","bandit","256","631853","0.0-217.0-0.0","06573332","wem/bandit_party_1","A11THU6UGG3THR","either","5","135","","","","","","","0","0","1","","0.2053823003","0.6","0.4","0.8","0.2","0.08110879181","0.4328841116","0.3880627729","0.2053823003","","","","","","","","","","","","","","76","L","3","","","176","main_expt",""
"","bandit","257","633773","0.0-218.0-0.0","06573332","wem/bandit_party_1","A11THU6UGG3THR","either","5","364","","","","","","","0","1","0","","0.2193083282","0.6","0.4","0.8","0.2","0.07611568943","0.3965365967","0.3920994557","0.2193083282","","","","","","","","","","","","","","76","L","3","","","177","main_expt",""
"","bandit","258","635683","0.0-219.0-0.0","06573332","wem/bandit_party_1","A11THU6UGG3THR","either","5","348","","","","","","","0","0","1","","0.1904263594","0.6","0.4","0.8","0.2","0.1220467165","0.3899234309","0.3882277994","0.1904263594","","","","","","","","","","","","","","76","L","3","","","178","main_expt",""
"","bandit","259","637524","0.0-220.0-0.0","06573332","wem/bandit_party_1","A11THU6UGG3THR","either","5","287","","","","","","","0","0","1","0.3939691408","","0.6","0.4","0.8","0.2","","","","","0.1698853315","0.4238443777","0.3939691408","0.2212788648","","","","","","","","","","75","K","2","","","179","main_expt",""
"","bandit","260","639090","0.0-221.0-0.0","06573332","wem/bandit_party_1","A11THU6UGG3THR","either","5","16","","","","","","","0","0","1","0.1374762061","","0.6","0.4","0.8","0.2","","","","","0.1374762061","0.4487400994","0.4074656662","0.2640717145","","","","","","","","","","72","H","0","img/none_selected.jpg","","180","main_expt",""
"","bandit","261","641053","0.0-222.0-0.0","06573332","wem/bandit_party_1","A11THU6UGG3THR","either","5","404","","","","","","","0","0","1","0.09961924189","","0.6","0.4","0.8","0.2","","","","","0.09961924189","0.4314573438","0.3724421945","0.2426483564","","","","","","","","","","72","H","0","img/none_selected.jpg","","181","main_expt",""
"","bandit","262","642861","0.0-223.0-0.0","06573332","wem/bandit_party_1","A11THU6UGG3THR","either","5","253","","","","","","","0","0","1","","0.1391043194","0.6","0.4","0.8","0.2","0.1391043194","0.4458059303","0.2998177931","0.2001563476","","","","","","","","","","","","","","72","H","0","img/none_selected.jpg","","182","main_expt",""
"","bandit","263","644759","0.0-224.0-0.0","06573332","wem/bandit_party_1","A11THU6UGG3THR","either","5","344","","","","","","","1","0","0","0.4485460149","","0.6","0.4","0.8","0.2","","","","","0.1336424596","0.4485460149","0.3629728763","0.2167094124","","","","","","","","","","74","J","1","","","183","main_expt",""
"","bandit","264","646683","0.0-225.0-0.0","06573332","wem/bandit_party_1","A11THU6UGG3THR","either","5","366","","","","","","","0","1","0","","0.4078350507","0.6","0.4","0.8","0.2","0.115911235","0.4078350507","0.3763603645","0.2402813617","","","","","","","","","","","","","","74","J","1","","","184","main_expt",""
"","bandit","265","648615","0.0-226.0-0.0","06573332","wem/bandit_party_1","A11THU6UGG3THR","either","5","380","","","","","","","0","1","0","","0.3805788675","0.6","0.4","0.8","0.2","0.1394203739","0.3805788675","0.3472982705","0.2745112141","","","","","","","","","","","","","","74","J","1","","","185","main_expt",""
"","bandit","266","650662","0.0-227.0-0.0","06573332","wem/bandit_party_1","A11THU6UGG3THR","either","5","491","","","","","","","0","1","0","","0.4236809331","0.6","0.4","0.8","0.2","0.1557479742","0.4236809331","0.3095995051","0.2774566956","","","","","","","","","","","","","","74","J","1","","","186","main_expt",""
"","bandit","267","652586","0.0-228.0-0.0","06573332","wem/bandit_party_1","A11THU6UGG3THR","either","5","363","","","","","","","0","1","0","","0.4058627081","0.6","0.4","0.8","0.2","0.1823611596","0.4058627081","0.2567332284","0.2876011691","","","","","","","","","","","","","","74","J","1","","","187","main_expt",""
"","bandit","268","654450","0.0-229.0-0.0","06573332","wem/bandit_party_1","A11THU6UGG3THR","either","5","302","","","","","","","1","0","0","0.3913346521","","0.6","0.4","0.8","0.2","","","","","0.1854179297","0.3913346521","0.2555256861","0.2947112378","","","","","","","","","","74","J","1","","","188","main_expt",""
"","bandit","269","657616","0.0-230.0-0.0","06573332","wem/bandit_party_1","A11THU6UGG3THR","either","5","1611","","","","","","","0","0","1","","0.3760164219","0.6","0.4","0.8","0.2","0.1875645599","0.3760164219","0.2009875262","0.2581494","","","","","","","","","","","","","","74","J","1","","","189","main_expt",""
"","bandit","270","659691","0.0-231.0-0.0","06573332","wem/bandit_party_1","A11THU6UGG3THR","either","5","525","","","","","","","0","1","0","","0.3327352817","0.6","0.4","0.8","0.2","0.2018323604","0.3327352817","0.2055488595","0.1756323468","","","","","","","","","","","","","","74","J","1","","","190","main_expt",""
"","bandit","271","661603","0.0-232.0-0.0","06573332","wem/bandit_party_1","A11THU6UGG3THR","either","5","347","","","","","","","1","0","0","0.3015177445","","0.6","0.4","0.8","0.2","","","","","0.221094727","0.3015177445","0.1506387864","0.2521570866","","","","","","","","","","74","J","1","","","191","main_expt",""
"","bandit","272","663415","0.0-233.0-0.0","06573332","wem/bandit_party_1","A11THU6UGG3THR","either","5","230","","","","","","","0","0","1","","0.2773298268","0.6","0.4","0.8","0.2","0.2320570195","0.2773298268","0.2027442266","0.2964739449","","","","","","","","","","","","","","74","J","1","","","192","main_expt",""
"","bandit","273","665338","0.0-234.0-0.0","06573332","wem/bandit_party_1","A11THU6UGG3THR","either","5","336","","","","","","","0","0","1","","0.2836613797","0.6","0.4","0.8","0.2","0.2948950962","0.2836613797","0.1969137872","0.2612966838","","","","","","","","","","","","","","74","J","1","","","193","main_expt",""
"","bandit","274","667408","0.0-235.0-0.0","06573332","wem/bandit_party_1","A11THU6UGG3THR","either","5","510","","","","","","","0","0","1","","0.2799350415","0.6","0.4","0.8","0.2","0.2602906927","0.2799350415","0.2114994946","0.3292914436","","","","","","","","","","","","","","74","J","1","","","194","main_expt",""
"","bandit","275","669378","0.0-236.0-0.0","06573332","wem/bandit_party_1","A11THU6UGG3THR","either","5","423","","","","","","","0","1","0","","0.2068597772","0.6","0.4","0.8","0.2","0.1771499101","0.2068597772","0.2467939011","0.4070308407","","","","","","","","","","","","","","74","J","1","","","195","main_expt",""
"","bandit","276","671285","0.0-237.0-0.0","06573332","wem/bandit_party_1","A11THU6UGG3THR","either","5","360","","","","","","","0","0","1","","0.2679469531","0.6","0.4","0.8","0.2","0.1746274925","0.2679469531","0.2731811988","0.3494820729","","","","","","","","","","","","","","74","J","1","","","196","main_expt",""
"","bandit","277","673194","0.0-238.0-0.0","06573332","wem/bandit_party_1","A11THU6UGG3THR","either","5","364","","","","","","","0","0","1","","0.2448078588","0.6","0.4","0.8","0.2","0.193224684","0.2448078588","0.2512114903","0.3571939809","","","","","","","","","","","","","","74","J","1","","","197","main_expt",""
"","bandit","278","675119","0.0-239.0-0.0","06573332","wem/bandit_party_1","A11THU6UGG3THR","either","5","378","","","","","","","0","0","1","","0.2433987968","0.6","0.4","0.8","0.2","0.1771509929","0.2433987968","0.190651112","0.382430028","","","","","","","","","","","","","","74","J","1","","","198","main_expt",""
"","bandit","279","677039","0.0-240.0-0.0","06573332","wem/bandit_party_1","A11THU6UGG3THR","either","5","361","","","","","","","0","1","0","","0.2653624242","0.6","0.4","0.8","0.2","0.2466668772","0.2653624242","0.1701189695","0.3353474301","","","","","","","","","","","","","","74","J","1","","","199","main_expt",""
"","bandit","280","678952","0.0-241.0-0.0","06573332","wem/bandit_party_1","A11THU6UGG3THR","either","5","351","","","","","","","0","0","1","0.2551376492","","0.6","0.4","0.8","0.2","","","","","0.2477816141","0.2551376492","0.1656975488","0.3321976498","","","","","","","","","","74","J","1","","","200","main_expt",""
"","bandit","281","680855","0.0-242.0-0.0","06573332","wem/bandit_party_1","A11THU6UGG3THR","either","5","340","","","","","","","1","0","0","0.2660639347","","0.6","0.4","0.8","0.2","","","","","0.2744817861","0.2660639347","0.1647298582","0.3218117355","","","","","","","","","","74","J","1","","","201","main_expt",""
"","bandit","282","684137","0.0-243.0-0.0","06573332","wem/bandit_party_1","A11THU6UGG3THR","either","5","1737","","","","","","","1","0","0","0.2220900594","","0.6","0.4","0.8","0.2","","","","","0.3043062986","0.2220900594","0.1242041815","0.2949214693","","","","","","","","","","74","J","1","","","202","main_expt",""
"","bandit","283","686274","0.0-244.0-0.0","06573332","wem/bandit_party_1","A11THU6UGG3THR","either","5","569","","","","","","","0","0","1","","0.1543353204","0.6","0.4","0.8","0.2","0.272185569","0.1543353204","0.1684487429","0.300077299","","","","","","","","","","","","","","74","J","1","","","203","main_expt",""
"","bandit","284","688275","0.0-245.0-0.0","06573332","wem/bandit_party_1","A11THU6UGG3THR","either","5","450","","","","","","","0","0","1","0.1605482003","","0.6","0.4","0.8","0.2","","","","","0.2610767704","0.1605482003","0.1666409686","0.2866085977","","","","","","","","","","74","J","1","","","204","main_expt",""
"","bandit","285","689963","0.0-246.0-0.0","06573332","wem/bandit_party_1","A11THU6UGG3THR","either","5","132","","","","","","","0","0","1","","0.1406914754","0.6","0.4","0.8","0.2","0.2832615928","0.1406914754","0.2197286508","0.2695546272","","","","","","","","","","","","","","74","J","1","","","205","main_expt",""
"","bandit","286","691762","0.0-247.0-0.0","06573332","wem/bandit_party_1","A11THU6UGG3THR","either","5","236","","","","","","","0","0","1","0.1138947463","","0.6","0.4","0.8","0.2","","","","","0.300913322","0.1138947463","0.2754509052","0.2622178416","","","","","","","","","","74","J","1","","","206","main_expt",""
"","bandit","287","693808","0.0-248.0-0.0","06573332","wem/bandit_party_1","A11THU6UGG3THR","either","5","483","","","","","","","0","0","1","0.1096702189","","0.6","0.4","0.8","0.2","","","","","0.3260258847","0.1096702189","0.2664869377","0.2498186578","","","","","","","","","","74","J","1","","","207","main_expt",""
"","bandit","288","695634","0.0-249.0-0.0","06573332","wem/bandit_party_1","A11THU6UGG3THR","either","5","265","","","","","","","0","0","1","","0.09922356593","0.6","0.4","0.8","0.2","0.3173829003","0.09922356593","0.2686565688","0.2335358635","","","","","","","","","","","","","","74","J","1","","","208","main_expt",""
"","bandit","289","699215","0.0-250.0-0.0","06573332","wem/bandit_party_1","A11THU6UGG3THR","either","5","2027","","","","","","","0","0","1","","0.101567507","0.6","0.4","0.8","0.2","0.3153846937","0.101567507","0.2380255957","0.2638942681","","","","","","","","","","","","","","74","J","1","","","209","main_expt",""
"","bandit","290","701216","0.0-251.0-0.0","06573332","wem/bandit_party_1","A11THU6UGG3THR","either","5","446","","","","","","","0","0","1","0.3010876552","","0.6","0.4","0.8","0.2","","","","","0.3010876552","0.08675379402","0.2507768727","0.2526926237","","","","","","","","","","72","H","0","img/none_selected.jpg","","210","main_expt",""
"","bandit","291","703142","0.0-252.0-0.0","06573332","wem/bandit_party_1","A11THU6UGG3THR","either","5","368","","","","","","","1","0","0","0.2864900033","","0.6","0.4","0.8","0.2","","","","","0.2864900033","0.07512021269","0.2685142319","0.2740367769","","","","","","","","","","72","H","0","img/none_selected.jpg","","211","main_expt",""
"","bandit","292","705039","0.0-253.0-0.0","06573332","wem/bandit_party_1","A11THU6UGG3THR","either","5","341","","","","","","","0","0","1","0.3163372434","","0.6","0.4","0.8","0.2","","","","","0.3163372434","0.08144254236","0.260511483","0.2440836191","","","","","","","","","","72","H","0","img/none_selected.jpg","","212","main_expt",""
"","bandit","293","706932","0.0-254.0-0.0","06573332","wem/bandit_party_1","A11THU6UGG3THR","either","5","332","","","","","","","0","0","1","","0.2579605047","0.6","0.4","0.8","0.2","0.2701305136","0.06585574052","0.2579605047","0.2341903104","","","","","","","","","","","","","","75","K","2","","","213","main_expt",""
"","bandit","294","708764","0.0-255.0-0.0","06573332","wem/bandit_party_1","A11THU6UGG3THR","either","5","275","","","","","","","0","0","1","0.2470456849","","0.6","0.4","0.8","0.2","","","","","0.302599165","0.08686614453","0.2470456849","0.2097526345","","","","","","","","","","75","K","2","","","214","main_expt",""
"","bandit","295","710827","0.0-256.0-0.0","06573332","wem/bandit_party_1","A11THU6UGG3THR","either","5","505","","","","","","","0","0","1","0.3285383036","","0.6","0.4","0.8","0.2","","","","","0.2968005471","0.1068548489","0.3285383036","0.1796882487","","","","","","","","","","75","K","2","","","215","main_expt",""
"","bandit","296","712620","0.0-257.0-0.0","06573332","wem/bandit_party_1","A11THU6UGG3THR","either","5","234","","","","","","","0","0","1","","0.2237900511","0.6","0.4","0.8","0.2","0.2835536598","0.1211736082","0.3780044773","0.2237900511","","","","","","","","","","","","","","76","L","3","","","216","main_expt",""
"","bandit","297","714547","0.0-258.0-0.0","06573332","wem/bandit_party_1","A11THU6UGG3THR","either","5","385","","","","","","","0","1","0","","0.2265358539","0.6","0.4","0.8","0.2","0.2520762718","0.09343701815","0.3939228946","0.2265358539","","","","","","","","","","","","","","76","L","3","","","217","main_expt",""
"","bandit","298","716402","0.0-259.0-0.0","06573332","wem/bandit_party_1","A11THU6UGG3THR","either","5","298","","","","","","","0","0","1","","0.2364013437","0.6","0.4","0.8","0.2","0.2562699476","0.1001055386","0.3198270803","0.2364013437","","","","","","","","","","","","","","76","L","3","","","218","main_expt",""
"","bandit","299","718113","0.0-260.0-0.0","06573332","wem/bandit_party_1","A11THU6UGG3THR","either","5","152","","","","","","","0","0","1","","0.09524874014","0.6","0.4","0.8","0.2","0.3002431464","0.09524874014","0.3502502288","0.2810560361","","","","","","","","","","","","","","74","J","1","","","219","main_expt",""
"","bandit","300","720094","0.0-261.0-0.0","06573332","wem/bandit_party_1","A11THU6UGG3THR","either","5","425","","","","","","","0","0","1","","0.3027429446","0.6","0.4","0.8","0.2","0.3365413303","0.1304899995","0.3402456168","0.3027429446","","","","","","","","","","","","","","76","L","3","","","220","main_expt",""
"","bandit","301","721951","0.0-262.0-0.0","06573332","wem/bandit_party_1","A11THU6UGG3THR","either","5","302","","","","","","","0","1","0","","0.2946103072","0.6","0.4","0.8","0.2","0.2946103072","0.1272814923","0.3770059732","0.3132134988","","","","","","","","","","","","","","72","H","0","img/none_selected.jpg","","221","main_expt",""
"","bandit","302","723886","0.0-263.0-0.0","06573332","wem/bandit_party_1","A11THU6UGG3THR","either","5","378","","","","","","","0","0","1","","0.3267284332","0.6","0.4","0.8","0.2","0.3267284332","0.1654407056","0.3864421123","0.2424821827","","","","","","","","","","","","","","72","H","0","img/none_selected.jpg","","222","main_expt",""
"","bandit","303","725760","0.0-264.0-0.0","06573332","wem/bandit_party_1","A11THU6UGG3THR","either","5","318","","","","","","","0","0","1","","0.3175152631","0.6","0.4","0.8","0.2","0.3175152631","0.1788325852","0.4205211408","0.2595367495","","","","","","","","","","","","","","72","H","0","img/none_selected.jpg","","223","main_expt",""
"","bandit","304","727643","0.0-265.0-0.0","06573332","wem/bandit_party_1","A11THU6UGG3THR","either","5","328","","","","","","","1","0","0","0.3192400935","","0.6","0.4","0.8","0.2","","","","","0.3192400935","0.1736623033","0.4131889957","0.328819141","","","","","","","","","","72","H","0","img/none_selected.jpg","","224","main_expt",""
"","bandit","305","729433","0.0-266.0-0.0","06573332","wem/bandit_party_1","A11THU6UGG3THR","either","5","243","","","","","","","0","0","1","0.3096750449","","0.6","0.4","0.8","0.2","","","","","0.3096750449","0.1721911447","0.4001513574","0.356121412","","","","","","","","","","72","H","0","img/none_selected.jpg","","225","main_expt",""
"","bandit","306","731230","0.0-267.0-0.0","06573332","wem/bandit_party_1","A11THU6UGG3THR","either","5","145","","","","","","","0","0","1","0.3142833063","","0.6","0.4","0.8","0.2","","","","","0.3142833063","0.2133818582","0.3963688582","0.3394019192","","","","","","","","","","72","H","0","img/none_selected.jpg","","226","main_expt",""
"","bandit","307","733082","0.0-268.0-0.0","06573332","wem/bandit_party_1","A11THU6UGG3THR","either","5","294","","","","","","","1","0","0","0.3096885674","","0.6","0.4","0.8","0.2","","","","","0.3096885674","0.2620007467","0.3979714495","0.2860553004","","","","","","","","","","72","H","0","img/none_selected.jpg","","227","main_expt",""
"","bandit","308","735234","0.0-269.0-0.0","06573332","wem/bandit_party_1","A11THU6UGG3THR","either","5","590","","","","","","","0","0","1","","0.3048295172","0.6","0.4","0.8","0.2","0.3048295172","0.2961930455","0.3811043637","0.2967856672","","","","","","","","","","","","","","72","H","0","img/none_selected.jpg","","228","main_expt",""
"","bandit","309","737173","0.0-270.0-0.0","06573332","wem/bandit_party_1","A11THU6UGG3THR","either","5","377","","","","","","","1","0","0","0.2553920021","","0.6","0.4","0.8","0.2","","","","","0.2553920021","0.3081123415","0.3488149186","0.2857745529","","","","","","","","","","72","H","0","img/none_selected.jpg","","229","main_expt",""
"","bandit","310","738933","0.0-271.0-0.0","06573332","wem/bandit_party_1","A11THU6UGG3THR","either","5","206","","","","","","","0","1","0","","0.2783794412","0.6","0.4","0.8","0.2","0.2783794412","0.3027177586","0.2883621188","0.2589404948","","","","","","","","","","","","","","72","H","0","img/none_selected.jpg","","230","main_expt",""
"","bandit","311","740946","0.0-272.0-0.0","06573332","wem/bandit_party_1","A11THU6UGG3THR","either","5","465","","","","","","","0","0","1","0.2735536708","","0.6","0.4","0.8","0.2","","","","","0.2735536708","0.2495346478","0.2444465504","0.2628441024","","","","","","","","","","72","H","0","img/none_selected.jpg","","231","main_expt",""
"","bandit","312","742943","0.0-273.0-0.0","06573332","wem/bandit_party_1","A11THU6UGG3THR","either","5","441","","","","","","","0","0","1","0.2262440502","","0.6","0.4","0.8","0.2","","","","","0.2262440502","0.2185872191","0.2996930955","0.276537748","","","","","","","","","","72","H","0","img/none_selected.jpg","","232","main_expt",""
"","bandit","313","744864","0.0-274.0-0.0","06573332","wem/bandit_party_1","A11THU6UGG3THR","either","5","353","","","","","","","0","0","1","0.2171974885","","0.6","0.4","0.8","0.2","","","","","0.2171974885","0.1874863907","0.3103031796","0.2485723575","","","","","","","","","","72","H","0","img/none_selected.jpg","","233","main_expt",""
"","bandit","314","746580","0.0-275.0-0.0","06573332","wem/bandit_party_1","A11THU6UGG3THR","either","5","145","","","","","","","0","0","1","","0.2951485073","0.6","0.4","0.8","0.2","0.2951485073","0.2165838284","0.2971988612","0.2172766866","","","","","","","","","","","","","","72","H","0","img/none_selected.jpg","","234","main_expt",""
"","bandit","315","749848","0.0-276.0-0.0","06573332","wem/bandit_party_1","A11THU6UGG3THR","either","5","1725","","","","","","","1","0","0","0.3135740045","","0.6","0.4","0.8","0.2","","","","","0.3135740045","0.1791302586","0.3266576642","0.221542824","","","","","","","","","","72","H","0","img/none_selected.jpg","","235","main_expt",""
"","bandit","316","751839","0.0-277.0-0.0","06573332","wem/bandit_party_1","A11THU6UGG3THR","either","5","427","","","","","","","0","1","0","","0.2945285262","0.6","0.4","0.8","0.2","0.2945285262","0.2463713802","0.3596878827","0.2200573756","","","","","","","","","","","","","","72","H","0","img/none_selected.jpg","","236","main_expt",""
