"consent","trial_type","trial_index","time_elapsed","internal_node_id","subjID","study","MID","cond","drift","rt","responses","button_pressed","key_press","like","value","connected","gems","bombs","no_reward","GemPrChosen","BombPrChosen","GainOverPainPr_0","GainOverPainPr_1","GainOverPainPr_2","GainOverPainPr_3","LosePr_0","LosePr_1","LosePr_2","LosePr_3","WinPr_0","WinPr_1","WinPr_2","WinPr_3","Q0","Q1","Q2","gender","age","ethnicity","label","expt_phase","target","respCharCode","respKey","respChoiceNum","respChoice","practice","trial_counter","trial_label","Q0_index"
"GDM/GDM_behavioral_consent_30min_online.html","consent","0","35336","0.0-0.0","06932423","wem/bandit_party_1","A5B6HXICKBU3Q","either","4","","","","","","","","","","","","","","","","","","","","","","","","","","","","","","","","","","","","","","","","",""
"","survey-text","1","39258","0.0-1.0","06932423","wem/bandit_party_1","A5B6HXICKBU3Q","either","4","2908","{""Q0"":""A5B6HXICKBU3Q""}","","","","","","","","","","","","","","","","","","","","","","","","","","","","","","","","","","","","","","",""
"","button-response","2","42171","0.0-2.0","06932423","wem/bandit_party_1","A5B6HXICKBU3Q","either","4","1907","","0","","","","","","","","","","","","","","","","","","","","","","","","","","","","","","","","","","","","","",""
"","text-replacement","3","60273","0.0-3.0","06932423","wem/bandit_party_1","A5B6HXICKBU3Q","either","4","17097","","","32","","","","","","","","","","","","","","","","","","","","","","","","","","","","","","","","","","","","",""
"","text-replacement","4","69494","0.0-4.0","06932423","wem/bandit_party_1","A5B6HXICKBU3Q","either","4","9216","","","32","","","","","","","","","","","","","","","","","","","","","","","","","","","","","","","","","","","","",""
"","identification","5","77557","0.0-6.0-0.0","06932423","wem/bandit_party_1","A5B6HXICKBU3Q","either","4","8041","","","","3","3","2","","","","","","","","","","","","","","","","","","","","","","","","pre","identification_pre","the Democratic Party","","","","","","","",""
"","identification","6","88135","0.0-6.0-1.0","06932423","wem/bandit_party_1","A5B6HXICKBU3Q","either","4","9558","","","","4","4","4","","","","","","","","","","","","","","","","","","","","","","","","pre","identification_pre","the Republican party","","","","","","","",""
"","text-replacement","7","115783","0.0-7.0","06932423","wem/bandit_party_1","A5B6HXICKBU3Q","either","4","26644","","","32","","","","","","","","","","","","","","","","","","","","","","","","","","","","","","","","","","","","",""
"","text-replacement","8","121867","0.0-8.0","06932423","wem/bandit_party_1","A5B6HXICKBU3Q","either","4","6082","","","32","","","","","","","","","","","","","","","","","","","","","","","","","","","","","","","","","","","","",""
"","text-replacement","9","131293","0.0-9.0","06932423","wem/bandit_party_1","A5B6HXICKBU3Q","either","4","9423","","","32","","","","","","","","","","","","","","","","","","","","","","","","","","","","","","","","","","","","",""
"","text-replacement","10","140257","0.0-10.0","06932423","wem/bandit_party_1","A5B6HXICKBU3Q","either","4","8962","","","32","","","","","","","","","","","","","","","","","","","","","","","","","","","","","","","","","","","","",""
"","text-replacement","11","145307","0.0-11.0","06932423","wem/bandit_party_1","A5B6HXICKBU3Q","either","4","5049","","","32","","","","","","","","","","","","","","","","","","","","","","","","","","","","","","","","","","","","",""
"","bandit","12","148215","0.0-12.0-0.0","06932423","wem/bandit_party_1","A5B6HXICKBU3Q","either","4","1398","","","","","","","0","0","1","0","0","","","","","0","","","","0","","","","","","","","","","","","","74","J","0","img/none_selected_demo.jpg","true","0","",""
"","bandit","13","150363","0.0-13.0-0.0","06932423","wem/bandit_party_1","A5B6HXICKBU3Q","either","4","641","","","","","","","0","0","1","0","0","","","","","0","","","","0","","","","","","","","","","","","","75","K","0","img/none_selected_demo.jpg","true","0","",""
"","text-replacement","14","157059","0.0-14.0","06932423","wem/bandit_party_1","A5B6HXICKBU3Q","either","4","6693","","","32","","","","","","","","","","","","","","","","","","","","","","","","","","","","","","","","","","","","",""
"","text-replacement","15","162374","0.0-15.0","06932423","wem/bandit_party_1","A5B6HXICKBU3Q","either","4","5311","","","32","","","","","","","","","","","","","","","","","","","","","","","","","","","","","","","","","","","","",""
"","text-replacement","16","168875","0.0-16.0","06932423","wem/bandit_party_1","A5B6HXICKBU3Q","either","4","6499","","","32","","","","","","","","","","","","","","","","","","","","","","","","","","","","","","","","","","","","",""
"","text-replacement","17","177967","0.0-17.0","06932423","wem/bandit_party_1","A5B6HXICKBU3Q","either","4","9089","","","32","","","","","","","","","","","","","","","","","","","","","","","","","","","","","","","","","","","","",""
"","bandit","18","180983","0.0-18.0-0.0","06932423","wem/bandit_party_1","A5B6HXICKBU3Q","either","4","1507","","","","","","","1","0","0","0.8","","0.5","0.5","","","","","","","0.8","0.2","","","","","","","","","","","","74","J","0","img/none_selected_demo.jpg","true","0","80_20_practice",""
"","bandit","19","183268","0.0-18.0-1.0","06932423","wem/bandit_party_1","A5B6HXICKBU3Q","either","4","775","","","","","","","0","0","1","0.2","","0.5","0.5","","","","","","","0.8","0.2","","","","","","","","","","","","75","K","1","","true","0","80_20_practice",""
"","bandit","20","185290","0.0-18.0-2.0","06932423","wem/bandit_party_1","A5B6HXICKBU3Q","either","4","514","","","","","","","0","0","1","0.2","","0.5","0.5","","","","","","","0.8","0.2","","","","","","","","","","","","75","K","1","","true","0","80_20_practice",""
"","bandit","21","187135","0.0-18.0-3.0","06932423","wem/bandit_party_1","A5B6HXICKBU3Q","either","4","339","","","","","","","0","0","1","0.8","","0.5","0.5","","","","","","","0.8","0.2","","","","","","","","","","","","74","J","0","img/none_selected_demo.jpg","true","0","80_20_practice",""
"","bandit","22","189029","0.0-18.0-4.0","06932423","wem/bandit_party_1","A5B6HXICKBU3Q","either","4","387","","","","","","","0","1","0","","0.8","0.5","0.5","","","0.8","0.2","","","","","","","","","","","","","","","","74","J","0","img/none_selected_demo.jpg","true","0","80_20_practice",""
"","bandit","23","190866","0.0-18.0-5.0","06932423","wem/bandit_party_1","A5B6HXICKBU3Q","either","4","330","","","","","","","0","0","1","","0.2","0.5","0.5","","","0.8","0.2","","","","","","","","","","","","","","","","75","K","1","","true","0","80_20_practice",""
"","bandit","24","192663","0.0-18.0-6.0","06932423","wem/bandit_party_1","A5B6HXICKBU3Q","either","4","289","","","","","","","0","0","1","0.2","","0.5","0.5","","","","","","","0.8","0.2","","","","","","","","","","","","75","K","1","","true","0","80_20_practice",""
"","bandit","25","194512","0.0-18.0-7.0","06932423","wem/bandit_party_1","A5B6HXICKBU3Q","either","4","341","","","","","","","0","1","0","","0.8","0.5","0.5","","","0.8","0.2","","","","","","","","","","","","","","","","74","J","0","img/none_selected_demo.jpg","true","0","80_20_practice",""
"","bandit","26","196465","0.0-18.0-8.0","06932423","wem/bandit_party_1","A5B6HXICKBU3Q","either","4","445","","","","","","","0","1","0","","0.8","0.5","0.5","","","0.8","0.2","","","","","","","","","","","","","","","","74","J","0","img/none_selected_demo.jpg","true","0","80_20_practice",""
"","bandit","27","198434","0.0-18.0-9.0","06932423","wem/bandit_party_1","A5B6HXICKBU3Q","either","4","463","","","","","","","0","1","0","","0.2","0.5","0.5","","","0.8","0.2","","","","","","","","","","","","","","","","75","K","1","","true","0","80_20_practice",""
"","bandit","28","200451","0.0-18.0-10.0","06932423","wem/bandit_party_1","A5B6HXICKBU3Q","either","4","510","","","","","","","1","0","0","0.8","","0.5","0.5","","","","","","","0.8","0.2","","","","","","","","","","","","74","J","0","img/none_selected_demo.jpg","true","0","80_20_practice",""
"","bandit","29","202421","0.0-18.0-11.0","06932423","wem/bandit_party_1","A5B6HXICKBU3Q","either","4","461","","","","","","","1","0","0","0.8","","0.5","0.5","","","","","","","0.8","0.2","","","","","","","","","","","","74","J","0","img/none_selected_demo.jpg","true","0","80_20_practice",""
"","bandit","30","204394","0.0-18.0-12.0","06932423","wem/bandit_party_1","A5B6HXICKBU3Q","either","4","462","","","","","","","1","0","0","0.8","","0.5","0.5","","","","","","","0.8","0.2","","","","","","","","","","","","74","J","0","img/none_selected_demo.jpg","true","0","80_20_practice",""
"","bandit","31","206350","0.0-18.0-13.0","06932423","wem/bandit_party_1","A5B6HXICKBU3Q","either","4","446","","","","","","","0","0","1","","0.2","0.5","0.5","","","0.8","0.2","","","","","","","","","","","","","","","","75","K","1","","true","0","80_20_practice",""
"","bandit","32","209240","0.0-18.0-14.0","06932423","wem/bandit_party_1","A5B6HXICKBU3Q","either","4","1382","","","","","","","0","0","1","","0.2","0.5","0.5","","","0.8","0.2","","","","","","","","","","","","","","","","75","K","1","","true","0","80_20_practice",""
"","bandit","33","211077","0.0-18.0-15.0","06932423","wem/bandit_party_1","A5B6HXICKBU3Q","either","4","328","","","","","","","1","0","0","0.8","","0.5","0.5","","","","","","","0.8","0.2","","","","","","","","","","","","74","J","0","img/none_selected_demo.jpg","true","0","80_20_practice",""
"","bandit","34","213039","0.0-18.0-16.0","06932423","wem/bandit_party_1","A5B6HXICKBU3Q","either","4","452","","","","","","","1","0","0","0.8","","0.5","0.5","","","","","","","0.8","0.2","","","","","","","","","","","","74","J","0","img/none_selected_demo.jpg","true","0","80_20_practice",""
"","bandit","35","214939","0.0-18.0-17.0","06932423","wem/bandit_party_1","A5B6HXICKBU3Q","either","4","391","","","","","","","0","1","0","","0.8","0.5","0.5","","","0.8","0.2","","","","","","","","","","","","","","","","74","J","0","img/none_selected_demo.jpg","true","0","80_20_practice",""
"","bandit","36","216755","0.0-18.0-18.0","06932423","wem/bandit_party_1","A5B6HXICKBU3Q","either","4","307","","","","","","","1","0","0","0.8","","0.5","0.5","","","","","","","0.8","0.2","","","","","","","","","","","","74","J","0","img/none_selected_demo.jpg","true","0","80_20_practice",""
"","bandit","37","218584","0.0-18.0-19.0","06932423","wem/bandit_party_1","A5B6HXICKBU3Q","either","4","318","","","","","","","1","0","0","0.8","","0.5","0.5","","","","","","","0.8","0.2","","","","","","","","","","","","74","J","0","img/none_selected_demo.jpg","true","0","80_20_practice",""
"","text-replacement","38","221794","0.0-19.0","06932423","wem/bandit_party_1","A5B6HXICKBU3Q","either","4","3206","","","32","","","","","","","","","","","","","","","","","","","","","","","","","","","","","","","","","","","","",""
"","bandit","39","224892","0.0-20.0-0.0","06932423","wem/bandit_party_1","A5B6HXICKBU3Q","either","4","1588","","","","","","","1","0","0","1","0","","","","","0","1","","","1","0","","","","","","","","","","","","74","J","0","img/none_selected_demo.jpg","true","0","",""
"","text-replacement","40","229901","0.0-21.0","06932423","wem/bandit_party_1","A5B6HXICKBU3Q","either","4","5004","","","32","","","","","","","","","","","","","","","","","","","","","","","","","","","","","","","","","","","","",""
"","text-replacement","41","239268","0.0-22.0","06932423","wem/bandit_party_1","A5B6HXICKBU3Q","either","4","9364","","","32","","","","","","","","","","","","","","","","","","","","","","","","","","","","","","","","","","","","",""
"","text-replacement","42","242090","0.0-23.0","06932423","wem/bandit_party_1","A5B6HXICKBU3Q","either","4","2820","","","32","","","","","","","","","","","","","","","","","","","","","","","","","","","","","","","","","","","","",""
"","text-replacement","43","244946","0.0-24.0","06932423","wem/bandit_party_1","A5B6HXICKBU3Q","either","4","2851","","","32","","","","","","","","","","","","","","","","","","","","","","","","","","","","","","","","","","","","",""
"","text-replacement","44","253315","0.0-25.0","06932423","wem/bandit_party_1","A5B6HXICKBU3Q","either","4","8366","","","32","","","","","","","","","","","","","","","","","","","","","","","","","","","","","","","","","","","","",""
"","text-replacement","45","256393","0.0-26.0","06932423","wem/bandit_party_1","A5B6HXICKBU3Q","either","4","3075","","","32","","","","","","","","","","","","","","","","","","","","","","","","","","","","","","","","","","","","",""
"","text-replacement","46","261834","0.0-27.0","06932423","wem/bandit_party_1","A5B6HXICKBU3Q","either","4","5438","","","32","","","","","","","","","","","","","","","","","","","","","","","","","","","","","","","","","","","","",""
"","text-replacement","47","266919","0.0-28.0","06932423","wem/bandit_party_1","A5B6HXICKBU3Q","either","4","5079","","","32","","","","","","","","","","","","","","","","","","","","","","","","","","","","","","","","","","","","",""
"","text-replacement","48","274058","0.0-29.0","06932423","wem/bandit_party_1","A5B6HXICKBU3Q","either","4","7135","","","32","","","","","","","","","","","","","","","","","","","","","","","","","","","","","","","","","","","","",""
"","text-replacement","49","276168","0.0-30.0","06932423","wem/bandit_party_1","A5B6HXICKBU3Q","either","4","2107","","","32","","","","","","","","","","","","","","","","","","","","","","","","","","","","","","","","","","","","",""
"","text-replacement","50","277867","0.0-31.0","06932423","wem/bandit_party_1","A5B6HXICKBU3Q","either","4","1697","","","32","","","","","","","","","","","","","","","","","","","","","","","","","","","","","","","","","","","","",""
"","bandit","51","280004","0.0-32.0-0.0","06932423","wem/bandit_party_1","A5B6HXICKBU3Q","either","4","626","","","","","","","1","0","0","0.8","","0.5","0.5","0.5","0.5","","","","","0.8","0.2","0.6","0.2","","","","","","","","","","72","H","0","img/none_selected.jpg","true","0","full_practice",""
"","bandit","52","281808","0.0-32.0-1.0","06932423","wem/bandit_party_1","A5B6HXICKBU3Q","either","4","297","","","","","","","0","0","1","0.2","","0.5","0.5","0.5","0.5","","","","","0.8","0.2","0.6","0.2","","","","","","","","","","74","J","1","","true","0","full_practice",""
"","bandit","53","283570","0.0-32.0-2.0","06932423","wem/bandit_party_1","A5B6HXICKBU3Q","either","4","256","","","","","","","1","0","0","0.8","","0.5","0.5","0.5","0.5","","","","","0.8","0.2","0.6","0.2","","","","","","","","","","72","H","0","img/none_selected.jpg","true","0","full_practice",""
"","bandit","54","286330","0.0-32.0-3.0","06932423","wem/bandit_party_1","A5B6HXICKBU3Q","either","4","1250","","","","","","","0","1","0","","0.6","0.5","0.5","0.5","0.5","0.8","0.2","0.6","0.2","","","","","","","","","","","","","","75","K","2","","true","0","full_practice",""
"","bandit","55","288135","0.0-32.0-4.0","06932423","wem/bandit_party_1","A5B6HXICKBU3Q","either","4","297","","","","","","","0","1","0","","0.2","0.5","0.5","0.5","0.5","0.8","0.2","0.6","0.2","","","","","","","","","","","","","","76","L","3","","true","0","full_practice",""
"","bandit","56","289921","0.0-32.0-5.0","06932423","wem/bandit_party_1","A5B6HXICKBU3Q","either","4","278","","","","","","","1","0","0","0.6","","0.5","0.5","0.5","0.5","","","","","0.8","0.2","0.6","0.2","","","","","","","","","","75","K","2","","true","0","full_practice",""
"","bandit","57","291699","0.0-32.0-6.0","06932423","wem/bandit_party_1","A5B6HXICKBU3Q","either","4","270","","","","","","","1","0","0","0.2","","0.5","0.5","0.5","0.5","","","","","0.8","0.2","0.6","0.2","","","","","","","","","","76","L","3","","true","0","full_practice",""
"","bandit","58","293901","0.0-32.0-7.0","06932423","wem/bandit_party_1","A5B6HXICKBU3Q","either","4","696","","","","","","","1","0","0","0.8","","0.5","0.5","0.5","0.5","","","","","0.8","0.2","0.6","0.2","","","","","","","","","","72","H","0","img/none_selected.jpg","true","0","full_practice",""
"","bandit","59","295705","0.0-32.0-8.0","06932423","wem/bandit_party_1","A5B6HXICKBU3Q","either","4","295","","","","","","","0","0","1","","0.2","0.5","0.5","0.5","0.5","0.8","0.2","0.6","0.2","","","","","","","","","","","","","","74","J","1","","true","0","full_practice",""
"","bandit","60","297491","0.0-32.0-9.0","06932423","wem/bandit_party_1","A5B6HXICKBU3Q","either","4","275","","","","","","","0","0","1","0.6","","0.5","0.5","0.5","0.5","","","","","0.8","0.2","0.6","0.2","","","","","","","","","","75","K","2","","true","0","full_practice",""
"","bandit","61","299436","0.0-32.0-10.0","06932423","wem/bandit_party_1","A5B6HXICKBU3Q","either","4","435","","","","","","","0","0","1","","0.2","0.5","0.5","0.5","0.5","0.8","0.2","0.6","0.2","","","","","","","","","","","","","","76","L","3","","true","0","full_practice",""
"","bandit","62","301340","0.0-32.0-11.0","06932423","wem/bandit_party_1","A5B6HXICKBU3Q","either","4","397","","","","","","","1","0","0","0.6","","0.5","0.5","0.5","0.5","","","","","0.8","0.2","0.6","0.2","","","","","","","","","","75","K","2","","true","0","full_practice",""
"","bandit","63","303092","0.0-32.0-12.0","06932423","wem/bandit_party_1","A5B6HXICKBU3Q","either","4","246","","","","","","","1","0","0","0.8","","0.5","0.5","0.5","0.5","","","","","0.8","0.2","0.6","0.2","","","","","","","","","","72","H","0","img/none_selected.jpg","true","0","full_practice",""
"","bandit","64","304852","0.0-32.0-13.0","06932423","wem/bandit_party_1","A5B6HXICKBU3Q","either","4","251","","","","","","","0","0","1","","0.2","0.5","0.5","0.5","0.5","0.8","0.2","0.6","0.2","","","","","","","","","","","","","","74","J","1","","true","0","full_practice",""
"","bandit","65","306992","0.0-32.0-14.0","06932423","wem/bandit_party_1","A5B6HXICKBU3Q","either","4","290","","","","","","","1","0","0","0.6","","0.5","0.5","0.5","0.5","","","","","0.8","0.2","0.6","0.2","","","","","","","","","","75","K","2","","true","0","full_practice",""
"","bandit","66","308777","0.0-32.0-15.0","06932423","wem/bandit_party_1","A5B6HXICKBU3Q","either","4","277","","","","","","","1","0","0","0.6","","0.5","0.5","0.5","0.5","","","","","0.8","0.2","0.6","0.2","","","","","","","","","","75","K","2","","true","0","full_practice",""
"","bandit","67","310624","0.0-32.0-16.0","06932423","wem/bandit_party_1","A5B6HXICKBU3Q","either","4","340","","","","","","","1","0","0","0.6","","0.5","0.5","0.5","0.5","","","","","0.8","0.2","0.6","0.2","","","","","","","","","","75","K","2","","true","0","full_practice",""
"","bandit","68","312426","0.0-32.0-17.0","06932423","wem/bandit_party_1","A5B6HXICKBU3Q","either","4","294","","","","","","","0","0","1","0.2","","0.5","0.5","0.5","0.5","","","","","0.8","0.2","0.6","0.2","","","","","","","","","","76","L","3","","true","0","full_practice",""
"","bandit","69","314214","0.0-32.0-18.0","06932423","wem/bandit_party_1","A5B6HXICKBU3Q","either","4","281","","","","","","","0","0","1","","0.6","0.5","0.5","0.5","0.5","0.8","0.2","0.6","0.2","","","","","","","","","","","","","","75","K","2","","true","0","full_practice",""
"","bandit","70","315959","0.0-32.0-19.0","06932423","wem/bandit_party_1","A5B6HXICKBU3Q","either","4","237","","","","","","","0","0","1","0.2","","0.5","0.5","0.5","0.5","","","","","0.8","0.2","0.6","0.2","","","","","","","","","","74","J","1","","true","0","full_practice",""
"","text","71","324761","0.0-33.0","06932423","wem/bandit_party_1","A5B6HXICKBU3Q","either","4","8787","","","32","","","","","","","","","","","","","","","","","","","","","","","","","","","","","","","","","","","","",""
"","text-replacement","72","338703","0.0-34.0","06932423","wem/bandit_party_1","A5B6HXICKBU3Q","either","4","12937","","","32","","","","","","","","","","","","","","","","","","","","","","","","","","","","","","","","","","","","",""
"","text-replacement","73","361794","0.0-35.0","06932423","wem/bandit_party_1","A5B6HXICKBU3Q","either","4","23087","","","32","","","","","","","","","","","","","","","","","","","","","","","","","","","","","","","","","","","","",""
"","text-replacement","74","367707","0.0-36.0","06932423","wem/bandit_party_1","A5B6HXICKBU3Q","either","4","5910","","","32","","","","","","","","","","","","","","","","","","","","","","","","","","","","","","","","","","","","",""
"","text-replacement","75","373666","0.0-37.0","06932423","wem/bandit_party_1","A5B6HXICKBU3Q","either","4","5956","","","32","","","","","","","","","","","","","","","","","","","","","","","","","","","","","","","","","","","","",""
"","text-replacement","76","377112","0.0-38.0","06932423","wem/bandit_party_1","A5B6HXICKBU3Q","either","4","3443","","","32","","","","","","","","","","","","","","","","","","","","","","","","","","","","","","","","","","","","",""
"","survey-multi-choice-replacement","77","382769","0.0-39.0-0.0","06932423","wem/bandit_party_1","A5B6HXICKBU3Q","either","4","5648","","","","","","","","","","","","","","","","","","","","","","","","Money will be added to the pool for <span style='color:red;'>REPUBLICANS</span>","","","","","","","attn_check","","","","","","","","","0"
"","survey-multi-choice-replacement","78","387276","0.0-40.0-0.0","06932423","wem/bandit_party_1","A5B6HXICKBU3Q","either","4","3494","","","","","","","","","","","","","","","","","","","","","","","","Equal amounts of money will be added to the pool for <span style='color:red;'>REPUBLICANS</span> and subtracted from the pool for <span style='color:blue;'>DEMOCRATS</span>","","","","","","","attn_check","","","","","","","","","2"
"","survey-multi-choice-replacement","79","393118","0.0-41.0-0.0","06932423","wem/bandit_party_1","A5B6HXICKBU3Q","either","4","4832","","","","","","","","","","","","","","","","","","","","","","","","No money will be added to either pool","","","","","","","attn_check","","","","","","","","","3"
"","bandit","80","397910","0.0-42.0-0.0","06932423","wem/bandit_party_1","A5B6HXICKBU3Q","either","4","2278","","","","","","","0","1","0","","0.3242650943","0.4","0.2","0.8","0.6","0.3242650943","0.2771551185","0.3525715257","0.3894728165","","","","","","","","","","","","","","72","H","0","img/none_selected.jpg","","1","main_expt",""
"","bandit","81","399921","0.0-43.0-0.0","06932423","wem/bandit_party_1","A5B6HXICKBU3Q","either","4","499","","","","","","","0","0","1","0.3296228245","","0.4","0.2","0.8","0.6","","","","","0.3296228245","0.3030893157","0.390153736","0.363660736","","","","","","","","","","72","H","0","img/none_selected.jpg","","2","main_expt",""
"","bandit","82","401811","0.0-44.0-0.0","06932423","wem/bandit_party_1","A5B6HXICKBU3Q","either","4","378","","","","","","","0","0","1","","0.3102780753","0.4","0.2","0.8","0.6","0.3102780753","0.3211059343","0.3725447061","0.3842171554","","","","","","","","","","","","","","72","H","0","img/none_selected.jpg","","3","main_expt",""
"","bandit","83","403622","0.0-45.0-0.0","06932423","wem/bandit_party_1","A5B6HXICKBU3Q","either","4","301","","","","","","","0","1","0","","0.2804386453","0.4","0.2","0.8","0.6","0.2749892112","0.2804386453","0.3431524481","0.3831963053","","","","","","","","","","","","","","74","J","1","","","4","main_expt",""
"","bandit","84","405441","0.0-46.0-0.0","06932423","wem/bandit_party_1","A5B6HXICKBU3Q","either","4","311","","","","","","","0","1","0","","0.2609559086","0.4","0.2","0.8","0.6","0.3037824898","0.2609559086","0.3448007793","0.4056596471","","","","","","","","","","","","","","74","J","1","","","5","main_expt",""
"","bandit","85","407229","0.0-47.0-0.0","06932423","wem/bandit_party_1","A5B6HXICKBU3Q","either","4","277","","","","","","","0","0","1","0.2259287768","","0.4","0.2","0.8","0.6","","","","","0.3217417103","0.2259287768","0.3980888019","0.4409946319","","","","","","","","","","74","J","1","","","6","main_expt",""
"","bandit","86","409001","0.0-48.0-0.0","06932423","wem/bandit_party_1","A5B6HXICKBU3Q","either","4","265","","","","","","","0","0","1","","0.2433618728","0.4","0.2","0.8","0.6","0.3018715163","0.2433618728","0.3693121862","0.3821747998","","","","","","","","","","","","","","74","J","1","","","7","main_expt",""
"","bandit","87","410805","0.0-49.0-0.0","06932423","wem/bandit_party_1","A5B6HXICKBU3Q","either","4","296","","","","","","","1","0","0","0.2933697555","","0.4","0.2","0.8","0.6","","","","","0.3643645816","0.2025356769","0.2933697555","0.3841844813","","","","","","","","","","75","K","2","","","8","main_expt",""
"","bandit","88","412699","0.0-50.0-0.0","06932423","wem/bandit_party_1","A5B6HXICKBU3Q","either","4","311","","","","","","","0","0","1","0.3036212831","","0.4","0.2","0.8","0.6","","","","","0.3418610374","0.1441028094","0.3036212831","0.3412237964","","","","","","","","","","75","K","2","","","9","main_expt",""
"","bandit","89","414360","0.0-51.0-0.0","06932423","wem/bandit_party_1","A5B6HXICKBU3Q","either","4","153","","","","","","","0","0","1","0.308020301","","0.4","0.2","0.8","0.6","","","","","0.3190157878","0.1736005971","0.308020301","0.3256420777","","","","","","","","","","75","K","2","","","10","main_expt",""
"","bandit","90","415898","0.0-52.0-0.0","06932423","wem/bandit_party_1","A5B6HXICKBU3Q","either","4","30","","","","","","","0","0","1","0.3514007431","","0.4","0.2","0.8","0.6","","","","","0.2998731478","0.1836365694","0.3065973113","0.3514007431","","","","","","","","","","76","L","3","","","11","main_expt",""
"","bandit","91","417688","0.0-53.0-0.0","06932423","wem/bandit_party_1","A5B6HXICKBU3Q","either","4","261","","","","","","","0","0","1","","0.3722032088","0.4","0.2","0.8","0.6","0.2942822571","0.2143869662","0.3271859636","0.3722032088","","","","","","","","","","","","","","76","L","3","","","12","main_expt",""
"","bandit","92","419366","0.0-54.0-0.0","06932423","wem/bandit_party_1","A5B6HXICKBU3Q","either","4","172","","","","","","","0","1","0","","0.1637139448","0.4","0.2","0.8","0.6","0.3009212619","0.1637139448","0.2761076709","0.3681707299","","","","","","","","","","","","","","74","J","1","","","13","main_expt",""
"","bandit","93","421145","0.0-55.0-0.0","06932423","wem/bandit_party_1","A5B6HXICKBU3Q","either","4","271","","","","","","","0","0","1","","0.1488535162","0.4","0.2","0.8","0.6","0.3227424667","0.1488535162","0.2311164494","0.3528222564","","","","","","","","","","","","","","74","J","1","","","14","main_expt",""
"","bandit","94","422896","0.0-56.0-0.0","06932423","wem/bandit_party_1","A5B6HXICKBU3Q","either","4","240","","","","","","","0","0","1","","0.1332411271","0.4","0.2","0.8","0.6","0.3547546862","0.1332411271","0.2905977425","0.3738838661","","","","","","","","","","","","","","74","J","1","","","15","main_expt",""
"","bandit","95","424703","0.0-57.0-0.0","06932423","wem/bandit_party_1","A5B6HXICKBU3Q","either","4","265","","","","","","","1","0","0","0.3241157583","","0.4","0.2","0.8","0.6","","","","","0.3241157583","0.09882415698","0.2924554969","0.3385239332","","","","","","","","","","72","H","0","img/none_selected.jpg","","16","main_expt",""
"","bandit","96","426529","0.0-58.0-0.0","06932423","wem/bandit_party_1","A5B6HXICKBU3Q","either","4","318","","","","","","","0","0","1","","0.3363410386","0.4","0.2","0.8","0.6","0.3363410386","0.1069157009","0.3114836302","0.3111355138","","","","","","","","","","","","","","72","H","0","img/none_selected.jpg","","17","main_expt",""
"","bandit","97","428323","0.0-59.0-0.0","06932423","wem/bandit_party_1","A5B6HXICKBU3Q","either","4","288","","","","","","","0","1","0","","0.3880947854","0.4","0.2","0.8","0.6","0.3880947854","0.134958137","0.3215333475","0.3487767647","","","","","","","","","","","","","","72","H","0","img/none_selected.jpg","","18","main_expt",""
"","bandit","98","430192","0.0-60.0-0.0","06932423","wem/bandit_party_1","A5B6HXICKBU3Q","either","4","360","","","","","","","0","1","0","","0.4116912081","0.4","0.2","0.8","0.6","0.4116912081","0.1230418706","0.2733398822","0.3010303499","","","","","","","","","","","","","","72","H","0","img/none_selected.jpg","","19","main_expt",""
"","bandit","99","432006","0.0-61.0-0.0","06932423","wem/bandit_party_1","A5B6HXICKBU3Q","either","4","302","","","","","","","0","0","1","","0.3973894305","0.4","0.2","0.8","0.6","0.3973894305","0.09866604889","0.2351410235","0.2907203997","","","","","","","","","","","","","","72","H","0","img/none_selected.jpg","","20","main_expt",""
"","bandit","100","433809","0.0-62.0-0.0","06932423","wem/bandit_party_1","A5B6HXICKBU3Q","either","4","291","","","","","","","0","0","1","","0.369037109","0.4","0.2","0.8","0.6","0.369037109","0.1021222834","0.2257810982","0.3088108907","","","","","","","","","","","","","","72","H","0","img/none_selected.jpg","","21","main_expt",""
"","bandit","101","435374","0.0-63.0-0.0","06932423","wem/bandit_party_1","A5B6HXICKBU3Q","either","4","53","","","","","","","0","0","1","","0.1234138809","0.4","0.2","0.8","0.6","0.4179468344","0.1234138809","0.2221856846","0.349202701","","","","","","","","","","","","","","74","J","1","","","22","main_expt",""
"","bandit","102","437390","0.0-64.0-0.0","06932423","wem/bandit_party_1","A5B6HXICKBU3Q","either","4","272","","","","","","","0","0","1","","0.1030640584","0.4","0.2","0.8","0.6","0.4276062926","0.1030640584","0.2127124712","0.3785068464","","","","","","","","","","","","","","74","J","1","","","23","main_expt",""
"","bandit","103","439228","0.0-65.0-0.0","06932423","wem/bandit_party_1","A5B6HXICKBU3Q","either","4","322","","","","","","","0","0","1","","0.4078122208","0.4","0.2","0.8","0.6","0.4078122208","0.1261035851","0.1882566648","0.4012919653","","","","","","","","","","","","","","72","H","0","img/none_selected.jpg","","24","main_expt",""
"","bandit","104","441362","0.0-66.0-0.0","06932423","wem/bandit_party_1","A5B6HXICKBU3Q","either","4","626","","","","","","","0","0","1","0.1273223766","","0.4","0.2","0.8","0.6","","","","","0.3950411191","0.1796705612","0.1273223766","0.400899794","","","","","","","","","","75","K","2","","","25","main_expt",""
"","bandit","105","443136","0.0-67.0-0.0","06932423","wem/bandit_party_1","A5B6HXICKBU3Q","either","4","267","","","","","","","1","0","0","0.15747458","","0.4","0.2","0.8","0.6","","","","","0.4322303329","0.2414651519","0.15747458","0.4126274585","","","","","","","","","","75","K","2","","","26","main_expt",""
"","bandit","106","444976","0.0-68.0-0.0","06932423","wem/bandit_party_1","A5B6HXICKBU3Q","either","4","333","","","","","","","0","0","1","0.1442684908","","0.4","0.2","0.8","0.6","","","","","0.4353643722","0.2005374927","0.1442684908","0.3992263875","","","","","","","","","","75","K","2","","","27","main_expt",""
"","bandit","107","446672","0.0-69.0-0.0","06932423","wem/bandit_party_1","A5B6HXICKBU3Q","either","4","186","","","","","","","0","0","1","0.3846584236","","0.4","0.2","0.8","0.6","","","","","0.4464017809","0.3197257227","0.2255404594","0.3846584236","","","","","","","","","","76","L","3","","","28","main_expt",""
"","bandit","108","448440","0.0-70.0-0.0","06932423","wem/bandit_party_1","A5B6HXICKBU3Q","either","4","259","","","","","","","1","0","0","0.3561298134","","0.4","0.2","0.8","0.6","","","","","0.4417109462","0.3141869899","0.2730951691","0.3561298134","","","","","","","","","","76","L","3","","","29","main_expt",""
"","bandit","109","450243","0.0-71.0-0.0","06932423","wem/bandit_party_1","A5B6HXICKBU3Q","either","4","294","","","","","","","0","1","0","","0.3101363315","0.4","0.2","0.8","0.6","0.4065908859","0.3445991012","0.2890412698","0.3101363315","","","","","","","","","","","","","","76","L","3","","","30","main_expt",""
"","bandit","110","452039","0.0-72.0-0.0","06932423","wem/bandit_party_1","A5B6HXICKBU3Q","either","4","289","","","","","","","0","0","1","","0.3322219809","0.4","0.2","0.8","0.6","0.3954582793","0.3456655029","0.3309226042","0.3322219809","","","","","","","","","","","","","","76","L","3","","","31","main_expt",""
"","bandit","111","453803","0.0-73.0-0.0","06932423","wem/bandit_party_1","A5B6HXICKBU3Q","either","4","256","","","","","","","0","0","1","0.3516269472","","0.4","0.2","0.8","0.6","","","","","0.3716723047","0.3826172224","0.3519301717","0.3516269472","","","","","","","","","","76","L","3","","","32","main_expt",""
"","bandit","112","455599","0.0-74.0-0.0","06932423","wem/bandit_party_1","A5B6HXICKBU3Q","either","4","287","","","","","","","1","0","0","0.3852085553","","0.4","0.2","0.8","0.6","","","","","0.3799724366","0.3804083149","0.3414953842","0.3852085553","","","","","","","","","","76","L","3","","","33","main_expt",""
"","bandit","113","457390","0.0-75.0-0.0","06932423","wem/bandit_party_1","A5B6HXICKBU3Q","either","4","279","","","","","","","0","0","1","0.4196644934","","0.4","0.2","0.8","0.6","","","","","0.409480615","0.3808178469","0.2938412915","0.4196644934","","","","","","","","","","76","L","3","","","34","main_expt",""
"","bandit","114","459178","0.0-76.0-0.0","06932423","wem/bandit_party_1","A5B6HXICKBU3Q","either","4","281","","","","","","","1","0","0","0.420891004","","0.4","0.2","0.8","0.6","","","","","0.3869649509","0.376129724","0.2256616696","0.420891004","","","","","","","","","","76","L","3","","","35","main_expt",""
"","bandit","115","460969","0.0-77.0-0.0","06932423","wem/bandit_party_1","A5B6HXICKBU3Q","either","4","283","","","","","","","0","1","0","","0.3808881167","0.4","0.2","0.8","0.6","0.3045389962","0.4027809904","0.2525957923","0.3808881167","","","","","","","","","","","","","","76","L","3","","","36","main_expt",""
"","bandit","116","462842","0.0-78.0-0.0","06932423","wem/bandit_party_1","A5B6HXICKBU3Q","either","4","257","","","","","","","0","0","1","0.3634360393","","0.4","0.2","0.8","0.6","","","","","0.2954217214","0.3715556026","0.2333373749","0.3634360393","","","","","","","","","","76","L","3","","","37","main_expt",""
"","bandit","117","464461","0.0-79.0-0.0","06932423","wem/bandit_party_1","A5B6HXICKBU3Q","either","4","107","","","","","","","0","0","1","0.2126884676","","0.4","0.2","0.8","0.6","","","","","0.2749906923","0.354842885","0.2126884676","0.3432691328","","","","","","","","","","75","K","2","","","38","main_expt",""
"","bandit","118","466503","0.0-80.0-0.0","06932423","wem/bandit_party_1","A5B6HXICKBU3Q","either","4","528","","","","","","","0","0","1","","0.3066825603","0.4","0.2","0.8","0.6","0.2911873598","0.3066825603","0.212498526","0.3113322025","","","","","","","","","","","","","","74","J","1","","","39","main_expt",""
"","bandit","119","468276","0.0-81.0-0.0","06932423","wem/bandit_party_1","A5B6HXICKBU3Q","either","4","263","","","","","","","0","0","1","","0.3208648015","0.4","0.2","0.8","0.6","0.3066149412","0.3208648015","0.2031275136","0.3298138996","","","","","","","","","","","","","","74","J","1","","","40","main_expt",""
"","bandit","120","469848","0.0-82.0-0.0","06932423","wem/bandit_party_1","A5B6HXICKBU3Q","either","4","64","","","","","","","0","0","1","","0.2774570704","0.4","0.2","0.8","0.6","0.2612722093","0.2774570704","0.2409224204","0.3590557929","","","","","","","","","","","","","","74","J","1","","","41","main_expt",""
"","bandit","121","471602","0.0-83.0-0.0","06932423","wem/bandit_party_1","A5B6HXICKBU3Q","either","4","246","","","","","","","0","0","1","0.2579482203","","0.4","0.2","0.8","0.6","","","","","0.2579482203","0.3092882543","0.2166695961","0.3455434044","","","","","","","","","","72","H","0","img/none_selected.jpg","","42","main_expt",""
"","bandit","122","473393","0.0-84.0-0.0","06932423","wem/bandit_party_1","A5B6HXICKBU3Q","either","4","283","","","","","","","0","0","1","","0.2232302517","0.4","0.2","0.8","0.6","0.2232302517","0.3161251671","0.2314197793","0.4020043176","","","","","","","","","","","","","","72","H","0","img/none_selected.jpg","","43","main_expt",""
"","bandit","123","475148","0.0-85.0-0.0","06932423","wem/bandit_party_1","A5B6HXICKBU3Q","either","4","247","","","","","","","1","0","0","0.2435669349","","0.4","0.2","0.8","0.6","","","","","0.2435669349","0.3032549762","0.1889371852","0.4088695108","","","","","","","","","","72","H","0","img/none_selected.jpg","","44","main_expt",""
"","bandit","124","476954","0.0-86.0-0.0","06932423","wem/bandit_party_1","A5B6HXICKBU3Q","either","4","294","","","","","","","1","0","0","0.1885724617","","0.4","0.2","0.8","0.6","","","","","0.1885724617","0.3012359134","0.2152104473","0.3914045207","","","","","","","","","","72","H","0","img/none_selected.jpg","","45","main_expt",""
"","bandit","125","478730","0.0-87.0-0.0","06932423","wem/bandit_party_1","A5B6HXICKBU3Q","either","4","266","","","","","","","0","0","1","0.104230756","","0.4","0.2","0.8","0.6","","","","","0.104230756","0.2994346937","0.2260726972","0.3682142312","","","","","","","","","","72","H","0","img/none_selected.jpg","","46","main_expt",""
"","bandit","126","480460","0.0-88.0-0.0","06932423","wem/bandit_party_1","A5B6HXICKBU3Q","either","4","216","","","","","","","0","0","1","","0.09013225529","0.4","0.2","0.8","0.6","0.09013225529","0.3169549043","0.2330399618","0.3462276735","","","","","","","","","","","","","","72","H","0","img/none_selected.jpg","","47","main_expt",""
"","bandit","127","482191","0.0-89.0-0.0","06932423","wem/bandit_party_1","A5B6HXICKBU3Q","either","4","75","","","","","","","0","0","1","0.3501405617","","0.4","0.2","0.8","0.6","","","","","0.1066227192","0.3137179834","0.2769685944","0.3501405617","","","","","","","","","","76","L","3","","","48","main_expt",""
"","bandit","128","483885","0.0-90.0-0.0","06932423","wem/bandit_party_1","A5B6HXICKBU3Q","either","4","184","","","","","","","0","0","1","","0.3607669766","0.4","0.2","0.8","0.6","0.1273062614","0.3026837323","0.2954986192","0.3607669766","","","","","","","","","","","","","","76","L","3","","","49","main_expt",""
"","bandit","129","485645","0.0-91.0-0.0","06932423","wem/bandit_party_1","A5B6HXICKBU3Q","either","4","245","","","","","","","1","0","0","0.3776327681","","0.4","0.2","0.8","0.6","","","","","0.08158159543","0.2690248343","0.2730110453","0.3776327681","","","","","","","","","","76","L","3","","","50","main_expt",""
"","bandit","130","487454","0.0-92.0-0.0","06932423","wem/bandit_party_1","A5B6HXICKBU3Q","either","4","301","","","","","","","0","1","0","","0.3922012959","0.4","0.2","0.8","0.6","0.08035098666","0.2407215714","0.2672659715","0.3922012959","","","","","","","","","","","","","","76","L","3","","","51","main_expt",""
"","bandit","131","489176","0.0-93.0-0.0","06932423","wem/bandit_party_1","A5B6HXICKBU3Q","either","4","214","","","","","","","0","0","1","0.3532085343","","0.4","0.2","0.8","0.6","","","","","0.1007468434","0.2758158767","0.2552972095","0.3532085343","","","","","","","","","","76","L","3","","","52","main_expt",""
"","bandit","132","490787","0.0-94.0-0.0","06932423","wem/bandit_party_1","A5B6HXICKBU3Q","either","4","103","","","","","","","0","1","0","","0.3597378762","0.4","0.2","0.8","0.6","0.1479770317","0.2661511239","0.1954439593","0.3597378762","","","","","","","","","","","","","","76","L","3","","","53","main_expt",""
"","bandit","133","492556","0.0-95.0-0.0","06932423","wem/bandit_party_1","A5B6HXICKBU3Q","either","4","259","","","","","","","1","0","0","0.3553644404","","0.4","0.2","0.8","0.6","","","","","0.1450389045","0.250303373","0.1250298759","0.3553644404","","","","","","","","","","76","L","3","","","54","main_expt",""
"","bandit","134","494240","0.0-96.0-0.0","06932423","wem/bandit_party_1","A5B6HXICKBU3Q","either","4","174","","","","","","","0","0","1","","0.3427354451","0.4","0.2","0.8","0.6","0.1678096349","0.1850572083","0.1224949652","0.3427354451","","","","","","","","","","","","","","76","L","3","","","55","main_expt",""
"","bandit","135","495817","0.0-97.0-0.0","06932423","wem/bandit_party_1","A5B6HXICKBU3Q","either","4","69","","","","","","","1","0","0","0.3158877586","","0.4","0.2","0.8","0.6","","","","","0.1748395718","0.2410157884","0.1312048923","0.3158877586","","","","","","","","","","76","L","3","","","56","main_expt",""
"","bandit","136","497376","0.0-98.0-0.0","06932423","wem/bandit_party_1","A5B6HXICKBU3Q","either","4","51","","","","","","","0","0","1","","0.3224611445","0.4","0.2","0.8","0.6","0.146986137","0.2657224069","0.14452077","0.3224611445","","","","","","","","","","","","","","76","L","3","","","57","main_expt",""
"","bandit","137","499885","0.0-99.0-0.0","06932423","wem/bandit_party_1","A5B6HXICKBU3Q","either","4","1000","","","","","","","1","0","0","0.3378672788","","0.4","0.2","0.8","0.6","","","","","0.1316135006","0.2361308133","0.1198415177","0.3378672788","","","","","","","","","","76","L","3","","","58","main_expt",""
"","bandit","138","501673","0.0-100.0-0.0","06932423","wem/bandit_party_1","A5B6HXICKBU3Q","either","4","278","","","","","","","1","0","0","0.3438075972","","0.4","0.2","0.8","0.6","","","","","0.1776120447","0.2078360154","0.1674914914","0.3438075972","","","","","","","","","","76","L","3","","","59","main_expt",""
"","bandit","139","503385","0.0-101.0-0.0","06932423","wem/bandit_party_1","A5B6HXICKBU3Q","either","4","203","","","","","","","0","1","0","","0.2950987239","0.4","0.2","0.8","0.6","0.2034864675","0.2256957235","0.147959707","0.2950987239","","","","","","","","","","","","","","76","L","3","","","60","main_expt",""
"","bandit","140","505141","0.0-102.0-0.0","06932423","wem/bandit_party_1","A5B6HXICKBU3Q","either","4","247","","","","","","","0","0","1","0.2939622289","","0.4","0.2","0.8","0.6","","","","","0.1325668513","0.2713547376","0.1217284172","0.2939622289","","","","","","","","","","76","L","3","","","61","main_expt",""
"","bandit","141","506861","0.0-103.0-0.0","06932423","wem/bandit_party_1","A5B6HXICKBU3Q","either","4","183","","","","","","","1","0","0","0.2907096119","","0.4","0.2","0.8","0.6","","","","","0.125492747","0.2800078023","0.1392905859","0.2907096119","","","","","","","","","","76","L","3","","","62","main_expt",""
"","bandit","142","508589","0.0-104.0-0.0","06932423","wem/bandit_party_1","A5B6HXICKBU3Q","either","4","219","","","","","","","0","0","1","","0.2696382907","0.4","0.2","0.8","0.6","0.1081989139","0.362183352","0.1953314019","0.2696382907","","","","","","","","","","","","","","76","L","3","","","63","main_expt",""
"","bandit","143","510162","0.0-105.0-0.0","06932423","wem/bandit_party_1","A5B6HXICKBU3Q","either","4","61","","","","","","","0","1","0","","0.2496415039","0.4","0.2","0.8","0.6","0.09104284411","0.3354395381","0.2618523415","0.2496415039","","","","","","","","","","","","","","76","L","3","","","64","main_expt",""
"","bandit","144","511922","0.0-106.0-0.0","06932423","wem/bandit_party_1","A5B6HXICKBU3Q","either","4","244","","","","","","","0","0","1","0.2686672798","","0.4","0.2","0.8","0.6","","","","","0.1264903162","0.2893845237","0.2686672798","0.2364994079","","","","","","","","","","75","K","2","","","65","main_expt",""
"","bandit","145","514258","0.0-107.0-0.0","06932423","wem/bandit_party_1","A5B6HXICKBU3Q","either","4","827","","","","","","","0","0","1","0.2451656397","","0.4","0.2","0.8","0.6","","","","","0.1665937301","0.2355717356","0.2451656397","0.2541683514","","","","","","","","","","75","K","2","","","66","main_expt",""
"","bandit","146","516000","0.0-108.0-0.0","06932423","wem/bandit_party_1","A5B6HXICKBU3Q","either","4","231","","","","","","","1","0","0","0.2445320338","","0.4","0.2","0.8","0.6","","","","","0.1740025863","0.2848755716","0.2445320338","0.2985471382","","","","","","","","","","75","K","2","","","67","main_expt",""
"","bandit","147","517865","0.0-109.0-0.0","06932423","wem/bandit_party_1","A5B6HXICKBU3Q","either","4","354","","","","","","","1","0","0","0.2261158315","","0.4","0.2","0.8","0.6","","","","","0.2300011382","0.3341158043","0.2261158315","0.3391290389","","","","","","","","","","75","K","2","","","68","main_expt",""
"","bandit","148","519603","0.0-110.0-0.0","06932423","wem/bandit_party_1","A5B6HXICKBU3Q","either","4","226","","","","","","","0","0","1","","0.1627286519","0.4","0.2","0.8","0.6","0.1768594062","0.3253412689","0.1627286519","0.3114764975","","","","","","","","","","","","","","75","K","2","","","69","main_expt",""
"","bandit","149","521381","0.0-111.0-0.0","06932423","wem/bandit_party_1","A5B6HXICKBU3Q","either","4","269","","","","","","","1","0","0","0.1301009224","","0.4","0.2","0.8","0.6","","","","","0.1906145184","0.3280915152","0.1301009224","0.3056328376","","","","","","","","","","75","K","2","","","70","main_expt",""
"","bandit","150","523153","0.0-112.0-0.0","06932423","wem/bandit_party_1","A5B6HXICKBU3Q","either","4","263","","","","","","","0","0","1","0.1356707761","","0.4","0.2","0.8","0.6","","","","","0.1451664327","0.3772643828","0.1356707761","0.3445325487","","","","","","","","","","75","K","2","","","71","main_expt",""
"","bandit","151","524940","0.0-113.0-0.0","06932423","wem/bandit_party_1","A5B6HXICKBU3Q","either","4","278","","","","","","","0","0","1","0.1045412551","","0.4","0.2","0.8","0.6","","","","","0.1091447996","0.4074174212","0.1045412551","0.364612409","","","","","","","","","","75","K","2","","","72","main_expt",""
"","bandit","152","526964","0.0-114.0-0.0","06932423","wem/bandit_party_1","A5B6HXICKBU3Q","either","4","141","","","","","","","0","0","1","","0.4454774056","0.4","0.2","0.8","0.6","0.1248737042","0.3736299767","0.0867882282","0.4454774056","","","","","","","","","","","","","","76","L","3","","","73","main_expt",""
"","bandit","153","529451","0.0-115.0-0.0","06932423","wem/bandit_party_1","A5B6HXICKBU3Q","either","4","970","","","","","","","0","1","0","","0.4492830973","0.4","0.2","0.8","0.6","0.1073746888","0.383211712","0.1018359722","0.4492830973","","","","","","","","","","","","","","76","L","3","","","74","main_expt",""
"","bandit","154","532548","0.0-116.0-0.0","06932423","wem/bandit_party_1","A5B6HXICKBU3Q","either","4","1590","","","","","","","0","1","0","","0.449321966","0.4","0.2","0.8","0.6","0.1051395745","0.3681962321","0.09443707336","0.449321966","","","","","","","","","","","","","","76","L","3","","","75","main_expt",""
"","bandit","155","535411","0.0-117.0-0.0","06932423","wem/bandit_party_1","A5B6HXICKBU3Q","either","4","1351","","","","","","","1","0","0","0.4299726132","","0.4","0.2","0.8","0.6","","","","","0.09171451076","0.3574328021","0.08768691443","0.4299726132","","","","","","","","","","76","L","3","","","76","main_expt",""
"","bandit","156","537900","0.0-118.0-0.0","06932423","wem/bandit_party_1","A5B6HXICKBU3Q","either","4","949","","","","","","","1","0","0","0.4349340462","","0.4","0.2","0.8","0.6","","","","","0.1256070833","0.4041720962","0.07744448812","0.4349340462","","","","","","","","","","76","L","3","","","77","main_expt",""
"","bandit","157","540425","0.0-119.0-0.0","06932423","wem/bandit_party_1","A5B6HXICKBU3Q","either","4","1016","","","","","","","1","0","0","0.4112950215","","0.4","0.2","0.8","0.6","","","","","0.1398604905","0.4000946746","0.05712631425","0.4112950215","","","","","","","","","","76","L","3","","","78","main_expt",""
"","bandit","158","542721","0.0-120.0-0.0","06932423","wem/bandit_party_1","A5B6HXICKBU3Q","either","4","783","","","","","","","0","0","1","","0.4123046053","0.4","0.2","0.8","0.6","0.1303191282","0.425248604","0.03981704588","0.4123046053","","","","","","","","","","","","","","76","L","3","","","79","main_expt",""
"","bandit","159","544811","0.0-121.0-0.0","06932423","wem/bandit_party_1","A5B6HXICKBU3Q","either","4","581","","","","","","","0","1","0","","0.4345430878","0.4","0.2","0.8","0.6","0.1491340647","0.4263383456","0.02961196177","0.4345430878","","","","","","","","","","","","","","76","L","3","","","80","main_expt",""
"","bandit","160","547152","0.0-122.0-0.0","06932423","wem/bandit_party_1","A5B6HXICKBU3Q","either","4","833","","","","","","","0","0","1","","0.4255274095","0.4","0.2","0.8","0.6","0.1484119081","0.4377411966","0.0408206899","0.4255274095","","","","","","","","","","","","","","76","L","3","","","81","main_expt",""
"","bandit","161","549174","0.0-123.0-0.0","06932423","wem/bandit_party_1","A5B6HXICKBU3Q","either","4","511","","","","","","","1","0","0","0.4266934287","","0.4","0.2","0.8","0.6","","","","","0.135460029","0.4263216968","0.03491361241","0.4266934287","","","","","","","","","","76","L","3","","","82","main_expt",""
"","bandit","162","551208","0.0-124.0-0.0","06932423","wem/bandit_party_1","A5B6HXICKBU3Q","either","4","522","","","","","","","0","0","1","0.4321646522","","0.4","0.2","0.8","0.6","","","","","0.09497461961","0.4536492548","0.01881925386","0.4321646522","","","","","","","","","","76","L","3","","","83","main_expt",""
"","bandit","163","553313","0.0-125.0-0.0","06932423","wem/bandit_party_1","A5B6HXICKBU3Q","either","4","596","","","","","","","0","0","1","0.43129245","","0.4","0.2","0.8","0.6","","","","","0.0956585677","0.4344769981","0.03441768066","0.43129245","","","","","","","","","","76","L","3","","","84","main_expt",""
"","bandit","164","557626","0.0-126.0-0.0","06932423","wem/bandit_party_1","A5B6HXICKBU3Q","either","4","2800","","","","","","","0","0","1","0.4307495417","","0.4","0.2","0.8","0.6","","","","","0.08427930603","0.4167097255","0.04015732792","0.4307495417","","","","","","","","","","76","L","3","","","85","main_expt",""
"","bandit","165","559501","0.0-127.0-0.0","06932423","wem/bandit_party_1","A5B6HXICKBU3Q","either","4","366","","","","","","","0","0","1","0.0462821445","","0.4","0.2","0.8","0.6","","","","","0.09540141202","0.4215971904","0.0462821445","0.4327415212","","","","","","","","","","75","K","2","","","86","main_expt",""
"","bandit","166","561302","0.0-128.0-0.0","06932423","wem/bandit_party_1","A5B6HXICKBU3Q","either","4","291","","","","","","","0","1","0","","0.3962725568","0.4","0.2","0.8","0.6","0.06504543429","0.3962725568","0.07236867375","0.4507305815","","","","","","","","","","","","","","74","J","1","","","87","main_expt",""
"","bandit","167","563253","0.0-129.0-0.0","06932423","wem/bandit_party_1","A5B6HXICKBU3Q","either","4","439","","","","","","","0","1","0","","0.4038430626","0.4","0.2","0.8","0.6","0.05894337134","0.4038430626","0.1132918069","0.4571393315","","","","","","","","","","","","","","74","J","1","","","88","main_expt",""
"","bandit","168","565056","0.0-130.0-0.0","06932423","wem/bandit_party_1","A5B6HXICKBU3Q","either","4","294","","","","","","","0","0","1","","0.4247877058","0.4","0.2","0.8","0.6","0.06803635399","0.4247877058","0.1466354559","0.4639779763","","","","","","","","","","","","","","74","J","1","","","89","main_expt",""
"","bandit","169","566855","0.0-131.0-0.0","06932423","wem/bandit_party_1","A5B6HXICKBU3Q","either","4","289","","","","","","","0","0","1","","0.4196700557","0.4","0.2","0.8","0.6","0.09657856289","0.4196700557","0.1746819083","0.4620017245","","","","","","","","","","","","","","74","J","1","","","90","main_expt",""
"","bandit","170","568660","0.0-132.0-0.0","06932423","wem/bandit_party_1","A5B6HXICKBU3Q","either","4","294","","","","","","","0","1","0","","0.401758082","0.4","0.2","0.8","0.6","0.08522031428","0.401758082","0.1864657318","0.4492963398","","","","","","","","","","","","","","74","J","1","","","91","main_expt",""
"","bandit","171","571055","0.0-133.0-0.0","06932423","wem/bandit_party_1","A5B6HXICKBU3Q","either","4","386","","","","","","","0","0","1","","0.3422099147","0.4","0.2","0.8","0.6","0.07078380504","0.3422099147","0.2124622091","0.462009279","","","","","","","","","","","","","","74","J","1","","","92","main_expt",""
"","bandit","172","573233","0.0-134.0-0.0","06932423","wem/bandit_party_1","A5B6HXICKBU3Q","either","4","664","","","","","","","1","0","0","0.3279059742","","0.4","0.2","0.8","0.6","","","","","0.0564278809","0.3279059742","0.245786276","0.4363090379","","","","","","","","","","74","J","1","","","93","main_expt",""
"","bandit","173","575113","0.0-135.0-0.0","06932423","wem/bandit_party_1","A5B6HXICKBU3Q","either","4","369","","","","","","","0","0","1","","0.3155724737","0.4","0.2","0.8","0.6","0.06067733924","0.3155724737","0.2316759231","0.4457519602","","","","","","","","","","","","","","74","J","1","","","94","main_expt",""
"","bandit","174","577019","0.0-136.0-0.0","06932423","wem/bandit_party_1","A5B6HXICKBU3Q","either","4","395","","","","","","","0","0","1","","0.3519625041","0.4","0.2","0.8","0.6","0.08632751489","0.3519625041","0.2231756969","0.4231248902","","","","","","","","","","","","","","74","J","1","","","95","main_expt",""
"","bandit","175","578917","0.0-137.0-0.0","06932423","wem/bandit_party_1","A5B6HXICKBU3Q","either","4","350","","","","","","","0","0","1","0.08481729553","","0.4","0.2","0.8","0.6","","","","","0.08481729553","0.3661455107","0.1957128212","0.4210676831","","","","","","","","","","72","H","0","img/none_selected.jpg","","96","main_expt",""
"","bandit","176","580823","0.0-138.0-0.0","06932423","wem/bandit_party_1","A5B6HXICKBU3Q","either","4","392","","","","","","","0","0","1","","0.08386440452","0.4","0.2","0.8","0.6","0.08386440452","0.3558031673","0.1638116915","0.4022895305","","","","","","","","","","","","","","72","H","0","img/none_selected.jpg","","97","main_expt",""
"","bandit","177","582722","0.0-139.0-0.0","06932423","wem/bandit_party_1","A5B6HXICKBU3Q","either","4","325","","","","","","","0","0","1","0.1405816365","","0.4","0.2","0.8","0.6","","","","","0.0940701929","0.3558230887","0.1405816365","0.4187351015","","","","","","","","","","75","K","2","","","98","main_expt",""
"","bandit","178","584528","0.0-140.0-0.0","06932423","wem/bandit_party_1","A5B6HXICKBU3Q","either","4","297","","","","","","","0","0","1","0.1435678602","","0.4","0.2","0.8","0.6","","","","","0.1285058524","0.3064708089","0.1435678602","0.3981340028","","","","","","","","","","75","K","2","","","99","main_expt",""
"","bandit","179","586394","0.0-141.0-0.0","06932423","wem/bandit_party_1","A5B6HXICKBU3Q","either","4","352","","","","","","","0","0","1","","0.3520446815","0.4","0.2","0.8","0.6","0.065882019","0.352498313","0.1478754355","0.3520446815","","","","","","","","","","","","","","76","L","3","","","100","main_expt",""
"","bandit","180","588252","0.0-142.0-0.0","06932423","wem/bandit_party_1","A5B6HXICKBU3Q","either","4","349","","","","","","","0","1","0","","0.3715523215","0.4","0.2","0.8","0.6","0.05692140794","0.3511810171","0.1532559328","0.3715523215","","","","","","","","","","","","","","76","L","3","","","101","main_expt",""
"","bandit","181","590099","0.0-143.0-0.0","06932423","wem/bandit_party_1","A5B6HXICKBU3Q","either","4","337","","","","","","","0","1","0","","0.3966955113","0.4","0.2","0.8","0.6","0.04322280369","0.3246867477","0.15857411","0.3966955113","","","","","","","","","","","","","","76","L","3","","","102","main_expt",""
"","bandit","182","591949","0.0-144.0-0.0","06932423","wem/bandit_party_1","A5B6HXICKBU3Q","either","4","338","","","","","","","0","0","1","0.3865714765","","0.4","0.2","0.8","0.6","","","","","0.05121437093","0.2827689756","0.1552377357","0.3865714765","","","","","","","","","","76","L","3","","","103","main_expt",""
"","bandit","183","593905","0.0-145.0-0.0","06932423","wem/bandit_party_1","A5B6HXICKBU3Q","either","4","423","","","","","","","0","1","0","","0.3440646931","0.4","0.2","0.8","0.6","0.06548077564","0.3307995119","0.1584193753","0.3440646931","","","","","","","","","","","","","","76","L","3","","","104","main_expt",""
"","bandit","184","595871","0.0-146.0-0.0","06932423","wem/bandit_party_1","A5B6HXICKBU3Q","either","4","456","","","","","","","0","0","1","","0.330981063","0.4","0.2","0.8","0.6","0.07577357845","0.3078297571","0.192058402","0.330981063","","","","","","","","","","","","","","76","L","3","","","105","main_expt",""
"","bandit","185","597703","0.0-147.0-0.0","06932423","wem/bandit_party_1","A5B6HXICKBU3Q","either","4","312","","","","","","","0","0","1","","0.3317280627","0.4","0.2","0.8","0.6","0.09041352565","0.3202685942","0.1562344916","0.3317280627","","","","","","","","","","","","","","76","L","3","","","106","main_expt",""
"","bandit","186","604435","0.0-148.0-0.0","06932423","wem/bandit_party_1","A5B6HXICKBU3Q","either","4","5220","","","","","","","0","0","1","0.1184921167","","0.4","0.2","0.8","0.6","","","","","0.1184921167","0.3163418234","0.1493116313","0.2760665195","","","","","","","","","","72","H","0","img/none_selected.jpg","","107","main_expt",""
"","bandit","187","606322","0.0-149.0-0.0","06932423","wem/bandit_party_1","A5B6HXICKBU3Q","either","4","376","","","","","","","0","0","1","0.1057615429","","0.4","0.2","0.8","0.6","","","","","0.1057615429","0.3425943818","0.1357435498","0.2826301941","","","","","","","","","","72","H","0","img/none_selected.jpg","","108","main_expt",""
"","bandit","188","608316","0.0-150.0-0.0","06932423","wem/bandit_party_1","A5B6HXICKBU3Q","either","4","483","","","","","","","0","0","1","","0.1464484126","0.4","0.2","0.8","0.6","0.1464484126","0.2852030557","0.1164074326","0.318117281","","","","","","","","","","","","","","72","H","0","img/none_selected.jpg","","109","main_expt",""
"","bandit","189","610217","0.0-151.0-0.0","06932423","wem/bandit_party_1","A5B6HXICKBU3Q","either","4","388","","","","","","","0","0","1","","0.3392406975","0.4","0.2","0.8","0.6","0.1641354829","0.3392406975","0.1444451916","0.3358587519","","","","","","","","","","","","","","74","J","1","","","110","main_expt",""
"","bandit","190","612212","0.0-152.0-0.0","06932423","wem/bandit_party_1","A5B6HXICKBU3Q","either","4","482","","","","","","","0","0","1","","0.3023411017","0.4","0.2","0.8","0.6","0.1386891192","0.3023411017","0.09905323685","0.3031660534","","","","","","","","","","","","","","74","J","1","","","111","main_expt",""
"","bandit","191","614228","0.0-153.0-0.0","06932423","wem/bandit_party_1","A5B6HXICKBU3Q","either","4","507","","","","","","","1","0","0","0.09652445584","","0.4","0.2","0.8","0.6","","","","","0.1847512065","0.296849772","0.09652445584","0.2773548355","","","","","","","","","","75","K","2","","","112","main_expt",""
"","bandit","192","616365","0.0-154.0-0.0","06932423","wem/bandit_party_1","A5B6HXICKBU3Q","either","4","627","","","","","","","0","0","1","0.09961189632","","0.4","0.2","0.8","0.6","","","","","0.1304555333","0.2673419259","0.09961189632","0.2370758425","","","","","","","","","","75","K","2","","","113","main_expt",""
"","bandit","193","618458","0.0-155.0-0.0","06932423","wem/bandit_party_1","A5B6HXICKBU3Q","either","4","580","","","","","","","0","0","1","0.1036139638","","0.4","0.2","0.8","0.6","","","","","0.1770102637","0.2670531803","0.1036139638","0.1821928837","","","","","","","","","","75","K","2","","","114","main_expt",""
"","bandit","194","620387","0.0-156.0-0.0","06932423","wem/bandit_party_1","A5B6HXICKBU3Q","either","4","417","","","","","","","0","0","1","0.1315453283","","0.4","0.2","0.8","0.6","","","","","0.1564651975","0.2825009356","0.0968506792","0.1315453283","","","","","","","","","","76","L","3","","","115","main_expt",""
"","bandit","195","622274","0.0-157.0-0.0","06932423","wem/bandit_party_1","A5B6HXICKBU3Q","either","4","377","","","","","","","0","0","1","","0.1102777544","0.4","0.2","0.8","0.6","0.1665702367","0.3237719372","0.08782875681","0.1102777544","","","","","","","","","","","","","","76","L","3","","","116","main_expt",""
"","bandit","196","624208","0.0-158.0-0.0","06932423","wem/bandit_party_1","A5B6HXICKBU3Q","either","4","422","","","","","","","0","0","1","0.06031800864","","0.4","0.2","0.8","0.6","","","","","0.1530687496","0.3154846423","0.06031800864","0.1101610351","","","","","","","","","","75","K","2","","","117","main_expt",""
"","bandit","197","626614","0.0-159.0-0.0","06932423","wem/bandit_party_1","A5B6HXICKBU3Q","either","4","887","","","","","","","0","0","1","0.05633053331","","0.4","0.2","0.8","0.6","","","","","0.1674206906","0.2584508078","0.05633053331","0.122460482","","","","","","","","","","75","K","2","","","118","main_expt",""
"","bandit","198","628738","0.0-160.0-0.0","06932423","wem/bandit_party_1","A5B6HXICKBU3Q","either","4","609","","","","","","","0","0","1","0.07530514027","","0.4","0.2","0.8","0.6","","","","","0.1990215448","0.2141905193","0.07530514027","0.1451868924","","","","","","","","","","75","K","2","","","119","main_expt",""
"","bandit","199","630636","0.0-161.0-0.0","06932423","wem/bandit_party_1","A5B6HXICKBU3Q","either","4","391","","","","","","","0","0","1","","0.2341954374","0.4","0.2","0.8","0.6","0.2208640619","0.2341954374","0.09639595661","0.09092593383","","","","","","","","","","","","","","74","J","1","","","120","main_expt",""
"","bandit","200","632615","0.0-162.0-0.0","06932423","wem/bandit_party_1","A5B6HXICKBU3Q","either","4","470","","","","","","","0","0","1","","0.1886372651","0.4","0.2","0.8","0.6","0.2602917539","0.1886372651","0.1421799471","0.1080456108","","","","","","","","","","","","","","74","J","1","","","121","main_expt",""
"","bandit","201","634650","0.0-163.0-0.0","06932423","wem/bandit_party_1","A5B6HXICKBU3Q","either","4","522","","","","","","","0","0","1","0.1597592322","","0.4","0.2","0.8","0.6","","","","","0.2512498235","0.1597592322","0.1624760489","0.1169053248","","","","","","","","","","74","J","1","","","122","main_expt",""
"","bandit","202","636610","0.0-164.0-0.0","06932423","wem/bandit_party_1","A5B6HXICKBU3Q","either","4","449","","","","","","","0","0","1","","0.2266242761","0.4","0.2","0.8","0.6","0.2266242761","0.1895266442","0.1640214383","0.1571594809","","","","","","","","","","","","","","72","H","0","img/none_selected.jpg","","123","main_expt",""
"","bandit","203","638676","0.0-165.0-0.0","06932423","wem/bandit_party_1","A5B6HXICKBU3Q","either","4","555","","","","","","","0","0","1","","0.2373824638","0.4","0.2","0.8","0.6","0.2373824638","0.2042850732","0.2014340991","0.2231804049","","","","","","","","","","","","","","72","H","0","img/none_selected.jpg","","124","main_expt",""
"","bandit","204","643098","0.0-166.0-0.0","06932423","wem/bandit_party_1","A5B6HXICKBU3Q","either","4","2913","","","","","","","0","0","1","","0.2538727107","0.4","0.2","0.8","0.6","0.2538727107","0.1812515389","0.2229229076","0.2232794356","","","","","","","","","","","","","","72","H","0","img/none_selected.jpg","","125","main_expt",""
"","bandit","205","645162","0.0-167.0-0.0","06932423","wem/bandit_party_1","A5B6HXICKBU3Q","either","4","553","","","","","","","0","0","1","","0.290219491","0.4","0.2","0.8","0.6","0.290219491","0.1694736183","0.2324712723","0.2316903634","","","","","","","","","","","","","","72","H","0","img/none_selected.jpg","","126","main_expt",""
"","bandit","206","647125","0.0-168.0-0.0","06932423","wem/bandit_party_1","A5B6HXICKBU3Q","either","4","451","","","","","","","0","0","1","0.2337524142","","0.4","0.2","0.8","0.6","","","","","0.2542505169","0.1624528765","0.2628391623","0.2337524142","","","","","","","","","","76","L","3","","","127","main_expt",""
"","bandit","207","649221","0.0-169.0-0.0","06932423","wem/bandit_party_1","A5B6HXICKBU3Q","either","4","581","","","","","","","0","0","1","","0.2198210178","0.4","0.2","0.8","0.6","0.2582316027","0.1632982916","0.2654356302","0.2198210178","","","","","","","","","","","","","","76","L","3","","","128","main_expt",""
"","bandit","208","651247","0.0-170.0-0.0","06932423","wem/bandit_party_1","A5B6HXICKBU3Q","either","4","515","","","","","","","0","0","1","","0.2280168395","0.4","0.2","0.8","0.6","0.3267566011","0.2264598068","0.2070569149","0.2280168395","","","","","","","","","","","","","","76","L","3","","","129","main_expt",""
"","bandit","209","653280","0.0-171.0-0.0","06932423","wem/bandit_party_1","A5B6HXICKBU3Q","either","4","524","","","","","","","0","0","1","0.243895296","","0.4","0.2","0.8","0.6","","","","","0.3323271388","0.202760285","0.2579182239","0.243895296","","","","","","","","","","76","L","3","","","130","main_expt",""
"","bandit","210","655279","0.0-172.0-0.0","06932423","wem/bandit_party_1","A5B6HXICKBU3Q","either","4","489","","","","","","","0","0","1","","0.2329110821","0.4","0.2","0.8","0.6","0.2666668646","0.1585094705","0.2329110821","0.2164454501","","","","","","","","","","","","","","75","K","2","","","131","main_expt",""
"","bandit","211","657329","0.0-173.0-0.0","06932423","wem/bandit_party_1","A5B6HXICKBU3Q","either","4","535","","","","","","","0","0","1","0.2400232435","","0.4","0.2","0.8","0.6","","","","","0.2359119393","0.1304261544","0.2400232435","0.200468731","","","","","","","","","","75","K","2","","","132","main_expt",""
"","bandit","212","659437","0.0-174.0-0.0","06932423","wem/bandit_party_1","A5B6HXICKBU3Q","either","4","598","","","","","","","0","0","1","0.2084798617","","0.4","0.2","0.8","0.6","","","","","0.2540740643","0.09339990826","0.2084798617","0.2038597077","","","","","","","","","","75","K","2","","","133","main_expt",""
"","bandit","213","661466","0.0-175.0-0.0","06932423","wem/bandit_party_1","A5B6HXICKBU3Q","either","4","517","","","","","","","0","0","1","0.2034544","","0.4","0.2","0.8","0.6","","","","","0.2414927735","0.08524612959","0.2034544","0.2263269307","","","","","","","","","","75","K","2","","","134","main_expt",""
"","bandit","214","663398","0.0-176.0-0.0","06932423","wem/bandit_party_1","A5B6HXICKBU3Q","either","4","419","","","","","","","0","0","1","","0.0622033461","0.4","0.2","0.8","0.6","0.2632369982","0.0622033461","0.2088958693","0.2686469146","","","","","","","","","","","","","","74","J","1","","","135","main_expt",""
"","bandit","215","665372","0.0-177.0-0.0","06932423","wem/bandit_party_1","A5B6HXICKBU3Q","either","4","459","","","","","","","0","0","1","","0.05632890875","0.4","0.2","0.8","0.6","0.3032623762","0.05632890875","0.2573758916","0.3170393738","","","","","","","","","","","","","","74","J","1","","","136","main_expt",""
"","bandit","216","667259","0.0-178.0-0.0","06932423","wem/bandit_party_1","A5B6HXICKBU3Q","either","4","365","","","","","","","0","0","1","0.2467438462","","0.4","0.2","0.8","0.6","","","","","0.2984046037","0.06052980877","0.2467438462","0.338962466","","","","","","","","","","75","K","2","","","137","main_expt",""
"","bandit","217","669271","0.0-179.0-0.0","06932423","wem/bandit_party_1","A5B6HXICKBU3Q","either","4","496","","","","","","","0","0","1","","0.1038497792","0.4","0.2","0.8","0.6","0.3110629865","0.1038497792","0.2221944767","0.3586643031","","","","","","","","","","","","","","74","J","1","","","138","main_expt",""
"","bandit","218","671337","0.0-180.0-0.0","06932423","wem/bandit_party_1","A5B6HXICKBU3Q","either","4","552","","","","","","","0","0","1","0.2750517365","","0.4","0.2","0.8","0.6","","","","","0.3048373826","0.08561062373","0.2750517365","0.3430902759","","","","","","","","","","75","K","2","","","139","main_expt",""
"","bandit","219","673236","0.0-181.0-0.0","06932423","wem/bandit_party_1","A5B6HXICKBU3Q","either","4","387","","","","","","","0","0","1","","0.3777112835","0.4","0.2","0.8","0.6","0.3163642845","0.08025295029","0.277474309","0.3777112835","","","","","","","","","","","","","","76","L","3","","","140","main_expt",""
"","bandit","220","675285","0.0-182.0-0.0","06932423","wem/bandit_party_1","A5B6HXICKBU3Q","either","4","539","","","","","","","0","0","1","","0.2213861514","0.4","0.2","0.8","0.6","0.2213861514","0.09309891757","0.2932007391","0.4276051364","","","","","","","","","","","","","","72","H","0","img/none_selected.jpg","","141","main_expt",""
"","bandit","221","677231","0.0-183.0-0.0","06932423","wem/bandit_party_1","A5B6HXICKBU3Q","either","4","432","","","","","","","0","0","1","","0.2492613222","0.4","0.2","0.8","0.6","0.2492613222","0.1107976638","0.3001807938","0.4312347149","","","","","","","","","","","","","","72","H","0","img/none_selected.jpg","","142","main_expt",""
"","bandit","222","679168","0.0-184.0-0.0","06932423","wem/bandit_party_1","A5B6HXICKBU3Q","either","4","427","","","","","","","0","1","0","","0.2645663874","0.4","0.2","0.8","0.6","0.2645663874","0.09575525052","0.3640878437","0.386657586","","","","","","","","","","","","","","72","H","0","img/none_selected.jpg","","143","main_expt",""
"","bandit","223","681173","0.0-185.0-0.0","06932423","wem/bandit_party_1","A5B6HXICKBU3Q","either","4","495","","","","","","","0","1","0","","0.2928215939","0.4","0.2","0.8","0.6","0.2928215939","0.07222794989","0.2706796495","0.3409851627","","","","","","","","","","","","","","72","H","0","img/none_selected.jpg","","144","main_expt",""
"","bandit","224","683165","0.0-186.0-0.0","06932423","wem/bandit_party_1","A5B6HXICKBU3Q","either","4","474","","","","","","","0","1","0","","0.3178979655","0.4","0.2","0.8","0.6","0.3178979655","0.03203798906","0.2359726437","0.3538709708","","","","","","","","","","","","","","72","H","0","img/none_selected.jpg","","145","main_expt",""
"","bandit","225","685102","0.0-187.0-0.0","06932423","wem/bandit_party_1","A5B6HXICKBU3Q","either","4","428","","","","","","","0","0","1","","0.2850957273","0.4","0.2","0.8","0.6","0.2850957273","0.03073079809","0.2200332621","0.2745956728","","","","","","","","","","","","","","72","H","0","img/none_selected.jpg","","146","main_expt",""
"","bandit","226","687164","0.0-188.0-0.0","06932423","wem/bandit_party_1","A5B6HXICKBU3Q","either","4","538","","","","","","","0","0","1","","0.2483519338","0.4","0.2","0.8","0.6","0.2483519338","0.05105424151","0.1957794229","0.2375793476","","","","","","","","","","","","","","72","H","0","img/none_selected.jpg","","147","main_expt",""
"","bandit","227","689121","0.0-189.0-0.0","06932423","wem/bandit_party_1","A5B6HXICKBU3Q","either","4","440","","","","","","","0","0","1","","0.2309770791","0.4","0.2","0.8","0.6","0.2309770791","0.04045355104","0.1790722045","0.2954602587","","","","","","","","","","","","","","72","H","0","img/none_selected.jpg","","148","main_expt",""
"","bandit","228","691126","0.0-190.0-0.0","06932423","wem/bandit_party_1","A5B6HXICKBU3Q","either","4","490","","","","","","","0","0","1","0.1759049641","","0.4","0.2","0.8","0.6","","","","","0.1759049641","0.06416506337","0.2189150546","0.3435099865","","","","","","","","","","72","H","0","img/none_selected.jpg","","149","main_expt",""
"","bandit","229","693074","0.0-191.0-0.0","06932423","wem/bandit_party_1","A5B6HXICKBU3Q","either","4","439","","","","","","","1","0","0","0.07819388902","","0.4","0.2","0.8","0.6","","","","","0.1910702346","0.07819388902","0.2119229637","0.268900415","","","","","","","","","","74","J","1","","","150","main_expt",""
"","bandit","230","694985","0.0-192.0-0.0","06932423","wem/bandit_party_1","A5B6HXICKBU3Q","either","4","400","","","","","","","0","0","1","","0.1186979887","0.4","0.2","0.8","0.6","0.1799178466","0.1186979887","0.2472398003","0.2326488896","","","","","","","","","","","","","","74","J","1","","","151","main_expt",""
"","bandit","231","696932","0.0-193.0-0.0","06932423","wem/bandit_party_1","A5B6HXICKBU3Q","either","4","434","","","","","","","0","0","1","","0.1084773402","0.4","0.2","0.8","0.6","0.1826140084","0.1084773402","0.2148428051","0.2768057641","","","","","","","","","","","","","","74","J","1","","","152","main_expt",""
"","bandit","232","699017","0.0-194.0-0.0","06932423","wem/bandit_party_1","A5B6HXICKBU3Q","either","4","458","","","","","","","0","0","1","","0.1314289417","0.4","0.2","0.8","0.6","0.147924298","0.1314289417","0.1598057249","0.2997660112","","","","","","","","","","","","","","74","J","1","","","153","main_expt",""
"","bandit","233","700845","0.0-195.0-0.0","06932423","wem/bandit_party_1","A5B6HXICKBU3Q","either","4","316","","","","","","","0","0","1","0.1489099923","","0.4","0.2","0.8","0.6","","","","","0.1388357139","0.1354051011","0.1489099923","0.3196464983","","","","","","","","","","75","K","2","","","154","main_expt",""
"","bandit","234","702705","0.0-196.0-0.0","06932423","wem/bandit_party_1","A5B6HXICKBU3Q","either","4","349","","","","","","","0","0","1","0.1502541116","","0.4","0.2","0.8","0.6","","","","","0.1658398244","0.1085215933","0.1502541116","0.3141654429","","","","","","","","","","75","K","2","","","155","main_expt",""
"","bandit","235","704551","0.0-197.0-0.0","06932423","wem/bandit_party_1","A5B6HXICKBU3Q","either","4","305","","","","","","","0","0","1","0.1104921729","","0.4","0.2","0.8","0.6","","","","","0.1104921729","0.1383379057","0.1605084188","0.2667217688","","","","","","","","","","72","H","0","img/none_selected.jpg","","156","main_expt",""
"","bandit","236","706555","0.0-198.0-0.0","06932423","wem/bandit_party_1","A5B6HXICKBU3Q","either","4","494","","","","","","","0","0","1","0.2867075714","","0.4","0.2","0.8","0.6","","","","","0.09530810267","0.1428990181","0.1684101418","0.2867075714","","","","","","","","","","76","L","3","","","157","main_expt",""
"","bandit","237","708535","0.0-199.0-0.0","06932423","wem/bandit_party_1","A5B6HXICKBU3Q","either","4","467","","","","","","","0","0","1","0.2788639118","","0.4","0.2","0.8","0.6","","","","","0.1211627972","0.07455979893","0.1807688322","0.2788639118","","","","","","","","","","76","L","3","","","158","main_expt",""
"","bandit","238","718581","0.0-200.0-0.0","06932423","wem/bandit_party_1","A5B6HXICKBU3Q","either","4","8532","","","","","","","0","0","1","0.3020710819","","0.4","0.2","0.8","0.6","","","","","0.1012897464","0.1009372764","0.1516426412","0.3020710819","","","","","","","","","","76","L","3","","","159","main_expt",""
"","bandit","239","720601","0.0-201.0-0.0","06932423","wem/bandit_party_1","A5B6HXICKBU3Q","either","4","465","","","","","","","0","0","1","0.1638698877","","0.4","0.2","0.8","0.6","","","","","0.1188035868","0.05118862797","0.1638698877","0.3404227007","","","","","","","","","","75","K","2","","","160","main_expt",""
"","bandit","240","722592","0.0-202.0-0.0","06932423","wem/bandit_party_1","A5B6HXICKBU3Q","either","4","481","","","","","","","0","0","1","0.1645359983","","0.4","0.2","0.8","0.6","","","","","0.1606836622","0.05265847637","0.1645359983","0.2876249865","","","","","","","","","","75","K","2","","","161","main_expt",""
"","bandit","241","724448","0.0-203.0-0.0","06932423","wem/bandit_party_1","A5B6HXICKBU3Q","either","4","346","","","","","","","0","0","1","0.07938684611","","0.4","0.2","0.8","0.6","","","","","0.1859884171","0.07938684611","0.2509918509","0.2401308511","","","","","","","","","","74","J","1","","","162","main_expt",""
"","bandit","242","726474","0.0-204.0-0.0","06932423","wem/bandit_party_1","A5B6HXICKBU3Q","either","4","516","","","","","","","0","0","1","","0.2528258464","0.4","0.2","0.8","0.6","0.2528258464","0.0970900163","0.1883685458","0.2486605046","","","","","","","","","","","","","","72","H","0","img/none_selected.jpg","","163","main_expt",""
"","bandit","243","729859","0.0-205.0-0.0","06932423","wem/bandit_party_1","A5B6HXICKBU3Q","either","4","1873","","","","","","","0","0","1","","0.2515292425","0.4","0.2","0.8","0.6","0.2515292425","0.07401968201","0.2179532334","0.22675384","","","","","","","","","","","","","","72","H","0","img/none_selected.jpg","","164","main_expt",""
"","bandit","244","731852","0.0-206.0-0.0","06932423","wem/bandit_party_1","A5B6HXICKBU3Q","either","4","480","","","","","","","0","0","1","0.2068970429","","0.4","0.2","0.8","0.6","","","","","0.2068970429","0.06633104104","0.2143704678","0.2841151948","","","","","","","","","","72","H","0","img/none_selected.jpg","","165","main_expt",""
"","bandit","245","733801","0.0-207.0-0.0","06932423","wem/bandit_party_1","A5B6HXICKBU3Q","either","4","363","","","","","","","0","0","1","0.05309652092","","0.4","0.2","0.8","0.6","","","","","0.1413778631","0.05309652092","0.2175899085","0.2842980464","","","","","","","","","","74","J","1","","","166","main_expt",""
"","bandit","246","735894","0.0-208.0-0.0","06932423","wem/bandit_party_1","A5B6HXICKBU3Q","either","4","578","","","","","","","0","0","1","","0.07357446968","0.4","0.2","0.8","0.6","0.1999497975","0.07357446968","0.2137120923","0.3007590714","","","","","","","","","","","","","","74","J","1","","","167","main_expt",""
"","bandit","247","737951","0.0-209.0-0.0","06932423","wem/bandit_party_1","A5B6HXICKBU3Q","either","4","429","","","","","","","0","0","1","0.2331560811","","0.4","0.2","0.8","0.6","","","","","0.1696145944","0.1054325378","0.2331560811","0.2884936601","","","","","","","","","","75","K","2","","","168","main_expt",""
"","bandit","248","739984","0.0-210.0-0.0","06932423","wem/bandit_party_1","A5B6HXICKBU3Q","either","4","518","","","","","","","0","0","1","0.2367963754","","0.4","0.2","0.8","0.6","","","","","0.1338518967","0.08536867429","0.2367963754","0.2803439438","","","","","","","","","","75","K","2","","","169","main_expt",""
"","bandit","249","741997","0.0-211.0-0.0","06932423","wem/bandit_party_1","A5B6HXICKBU3Q","either","4","475","","","","","","","0","1","0","","0.3010437192","0.4","0.2","0.8","0.6","0.1307598277","0.1083432756","0.2378050175","0.3010437192","","","","","","","","","","","","","","76","L","3","","","170","main_expt",""
"","bandit","250","744010","0.0-212.0-0.0","06932423","wem/bandit_party_1","A5B6HXICKBU3Q","either","4","502","","","","","","","1","0","0","0.3243802095","","0.4","0.2","0.8","0.6","","","","","0.1200375331","0.09185370626","0.2253696972","0.3243802095","","","","","","","","","","76","L","3","","","171","main_expt",""
"","bandit","251","746092","0.0-213.0-0.0","06932423","wem/bandit_party_1","A5B6HXICKBU3Q","either","4","564","","","","","","","0","0","1","0.3140094691","","0.4","0.2","0.8","0.6","","","","","0.07514546963","0.09458096772","0.2903394368","0.3140094691","","","","","","","","","","76","L","3","","","172","main_expt",""
"","bandit","252","748187","0.0-214.0-0.0","06932423","wem/bandit_party_1","A5B6HXICKBU3Q","either","4","578","","","","","","","0","0","1","","0.2433770114","0.4","0.2","0.8","0.6","0.07704486673","0.1016296913","0.2384828248","0.2433770114","","","","","","","","","","","","","","76","L","3","","","173","main_expt",""
"","bandit","253","750607","0.0-215.0-0.0","06932423","wem/bandit_party_1","A5B6HXICKBU3Q","either","4","817","","","","","","","0","0","1","0.2080779891","","0.4","0.2","0.8","0.6","","","","","0.04061738922","0.117107939","0.2823111034","0.2080779891","","","","","","","","","","76","L","3","","","174","main_expt",""
"","bandit","254","752598","0.0-216.0-0.0","06932423","wem/bandit_party_1","A5B6HXICKBU3Q","either","4","478","","","","","","","0","0","1","0.292147578","","0.4","0.2","0.8","0.6","","","","","0.02968316822","0.1254773658","0.292147578","0.2211365803","","","","","","","","","","75","K","2","","","175","main_expt",""
"","bandit","255","761437","0.0-217.0-0.0","06932423","wem/bandit_party_1","A5B6HXICKBU3Q","either","4","7323","","","","","","","0","0","1","0.04419366322","","0.4","0.2","0.8","0.6","","","","","0.04419366322","0.1518856622","0.2928295457","0.231280906","","","","","","","","","","72","H","0","img/none_selected.jpg","","176","main_expt",""
"","bandit","256","763262","0.0-218.0-0.0","06932423","wem/bandit_party_1","A5B6HXICKBU3Q","either","4","316","","","","","","","0","0","1","0.1689881391","","0.4","0.2","0.8","0.6","","","","","0.04140429262","0.1502483312","0.297241693","0.1689881391","","","","","","","","","","76","L","3","","","177","main_expt",""
"","bandit","257","765105","0.0-219.0-0.0","06932423","wem/bandit_party_1","A5B6HXICKBU3Q","either","4","333","","","","","","","0","0","1","0.276241128","","0.4","0.2","0.8","0.6","","","","","0.06103489621","0.2073149786","0.276241128","0.1699404395","","","","","","","","","","75","K","2","","","178","main_expt",""
"","bandit","258","766944","0.0-220.0-0.0","06932423","wem/bandit_party_1","A5B6HXICKBU3Q","either","4","323","","","","","","","0","0","1","0.2405339857","","0.4","0.2","0.8","0.6","","","","","0.053608248","0.1928578162","0.2405339857","0.1571972967","","","","","","","","","","75","K","2","","","179","main_expt",""
"","bandit","259","768774","0.0-221.0-0.0","06932423","wem/bandit_party_1","A5B6HXICKBU3Q","either","4","316","","","","","","","0","0","1","0.233428307","","0.4","0.2","0.8","0.6","","","","","0.06289379635","0.1412953234","0.233428307","0.1567782565","","","","","","","","","","75","K","2","","","180","main_expt",""
"","bandit","260","770683","0.0-222.0-0.0","06932423","wem/bandit_party_1","A5B6HXICKBU3Q","either","4","396","","","","","","","0","0","1","","0.1459310114","0.4","0.2","0.8","0.6","0.07748386732","0.1258774719","0.1459310114","0.1492691696","","","","","","","","","","","","","","75","K","2","","","181","main_expt",""
"","bandit","261","772479","0.0-223.0-0.0","06932423","wem/bandit_party_1","A5B6HXICKBU3Q","either","4","283","","","","","","","0","0","1","","0.1121960069","0.4","0.2","0.8","0.6","0.096714051","0.1121960069","0.1796360657","0.1609613705","","","","","","","","","","","","","","74","J","1","","","182","main_expt",""
"","bandit","262","774392","0.0-224.0-0.0","06932423","wem/bandit_party_1","A5B6HXICKBU3Q","either","4","402","","","","","","","0","0","1","","0.08335286121","0.4","0.2","0.8","0.6","0.05351369794","0.08335286121","0.1907874973","0.1982891881","","","","","","","","","","","","","","74","J","1","","","183","main_expt",""
"","bandit","263","776302","0.0-225.0-0.0","06932423","wem/bandit_party_1","A5B6HXICKBU3Q","either","4","398","","","","","","","0","0","1","","0.1085923678","0.4","0.2","0.8","0.6","0.08854511538","0.1085923678","0.1451627339","0.1703318442","","","","","","","","","","","","","","74","J","1","","","184","main_expt",""
"","bandit","264","778167","0.0-226.0-0.0","06932423","wem/bandit_party_1","A5B6HXICKBU3Q","either","4","353","","","","","","","0","0","1","","0.1113654269","0.4","0.2","0.8","0.6","0.136385666","0.1113654269","0.1692531577","0.09566746086","","","","","","","","","","","","","","74","J","1","","","185","main_expt",""
"","bandit","265","780008","0.0-227.0-0.0","06932423","wem/bandit_party_1","A5B6HXICKBU3Q","either","4","330","","","","","","","0","1","0","","0.1848043888","0.4","0.2","0.8","0.6","0.1848043888","0.1383531569","0.1885113298","0.1254261761","","","","","","","","","","","","","","72","H","0","img/none_selected.jpg","","186","main_expt",""
"","bandit","266","781921","0.0-228.0-0.0","06932423","wem/bandit_party_1","A5B6HXICKBU3Q","either","4","400","","","","","","","0","0","1","","0.1640989128","0.4","0.2","0.8","0.6","0.1640989128","0.1739713275","0.2088125345","0.1081798115","","","","","","","","","","","","","","72","H","0","img/none_selected.jpg","","187","main_expt",""
"","bandit","267","783898","0.0-229.0-0.0","06932423","wem/bandit_party_1","A5B6HXICKBU3Q","either","4","467","","","","","","","0","0","1","","0.1301402021","0.4","0.2","0.8","0.6","0.1301402021","0.1926366302","0.2228369986","0.08529062399","","","","","","","","","","","","","","72","H","0","img/none_selected.jpg","","188","main_expt",""
"","bandit","268","786101","0.0-230.0-0.0","06932423","wem/bandit_party_1","A5B6HXICKBU3Q","either","4","692","","","","","","","0","0","1","","0.1980942663","0.4","0.2","0.8","0.6","0.1980942663","0.2499935398","0.2567428292","0.07250281893","","","","","","","","","","","","","","72","H","0","img/none_selected.jpg","","189","main_expt",""
"","bandit","269","788080","0.0-231.0-0.0","06932423","wem/bandit_party_1","A5B6HXICKBU3Q","either","4","467","","","","","","","0","0","1","0.1842725295","","0.4","0.2","0.8","0.6","","","","","0.1842725295","0.2367317824","0.3177850294","0.07895395147","","","","","","","","","","72","H","0","img/none_selected.jpg","","190","main_expt",""
"","bandit","270","790120","0.0-232.0-0.0","06932423","wem/bandit_party_1","A5B6HXICKBU3Q","either","4","527","","","","","","","0","0","1","0.06204701637","","0.4","0.2","0.8","0.6","","","","","0.2087081259","0.2515026666","0.2876912335","0.06204701637","","","","","","","","","","76","L","3","","","191","main_expt",""
"","bandit","271","792027","0.0-233.0-0.0","06932423","wem/bandit_party_1","A5B6HXICKBU3Q","either","4","396","","","","","","","0","0","1","0.064067899","","0.4","0.2","0.8","0.6","","","","","0.1800110976","0.2451916405","0.2383873749","0.064067899","","","","","","","","","","76","L","3","","","192","main_expt",""
"","bandit","272","794129","0.0-234.0-0.0","06932423","wem/bandit_party_1","A5B6HXICKBU3Q","either","4","591","","","","","","","0","0","1","","0.1286650472","0.4","0.2","0.8","0.6","0.1519186298","0.2353451433","0.24690957","0.1286650472","","","","","","","","","","","","","","76","L","3","","","193","main_expt",""
"","bandit","273","796144","0.0-235.0-0.0","06932423","wem/bandit_party_1","A5B6HXICKBU3Q","either","4","498","","","","","","","1","0","0","0.1746490116","","0.4","0.2","0.8","0.6","","","","","0.1431656489","0.307075739","0.2728455101","0.1746490116","","","","","","","","","","76","L","3","","","194","main_expt",""
"","bandit","274","798095","0.0-236.0-0.0","06932423","wem/bandit_party_1","A5B6HXICKBU3Q","either","4","409","","","","","","","0","0","1","0.129035247","","0.4","0.2","0.8","0.6","","","","","0.1868251083","0.3011001907","0.2421292151","0.129035247","","","","","","","","","","76","L","3","","","195","main_expt",""
"","bandit","275","799961","0.0-237.0-0.0","06932423","wem/bandit_party_1","A5B6HXICKBU3Q","either","4","354","","","","","","","0","0","1","","0.09052040682","0.4","0.2","0.8","0.6","0.176624335","0.2861216794","0.2598052724","0.09052040682","","","","","","","","","","","","","","76","L","3","","","196","main_expt",""
"","bandit","276","801886","0.0-238.0-0.0","06932423","wem/bandit_party_1","A5B6HXICKBU3Q","either","4","402","","","","","","","0","0","1","0.08675464884","","0.4","0.2","0.8","0.6","","","","","0.2383323772","0.2121549007","0.2540930088","0.08675464884","","","","","","","","","","76","L","3","","","197","main_expt",""
"","bandit","277","803756","0.0-239.0-0.0","06932423","wem/bandit_party_1","A5B6HXICKBU3Q","either","4","357","","","","","","","0","0","1","","0.2460150375","0.4","0.2","0.8","0.6","0.260618614","0.260340052","0.2460150375","0.09429549835","","","","","","","","","","","","","","75","K","2","","","198","main_expt",""
"","bandit","278","805687","0.0-240.0-0.0","06932423","wem/bandit_party_1","A5B6HXICKBU3Q","either","4","362","","","","","","","1","0","0","0.2217343644","","0.4","0.2","0.8","0.6","","","","","0.2935067364","0.3009562829","0.2217343644","0.09303778716","","","","","","","","","","75","K","2","","","199","main_expt",""
"","bandit","279","807654","0.0-241.0-0.0","06932423","wem/bandit_party_1","A5B6HXICKBU3Q","either","4","454","","","","","","","0","0","1","0.2830302048","","0.4","0.2","0.8","0.6","","","","","0.362920627","0.3430896668","0.2830302048","0.07354084322","","","","","","","","","","75","K","2","","","200","main_expt",""
"","bandit","280","809589","0.0-242.0-0.0","06932423","wem/bandit_party_1","A5B6HXICKBU3Q","either","4","423","","","","","","","0","0","1","0.3175621279","","0.4","0.2","0.8","0.6","","","","","0.3119044903","0.2973668079","0.3175621279","0.08115367452","","","","","","","","","","75","K","2","","","201","main_expt",""
"","bandit","281","811500","0.0-243.0-0.0","06932423","wem/bandit_party_1","A5B6HXICKBU3Q","either","4","400","","","","","","","0","0","1","0.3049471546","","0.4","0.2","0.8","0.6","","","","","0.3095695708","0.3219337599","0.3049471546","0.0774842685","","","","","","","","","","75","K","2","","","202","main_expt",""
"","bandit","282","813405","0.0-244.0-0.0","06932423","wem/bandit_party_1","A5B6HXICKBU3Q","either","4","392","","","","","","","0","0","1","","0.3229991028","0.4","0.2","0.8","0.6","0.3005459379","0.3229991028","0.2975042969","0.09704724367","","","","","","","","","","","","","","74","J","1","","","203","main_expt",""
"","bandit","283","815329","0.0-245.0-0.0","06932423","wem/bandit_party_1","A5B6HXICKBU3Q","either","4","413","","","","","","","0","0","1","","0.3077995671","0.4","0.2","0.8","0.6","0.3116824409","0.3077995671","0.2268457719","0.1224111047","","","","","","","","","","","","","","74","J","1","","","204","main_expt",""
"","bandit","284","817282","0.0-246.0-0.0","06932423","wem/bandit_party_1","A5B6HXICKBU3Q","either","4","433","","","","","","","0","0","1","","0.3291635812","0.4","0.2","0.8","0.6","0.3291635812","0.3070199156","0.2582085449","0.1627664319","","","","","","","","","","","","","","72","H","0","img/none_selected.jpg","","205","main_expt",""
"","bandit","285","819168","0.0-247.0-0.0","06932423","wem/bandit_party_1","A5B6HXICKBU3Q","either","4","372","","","","","","","0","0","1","0.1604236747","","0.4","0.2","0.8","0.6","","","","","0.4008790519","0.3109683939","0.2841247045","0.1604236747","","","","","","","","","","76","L","3","","","206","main_expt",""
"","bandit","286","821066","0.0-248.0-0.0","06932423","wem/bandit_party_1","A5B6HXICKBU3Q","either","4","365","","","","","","","0","0","1","0.3333225396","","0.4","0.2","0.8","0.6","","","","","0.4202180382","0.2845075958","0.3333225396","0.126388554","","","","","","","","","","75","K","2","","","207","main_expt",""
"","bandit","287","823323","0.0-249.0-0.0","06932423","wem/bandit_party_1","A5B6HXICKBU3Q","either","4","745","","","","","","","0","0","1","0.2419557814","","0.4","0.2","0.8","0.6","","","","","0.4168586074","0.2419557814","0.290219871","0.1602309633","","","","","","","","","","74","J","1","","","208","main_expt",""
"","bandit","288","825286","0.0-250.0-0.0","06932423","wem/bandit_party_1","A5B6HXICKBU3Q","either","4","445","","","","","","","0","0","1","","0.3949328033","0.4","0.2","0.8","0.6","0.3949328033","0.2449545816","0.3426384504","0.2009997365","","","","","","","","","","","","","","72","H","0","img/none_selected.jpg","","209","main_expt",""
"","bandit","289","827340","0.0-251.0-0.0","06932423","wem/bandit_party_1","A5B6HXICKBU3Q","either","4","541","","","","","","","0","0","1","","0.41782505","0.4","0.2","0.8","0.6","0.41782505","0.2176860071","0.2932754766","0.1997114924","","","","","","","","","","","","","","72","H","0","img/none_selected.jpg","","210","main_expt",""
"","bandit","290","829365","0.0-252.0-0.0","06932423","wem/bandit_party_1","A5B6HXICKBU3Q","either","4","511","","","","","","","0","0","1","0.4377941382","","0.4","0.2","0.8","0.6","","","","","0.4377941382","0.2460847292","0.2522206247","0.2631807131","","","","","","","","","","72","H","0","img/none_selected.jpg","","211","main_expt",""
"","bandit","291","831288","0.0-253.0-0.0","06932423","wem/bandit_party_1","A5B6HXICKBU3Q","either","4","410","","","","","","","0","0","1","","0.2017704833","0.4","0.2","0.8","0.6","0.4619006446","0.2017704833","0.2323705111","0.2008991105","","","","","","","","","","","","","","74","J","1","","","212","main_expt",""
"","bandit","292","833146","0.0-254.0-0.0","06932423","wem/bandit_party_1","A5B6HXICKBU3Q","either","4","340","","","","","","","0","0","1","","0.1891715169","0.4","0.2","0.8","0.6","0.4508737721","0.1891715169","0.2815580385","0.1656487101","","","","","","","","","","","","","","74","J","1","","","213","main_expt",""
"","bandit","293","835069","0.0-255.0-0.0","06932423","wem/bandit_party_1","A5B6HXICKBU3Q","either","4","399","","","","","","","1","0","0","0.2955812139","","0.4","0.2","0.8","0.6","","","","","0.4639731149","0.1819308411","0.2955812139","0.213788386","","","","","","","","","","75","K","2","","","214","main_expt",""
"","bandit","294","836935","0.0-256.0-0.0","06932423","wem/bandit_party_1","A5B6HXICKBU3Q","either","4","346","","","","","","","0","0","1","0.2988647484","","0.4","0.2","0.8","0.6","","","","","0.4690757113","0.1406935411","0.2988647484","0.2206736926","","","","","","","","","","75","K","2","","","215","main_expt",""
"","bandit","295","838825","0.0-257.0-0.0","06932423","wem/bandit_party_1","A5B6HXICKBU3Q","either","4","378","","","","","","","0","0","1","0.3361974059","","0.4","0.2","0.8","0.6","","","","","0.4685680314","0.206739756","0.3361974059","0.2270120675","","","","","","","","","","75","K","2","","","216","main_expt",""
"","bandit","296","840755","0.0-258.0-0.0","06932423","wem/bandit_party_1","A5B6HXICKBU3Q","either","4","415","","","","","","","0","0","1","0.2764506131","","0.4","0.2","0.8","0.6","","","","","0.4873952874","0.178624692","0.2764506131","0.2561581829","","","","","","","","","","75","K","2","","","217","main_expt",""
"","bandit","297","842686","0.0-259.0-0.0","06932423","wem/bandit_party_1","A5B6HXICKBU3Q","either","4","422","","","","","","","0","0","1","0.299893698","","0.4","0.2","0.8","0.6","","","","","0.4790671899","0.2021641755","0.299893698","0.2785758431","","","","","","","","","","75","K","2","","","218","main_expt",""
"","bandit","298","844643","0.0-260.0-0.0","06932423","wem/bandit_party_1","A5B6HXICKBU3Q","either","4","420","","","","","","","0","0","1","0.2707863597","","0.4","0.2","0.8","0.6","","","","","0.4769795117","0.2076996705","0.3213687962","0.2707863597","","","","","","","","","","76","L","3","","","219","main_expt",""
"","bandit","299","846508","0.0-261.0-0.0","06932423","wem/bandit_party_1","A5B6HXICKBU3Q","either","4","355","","","","","","","0","0","1","0.2262269101","","0.4","0.2","0.8","0.6","","","","","0.4746148145","0.2479045362","0.3782095139","0.2262269101","","","","","","","","","","76","L","3","","","220","main_expt",""
"","bandit","300","848379","0.0-262.0-0.0","06932423","wem/bandit_party_1","A5B6HXICKBU3Q","either","4","357","","","","","","","0","0","1","","0.2522421151","0.4","0.2","0.8","0.6","0.4789253058","0.251163546","0.3572699546","0.2522421151","","","","","","","","","","","","","","76","L","3","","","221","main_expt",""
"","bandit","301","850516","0.0-263.0-0.0","06932423","wem/bandit_party_1","A5B6HXICKBU3Q","either","4","624","","","","","","","0","0","1","0.2323100388","","0.4","0.2","0.8","0.6","","","","","0.4765400837","0.2653622565","0.332217079","0.2323100388","","","","","","","","","","76","L","3","","","222","main_expt",""
"","bandit","302","852529","0.0-264.0-0.0","06932423","wem/bandit_party_1","A5B6HXICKBU3Q","either","4","486","","","","","","","0","0","1","","0.3327789551","0.4","0.2","0.8","0.6","0.4872993944","0.2034578964","0.3327789551","0.2013525365","","","","","","","","","","","","","","75","K","2","","","223","main_expt",""
"","bandit","303","854654","0.0-265.0-0.0","06932423","wem/bandit_party_1","A5B6HXICKBU3Q","either","4","609","","","","","","","0","0","1","0.3720138676","","0.4","0.2","0.8","0.6","","","","","0.4864577786","0.1176985371","0.3720138676","0.2017363432","","","","","","","","","","75","K","2","","","224","main_expt",""
"","bandit","304","856798","0.0-266.0-0.0","06932423","wem/bandit_party_1","A5B6HXICKBU3Q","either","4","407","","","","","","","0","0","1","","0.08531446518","0.4","0.2","0.8","0.6","0.4815865163","0.08531446518","0.4035982493","0.1608447522","","","","","","","","","","","","","","74","J","1","","","225","main_expt",""
"","bandit","305","858782","0.0-267.0-0.0","06932423","wem/bandit_party_1","A5B6HXICKBU3Q","either","4","467","","","","","","","0","0","1","","0.0901010045","0.4","0.2","0.8","0.6","0.4781941344","0.0901010045","0.3538577565","0.2023183299","","","","","","","","","","","","","","74","J","1","","","226","main_expt",""
"","bandit","306","860742","0.0-268.0-0.0","06932423","wem/bandit_party_1","A5B6HXICKBU3Q","either","4","444","","","","","","","0","0","1","","0.06499555022","0.4","0.2","0.8","0.6","0.4742279627","0.06499555022","0.4205879778","0.1555458008","","","","","","","","","","","","","","74","J","1","","","227","main_expt",""
"","bandit","307","862641","0.0-269.0-0.0","06932423","wem/bandit_party_1","A5B6HXICKBU3Q","either","4","384","","","","","","","1","0","0","0.4597327255","","0.4","0.2","0.8","0.6","","","","","0.4597327255","0.06967502077","0.4082381823","0.1210896773","","","","","","","","","","72","H","0","img/none_selected.jpg","","228","main_expt",""
"","bandit","308","864599","0.0-270.0-0.0","06932423","wem/bandit_party_1","A5B6HXICKBU3Q","either","4","418","","","","","","","0","0","1","0.4733003713","","0.4","0.2","0.8","0.6","","","","","0.4733003713","0.07642173418","0.4274963613","0.1206830913","","","","","","","","","","72","H","0","img/none_selected.jpg","","229","main_expt",""
"","bandit","309","866674","0.0-271.0-0.0","06932423","wem/bandit_party_1","A5B6HXICKBU3Q","either","4","559","","","","","","","1","0","0","0.4832022084","","0.4","0.2","0.8","0.6","","","","","0.4832022084","0.04973788902","0.4362488765","0.1334008039","","","","","","","","","","72","H","0","img/none_selected.jpg","","230","main_expt",""
"","bandit","310","868828","0.0-272.0-0.0","06932423","wem/bandit_party_1","A5B6HXICKBU3Q","either","4","642","","","","","","","0","0","1","","0.4802630573","0.4","0.2","0.8","0.6","0.4802630573","0.07419495466","0.4420629534","0.1048467088","","","","","","","","","","","","","","72","H","0","img/none_selected.jpg","","231","main_expt",""
"","bandit","311","870712","0.0-273.0-0.0","06932423","wem/bandit_party_1","A5B6HXICKBU3Q","either","4","371","","","","","","","0","0","1","","0.4739318499","0.4","0.2","0.8","0.6","0.4739318499","0.08125260149","0.4287414635","0.1184002818","","","","","","","","","","","","","","72","H","0","img/none_selected.jpg","","232","main_expt",""
"","bandit","312","872593","0.0-274.0-0.0","06932423","wem/bandit_party_1","A5B6HXICKBU3Q","either","4","369","","","","","","","1","0","0","0.4709765286","","0.4","0.2","0.8","0.6","","","","","0.4709765286","0.06057073796","0.4395511981","0.08533064469","","","","","","","","","","72","H","0","img/none_selected.jpg","","233","main_expt",""
"","bandit","313","874530","0.0-275.0-0.0","06932423","wem/bandit_party_1","A5B6HXICKBU3Q","either","4","426","","","","","","","1","0","0","0.4658145356","","0.4","0.2","0.8","0.6","","","","","0.4658145356","0.1037411708","0.4479240545","0.1190123434","","","","","","","","","","72","H","0","img/none_selected.jpg","","234","main_expt",""
"","bandit","314","876439","0.0-276.0-0.0","06932423","wem/bandit_party_1","A5B6HXICKBU3Q","either","4","397","","","","","","","0","1","0","","0.4312508187","0.4","0.2","0.8","0.6","0.4312508187","0.1267441937","0.4476644646","0.1392024459","","","","","","","","","","","","","","72","H","0","img/none_selected.jpg","","235","main_expt",""
"","bandit","315","878353","0.0-277.0-0.0","06932423","wem/bandit_party_1","A5B6HXICKBU3Q","either","4","393","","","","","","","0","0","1","0.4323277229","","0.4","0.2","0.8","0.6","","","","","0.4323277229","0.1002206095","0.457106966","0.1076242464","","","","","","","","","","72","H","0","img/none_selected.jpg","","236","main_expt",""
"","bandit","316","880296","0.0-278.0-0.0","06932423","wem/bandit_party_1","A5B6HXICKBU3Q","either","4","429","","","","","","","1","0","0","0.4517679415","","0.4","0.2","0.8","0.6","","","","","0.4517679415","0.08353940566","0.4097288684","0.1539911713","","","","","","","","","","72","H","0","img/none_selected.jpg","","237","main_expt",""
"","bandit","317","882343","0.0-279.0-0.0","06932423","wem/bandit_party_1","A5B6HXICKBU3Q","either","4","530","","","","","","","0","1","0","","0.4476427196","0.4","0.2","0.8","0.6","0.4476427196","0.07847158511","0.4530646831","0.1833253983","","","","","","","","","","","","","","72","H","0","img/none_selected.jpg","","238","main_expt",""
