"consent","trial_type","trial_index","time_elapsed","internal_node_id","subjID","study","MID","cond","drift","rt","responses","button_pressed","key_press","like","value","connected","gems","bombs","no_reward","GemPrChosen","BombPrChosen","GainOverPainPr_0","GainOverPainPr_1","GainOverPainPr_2","GainOverPainPr_3","LosePr_0","LosePr_1","LosePr_2","LosePr_3","WinPr_0","WinPr_1","WinPr_2","WinPr_3","Q0","Q1","Q2","gender","age","ethnicity","label","expt_phase","target","respCharCode","respKey","respChoiceNum","respChoice","practice","trial_counter","trial_label","Q0_index","view_history"
"GDM/GDM_behavioral_consent_30min_online.html","consent","0","9395","0.0-0.0","07220096","wem/bandit_party_1","A19WWXPWT25JD0","either","4","","","","","","","","","","","","","","","","","","","","","","","","","","","","","","","","","","","","","","","","","",""
"","survey-text","1","11829","0.0-1.0","07220096","wem/bandit_party_1","A19WWXPWT25JD0","either","4","1406","{""Q0"":""A19WWXPWT25JD0""}","","","","","","","","","","","","","","","","","","","","","","","","","","","","","","","","","","","","","","","",""
"","button-response","2","14625","0.0-2.0","07220096","wem/bandit_party_1","A19WWXPWT25JD0","either","4","1790","","1","","","","","","","","","","","","","","","","","","","","","","","","","","","","","","","","","","","","","","",""
"","text-replacement","3","22656","0.0-3.0","07220096","wem/bandit_party_1","A19WWXPWT25JD0","either","4","7023","","","32","","","","","","","","","","","","","","","","","","","","","","","","","","","","","","","","","","","","","",""
"","text-replacement","4","28034","0.0-4.0","07220096","wem/bandit_party_1","A19WWXPWT25JD0","either","4","5374","","","32","","","","","","","","","","","","","","","","","","","","","","","","","","","","","","","","","","","","","",""
"","identification","5","36211","0.0-6.0-0.0","07220096","wem/bandit_party_1","A19WWXPWT25JD0","either","4","8143","","","","0","0","0","","","","","","","","","","","","","","","","","","","","","","","","pre","identification_pre","the Republican party","","","","","","","","",""
"","identification","6","41482","0.0-6.0-1.0","07220096","wem/bandit_party_1","A19WWXPWT25JD0","either","4","4242","","","","6","6","6","","","","","","","","","","","","","","","","","","","","","","","","pre","identification_pre","the Democratic Party","","","","","","","","",""
"","text-replacement","7","49331","0.0-7.0","07220096","wem/bandit_party_1","A19WWXPWT25JD0","either","4","6846","","","32","","","","","","","","","","","","","","","","","","","","","","","","","","","","","","","","","","","","","",""
"","text-replacement","8","52841","0.0-8.0","07220096","wem/bandit_party_1","A19WWXPWT25JD0","either","4","3506","","","32","","","","","","","","","","","","","","","","","","","","","","","","","","","","","","","","","","","","","",""
"","text-replacement","9","55986","0.0-9.0","07220096","wem/bandit_party_1","A19WWXPWT25JD0","either","4","3140","","","32","","","","","","","","","","","","","","","","","","","","","","","","","","","","","","","","","","","","","",""
"","text-replacement","10","59020","0.0-10.0","07220096","wem/bandit_party_1","A19WWXPWT25JD0","either","4","3030","","","32","","","","","","","","","","","","","","","","","","","","","","","","","","","","","","","","","","","","","",""
"","text-replacement","11","60043","0.0-11.0","07220096","wem/bandit_party_1","A19WWXPWT25JD0","either","4","1021","","","32","","","","","","","","","","","","","","","","","","","","","","","","","","","","","","","","","","","","","",""
"","bandit","12","63988","0.0-12.0-0.0","07220096","wem/bandit_party_1","A19WWXPWT25JD0","either","4","2428","","","","","","","0","0","1","0","0","","","","","0","","","","0","","","","","","","","","","","","","74","J","0","img/none_selected_demo.jpg","true","0","","",""
"","bandit","13","66482","0.0-13.0-0.0","07220096","wem/bandit_party_1","A19WWXPWT25JD0","either","4","981","","","","","","","0","0","1","0","0","","","","","0","","","","0","","","","","","","","","","","","","75","K","0","img/none_selected_demo.jpg","true","0","","",""
"","text-replacement","14","68009","0.0-14.0","07220096","wem/bandit_party_1","A19WWXPWT25JD0","either","4","1524","","","32","","","","","","","","","","","","","","","","","","","","","","","","","","","","","","","","","","","","","",""
"","text-replacement","15","68800","0.0-15.0","07220096","wem/bandit_party_1","A19WWXPWT25JD0","either","4","789","","","32","","","","","","","","","","","","","","","","","","","","","","","","","","","","","","","","","","","","","",""
"","text-replacement","16","72731","0.0-16.0","07220096","wem/bandit_party_1","A19WWXPWT25JD0","either","4","3928","","","32","","","","","","","","","","","","","","","","","","","","","","","","","","","","","","","","","","","","","",""
"","text-replacement","17","76865","0.0-17.0","07220096","wem/bandit_party_1","A19WWXPWT25JD0","either","4","4131","","","32","","","","","","","","","","","","","","","","","","","","","","","","","","","","","","","","","","","","","",""
"","bandit","18","79337","0.0-18.0-0.0","07220096","wem/bandit_party_1","A19WWXPWT25JD0","either","4","961","","","","","","","1","0","0","0.8","","0.5","0.5","","","","","","","0.8","0.2","","","","","","","","","","","","74","J","0","img/none_selected_demo.jpg","true","0","80_20_practice","",""
"","bandit","19","81690","0.0-18.0-1.0","07220096","wem/bandit_party_1","A19WWXPWT25JD0","either","4","843","","","","","","","0","1","0","","0.8","0.5","0.5","","","0.8","0.2","","","","","","","","","","","","","","","","74","J","0","img/none_selected_demo.jpg","true","0","80_20_practice","",""
"","bandit","20","83601","0.0-18.0-2.0","07220096","wem/bandit_party_1","A19WWXPWT25JD0","either","4","400","","","","","","","1","0","0","0.2","","0.5","0.5","","","","","","","0.8","0.2","","","","","","","","","","","","75","K","1","","true","0","80_20_practice","",""
"","bandit","21","85644","0.0-18.0-3.0","07220096","wem/bandit_party_1","A19WWXPWT25JD0","either","4","532","","","","","","","0","0","1","","0.2","0.5","0.5","","","0.8","0.2","","","","","","","","","","","","","","","","75","K","1","","true","0","80_20_practice","",""
"","bandit","22","87562","0.0-18.0-4.0","07220096","wem/bandit_party_1","A19WWXPWT25JD0","either","4","404","","","","","","","0","1","0","","0.2","0.5","0.5","","","0.8","0.2","","","","","","","","","","","","","","","","75","K","1","","true","0","80_20_practice","",""
"","bandit","23","89400","0.0-18.0-5.0","07220096","wem/bandit_party_1","A19WWXPWT25JD0","either","4","329","","","","","","","0","1","0","","0.8","0.5","0.5","","","0.8","0.2","","","","","","","","","","","","","","","","74","J","0","img/none_selected_demo.jpg","true","0","80_20_practice","",""
"","bandit","24","91274","0.0-18.0-6.0","07220096","wem/bandit_party_1","A19WWXPWT25JD0","either","4","362","","","","","","","0","0","1","","0.2","0.5","0.5","","","0.8","0.2","","","","","","","","","","","","","","","","75","K","1","","true","0","80_20_practice","",""
"","bandit","25","93505","0.0-18.0-7.0","07220096","wem/bandit_party_1","A19WWXPWT25JD0","either","4","720","","","","","","","0","0","1","","0.2","0.5","0.5","","","0.8","0.2","","","","","","","","","","","","","","","","75","K","1","","true","0","80_20_practice","",""
"","bandit","26","95595","0.0-18.0-8.0","07220096","wem/bandit_party_1","A19WWXPWT25JD0","either","4","581","","","","","","","0","0","1","","0.2","0.5","0.5","","","0.8","0.2","","","","","","","","","","","","","","","","75","K","1","","true","0","80_20_practice","",""
"","bandit","27","97510","0.0-18.0-9.0","07220096","wem/bandit_party_1","A19WWXPWT25JD0","either","4","401","","","","","","","0","0","1","0.2","","0.5","0.5","","","","","","","0.8","0.2","","","","","","","","","","","","75","K","1","","true","0","80_20_practice","",""
"","bandit","28","99443","0.0-18.0-10.0","07220096","wem/bandit_party_1","A19WWXPWT25JD0","either","4","421","","","","","","","0","0","1","0.2","","0.5","0.5","","","","","","","0.8","0.2","","","","","","","","","","","","75","K","1","","true","0","80_20_practice","",""
"","bandit","29","101282","0.0-18.0-11.0","07220096","wem/bandit_party_1","A19WWXPWT25JD0","either","4","325","","","","","","","1","0","0","0.8","","0.5","0.5","","","","","","","0.8","0.2","","","","","","","","","","","","74","J","0","img/none_selected_demo.jpg","true","0","80_20_practice","",""
"","bandit","30","103120","0.0-18.0-12.0","07220096","wem/bandit_party_1","A19WWXPWT25JD0","either","4","326","","","","","","","1","0","0","0.8","","0.5","0.5","","","","","","","0.8","0.2","","","","","","","","","","","","74","J","0","img/none_selected_demo.jpg","true","0","80_20_practice","",""
"","bandit","31","104954","0.0-18.0-13.0","07220096","wem/bandit_party_1","A19WWXPWT25JD0","either","4","324","","","","","","","0","1","0","","0.8","0.5","0.5","","","0.8","0.2","","","","","","","","","","","","","","","","74","J","0","img/none_selected_demo.jpg","true","0","80_20_practice","",""
"","bandit","32","106859","0.0-18.0-14.0","07220096","wem/bandit_party_1","A19WWXPWT25JD0","either","4","392","","","","","","","1","0","0","0.8","","0.5","0.5","","","","","","","0.8","0.2","","","","","","","","","","","","74","J","0","img/none_selected_demo.jpg","true","0","80_20_practice","",""
"","bandit","33","108732","0.0-18.0-15.0","07220096","wem/bandit_party_1","A19WWXPWT25JD0","either","4","362","","","","","","","0","1","0","","0.8","0.5","0.5","","","0.8","0.2","","","","","","","","","","","","","","","","74","J","0","img/none_selected_demo.jpg","true","0","80_20_practice","",""
"","bandit","34","110746","0.0-18.0-16.0","07220096","wem/bandit_party_1","A19WWXPWT25JD0","either","4","502","","","","","","","0","0","1","0.2","","0.5","0.5","","","","","","","0.8","0.2","","","","","","","","","","","","75","K","1","","true","0","80_20_practice","",""
"","bandit","35","112587","0.0-18.0-17.0","07220096","wem/bandit_party_1","A19WWXPWT25JD0","either","4","332","","","","","","","0","1","0","","0.8","0.5","0.5","","","0.8","0.2","","","","","","","","","","","","","","","","74","J","0","img/none_selected_demo.jpg","true","0","80_20_practice","",""
"","bandit","36","114652","0.0-18.0-18.0","07220096","wem/bandit_party_1","A19WWXPWT25JD0","either","4","551","","","","","","","0","0","1","0.8","","0.5","0.5","","","","","","","0.8","0.2","","","","","","","","","","","","74","J","0","img/none_selected_demo.jpg","true","0","80_20_practice","",""
"","bandit","37","116258","0.0-18.0-19.0","07220096","wem/bandit_party_1","A19WWXPWT25JD0","either","4","92","","","","","","","0","1","0","","0.2","0.5","0.5","","","0.8","0.2","","","","","","","","","","","","","","","","75","K","1","","true","0","80_20_practice","",""
"","text-replacement","38","121296","0.0-19.0","07220096","wem/bandit_party_1","A19WWXPWT25JD0","either","4","5034","","","32","","","","","","","","","","","","","","","","","","","","","","","","","","","","","","","","","","","","","",""
"","bandit","39","125610","0.0-20.0-0.0","07220096","wem/bandit_party_1","A19WWXPWT25JD0","either","4","2805","","","","","","","1","0","0","1","0","","","","","0","1","","","1","0","","","","","","","","","","","","74","J","0","img/none_selected_demo.jpg","true","0","","",""
"","text-replacement","40","133234","0.0-21.0","07220096","wem/bandit_party_1","A19WWXPWT25JD0","either","4","7620","","","32","","","","","","","","","","","","","","","","","","","","","","","","","","","","","","","","","","","","","",""
"","text-replacement","41","140073","0.0-22.0","07220096","wem/bandit_party_1","A19WWXPWT25JD0","either","4","6833","","","32","","","","","","","","","","","","","","","","","","","","","","","","","","","","","","","","","","","","","",""
"","text-replacement","42","143200","0.0-23.0","07220096","wem/bandit_party_1","A19WWXPWT25JD0","either","4","3123","","","32","","","","","","","","","","","","","","","","","","","","","","","","","","","","","","","","","","","","","",""
"","text-replacement","43","146243","0.0-24.0","07220096","wem/bandit_party_1","A19WWXPWT25JD0","either","4","3038","","","32","","","","","","","","","","","","","","","","","","","","","","","","","","","","","","","","","","","","","",""
"","text-replacement","44","149216","0.0-25.0","07220096","wem/bandit_party_1","A19WWXPWT25JD0","either","4","2969","","","32","","","","","","","","","","","","","","","","","","","","","","","","","","","","","","","","","","","","","",""
"","text-replacement","45","151520","0.0-26.0","07220096","wem/bandit_party_1","A19WWXPWT25JD0","either","4","2301","","","32","","","","","","","","","","","","","","","","","","","","","","","","","","","","","","","","","","","","","",""
"","text-replacement","46","153009","0.0-27.0","07220096","wem/bandit_party_1","A19WWXPWT25JD0","either","4","1484","","","32","","","","","","","","","","","","","","","","","","","","","","","","","","","","","","","","","","","","","",""
"","text-replacement","47","156048","0.0-28.0","07220096","wem/bandit_party_1","A19WWXPWT25JD0","either","4","3036","","","32","","","","","","","","","","","","","","","","","","","","","","","","","","","","","","","","","","","","","",""
"","text-replacement","48","162387","0.0-29.0","07220096","wem/bandit_party_1","A19WWXPWT25JD0","either","4","6333","","","32","","","","","","","","","","","","","","","","","","","","","","","","","","","","","","","","","","","","","",""
"","text-replacement","49","163779","0.0-30.0","07220096","wem/bandit_party_1","A19WWXPWT25JD0","either","4","1388","","","32","","","","","","","","","","","","","","","","","","","","","","","","","","","","","","","","","","","","","",""
"","text-replacement","50","166752","0.0-31.0","07220096","wem/bandit_party_1","A19WWXPWT25JD0","either","4","2969","","","32","","","","","","","","","","","","","","","","","","","","","","","","","","","","","","","","","","","","","",""
"","bandit","51","169545","0.0-32.0-0.0","07220096","wem/bandit_party_1","A19WWXPWT25JD0","either","4","1280","","","","","","","1","0","0","0.8","","0.5","0.5","0.5","0.5","","","","","0.8","0.2","0.6","0.2","","","","","","","","","","72","H","0","img/none_selected.jpg","true","0","full_practice","",""
"","bandit","52","171562","0.0-32.0-1.0","07220096","wem/bandit_party_1","A19WWXPWT25JD0","either","4","506","","","","","","","0","0","1","","0.2","0.5","0.5","0.5","0.5","0.8","0.2","0.6","0.2","","","","","","","","","","","","","","74","J","1","","true","0","full_practice","",""
"","bandit","53","173514","0.0-32.0-2.0","07220096","wem/bandit_party_1","A19WWXPWT25JD0","either","4","438","","","","","","","0","0","1","0.2","","0.5","0.5","0.5","0.5","","","","","0.8","0.2","0.6","0.2","","","","","","","","","","76","L","3","","true","0","full_practice","",""
"","bandit","54","175132","0.0-32.0-3.0","07220096","wem/bandit_party_1","A19WWXPWT25JD0","either","4","105","","","","","","","0","1","0","","0.8","0.5","0.5","0.5","0.5","0.8","0.2","0.6","0.2","","","","","","","","","","","","","","72","H","0","img/none_selected.jpg","true","0","full_practice","",""
"","bandit","55","177001","0.0-32.0-4.0","07220096","wem/bandit_party_1","A19WWXPWT25JD0","either","4","357","","","","","","","1","0","0","0.6","","0.5","0.5","0.5","0.5","","","","","0.8","0.2","0.6","0.2","","","","","","","","","","75","K","2","","true","0","full_practice","",""
"","bandit","56","178858","0.0-32.0-5.0","07220096","wem/bandit_party_1","A19WWXPWT25JD0","either","4","343","","","","","","","0","0","1","","0.6","0.5","0.5","0.5","0.5","0.8","0.2","0.6","0.2","","","","","","","","","","","","","","75","K","2","","true","0","full_practice","",""
"","bandit","57","180601","0.0-32.0-6.0","07220096","wem/bandit_party_1","A19WWXPWT25JD0","either","4","232","","","","","","","0","0","1","","0.2","0.5","0.5","0.5","0.5","0.8","0.2","0.6","0.2","","","","","","","","","","","","","","74","J","1","","true","0","full_practice","",""
"","bandit","58","182258","0.0-32.0-7.0","07220096","wem/bandit_party_1","A19WWXPWT25JD0","either","4","142","","","","","","","0","1","0","","0.8","0.5","0.5","0.5","0.5","0.8","0.2","0.6","0.2","","","","","","","","","","","","","","72","H","0","img/none_selected.jpg","true","0","full_practice","",""
"","bandit","59","184079","0.0-32.0-8.0","07220096","wem/bandit_party_1","A19WWXPWT25JD0","either","4","311","","","","","","","0","0","1","0.2","","0.5","0.5","0.5","0.5","","","","","0.8","0.2","0.6","0.2","","","","","","","","","","76","L","3","","true","0","full_practice","",""
"","bandit","60","186737","0.0-32.0-9.0","07220096","wem/bandit_party_1","A19WWXPWT25JD0","either","4","1148","","","","","","","1","0","0","0.8","","0.5","0.5","0.5","0.5","","","","","0.8","0.2","0.6","0.2","","","","","","","","","","72","H","0","img/none_selected.jpg","true","0","full_practice","",""
"","bandit","61","188728","0.0-32.0-10.0","07220096","wem/bandit_party_1","A19WWXPWT25JD0","either","4","480","","","","","","","1","0","0","0.8","","0.5","0.5","0.5","0.5","","","","","0.8","0.2","0.6","0.2","","","","","","","","","","72","H","0","img/none_selected.jpg","true","0","full_practice","",""
"","bandit","62","190577","0.0-32.0-11.0","07220096","wem/bandit_party_1","A19WWXPWT25JD0","either","4","340","","","","","","","0","1","0","","0.8","0.5","0.5","0.5","0.5","0.8","0.2","0.6","0.2","","","","","","","","","","","","","","72","H","0","img/none_selected.jpg","true","0","full_practice","",""
"","bandit","63","192664","0.0-32.0-12.0","07220096","wem/bandit_party_1","A19WWXPWT25JD0","either","4","579","","","","","","","1","0","0","0.8","","0.5","0.5","0.5","0.5","","","","","0.8","0.2","0.6","0.2","","","","","","","","","","72","H","0","img/none_selected.jpg","true","0","full_practice","",""
"","bandit","64","194689","0.0-32.0-13.0","07220096","wem/bandit_party_1","A19WWXPWT25JD0","either","4","517","","","","","","","1","0","0","0.8","","0.5","0.5","0.5","0.5","","","","","0.8","0.2","0.6","0.2","","","","","","","","","","72","H","0","img/none_selected.jpg","true","0","full_practice","",""
"","bandit","65","196500","0.0-32.0-14.0","07220096","wem/bandit_party_1","A19WWXPWT25JD0","either","4","298","","","","","","","0","0","1","0.2","","0.5","0.5","0.5","0.5","","","","","0.8","0.2","0.6","0.2","","","","","","","","","","74","J","1","","true","0","full_practice","",""
"","bandit","66","198258","0.0-32.0-15.0","07220096","wem/bandit_party_1","A19WWXPWT25JD0","either","4","242","","","","","","","1","0","0","0.8","","0.5","0.5","0.5","0.5","","","","","0.8","0.2","0.6","0.2","","","","","","","","","","72","H","0","img/none_selected.jpg","true","0","full_practice","",""
"","bandit","67","200266","0.0-32.0-16.0","07220096","wem/bandit_party_1","A19WWXPWT25JD0","either","4","495","","","","","","","0","1","0","","0.8","0.5","0.5","0.5","0.5","0.8","0.2","0.6","0.2","","","","","","","","","","","","","","72","H","0","img/none_selected.jpg","true","0","full_practice","",""
"","bandit","68","202304","0.0-32.0-17.0","07220096","wem/bandit_party_1","A19WWXPWT25JD0","either","4","527","","","","","","","0","0","1","0.2","","0.5","0.5","0.5","0.5","","","","","0.8","0.2","0.6","0.2","","","","","","","","","","76","L","3","","true","0","full_practice","",""
"","bandit","69","204195","0.0-32.0-18.0","07220096","wem/bandit_party_1","A19WWXPWT25JD0","either","4","377","","","","","","","0","1","0","","0.6","0.5","0.5","0.5","0.5","0.8","0.2","0.6","0.2","","","","","","","","","","","","","","75","K","2","","true","0","full_practice","",""
"","bandit","70","206098","0.0-32.0-19.0","07220096","wem/bandit_party_1","A19WWXPWT25JD0","either","4","390","","","","","","","1","0","0","0.8","","0.5","0.5","0.5","0.5","","","","","0.8","0.2","0.6","0.2","","","","","","","","","","72","H","0","img/none_selected.jpg","true","0","full_practice","",""
"","text","71","210650","0.0-33.0","07220096","wem/bandit_party_1","A19WWXPWT25JD0","either","4","4534","","","32","","","","","","","","","","","","","","","","","","","","","","","","","","","","","","","","","","","","","",""
"","text-replacement","72","218265","0.0-34.0","07220096","wem/bandit_party_1","A19WWXPWT25JD0","either","4","6607","","","32","","","","","","","","","","","","","","","","","","","","","","","","","","","","","","","","","","","","","",""
"","text-replacement","73","227442","0.0-35.0","07220096","wem/bandit_party_1","A19WWXPWT25JD0","either","4","9173","","","32","","","","","","","","","","","","","","","","","","","","","","","","","","","","","","","","","","","","","",""
"","text-replacement","74","231591","0.0-36.0","07220096","wem/bandit_party_1","A19WWXPWT25JD0","either","4","4145","","","32","","","","","","","","","","","","","","","","","","","","","","","","","","","","","","","","","","","","","",""
"","text-replacement","75","235624","0.0-37.0","07220096","wem/bandit_party_1","A19WWXPWT25JD0","either","4","4031","","","32","","","","","","","","","","","","","","","","","","","","","","","","","","","","","","","","","","","","","",""
"","text-replacement","76","242634","0.0-38.0","07220096","wem/bandit_party_1","A19WWXPWT25JD0","either","4","7004","","","32","","","","","","","","","","","","","","","","","","","","","","","","","","","","","","","","","","","","","",""
"","survey-multi-choice-replacement","77","250593","0.0-39.0-0.0","07220096","wem/bandit_party_1","A19WWXPWT25JD0","either","4","7942","","","","","","","","","","","","","","","","","","","","","","","","Money will be added to the pool for <span style='color:blue;'>DEMOCRATS</span>","","","","","","","attn_check","","","","","","","","","0",""
"","survey-multi-choice-replacement","78","265073","0.0-40.0-0.0","07220096","wem/bandit_party_1","A19WWXPWT25JD0","either","4","13459","","","","","","","","","","","","","","","","","","","","","","","","No money will be added to either pool","","","","","","","attn_check","","","","","","","","","3",""
"","instructions","79","267848","0.0-40.0-1.0-0.0","07220096","wem/bandit_party_1","A19WWXPWT25JD0","either","4","1768","","","","","","","","","","","","","","","","","","","","","","","","","","","","","","","","","","","","","","","","","[{""page_index"":0,""viewing_time"":1768}]"
"","survey-multi-choice-replacement","80","273417","0.0-40.1-0.1","07220096","wem/bandit_party_1","A19WWXPWT25JD0","either","4","4553","","","","","","","","","","","","","","","","","","","","","","","","Money will be subtracted from the pool for <span style='color:red;'>REPUBLICANS</span>","","","","","","","attn_check","","","","","","","","","1",""
"","instructions","81","275111","0.0-40.1-1.1-0.1","07220096","wem/bandit_party_1","A19WWXPWT25JD0","either","4","689","","","","","","","","","","","","","","","","","","","","","","","","","","","","","","","","","","","","","","","","","[{""page_index"":0,""viewing_time"":688}]"
"","survey-multi-choice-replacement","82","279489","0.0-40.2-0.2","07220096","wem/bandit_party_1","A19WWXPWT25JD0","either","4","3361","","","","","","","","","","","","","","","","","","","","","","","","No money will be added to either pool","","","","","","","attn_check","","","","","","","","","3",""
"","instructions","83","281616","0.0-40.2-1.2-0.2","07220096","wem/bandit_party_1","A19WWXPWT25JD0","either","4","1122","","","","","","","","","","","","","","","","","","","","","","","","","","","","","","","","","","","","","","","","","[{""page_index"":0,""viewing_time"":1122}]"
"","survey-multi-choice-replacement","84","284089","0.0-40.3-0.3","07220096","wem/bandit_party_1","A19WWXPWT25JD0","either","4","1457","","","","","","","","","","","","","","","","","","","","","","","","Equal amounts of money will be added to the pool for <span style='color:blue;'>DEMOCRATS</span> and subtracted from the pool for <span style='color:red;'>REPUBLICANS</span>","","","","","","","attn_check","","","","","","","","","2",""
"","survey-multi-choice-replacement","85","288274","0.0-41.0-0.0","07220096","wem/bandit_party_1","A19WWXPWT25JD0","either","4","3166","","","","","","","","","","","","","","","","","","","","","","","","No money will be added to either pool","","","","","","","attn_check","","","","","","","","","3",""
"","bandit","86","292465","0.0-42.0-0.0","07220096","wem/bandit_party_1","A19WWXPWT25JD0","either","4","1674","","","","","","","0","1","0","","0.3894728165","0.2","0.8","0.4","0.6","0.3894728165","0.2771551185","0.3242650943","0.3525715257","","","","","","","","","","","","","","72","H","0","img/none_selected.jpg","","1","main_expt","",""
"","bandit","87","294857","0.0-43.0-0.0","07220096","wem/bandit_party_1","A19WWXPWT25JD0","either","4","877","","","","","","","0","0","1","0.3030893157","","0.2","0.8","0.4","0.6","","","","","0.363660736","0.3030893157","0.3296228245","0.390153736","","","","","","","","","","74","J","1","","","2","main_expt","",""
"","bandit","88","296799","0.0-44.0-0.0","07220096","wem/bandit_party_1","A19WWXPWT25JD0","either","4","429","","","","","","","1","0","0","0.3102780753","","0.2","0.8","0.4","0.6","","","","","0.3842171554","0.3211059343","0.3102780753","0.3725447061","","","","","","","","","","75","K","2","","","3","main_expt","",""
"","bandit","89","298723","0.0-45.0-0.0","07220096","wem/bandit_party_1","A19WWXPWT25JD0","either","4","411","","","","","","","0","0","1","0.3431524481","","0.2","0.8","0.4","0.6","","","","","0.3831963053","0.2804386453","0.2749892112","0.3431524481","","","","","","","","","","76","L","3","","","4","main_expt","",""
"","bandit","90","300888","0.0-46.0-0.0","07220096","wem/bandit_party_1","A19WWXPWT25JD0","either","4","652","","","","","","","0","0","1","","0.4056596471","0.2","0.8","0.4","0.6","0.4056596471","0.2609559086","0.3037824898","0.3448007793","","","","","","","","","","","","","","72","H","0","img/none_selected.jpg","","5","main_expt","",""
"","bandit","91","302737","0.0-47.0-0.0","07220096","wem/bandit_party_1","A19WWXPWT25JD0","either","4","336","","","","","","","0","0","1","0.3217417103","","0.2","0.8","0.4","0.6","","","","","0.4409946319","0.2259287768","0.3217417103","0.3980888019","","","","","","","","","","75","K","2","","","6","main_expt","",""
"","bandit","92","304513","0.0-48.0-0.0","07220096","wem/bandit_party_1","A19WWXPWT25JD0","either","4","262","","","","","","","0","0","1","0.2433618728","","0.2","0.8","0.4","0.6","","","","","0.3821747998","0.2433618728","0.3018715163","0.3693121862","","","","","","","","","","74","J","1","","","7","main_expt","",""
"","bandit","93","306313","0.0-49.0-0.0","07220096","wem/bandit_party_1","A19WWXPWT25JD0","either","4","285","","","","","","","0","0","1","","0.3643645816","0.2","0.8","0.4","0.6","0.3841844813","0.2025356769","0.3643645816","0.2933697555","","","","","","","","","","","","","","75","K","2","","","8","main_expt","",""
"","bandit","94","308009","0.0-50.0-0.0","07220096","wem/bandit_party_1","A19WWXPWT25JD0","either","4","183","","","","","","","0","0","1","0.3036212831","","0.2","0.8","0.4","0.6","","","","","0.3412237964","0.1441028094","0.3418610374","0.3036212831","","","","","","","","","","76","L","3","","","9","main_expt","",""
"","bandit","95","310034","0.0-51.0-0.0","07220096","wem/bandit_party_1","A19WWXPWT25JD0","either","4","511","","","","","","","0","0","1","","0.3256420777","0.2","0.8","0.4","0.6","0.3256420777","0.1736005971","0.3190157878","0.308020301","","","","","","","","","","","","","","72","H","0","img/none_selected.jpg","","10","main_expt","",""
"","bandit","96","311825","0.0-52.0-0.0","07220096","wem/bandit_party_1","A19WWXPWT25JD0","either","4","275","","","","","","","0","0","1","0.1836365694","","0.2","0.8","0.4","0.6","","","","","0.3514007431","0.1836365694","0.2998731478","0.3065973113","","","","","","","","","","74","J","1","","","11","main_expt","",""
"","bandit","97","313609","0.0-53.0-0.0","07220096","wem/bandit_party_1","A19WWXPWT25JD0","either","4","274","","","","","","","0","1","0","","0.3722032088","0.2","0.8","0.4","0.6","0.3722032088","0.2143869662","0.2942822571","0.3271859636","","","","","","","","","","","","","","72","H","0","img/none_selected.jpg","","12","main_expt","",""
"","bandit","98","315872","0.0-54.0-0.0","07220096","wem/bandit_party_1","A19WWXPWT25JD0","either","4","751","","","","","","","1","0","0","0.3009212619","","0.2","0.8","0.4","0.6","","","","","0.3681707299","0.1637139448","0.3009212619","0.2761076709","","","","","","","","","","75","K","2","","","13","main_expt","",""
"","bandit","99","317827","0.0-55.0-0.0","07220096","wem/bandit_party_1","A19WWXPWT25JD0","either","4","439","","","","","","","1","0","0","0.3227424667","","0.2","0.8","0.4","0.6","","","","","0.3528222564","0.1488535162","0.3227424667","0.2311164494","","","","","","","","","","75","K","2","","","14","main_expt","",""
"","bandit","100","319730","0.0-56.0-0.0","07220096","wem/bandit_party_1","A19WWXPWT25JD0","either","4","391","","","","","","","0","0","1","0.3547546862","","0.2","0.8","0.4","0.6","","","","","0.3738838661","0.1332411271","0.3547546862","0.2905977425","","","","","","","","","","75","K","2","","","15","main_expt","",""
"","bandit","101","321800","0.0-57.0-0.0","07220096","wem/bandit_party_1","A19WWXPWT25JD0","either","4","556","","","","","","","0","1","0","","0.3385239332","0.2","0.8","0.4","0.6","0.3385239332","0.09882415698","0.3241157583","0.2924554969","","","","","","","","","","","","","","72","H","0","img/none_selected.jpg","","16","main_expt","",""
"","bandit","102","323585","0.0-58.0-0.0","07220096","wem/bandit_party_1","A19WWXPWT25JD0","either","4","270","","","","","","","0","1","0","","0.3111355138","0.2","0.8","0.4","0.6","0.3111355138","0.1069157009","0.3363410386","0.3114836302","","","","","","","","","","","","","","72","H","0","img/none_selected.jpg","","17","main_expt","",""
"","bandit","103","325393","0.0-59.0-0.0","07220096","wem/bandit_party_1","A19WWXPWT25JD0","either","4","294","","","","","","","0","0","1","","0.3487767647","0.2","0.8","0.4","0.6","0.3487767647","0.134958137","0.3880947854","0.3215333475","","","","","","","","","","","","","","72","H","0","img/none_selected.jpg","","18","main_expt","",""
"","bandit","104","327201","0.0-60.0-0.0","07220096","wem/bandit_party_1","A19WWXPWT25JD0","either","4","295","","","","","","","0","0","1","","0.2733398822","0.2","0.8","0.4","0.6","0.3010303499","0.1230418706","0.4116912081","0.2733398822","","","","","","","","","","","","","","76","L","3","","","19","main_expt","",""
"","bandit","105","328840","0.0-61.0-0.0","07220096","wem/bandit_party_1","A19WWXPWT25JD0","either","4","125","","","","","","","0","0","1","0.09866604889","","0.2","0.8","0.4","0.6","","","","","0.2907203997","0.09866604889","0.3973894305","0.2351410235","","","","","","","","","","74","J","1","","","20","main_expt","",""
"","bandit","106","330366","0.0-62.0-0.0","07220096","wem/bandit_party_1","A19WWXPWT25JD0","either","4","11","","","","","","","0","0","1","0.369037109","","0.2","0.8","0.4","0.6","","","","","0.3088108907","0.1021222834","0.369037109","0.2257810982","","","","","","","","","","75","K","2","","","21","main_expt","",""
"","bandit","107","332377","0.0-63.0-0.0","07220096","wem/bandit_party_1","A19WWXPWT25JD0","either","4","496","","","","","","","1","0","0","0.349202701","","0.2","0.8","0.4","0.6","","","","","0.349202701","0.1234138809","0.4179468344","0.2221856846","","","","","","","","","","72","H","0","img/none_selected.jpg","","22","main_expt","",""
"","bandit","108","334210","0.0-64.0-0.0","07220096","wem/bandit_party_1","A19WWXPWT25JD0","either","4","318","","","","","","","0","0","1","","0.3785068464","0.2","0.8","0.4","0.6","0.3785068464","0.1030640584","0.4276062926","0.2127124712","","","","","","","","","","","","","","72","H","0","img/none_selected.jpg","","23","main_expt","",""
"","bandit","109","336785","0.0-65.0-0.0","07220096","wem/bandit_party_1","A19WWXPWT25JD0","either","4","1062","","","","","","","0","0","1","","0.4078122208","0.2","0.8","0.4","0.6","0.4012919653","0.1261035851","0.4078122208","0.1882566648","","","","","","","","","","","","","","75","K","2","","","24","main_expt","",""
"","bandit","110","338472","0.0-66.0-0.0","07220096","wem/bandit_party_1","A19WWXPWT25JD0","either","4","173","","","","","","","0","1","0","","0.400899794","0.2","0.8","0.4","0.6","0.400899794","0.1796705612","0.3950411191","0.1273223766","","","","","","","","","","","","","","72","H","0","img/none_selected.jpg","","25","main_expt","",""
"","bandit","111","340394","0.0-67.0-0.0","07220096","wem/bandit_party_1","A19WWXPWT25JD0","either","4","409","","","","","","","0","1","0","","0.4126274585","0.2","0.8","0.4","0.6","0.4126274585","0.2414651519","0.4322303329","0.15747458","","","","","","","","","","","","","","72","H","0","img/none_selected.jpg","","26","main_expt","",""
"","bandit","112","342457","0.0-68.0-0.0","07220096","wem/bandit_party_1","A19WWXPWT25JD0","either","4","548","","","","","","","0","1","0","","0.3992263875","0.2","0.8","0.4","0.6","0.3992263875","0.2005374927","0.4353643722","0.1442684908","","","","","","","","","","","","","","72","H","0","img/none_selected.jpg","","27","main_expt","",""
"","bandit","113","344252","0.0-69.0-0.0","07220096","wem/bandit_party_1","A19WWXPWT25JD0","either","4","279","","","","","","","0","0","1","","0.3846584236","0.2","0.8","0.4","0.6","0.3846584236","0.3197257227","0.4464017809","0.2255404594","","","","","","","","","","","","","","72","H","0","img/none_selected.jpg","","28","main_expt","",""
"","bandit","114","346122","0.0-70.0-0.0","07220096","wem/bandit_party_1","A19WWXPWT25JD0","either","4","354","","","","","","","0","0","1","","0.3141869899","0.2","0.8","0.4","0.6","0.3561298134","0.3141869899","0.4417109462","0.2730951691","","","","","","","","","","","","","","74","J","1","","","29","main_expt","",""
"","bandit","115","347944","0.0-71.0-0.0","07220096","wem/bandit_party_1","A19WWXPWT25JD0","either","4","309","","","","","","","0","0","1","0.4065908859","","0.2","0.8","0.4","0.6","","","","","0.3101363315","0.3445991012","0.4065908859","0.2890412698","","","","","","","","","","75","K","2","","","30","main_expt","",""
"","bandit","116","349809","0.0-72.0-0.0","07220096","wem/bandit_party_1","A19WWXPWT25JD0","either","4","350","","","","","","","0","0","1","0.3309226042","","0.2","0.8","0.4","0.6","","","","","0.3322219809","0.3456655029","0.3954582793","0.3309226042","","","","","","","","","","76","L","3","","","31","main_expt","",""
"","bandit","117","351970","0.0-73.0-0.0","07220096","wem/bandit_party_1","A19WWXPWT25JD0","either","4","647","","","","","","","0","0","1","","0.3716723047","0.2","0.8","0.4","0.6","0.3516269472","0.3826172224","0.3716723047","0.3519301717","","","","","","","","","","","","","","75","K","2","","","32","main_expt","",""
"","bandit","118","353898","0.0-74.0-0.0","07220096","wem/bandit_party_1","A19WWXPWT25JD0","either","4","413","","","","","","","0","1","0","","0.3852085553","0.2","0.8","0.4","0.6","0.3852085553","0.3804083149","0.3799724366","0.3414953842","","","","","","","","","","","","","","72","H","0","img/none_selected.jpg","","33","main_expt","",""
"","bandit","119","355745","0.0-75.0-0.0","07220096","wem/bandit_party_1","A19WWXPWT25JD0","either","4","332","","","","","","","0","0","1","","0.4196644934","0.2","0.8","0.4","0.6","0.4196644934","0.3808178469","0.409480615","0.2938412915","","","","","","","","","","","","","","72","H","0","img/none_selected.jpg","","34","main_expt","",""
"","bandit","120","357544","0.0-76.0-0.0","07220096","wem/bandit_party_1","A19WWXPWT25JD0","either","4","286","","","","","","","0","1","0","","0.420891004","0.2","0.8","0.4","0.6","0.420891004","0.376129724","0.3869649509","0.2256616696","","","","","","","","","","","","","","72","H","0","img/none_selected.jpg","","35","main_expt","",""
"","bandit","121","359474","0.0-77.0-0.0","07220096","wem/bandit_party_1","A19WWXPWT25JD0","either","4","412","","","","","","","0","0","1","","0.3808881167","0.2","0.8","0.4","0.6","0.3808881167","0.4027809904","0.3045389962","0.2525957923","","","","","","","","","","","","","","72","H","0","img/none_selected.jpg","","36","main_expt","",""
"","bandit","122","361337","0.0-78.0-0.0","07220096","wem/bandit_party_1","A19WWXPWT25JD0","either","4","347","","","","","","","0","1","0","","0.3634360393","0.2","0.8","0.4","0.6","0.3634360393","0.3715556026","0.2954217214","0.2333373749","","","","","","","","","","","","","","72","H","0","img/none_selected.jpg","","37","main_expt","",""
"","bandit","123","363202","0.0-79.0-0.0","07220096","wem/bandit_party_1","A19WWXPWT25JD0","either","4","351","","","","","","","1","0","0","0.354842885","","0.2","0.8","0.4","0.6","","","","","0.3432691328","0.354842885","0.2749906923","0.2126884676","","","","","","","","","","74","J","1","","","38","main_expt","",""
"","bandit","124","365119","0.0-80.0-0.0","07220096","wem/bandit_party_1","A19WWXPWT25JD0","either","4","403","","","","","","","0","0","1","","0.3113322025","0.2","0.8","0.4","0.6","0.3113322025","0.3066825603","0.2911873598","0.212498526","","","","","","","","","","","","","","72","H","0","img/none_selected.jpg","","39","main_expt","",""
"","bandit","125","367018","0.0-81.0-0.0","07220096","wem/bandit_party_1","A19WWXPWT25JD0","either","4","382","","","","","","","1","0","0","0.3208648015","","0.2","0.8","0.4","0.6","","","","","0.3298138996","0.3208648015","0.3066149412","0.2031275136","","","","","","","","","","74","J","1","","","40","main_expt","",""
"","bandit","126","368784","0.0-82.0-0.0","07220096","wem/bandit_party_1","A19WWXPWT25JD0","either","4","252","","","","","","","0","0","1","0.2774570704","","0.2","0.8","0.4","0.6","","","","","0.3590557929","0.2774570704","0.2612722093","0.2409224204","","","","","","","","","","74","J","1","","","41","main_expt","",""
"","bandit","127","370744","0.0-83.0-0.0","07220096","wem/bandit_party_1","A19WWXPWT25JD0","either","4","443","","","","","","","0","1","0","","0.2579482203","0.2","0.8","0.4","0.6","0.3455434044","0.3092882543","0.2579482203","0.2166695961","","","","","","","","","","","","","","75","K","2","","","42","main_expt","",""
"","bandit","128","372786","0.0-84.0-0.0","07220096","wem/bandit_party_1","A19WWXPWT25JD0","either","4","526","","","","","","","0","0","1","","0.2232302517","0.2","0.8","0.4","0.6","0.4020043176","0.3161251671","0.2232302517","0.2314197793","","","","","","","","","","","","","","75","K","2","","","43","main_expt","",""
"","bandit","129","374547","0.0-85.0-0.0","07220096","wem/bandit_party_1","A19WWXPWT25JD0","either","4","245","","","","","","","0","0","1","","0.4088695108","0.2","0.8","0.4","0.6","0.4088695108","0.3032549762","0.2435669349","0.1889371852","","","","","","","","","","","","","","72","H","0","img/none_selected.jpg","","44","main_expt","",""
"","bandit","130","376209","0.0-86.0-0.0","07220096","wem/bandit_party_1","A19WWXPWT25JD0","either","4","146","","","","","","","0","0","1","0.1885724617","","0.2","0.8","0.4","0.6","","","","","0.3914045207","0.3012359134","0.1885724617","0.2152104473","","","","","","","","","","75","K","2","","","45","main_expt","",""
"","bandit","131","377794","0.0-87.0-0.0","07220096","wem/bandit_party_1","A19WWXPWT25JD0","either","4","68","","","","","","","0","0","1","","0.3682142312","0.2","0.8","0.4","0.6","0.3682142312","0.2994346937","0.104230756","0.2260726972","","","","","","","","","","","","","","72","H","0","img/none_selected.jpg","","46","main_expt","",""
"","bandit","132","379592","0.0-88.0-0.0","07220096","wem/bandit_party_1","A19WWXPWT25JD0","either","4","284","","","","","","","0","0","1","","0.3462276735","0.2","0.8","0.4","0.6","0.3462276735","0.3169549043","0.09013225529","0.2330399618","","","","","","","","","","","","","","72","H","0","img/none_selected.jpg","","47","main_expt","",""
"","bandit","133","381393","0.0-89.0-0.0","07220096","wem/bandit_party_1","A19WWXPWT25JD0","either","4","284","","","","","","","0","0","1","","0.1066227192","0.2","0.8","0.4","0.6","0.3501405617","0.3137179834","0.1066227192","0.2769685944","","","","","","","","","","","","","","75","K","2","","","48","main_expt","",""
"","bandit","134","383201","0.0-90.0-0.0","07220096","wem/bandit_party_1","A19WWXPWT25JD0","either","4","292","","","","","","","0","0","1","0.3026837323","","0.2","0.8","0.4","0.6","","","","","0.3607669766","0.3026837323","0.1273062614","0.2954986192","","","","","","","","","","74","J","1","","","49","main_expt","",""
"","bandit","135","385035","0.0-91.0-0.0","07220096","wem/bandit_party_1","A19WWXPWT25JD0","either","4","317","","","","","","","0","0","1","","0.08158159543","0.2","0.8","0.4","0.6","0.3776327681","0.2690248343","0.08158159543","0.2730110453","","","","","","","","","","","","","","75","K","2","","","50","main_expt","",""
"","bandit","136","386721","0.0-92.0-0.0","07220096","wem/bandit_party_1","A19WWXPWT25JD0","either","4","170","","","","","","","0","0","1","","0.3922012959","0.2","0.8","0.4","0.6","0.3922012959","0.2407215714","0.08035098666","0.2672659715","","","","","","","","","","","","","","72","H","0","img/none_selected.jpg","","51","main_expt","",""
"","bandit","137","388570","0.0-93.0-0.0","07220096","wem/bandit_party_1","A19WWXPWT25JD0","either","4","331","","","","","","","0","0","1","0.2758158767","","0.2","0.8","0.4","0.6","","","","","0.3532085343","0.2758158767","0.1007468434","0.2552972095","","","","","","","","","","74","J","1","","","52","main_expt","",""
"","bandit","138","390706","0.0-94.0-0.0","07220096","wem/bandit_party_1","A19WWXPWT25JD0","either","4","620","","","","","","","0","1","0","","0.3597378762","0.2","0.8","0.4","0.6","0.3597378762","0.2661511239","0.1479770317","0.1954439593","","","","","","","","","","","","","","72","H","0","img/none_selected.jpg","","53","main_expt","",""
"","bandit","139","392528","0.0-95.0-0.0","07220096","wem/bandit_party_1","A19WWXPWT25JD0","either","4","305","","","","","","","0","1","0","","0.3553644404","0.2","0.8","0.4","0.6","0.3553644404","0.250303373","0.1450389045","0.1250298759","","","","","","","","","","","","","","72","H","0","img/none_selected.jpg","","54","main_expt","",""
"","bandit","140","394455","0.0-96.0-0.0","07220096","wem/bandit_party_1","A19WWXPWT25JD0","either","4","414","","","","","","","0","1","0","","0.3427354451","0.2","0.8","0.4","0.6","0.3427354451","0.1850572083","0.1678096349","0.1224949652","","","","","","","","","","","","","","72","H","0","img/none_selected.jpg","","55","main_expt","",""
"","bandit","141","396228","0.0-97.0-0.0","07220096","wem/bandit_party_1","A19WWXPWT25JD0","either","4","256","","","","","","","0","0","1","","0.3158877586","0.2","0.8","0.4","0.6","0.3158877586","0.2410157884","0.1748395718","0.1312048923","","","","","","","","","","","","","","72","H","0","img/none_selected.jpg","","56","main_expt","",""
"","bandit","142","397993","0.0-98.0-0.0","07220096","wem/bandit_party_1","A19WWXPWT25JD0","either","4","253","","","","","","","0","1","0","","0.3224611445","0.2","0.8","0.4","0.6","0.3224611445","0.2657224069","0.146986137","0.14452077","","","","","","","","","","","","","","72","H","0","img/none_selected.jpg","","57","main_expt","",""
"","bandit","143","399801","0.0-99.0-0.0","07220096","wem/bandit_party_1","A19WWXPWT25JD0","either","4","292","","","","","","","0","0","1","0.3378672788","","0.2","0.8","0.4","0.6","","","","","0.3378672788","0.2361308133","0.1316135006","0.1198415177","","","","","","","","","","72","H","0","img/none_selected.jpg","","58","main_expt","",""
"","bandit","144","401531","0.0-100.0-0.0","07220096","wem/bandit_party_1","A19WWXPWT25JD0","either","4","211","","","","","","","0","0","1","0.2078360154","","0.2","0.8","0.4","0.6","","","","","0.3438075972","0.2078360154","0.1776120447","0.1674914914","","","","","","","","","","74","J","1","","","59","main_expt","",""
"","bandit","145","403384","0.0-101.0-0.0","07220096","wem/bandit_party_1","A19WWXPWT25JD0","either","4","338","","","","","","","0","0","1","","0.2950987239","0.2","0.8","0.4","0.6","0.2950987239","0.2256957235","0.2034864675","0.147959707","","","","","","","","","","","","","","72","H","0","img/none_selected.jpg","","60","main_expt","",""
"","bandit","146","405209","0.0-102.0-0.0","07220096","wem/bandit_party_1","A19WWXPWT25JD0","either","4","308","","","","","","","0","0","1","","0.1325668513","0.2","0.8","0.4","0.6","0.2939622289","0.2713547376","0.1325668513","0.1217284172","","","","","","","","","","","","","","75","K","2","","","61","main_expt","",""
"","bandit","147","407179","0.0-103.0-0.0","07220096","wem/bandit_party_1","A19WWXPWT25JD0","either","4","455","","","","","","","0","0","1","0.1392905859","","0.2","0.8","0.4","0.6","","","","","0.2907096119","0.2800078023","0.125492747","0.1392905859","","","","","","","","","","76","L","3","","","62","main_expt","",""
"","bandit","148","408952","0.0-104.0-0.0","07220096","wem/bandit_party_1","A19WWXPWT25JD0","either","4","258","","","","","","","0","0","1","0.2696382907","","0.2","0.8","0.4","0.6","","","","","0.2696382907","0.362183352","0.1081989139","0.1953314019","","","","","","","","","","72","H","0","img/none_selected.jpg","","63","main_expt","",""
"","bandit","149","410697","0.0-105.0-0.0","07220096","wem/bandit_party_1","A19WWXPWT25JD0","either","4","228","","","","","","","0","0","1","","0.2496415039","0.2","0.8","0.4","0.6","0.2496415039","0.3354395381","0.09104284411","0.2618523415","","","","","","","","","","","","","","72","H","0","img/none_selected.jpg","","64","main_expt","",""
"","bandit","150","412480","0.0-106.0-0.0","07220096","wem/bandit_party_1","A19WWXPWT25JD0","either","4","264","","","","","","","0","0","1","0.2893845237","","0.2","0.8","0.4","0.6","","","","","0.2364994079","0.2893845237","0.1264903162","0.2686672798","","","","","","","","","","74","J","1","","","65","main_expt","",""
"","bandit","151","414880","0.0-107.0-0.0","07220096","wem/bandit_party_1","A19WWXPWT25JD0","either","4","884","","","","","","","0","0","1","","0.1665937301","0.2","0.8","0.4","0.6","0.2541683514","0.2355717356","0.1665937301","0.2451656397","","","","","","","","","","","","","","75","K","2","","","66","main_expt","",""
"","bandit","152","416984","0.0-108.0-0.0","07220096","wem/bandit_party_1","A19WWXPWT25JD0","either","4","587","","","","","","","1","0","0","0.2445320338","","0.2","0.8","0.4","0.6","","","","","0.2985471382","0.2848755716","0.1740025863","0.2445320338","","","","","","","","","","76","L","3","","","67","main_expt","",""
"","bandit","153","418826","0.0-109.0-0.0","07220096","wem/bandit_party_1","A19WWXPWT25JD0","either","4","328","","","","","","","0","0","1","","0.2261158315","0.2","0.8","0.4","0.6","0.3391290389","0.3341158043","0.2300011382","0.2261158315","","","","","","","","","","","","","","76","L","3","","","68","main_expt","",""
"","bandit","154","420624","0.0-110.0-0.0","07220096","wem/bandit_party_1","A19WWXPWT25JD0","either","4","280","","","","","","","0","1","0","","0.3114764975","0.2","0.8","0.4","0.6","0.3114764975","0.3253412689","0.1768594062","0.1627286519","","","","","","","","","","","","","","72","H","0","img/none_selected.jpg","","69","main_expt","",""
"","bandit","155","422392","0.0-111.0-0.0","07220096","wem/bandit_party_1","A19WWXPWT25JD0","either","4","252","","","","","","","0","1","0","","0.3056328376","0.2","0.8","0.4","0.6","0.3056328376","0.3280915152","0.1906145184","0.1301009224","","","","","","","","","","","","","","72","H","0","img/none_selected.jpg","","70","main_expt","",""
"","bandit","156","424256","0.0-112.0-0.0","07220096","wem/bandit_party_1","A19WWXPWT25JD0","either","4","349","","","","","","","0","1","0","","0.3445325487","0.2","0.8","0.4","0.6","0.3445325487","0.3772643828","0.1451664327","0.1356707761","","","","","","","","","","","","","","72","H","0","img/none_selected.jpg","","71","main_expt","",""
"","bandit","157","426081","0.0-113.0-0.0","07220096","wem/bandit_party_1","A19WWXPWT25JD0","either","4","308","","","","","","","0","0","1","","0.364612409","0.2","0.8","0.4","0.6","0.364612409","0.4074174212","0.1091447996","0.1045412551","","","","","","","","","","","","","","72","H","0","img/none_selected.jpg","","72","main_expt","",""
"","bandit","158","427680","0.0-114.0-0.0","07220096","wem/bandit_party_1","A19WWXPWT25JD0","either","4","84","","","","","","","0","1","0","","0.4454774056","0.2","0.8","0.4","0.6","0.4454774056","0.3736299767","0.1248737042","0.0867882282","","","","","","","","","","","","","","72","H","0","img/none_selected.jpg","","73","main_expt","",""
"","bandit","159","429315","0.0-115.0-0.0","07220096","wem/bandit_party_1","A19WWXPWT25JD0","either","4","117","","","","","","","0","0","1","","0.4492830973","0.2","0.8","0.4","0.6","0.4492830973","0.383211712","0.1073746888","0.1018359722","","","","","","","","","","","","","","72","H","0","img/none_selected.jpg","","74","main_expt","",""
"","bandit","160","431066","0.0-116.0-0.0","07220096","wem/bandit_party_1","A19WWXPWT25JD0","either","4","233","","","","","","","0","1","0","","0.449321966","0.2","0.8","0.4","0.6","0.449321966","0.3681962321","0.1051395745","0.09443707336","","","","","","","","","","","","","","72","H","0","img/none_selected.jpg","","75","main_expt","",""
"","bandit","161","432921","0.0-117.0-0.0","07220096","wem/bandit_party_1","A19WWXPWT25JD0","either","4","338","","","","","","","0","0","1","","0.4299726132","0.2","0.8","0.4","0.6","0.4299726132","0.3574328021","0.09171451076","0.08768691443","","","","","","","","","","","","","","72","H","0","img/none_selected.jpg","","76","main_expt","",""
"","bandit","162","434630","0.0-118.0-0.0","07220096","wem/bandit_party_1","A19WWXPWT25JD0","either","4","194","","","","","","","0","0","1","0.4041720962","","0.2","0.8","0.4","0.6","","","","","0.4349340462","0.4041720962","0.1256070833","0.07744448812","","","","","","","","","","74","J","1","","","77","main_expt","",""
"","bandit","163","436384","0.0-119.0-0.0","07220096","wem/bandit_party_1","A19WWXPWT25JD0","either","4","244","","","","","","","0","1","0","","0.4112950215","0.2","0.8","0.4","0.6","0.4112950215","0.4000946746","0.1398604905","0.05712631425","","","","","","","","","","","","","","72","H","0","img/none_selected.jpg","","78","main_expt","",""
"","bandit","164","438016","0.0-120.0-0.0","07220096","wem/bandit_party_1","A19WWXPWT25JD0","either","4","115","","","","","","","0","1","0","","0.4123046053","0.2","0.8","0.4","0.6","0.4123046053","0.425248604","0.1303191282","0.03981704588","","","","","","","","","","","","","","72","H","0","img/none_selected.jpg","","79","main_expt","",""
"","bandit","165","439778","0.0-121.0-0.0","07220096","wem/bandit_party_1","A19WWXPWT25JD0","either","4","248","","","","","","","0","1","0","","0.4345430878","0.2","0.8","0.4","0.6","0.4345430878","0.4263383456","0.1491340647","0.02961196177","","","","","","","","","","","","","","72","H","0","img/none_selected.jpg","","80","main_expt","",""
"","bandit","166","441551","0.0-122.0-0.0","07220096","wem/bandit_party_1","A19WWXPWT25JD0","either","4","256","","","","","","","0","0","1","0.4255274095","","0.2","0.8","0.4","0.6","","","","","0.4255274095","0.4377411966","0.1484119081","0.0408206899","","","","","","","","","","72","H","0","img/none_selected.jpg","","81","main_expt","",""
"","bandit","167","443484","0.0-123.0-0.0","07220096","wem/bandit_party_1","A19WWXPWT25JD0","either","4","415","","","","","","","0","0","1","0.4263216968","","0.2","0.8","0.4","0.6","","","","","0.4266934287","0.4263216968","0.135460029","0.03491361241","","","","","","","","","","74","J","1","","","82","main_expt","",""
"","bandit","168","445298","0.0-124.0-0.0","07220096","wem/bandit_party_1","A19WWXPWT25JD0","either","4","293","","","","","","","0","0","1","","0.09497461961","0.2","0.8","0.4","0.6","0.4321646522","0.4536492548","0.09497461961","0.01881925386","","","","","","","","","","","","","","75","K","2","","","83","main_expt","",""
"","bandit","169","447211","0.0-125.0-0.0","07220096","wem/bandit_party_1","A19WWXPWT25JD0","either","4","393","","","","","","","0","0","1","","0.03441768066","0.2","0.8","0.4","0.6","0.43129245","0.4344769981","0.0956585677","0.03441768066","","","","","","","","","","","","","","76","L","3","","","84","main_expt","",""
"","bandit","170","449128","0.0-126.0-0.0","07220096","wem/bandit_party_1","A19WWXPWT25JD0","either","4","400","","","","","","","0","0","1","0.4167097255","","0.2","0.8","0.4","0.6","","","","","0.4307495417","0.4167097255","0.08427930603","0.04015732792","","","","","","","","","","74","J","1","","","85","main_expt","",""
"","bandit","171","450653","0.0-127.0-0.0","07220096","wem/bandit_party_1","A19WWXPWT25JD0","either","4","2","","","","","","","0","1","0","","0.4327415212","0.2","0.8","0.4","0.6","0.4327415212","0.4215971904","0.09540141202","0.0462821445","","","","","","","","","","","","","","72","H","0","img/none_selected.jpg","","86","main_expt","",""
"","bandit","172","453033","0.0-128.0-0.0","07220096","wem/bandit_party_1","A19WWXPWT25JD0","either","4","861","","","","","","","0","0","1","","0.4507305815","0.2","0.8","0.4","0.6","0.4507305815","0.3962725568","0.06504543429","0.07236867375","","","","","","","","","","","","","","72","H","0","img/none_selected.jpg","","87","main_expt","",""
"","bandit","173","454839","0.0-129.0-0.0","07220096","wem/bandit_party_1","A19WWXPWT25JD0","either","4","291","","","","","","","0","0","1","","0.4571393315","0.2","0.8","0.4","0.6","0.4571393315","0.4038430626","0.05894337134","0.1132918069","","","","","","","","","","","","","","72","H","0","img/none_selected.jpg","","88","main_expt","",""
"","bandit","174","456912","0.0-130.0-0.0","07220096","wem/bandit_party_1","A19WWXPWT25JD0","either","4","556","","","","","","","0","1","0","","0.4247877058","0.2","0.8","0.4","0.6","0.4639779763","0.4247877058","0.06803635399","0.1466354559","","","","","","","","","","","","","","74","J","1","","","89","main_expt","",""
"","bandit","175","458674","0.0-131.0-0.0","07220096","wem/bandit_party_1","A19WWXPWT25JD0","either","4","244","","","","","","","0","1","0","","0.4620017245","0.2","0.8","0.4","0.6","0.4620017245","0.4196700557","0.09657856289","0.1746819083","","","","","","","","","","","","","","72","H","0","img/none_selected.jpg","","90","main_expt","",""
"","bandit","176","460473","0.0-132.0-0.0","07220096","wem/bandit_party_1","A19WWXPWT25JD0","either","4","280","","","","","","","0","0","1","","0.4492963398","0.2","0.8","0.4","0.6","0.4492963398","0.401758082","0.08522031428","0.1864657318","","","","","","","","","","","","","","72","H","0","img/none_selected.jpg","","91","main_expt","",""
"","bandit","177","462240","0.0-133.0-0.0","07220096","wem/bandit_party_1","A19WWXPWT25JD0","either","4","250","","","","","","","0","0","1","","0.3422099147","0.2","0.8","0.4","0.6","0.462009279","0.3422099147","0.07078380504","0.2124622091","","","","","","","","","","","","","","74","J","1","","","92","main_expt","",""
"","bandit","178","464210","0.0-134.0-0.0","07220096","wem/bandit_party_1","A19WWXPWT25JD0","either","4","451","","","","","","","0","1","0","","0.4363090379","0.2","0.8","0.4","0.6","0.4363090379","0.3279059742","0.0564278809","0.245786276","","","","","","","","","","","","","","72","H","0","img/none_selected.jpg","","93","main_expt","",""
"","bandit","179","466336","0.0-135.0-0.0","07220096","wem/bandit_party_1","A19WWXPWT25JD0","either","4","610","","","","","","","1","0","0","0.4457519602","","0.2","0.8","0.4","0.6","","","","","0.4457519602","0.3155724737","0.06067733924","0.2316759231","","","","","","","","","","72","H","0","img/none_selected.jpg","","94","main_expt","",""
"","bandit","180","468376","0.0-136.0-0.0","07220096","wem/bandit_party_1","A19WWXPWT25JD0","either","4","523","","","","","","","0","0","1","","0.4231248902","0.2","0.8","0.4","0.6","0.4231248902","0.3519625041","0.08632751489","0.2231756969","","","","","","","","","","","","","","72","H","0","img/none_selected.jpg","","95","main_expt","",""
"","bandit","181","470337","0.0-137.0-0.0","07220096","wem/bandit_party_1","A19WWXPWT25JD0","either","4","442","","","","","","","0","0","1","0.3661455107","","0.2","0.8","0.4","0.6","","","","","0.4210676831","0.3661455107","0.08481729553","0.1957128212","","","","","","","","","","74","J","1","","","96","main_expt","",""
"","bandit","182","472193","0.0-138.0-0.0","07220096","wem/bandit_party_1","A19WWXPWT25JD0","either","4","339","","","","","","","0","0","1","","0.4022895305","0.2","0.8","0.4","0.6","0.4022895305","0.3558031673","0.08386440452","0.1638116915","","","","","","","","","","","","","","72","H","0","img/none_selected.jpg","","97","main_expt","",""
"","bandit","183","474042","0.0-139.0-0.0","07220096","wem/bandit_party_1","A19WWXPWT25JD0","either","4","333","","","","","","","1","0","0","0.3558230887","","0.2","0.8","0.4","0.6","","","","","0.4187351015","0.3558230887","0.0940701929","0.1405816365","","","","","","","","","","74","J","1","","","98","main_expt","",""
"","bandit","184","476136","0.0-140.0-0.0","07220096","wem/bandit_party_1","A19WWXPWT25JD0","either","4","577","","","","","","","0","0","1","","0.3981340028","0.2","0.8","0.4","0.6","0.3981340028","0.3064708089","0.1285058524","0.1435678602","","","","","","","","","","","","","","72","H","0","img/none_selected.jpg","","99","main_expt","",""
"","bandit","185","477968","0.0-141.0-0.0","07220096","wem/bandit_party_1","A19WWXPWT25JD0","either","4","314","","","","","","","0","0","1","","0.065882019","0.2","0.8","0.4","0.6","0.3520446815","0.352498313","0.065882019","0.1478754355","","","","","","","","","","","","","","75","K","2","","","100","main_expt","",""
"","bandit","186","480737","0.0-142.0-0.0","07220096","wem/bandit_party_1","A19WWXPWT25JD0","either","4","1250","","","","","","","0","1","0","","0.3715523215","0.2","0.8","0.4","0.6","0.3715523215","0.3511810171","0.05692140794","0.1532559328","","","","","","","","","","","","","","72","H","0","img/none_selected.jpg","","101","main_expt","",""
"","bandit","187","482664","0.0-143.0-0.0","07220096","wem/bandit_party_1","A19WWXPWT25JD0","either","4","402","","","","","","","0","1","0","","0.3966955113","0.2","0.8","0.4","0.6","0.3966955113","0.3246867477","0.04322280369","0.15857411","","","","","","","","","","","","","","72","H","0","img/none_selected.jpg","","102","main_expt","",""
"","bandit","188","484532","0.0-144.0-0.0","07220096","wem/bandit_party_1","A19WWXPWT25JD0","either","4","349","","","","","","","0","0","1","","0.3865714765","0.2","0.8","0.4","0.6","0.3865714765","0.2827689756","0.05121437093","0.1552377357","","","","","","","","","","","","","","72","H","0","img/none_selected.jpg","","103","main_expt","",""
"","bandit","189","486529","0.0-145.0-0.0","07220096","wem/bandit_party_1","A19WWXPWT25JD0","either","4","479","","","","","","","0","0","1","","0.3440646931","0.2","0.8","0.4","0.6","0.3440646931","0.3307995119","0.06548077564","0.1584193753","","","","","","","","","","","","","","72","H","0","img/none_selected.jpg","","104","main_expt","",""
"","bandit","190","488337","0.0-146.0-0.0","07220096","wem/bandit_party_1","A19WWXPWT25JD0","either","4","291","","","","","","","0","0","1","","0.3078297571","0.2","0.8","0.4","0.6","0.330981063","0.3078297571","0.07577357845","0.192058402","","","","","","","","","","","","","","74","J","1","","","105","main_expt","",""
"","bandit","191","490354","0.0-147.0-0.0","07220096","wem/bandit_party_1","A19WWXPWT25JD0","either","4","498","","","","","","","0","0","1","","0.09041352565","0.2","0.8","0.4","0.6","0.3317280627","0.3202685942","0.09041352565","0.1562344916","","","","","","","","","","","","","","75","K","2","","","106","main_expt","",""
"","bandit","192","492186","0.0-148.0-0.0","07220096","wem/bandit_party_1","A19WWXPWT25JD0","either","4","314","","","","","","","0","1","0","","0.2760665195","0.2","0.8","0.4","0.6","0.2760665195","0.3163418234","0.1184921167","0.1493116313","","","","","","","","","","","","","","72","H","0","img/none_selected.jpg","","107","main_expt","",""
"","bandit","193","494281","0.0-149.0-0.0","07220096","wem/bandit_party_1","A19WWXPWT25JD0","either","4","578","","","","","","","0","0","1","","0.2826301941","0.2","0.8","0.4","0.6","0.2826301941","0.3425943818","0.1057615429","0.1357435498","","","","","","","","","","","","","","72","H","0","img/none_selected.jpg","","108","main_expt","",""
"","bandit","194","496155","0.0-150.0-0.0","07220096","wem/bandit_party_1","A19WWXPWT25JD0","either","4","356","","","","","","","0","0","1","0.318117281","","0.2","0.8","0.4","0.6","","","","","0.318117281","0.2852030557","0.1464484126","0.1164074326","","","","","","","","","","72","H","0","img/none_selected.jpg","","109","main_expt","",""
"","bandit","195","497905","0.0-151.0-0.0","07220096","wem/bandit_party_1","A19WWXPWT25JD0","either","4","233","","","","","","","0","1","0","","0.3358587519","0.2","0.8","0.4","0.6","0.3358587519","0.3392406975","0.1641354829","0.1444451916","","","","","","","","","","","","","","72","H","0","img/none_selected.jpg","","110","main_expt","",""
"","bandit","196","499817","0.0-152.0-0.0","07220096","wem/bandit_party_1","A19WWXPWT25JD0","either","4","395","","","","","","","0","0","1","","0.3023411017","0.2","0.8","0.4","0.6","0.3031660534","0.3023411017","0.1386891192","0.09905323685","","","","","","","","","","","","","","74","J","1","","","111","main_expt","",""
"","bandit","197","501610","0.0-153.0-0.0","07220096","wem/bandit_party_1","A19WWXPWT25JD0","either","4","274","","","","","","","0","0","1","","0.2773548355","0.2","0.8","0.4","0.6","0.2773548355","0.296849772","0.1847512065","0.09652445584","","","","","","","","","","","","","","72","H","0","img/none_selected.jpg","","112","main_expt","",""
"","bandit","198","503409","0.0-154.0-0.0","07220096","wem/bandit_party_1","A19WWXPWT25JD0","either","4","282","","","","","","","0","0","1","0.2673419259","","0.2","0.8","0.4","0.6","","","","","0.2370758425","0.2673419259","0.1304555333","0.09961189632","","","","","","","","","","74","J","1","","","113","main_expt","",""
"","bandit","199","505393","0.0-155.0-0.0","07220096","wem/bandit_party_1","A19WWXPWT25JD0","either","4","466","","","","","","","0","0","1","0.1036139638","","0.2","0.8","0.4","0.6","","","","","0.1821928837","0.2670531803","0.1770102637","0.1036139638","","","","","","","","","","76","L","3","","","114","main_expt","",""
"","bandit","200","507092","0.0-156.0-0.0","07220096","wem/bandit_party_1","A19WWXPWT25JD0","either","4","179","","","","","","","0","0","1","0.1315453283","","0.2","0.8","0.4","0.6","","","","","0.1315453283","0.2825009356","0.1564651975","0.0968506792","","","","","","","","","","72","H","0","img/none_selected.jpg","","115","main_expt","",""
"","bandit","201","509049","0.0-157.0-0.0","07220096","wem/bandit_party_1","A19WWXPWT25JD0","either","4","440","","","","","","","0","0","1","","0.1102777544","0.2","0.8","0.4","0.6","0.1102777544","0.3237719372","0.1665702367","0.08782875681","","","","","","","","","","","","","","72","H","0","img/none_selected.jpg","","116","main_expt","",""
"","bandit","202","510667","0.0-158.0-0.0","07220096","wem/bandit_party_1","A19WWXPWT25JD0","either","4","97","","","","","","","0","0","1","0.3154846423","","0.2","0.8","0.4","0.6","","","","","0.1101610351","0.3154846423","0.1530687496","0.06031800864","","","","","","","","","","74","J","1","","","117","main_expt","",""
"","bandit","203","512746","0.0-159.0-0.0","07220096","wem/bandit_party_1","A19WWXPWT25JD0","either","4","561","","","","","","","0","0","1","","0.1674206906","0.2","0.8","0.4","0.6","0.122460482","0.2584508078","0.1674206906","0.05633053331","","","","","","","","","","","","","","75","K","2","","","118","main_expt","",""
"","bandit","204","515456","0.0-160.0-0.0","07220096","wem/bandit_party_1","A19WWXPWT25JD0","either","4","1191","","","","","","","0","0","1","","0.1451868924","0.2","0.8","0.4","0.6","0.1451868924","0.2141905193","0.1990215448","0.07530514027","","","","","","","","","","","","","","72","H","0","img/none_selected.jpg","","119","main_expt","",""
"","bandit","205","517387","0.0-161.0-0.0","07220096","wem/bandit_party_1","A19WWXPWT25JD0","either","4","413","","","","","","","1","0","0","0.2341954374","","0.2","0.8","0.4","0.6","","","","","0.09092593383","0.2341954374","0.2208640619","0.09639595661","","","","","","","","","","74","J","1","","","120","main_expt","",""
"","bandit","206","519329","0.0-162.0-0.0","07220096","wem/bandit_party_1","A19WWXPWT25JD0","either","4","424","","","","","","","1","0","0","0.1886372651","","0.2","0.8","0.4","0.6","","","","","0.1080456108","0.1886372651","0.2602917539","0.1421799471","","","","","","","","","","74","J","1","","","121","main_expt","",""
"","bandit","207","521177","0.0-163.0-0.0","07220096","wem/bandit_party_1","A19WWXPWT25JD0","either","4","330","","","","","","","1","0","0","0.1597592322","","0.2","0.8","0.4","0.6","","","","","0.1169053248","0.1597592322","0.2512498235","0.1624760489","","","","","","","","","","74","J","1","","","122","main_expt","",""
"","bandit","208","522993","0.0-164.0-0.0","07220096","wem/bandit_party_1","A19WWXPWT25JD0","either","4","298","","","","","","","0","0","1","","0.1895266442","0.2","0.8","0.4","0.6","0.1571594809","0.1895266442","0.2266242761","0.1640214383","","","","","","","","","","","","","","74","J","1","","","123","main_expt","",""
"","bandit","209","524785","0.0-165.0-0.0","07220096","wem/bandit_party_1","A19WWXPWT25JD0","either","4","273","","","","","","","0","0","1","","0.2231804049","0.2","0.8","0.4","0.6","0.2231804049","0.2042850732","0.2373824638","0.2014340991","","","","","","","","","","","","","","72","H","0","img/none_selected.jpg","","124","main_expt","",""
"","bandit","210","526409","0.0-166.0-0.0","07220096","wem/bandit_party_1","A19WWXPWT25JD0","either","4","105","","","","","","","0","0","1","","0.2232794356","0.2","0.8","0.4","0.6","0.2232794356","0.1812515389","0.2538727107","0.2229229076","","","","","","","","","","","","","","72","H","0","img/none_selected.jpg","","125","main_expt","",""
"","bandit","211","528059","0.0-167.0-0.0","07220096","wem/bandit_party_1","A19WWXPWT25JD0","either","4","132","","","","","","","0","0","1","","0.2316903634","0.2","0.8","0.4","0.6","0.2316903634","0.1694736183","0.290219491","0.2324712723","","","","","","","","","","","","","","72","H","0","img/none_selected.jpg","","126","main_expt","",""
"","bandit","212","529580","0.0-168.0-0.0","07220096","wem/bandit_party_1","A19WWXPWT25JD0","either","4","1","","","","","","","0","0","1","0.2337524142","","0.2","0.8","0.4","0.6","","","","","0.2337524142","0.1624528765","0.2542505169","0.2628391623","","","","","","","","","","72","H","0","img/none_selected.jpg","","127","main_expt","",""
"","bandit","213","531585","0.0-169.0-0.0","07220096","wem/bandit_party_1","A19WWXPWT25JD0","either","4","487","","","","","","","1","0","0","0.1632982916","","0.2","0.8","0.4","0.6","","","","","0.2198210178","0.1632982916","0.2582316027","0.2654356302","","","","","","","","","","74","J","1","","","128","main_expt","",""
"","bandit","214","533417","0.0-170.0-0.0","07220096","wem/bandit_party_1","A19WWXPWT25JD0","either","4","312","","","","","","","0","0","1","","0.2264598068","0.2","0.8","0.4","0.6","0.2280168395","0.2264598068","0.3267566011","0.2070569149","","","","","","","","","","","","","","74","J","1","","","129","main_expt","",""
"","bandit","215","534954","0.0-171.0-0.0","07220096","wem/bandit_party_1","A19WWXPWT25JD0","either","4","18","","","","","","","0","0","1","0.202760285","","0.2","0.8","0.4","0.6","","","","","0.243895296","0.202760285","0.3323271388","0.2579182239","","","","","","","","","","74","J","1","","","130","main_expt","",""
"","bandit","216","536937","0.0-172.0-0.0","07220096","wem/bandit_party_1","A19WWXPWT25JD0","either","4","465","","","","","","","0","0","1","","0.2164454501","0.2","0.8","0.4","0.6","0.2164454501","0.1585094705","0.2666668646","0.2329110821","","","","","","","","","","","","","","72","H","0","img/none_selected.jpg","","131","main_expt","",""
"","bandit","217","538811","0.0-173.0-0.0","07220096","wem/bandit_party_1","A19WWXPWT25JD0","either","4","356","","","","","","","0","0","1","","0.2359119393","0.2","0.8","0.4","0.6","0.200468731","0.1304261544","0.2359119393","0.2400232435","","","","","","","","","","","","","","75","K","2","","","132","main_expt","",""
"","bandit","218","540345","0.0-174.0-0.0","07220096","wem/bandit_party_1","A19WWXPWT25JD0","either","4","15","","","","","","","0","0","1","0.2540740643","","0.2","0.8","0.4","0.6","","","","","0.2038597077","0.09339990826","0.2540740643","0.2084798617","","","","","","","","","","75","K","2","","","133","main_expt","",""
"","bandit","219","542039","0.0-175.0-0.0","07220096","wem/bandit_party_1","A19WWXPWT25JD0","either","4","178","","","","","","","1","0","0","0.2034544","","0.2","0.8","0.4","0.6","","","","","0.2263269307","0.08524612959","0.2414927735","0.2034544","","","","","","","","","","76","L","3","","","134","main_expt","",""
"","bandit","220","543888","0.0-176.0-0.0","07220096","wem/bandit_party_1","A19WWXPWT25JD0","either","4","329","","","","","","","0","0","1","0.2088958693","","0.2","0.8","0.4","0.6","","","","","0.2686469146","0.0622033461","0.2632369982","0.2088958693","","","","","","","","","","76","L","3","","","135","main_expt","",""
"","bandit","221","545600","0.0-177.0-0.0","07220096","wem/bandit_party_1","A19WWXPWT25JD0","either","4","193","","","","","","","0","0","1","","0.3170393738","0.2","0.8","0.4","0.6","0.3170393738","0.05632890875","0.3032623762","0.2573758916","","","","","","","","","","","","","","72","H","0","img/none_selected.jpg","","136","main_expt","",""
"","bandit","222","547512","0.0-178.0-0.0","07220096","wem/bandit_party_1","A19WWXPWT25JD0","either","4","393","","","","","","","0","0","1","0.06052980877","","0.2","0.8","0.4","0.6","","","","","0.338962466","0.06052980877","0.2984046037","0.2467438462","","","","","","","","","","74","J","1","","","137","main_expt","",""
"","bandit","223","549401","0.0-179.0-0.0","07220096","wem/bandit_party_1","A19WWXPWT25JD0","either","4","372","","","","","","","0","1","0","","0.3586643031","0.2","0.8","0.4","0.6","0.3586643031","0.1038497792","0.3110629865","0.2221944767","","","","","","","","","","","","","","72","H","0","img/none_selected.jpg","","138","main_expt","",""
"","bandit","224","551472","0.0-180.0-0.0","07220096","wem/bandit_party_1","A19WWXPWT25JD0","either","4","551","","","","","","","0","0","1","","0.3430902759","0.2","0.8","0.4","0.6","0.3430902759","0.08561062373","0.3048373826","0.2750517365","","","","","","","","","","","","","","72","H","0","img/none_selected.jpg","","139","main_expt","",""
"","bandit","225","553345","0.0-181.0-0.0","07220096","wem/bandit_party_1","A19WWXPWT25JD0","either","4","354","","","","","","","0","0","1","0.08025295029","","0.2","0.8","0.4","0.6","","","","","0.3777112835","0.08025295029","0.3163642845","0.277474309","","","","","","","","","","74","J","1","","","140","main_expt","",""
"","bandit","226","555288","0.0-182.0-0.0","07220096","wem/bandit_party_1","A19WWXPWT25JD0","either","4","424","","","","","","","0","0","1","0.09309891757","","0.2","0.8","0.4","0.6","","","","","0.4276051364","0.09309891757","0.2213861514","0.2932007391","","","","","","","","","","74","J","1","","","141","main_expt","",""
"","bandit","227","557944","0.0-183.0-0.0","07220096","wem/bandit_party_1","A19WWXPWT25JD0","either","4","1138","","","","","","","1","0","0","0.4312347149","","0.2","0.8","0.4","0.6","","","","","0.4312347149","0.1107976638","0.2492613222","0.3001807938","","","","","","","","","","72","H","0","img/none_selected.jpg","","142","main_expt","",""
"","bandit","228","560210","0.0-184.0-0.0","07220096","wem/bandit_party_1","A19WWXPWT25JD0","either","4","746","","","","","","","1","0","0","0.386657586","","0.2","0.8","0.4","0.6","","","","","0.386657586","0.09575525052","0.2645663874","0.3640878437","","","","","","","","","","72","H","0","img/none_selected.jpg","","143","main_expt","",""
"","bandit","229","562176","0.0-185.0-0.0","07220096","wem/bandit_party_1","A19WWXPWT25JD0","either","4","448","","","","","","","0","1","0","","0.3409851627","0.2","0.8","0.4","0.6","0.3409851627","0.07222794989","0.2928215939","0.2706796495","","","","","","","","","","","","","","72","H","0","img/none_selected.jpg","","144","main_expt","",""
"","bandit","230","564031","0.0-186.0-0.0","07220096","wem/bandit_party_1","A19WWXPWT25JD0","either","4","336","","","","","","","0","0","1","","0.3538709708","0.2","0.8","0.4","0.6","0.3538709708","0.03203798906","0.3178979655","0.2359726437","","","","","","","","","","","","","","72","H","0","img/none_selected.jpg","","145","main_expt","",""
"","bandit","231","566080","0.0-187.0-0.0","07220096","wem/bandit_party_1","A19WWXPWT25JD0","either","4","530","","","","","","","1","0","0","0.03073079809","","0.2","0.8","0.4","0.6","","","","","0.2745956728","0.03073079809","0.2850957273","0.2200332621","","","","","","","","","","74","J","1","","","146","main_expt","",""
"","bandit","232","567904","0.0-188.0-0.0","07220096","wem/bandit_party_1","A19WWXPWT25JD0","either","4","304","","","","","","","0","0","1","0.05105424151","","0.2","0.8","0.4","0.6","","","","","0.2375793476","0.05105424151","0.2483519338","0.1957794229","","","","","","","","","","74","J","1","","","147","main_expt","",""
"","bandit","233","569743","0.0-189.0-0.0","07220096","wem/bandit_party_1","A19WWXPWT25JD0","either","4","320","","","","","","","0","1","0","","0.2954602587","0.2","0.8","0.4","0.6","0.2954602587","0.04045355104","0.2309770791","0.1790722045","","","","","","","","","","","","","","72","H","0","img/none_selected.jpg","","148","main_expt","",""
"","bandit","234","571595","0.0-190.0-0.0","07220096","wem/bandit_party_1","A19WWXPWT25JD0","either","4","332","","","","","","","0","0","1","","0.3435099865","0.2","0.8","0.4","0.6","0.3435099865","0.06416506337","0.1759049641","0.2189150546","","","","","","","","","","","","","","72","H","0","img/none_selected.jpg","","149","main_expt","",""
"","bandit","235","573736","0.0-191.0-0.0","07220096","wem/bandit_party_1","A19WWXPWT25JD0","either","4","621","","","","","","","0","0","1","","0.268900415","0.2","0.8","0.4","0.6","0.268900415","0.07819388902","0.1910702346","0.2119229637","","","","","","","","","","","","","","72","H","0","img/none_selected.jpg","","150","main_expt","",""
"","bandit","236","575904","0.0-192.0-0.0","07220096","wem/bandit_party_1","A19WWXPWT25JD0","either","4","649","","","","","","","0","1","0","","0.1186979887","0.2","0.8","0.4","0.6","0.2326488896","0.1186979887","0.1799178466","0.2472398003","","","","","","","","","","","","","","74","J","1","","","151","main_expt","",""
"","bandit","237","578040","0.0-193.0-0.0","07220096","wem/bandit_party_1","A19WWXPWT25JD0","either","4","617","","","","","","","0","0","1","0.2768057641","","0.2","0.8","0.4","0.6","","","","","0.2768057641","0.1084773402","0.1826140084","0.2148428051","","","","","","","","","","72","H","0","img/none_selected.jpg","","152","main_expt","",""
"","bandit","238","579983","0.0-194.0-0.0","07220096","wem/bandit_party_1","A19WWXPWT25JD0","either","4","424","","","","","","","0","0","1","","0.2997660112","0.2","0.8","0.4","0.6","0.2997660112","0.1314289417","0.147924298","0.1598057249","","","","","","","","","","","","","","72","H","0","img/none_selected.jpg","","153","main_expt","",""
"","bandit","239","582066","0.0-195.0-0.0","07220096","wem/bandit_party_1","A19WWXPWT25JD0","either","4","564","","","","","","","0","0","1","","0.3196464983","0.2","0.8","0.4","0.6","0.3196464983","0.1354051011","0.1388357139","0.1489099923","","","","","","","","","","","","","","72","H","0","img/none_selected.jpg","","154","main_expt","",""
"","bandit","240","583600","0.0-196.0-0.0","07220096","wem/bandit_party_1","A19WWXPWT25JD0","either","4","13","","","","","","","0","0","1","","0.1658398244","0.2","0.8","0.4","0.6","0.3141654429","0.1085215933","0.1658398244","0.1502541116","","","","","","","","","","","","","","75","K","2","","","155","main_expt","",""
"","bandit","241","586169","0.0-197.0-0.0","07220096","wem/bandit_party_1","A19WWXPWT25JD0","either","4","1047","","","","","","","0","1","0","","0.2667217688","0.2","0.8","0.4","0.6","0.2667217688","0.1383379057","0.1104921729","0.1605084188","","","","","","","","","","","","","","72","H","0","img/none_selected.jpg","","156","main_expt","",""
"","bandit","242","588144","0.0-198.0-0.0","07220096","wem/bandit_party_1","A19WWXPWT25JD0","either","4","449","","","","","","","0","0","1","","0.2867075714","0.2","0.8","0.4","0.6","0.2867075714","0.1428990181","0.09530810267","0.1684101418","","","","","","","","","","","","","","72","H","0","img/none_selected.jpg","","157","main_expt","",""
"","bandit","243","590097","0.0-199.0-0.0","07220096","wem/bandit_party_1","A19WWXPWT25JD0","either","4","433","","","","","","","0","0","1","0.07455979893","","0.2","0.8","0.4","0.6","","","","","0.2788639118","0.07455979893","0.1211627972","0.1807688322","","","","","","","","","","74","J","1","","","158","main_expt","",""
"","bandit","244","591952","0.0-200.0-0.0","07220096","wem/bandit_party_1","A19WWXPWT25JD0","either","4","335","","","","","","","0","0","1","","0.3020710819","0.2","0.8","0.4","0.6","0.3020710819","0.1009372764","0.1012897464","0.1516426412","","","","","","","","","","","","","","72","H","0","img/none_selected.jpg","","159","main_expt","",""
"","bandit","245","594122","0.0-201.0-0.0","07220096","wem/bandit_party_1","A19WWXPWT25JD0","either","4","652","","","","","","","0","0","1","0.1638698877","","0.2","0.8","0.4","0.6","","","","","0.3404227007","0.05118862797","0.1188035868","0.1638698877","","","","","","","","","","76","L","3","","","160","main_expt","",""
"","bandit","246","595904","0.0-202.0-0.0","07220096","wem/bandit_party_1","A19WWXPWT25JD0","either","4","262","","","","","","","0","0","1","0.05265847637","","0.2","0.8","0.4","0.6","","","","","0.2876249865","0.05265847637","0.1606836622","0.1645359983","","","","","","","","","","74","J","1","","","161","main_expt","",""
"","bandit","247","597711","0.0-203.0-0.0","07220096","wem/bandit_party_1","A19WWXPWT25JD0","either","4","290","","","","","","","0","0","1","","0.2401308511","0.2","0.8","0.4","0.6","0.2401308511","0.07938684611","0.1859884171","0.2509918509","","","","","","","","","","","","","","72","H","0","img/none_selected.jpg","","162","main_expt","",""
"","bandit","248","599481","0.0-204.0-0.0","07220096","wem/bandit_party_1","A19WWXPWT25JD0","either","4","249","","","","","","","0","0","1","","0.2486605046","0.2","0.8","0.4","0.6","0.2486605046","0.0970900163","0.2528258464","0.1883685458","","","","","","","","","","","","","","72","H","0","img/none_selected.jpg","","163","main_expt","",""
"","bandit","249","601296","0.0-205.0-0.0","07220096","wem/bandit_party_1","A19WWXPWT25JD0","either","4","296","","","","","","","0","0","1","","0.07401968201","0.2","0.8","0.4","0.6","0.22675384","0.07401968201","0.2515292425","0.2179532334","","","","","","","","","","","","","","74","J","1","","","164","main_expt","",""
"","bandit","250","603888","0.0-206.0-0.0","07220096","wem/bandit_party_1","A19WWXPWT25JD0","either","4","1072","","","","","","","0","0","1","0.2068970429","","0.2","0.8","0.4","0.6","","","","","0.2841151948","0.06633104104","0.2068970429","0.2143704678","","","","","","","","","","75","K","2","","","165","main_expt","",""
"","bandit","251","605709","0.0-207.0-0.0","07220096","wem/bandit_party_1","A19WWXPWT25JD0","either","4","296","","","","","","","0","0","1","","0.2842980464","0.2","0.8","0.4","0.6","0.2842980464","0.05309652092","0.1413778631","0.2175899085","","","","","","","","","","","","","","72","H","0","img/none_selected.jpg","","166","main_expt","",""
"","bandit","252","607576","0.0-208.0-0.0","07220096","wem/bandit_party_1","A19WWXPWT25JD0","either","4","348","","","","","","","0","0","1","","0.2137120923","0.2","0.8","0.4","0.6","0.3007590714","0.07357446968","0.1999497975","0.2137120923","","","","","","","","","","","","","","76","L","3","","","167","main_expt","",""
"","bandit","253","609632","0.0-209.0-0.0","07220096","wem/bandit_party_1","A19WWXPWT25JD0","either","4","536","","","","","","","0","0","1","0.1054325378","","0.2","0.8","0.4","0.6","","","","","0.2884936601","0.1054325378","0.1696145944","0.2331560811","","","","","","","","","","74","J","1","","","168","main_expt","",""
"","bandit","254","612057","0.0-210.0-0.0","07220096","wem/bandit_party_1","A19WWXPWT25JD0","either","4","905","","","","","","","0","0","1","0.2803439438","","0.2","0.8","0.4","0.6","","","","","0.2803439438","0.08536867429","0.1338518967","0.2367963754","","","","","","","","","","72","H","0","img/none_selected.jpg","","169","main_expt","",""
"","bandit","255","614027","0.0-211.0-0.0","07220096","wem/bandit_party_1","A19WWXPWT25JD0","either","4","448","","","","","","","0","1","0","","0.1083432756","0.2","0.8","0.4","0.6","0.3010437192","0.1083432756","0.1307598277","0.2378050175","","","","","","","","","","","","","","74","J","1","","","170","main_expt","",""
"","bandit","256","615850","0.0-212.0-0.0","07220096","wem/bandit_party_1","A19WWXPWT25JD0","either","4","308","","","","","","","0","0","1","0.09185370626","","0.2","0.8","0.4","0.6","","","","","0.3243802095","0.09185370626","0.1200375331","0.2253696972","","","","","","","","","","74","J","1","","","171","main_expt","",""
"","bandit","257","618224","0.0-213.0-0.0","07220096","wem/bandit_party_1","A19WWXPWT25JD0","either","4","853","","","","","","","0","0","1","0.09458096772","","0.2","0.8","0.4","0.6","","","","","0.3140094691","0.09458096772","0.07514546963","0.2903394368","","","","","","","","","","74","J","1","","","172","main_expt","",""
"","bandit","258","620112","0.0-214.0-0.0","07220096","wem/bandit_party_1","A19WWXPWT25JD0","either","4","368","","","","","","","0","0","1","","0.2433770114","0.2","0.8","0.4","0.6","0.2433770114","0.1016296913","0.07704486673","0.2384828248","","","","","","","","","","","","","","72","H","0","img/none_selected.jpg","","173","main_expt","",""
"","bandit","259","621880","0.0-215.0-0.0","07220096","wem/bandit_party_1","A19WWXPWT25JD0","either","4","248","","","","","","","0","0","1","0.117107939","","0.2","0.8","0.4","0.6","","","","","0.2080779891","0.117107939","0.04061738922","0.2823111034","","","","","","","","","","74","J","1","","","174","main_expt","",""
"","bandit","260","623944","0.0-216.0-0.0","07220096","wem/bandit_party_1","A19WWXPWT25JD0","either","4","542","","","","","","","0","0","1","","0.02968316822","0.2","0.8","0.4","0.6","0.2211365803","0.1254773658","0.02968316822","0.292147578","","","","","","","","","","","","","","75","K","2","","","175","main_expt","",""
"","bandit","261","625825","0.0-217.0-0.0","07220096","wem/bandit_party_1","A19WWXPWT25JD0","either","4","358","","","","","","","0","1","0","","0.2928295457","0.2","0.8","0.4","0.6","0.231280906","0.1518856622","0.04419366322","0.2928295457","","","","","","","","","","","","","","76","L","3","","","176","main_expt","",""
"","bandit","262","627755","0.0-218.0-0.0","07220096","wem/bandit_party_1","A19WWXPWT25JD0","either","4","408","","","","","","","0","0","1","0.297241693","","0.2","0.8","0.4","0.6","","","","","0.1689881391","0.1502483312","0.04140429262","0.297241693","","","","","","","","","","76","L","3","","","177","main_expt","",""
"","bandit","263","629873","0.0-219.0-0.0","07220096","wem/bandit_party_1","A19WWXPWT25JD0","either","4","593","","","","","","","0","0","1","0.276241128","","0.2","0.8","0.4","0.6","","","","","0.1699404395","0.2073149786","0.06103489621","0.276241128","","","","","","","","","","76","L","3","","","178","main_expt","",""
"","bandit","264","631655","0.0-220.0-0.0","07220096","wem/bandit_party_1","A19WWXPWT25JD0","either","4","263","","","","","","","0","1","0","","0.1571972967","0.2","0.8","0.4","0.6","0.1571972967","0.1928578162","0.053608248","0.2405339857","","","","","","","","","","","","","","72","H","0","img/none_selected.jpg","","179","main_expt","",""
"","bandit","265","633488","0.0-221.0-0.0","07220096","wem/bandit_party_1","A19WWXPWT25JD0","either","4","319","","","","","","","0","0","1","","0.1567782565","0.2","0.8","0.4","0.6","0.1567782565","0.1412953234","0.06289379635","0.233428307","","","","","","","","","","","","","","72","H","0","img/none_selected.jpg","","180","main_expt","",""
"","bandit","266","635254","0.0-222.0-0.0","07220096","wem/bandit_party_1","A19WWXPWT25JD0","either","4","247","","","","","","","0","0","1","","0.1258774719","0.2","0.8","0.4","0.6","0.1492691696","0.1258774719","0.07748386732","0.1459310114","","","","","","","","","","","","","","74","J","1","","","181","main_expt","",""
"","bandit","267","637039","0.0-223.0-0.0","07220096","wem/bandit_party_1","A19WWXPWT25JD0","either","4","275","","","","","","","0","0","1","0.096714051","","0.2","0.8","0.4","0.6","","","","","0.1609613705","0.1121960069","0.096714051","0.1796360657","","","","","","","","","","75","K","2","","","182","main_expt","",""
"","bandit","268","639345","0.0-224.0-0.0","07220096","wem/bandit_party_1","A19WWXPWT25JD0","either","4","784","","","","","","","0","0","1","","0.1982891881","0.2","0.8","0.4","0.6","0.1982891881","0.08335286121","0.05351369794","0.1907874973","","","","","","","","","","","","","","72","H","0","img/none_selected.jpg","","183","main_expt","",""
"","bandit","269","641448","0.0-225.0-0.0","07220096","wem/bandit_party_1","A19WWXPWT25JD0","either","4","576","","","","","","","0","0","1","0.1085923678","","0.2","0.8","0.4","0.6","","","","","0.1703318442","0.1085923678","0.08854511538","0.1451627339","","","","","","","","","","74","J","1","","","184","main_expt","",""
"","bandit","270","643352","0.0-226.0-0.0","07220096","wem/bandit_party_1","A19WWXPWT25JD0","either","4","382","","","","","","","0","0","1","","0.09566746086","0.2","0.8","0.4","0.6","0.09566746086","0.1113654269","0.136385666","0.1692531577","","","","","","","","","","","","","","72","H","0","img/none_selected.jpg","","185","main_expt","",""
"","bandit","271","645471","0.0-227.0-0.0","07220096","wem/bandit_party_1","A19WWXPWT25JD0","either","4","598","","","","","","","0","0","1","","0.1254261761","0.2","0.8","0.4","0.6","0.1254261761","0.1383531569","0.1848043888","0.1885113298","","","","","","","","","","","","","","72","H","0","img/none_selected.jpg","","186","main_expt","",""
"","bandit","272","647544","0.0-228.0-0.0","07220096","wem/bandit_party_1","A19WWXPWT25JD0","either","4","551","","","","","","","1","0","0","0.1739713275","","0.2","0.8","0.4","0.6","","","","","0.1081798115","0.1739713275","0.1640989128","0.2088125345","","","","","","","","","","74","J","1","","","187","main_expt","",""
"","bandit","273","649441","0.0-229.0-0.0","07220096","wem/bandit_party_1","A19WWXPWT25JD0","either","4","376","","","","","","","0","0","1","0.1926366302","","0.2","0.8","0.4","0.6","","","","","0.08529062399","0.1926366302","0.1301402021","0.2228369986","","","","","","","","","","74","J","1","","","188","main_expt","",""
"","bandit","274","651415","0.0-230.0-0.0","07220096","wem/bandit_party_1","A19WWXPWT25JD0","either","4","453","","","","","","","0","0","1","","0.07250281893","0.2","0.8","0.4","0.6","0.07250281893","0.2499935398","0.1980942663","0.2567428292","","","","","","","","","","","","","","72","H","0","img/none_selected.jpg","","189","main_expt","",""
"","bandit","275","653824","0.0-231.0-0.0","07220096","wem/bandit_party_1","A19WWXPWT25JD0","either","4","886","","","","","","","0","0","1","0.07895395147","","0.2","0.8","0.4","0.6","","","","","0.07895395147","0.2367317824","0.1842725295","0.3177850294","","","","","","","","","","72","H","0","img/none_selected.jpg","","190","main_expt","",""
"","bandit","276","656095","0.0-232.0-0.0","07220096","wem/bandit_party_1","A19WWXPWT25JD0","either","4","750","","","","","","","0","0","1","","0.2087081259","0.2","0.8","0.4","0.6","0.06204701637","0.2515026666","0.2087081259","0.2876912335","","","","","","","","","","","","","","75","K","2","","","191","main_expt","",""
"","bandit","277","658287","0.0-233.0-0.0","07220096","wem/bandit_party_1","A19WWXPWT25JD0","either","4","659","","","","","","","0","0","1","","0.2383873749","0.2","0.8","0.4","0.6","0.064067899","0.2451916405","0.1800110976","0.2383873749","","","","","","","","","","","","","","76","L","3","","","192","main_expt","",""
"","bandit","278","660361","0.0-234.0-0.0","07220096","wem/bandit_party_1","A19WWXPWT25JD0","either","4","553","","","","","","","0","0","1","","0.1286650472","0.2","0.8","0.4","0.6","0.1286650472","0.2353451433","0.1519186298","0.24690957","","","","","","","","","","","","","","72","H","0","img/none_selected.jpg","","193","main_expt","",""
"","bandit","279","662367","0.0-235.0-0.0","07220096","wem/bandit_party_1","A19WWXPWT25JD0","either","4","484","","","","","","","0","0","1","0.1746490116","","0.2","0.8","0.4","0.6","","","","","0.1746490116","0.307075739","0.1431656489","0.2728455101","","","","","","","","","","72","H","0","img/none_selected.jpg","","194","main_expt","",""
"","bandit","280","664375","0.0-236.0-0.0","07220096","wem/bandit_party_1","A19WWXPWT25JD0","either","4","486","","","","","","","0","0","1","0.3011001907","","0.2","0.8","0.4","0.6","","","","","0.129035247","0.3011001907","0.1868251083","0.2421292151","","","","","","","","","","74","J","1","","","195","main_expt","",""
"","bandit","281","666225","0.0-237.0-0.0","07220096","wem/bandit_party_1","A19WWXPWT25JD0","either","4","326","","","","","","","0","0","1","","0.09052040682","0.2","0.8","0.4","0.6","0.09052040682","0.2861216794","0.176624335","0.2598052724","","","","","","","","","","","","","","72","H","0","img/none_selected.jpg","","196","main_expt","",""
"","bandit","282","668224","0.0-238.0-0.0","07220096","wem/bandit_party_1","A19WWXPWT25JD0","either","4","474","","","","","","","0","0","1","0.2121549007","","0.2","0.8","0.4","0.6","","","","","0.08675464884","0.2121549007","0.2383323772","0.2540930088","","","","","","","","","","74","J","1","","","197","main_expt","",""
"","bandit","283","669760","0.0-239.0-0.0","07220096","wem/bandit_party_1","A19WWXPWT25JD0","either","4","14","","","","","","","0","0","1","","0.260618614","0.2","0.8","0.4","0.6","0.09429549835","0.260340052","0.260618614","0.2460150375","","","","","","","","","","","","","","75","K","2","","","198","main_expt","",""
"","bandit","284","671514","0.0-240.0-0.0","07220096","wem/bandit_party_1","A19WWXPWT25JD0","either","4","229","","","","","","","0","0","1","0.3009562829","","0.2","0.8","0.4","0.6","","","","","0.09303778716","0.3009562829","0.2935067364","0.2217343644","","","","","","","","","","74","J","1","","","199","main_expt","",""
"","bandit","285","673304","0.0-241.0-0.0","07220096","wem/bandit_party_1","A19WWXPWT25JD0","either","4","267","","","","","","","0","1","0","","0.2830302048","0.2","0.8","0.4","0.6","0.07354084322","0.3430896668","0.362920627","0.2830302048","","","","","","","","","","","","","","76","L","3","","","200","main_expt","",""
"","bandit","286","675183","0.0-242.0-0.0","07220096","wem/bandit_party_1","A19WWXPWT25JD0","either","4","357","","","","","","","0","0","1","0.3175621279","","0.2","0.8","0.4","0.6","","","","","0.08115367452","0.2973668079","0.3119044903","0.3175621279","","","","","","","","","","76","L","3","","","201","main_expt","",""
"","bandit","287","677048","0.0-243.0-0.0","07220096","wem/bandit_party_1","A19WWXPWT25JD0","either","4","342","","","","","","","0","0","1","0.3095695708","","0.2","0.8","0.4","0.6","","","","","0.0774842685","0.3219337599","0.3095695708","0.3049471546","","","","","","","","","","75","K","2","","","202","main_expt","",""
"","bandit","288","678591","0.0-244.0-0.0","07220096","wem/bandit_party_1","A19WWXPWT25JD0","either","4","21","","","","","","","0","1","0","","0.2975042969","0.2","0.8","0.4","0.6","0.09704724367","0.3229991028","0.3005459379","0.2975042969","","","","","","","","","","","","","","76","L","3","","","203","main_expt","",""
"","bandit","289","680391","0.0-245.0-0.0","07220096","wem/bandit_party_1","A19WWXPWT25JD0","either","4","278","","","","","","","0","0","1","","0.1224111047","0.2","0.8","0.4","0.6","0.1224111047","0.3077995671","0.3116824409","0.2268457719","","","","","","","","","","","","","","72","H","0","img/none_selected.jpg","","204","main_expt","",""
"","bandit","290","682033","0.0-246.0-0.0","07220096","wem/bandit_party_1","A19WWXPWT25JD0","either","4","119","","","","","","","0","0","1","","0.3070199156","0.2","0.8","0.4","0.6","0.1627664319","0.3070199156","0.3291635812","0.2582085449","","","","","","","","","","","","","","74","J","1","","","205","main_expt","",""
"","bandit","291","683961","0.0-247.0-0.0","07220096","wem/bandit_party_1","A19WWXPWT25JD0","either","4","403","","","","","","","1","0","0","0.2841247045","","0.2","0.8","0.4","0.6","","","","","0.1604236747","0.3109683939","0.4008790519","0.2841247045","","","","","","","","","","76","L","3","","","206","main_expt","",""
"","bandit","292","686407","0.0-248.0-0.0","07220096","wem/bandit_party_1","A19WWXPWT25JD0","either","4","925","","","","","","","1","0","0","0.3333225396","","0.2","0.8","0.4","0.6","","","","","0.126388554","0.2845075958","0.4202180382","0.3333225396","","","","","","","","","","76","L","3","","","207","main_expt","",""
"","bandit","293","688288","0.0-249.0-0.0","07220096","wem/bandit_party_1","A19WWXPWT25JD0","either","4","359","","","","","","","0","0","1","","0.290219871","0.2","0.8","0.4","0.6","0.1602309633","0.2419557814","0.4168586074","0.290219871","","","","","","","","","","","","","","76","L","3","","","208","main_expt","",""
"","bandit","294","691048","0.0-250.0-0.0","07220096","wem/bandit_party_1","A19WWXPWT25JD0","either","4","1236","","","","","","","0","0","1","","0.2449545816","0.2","0.8","0.4","0.6","0.2009997365","0.2449545816","0.3949328033","0.3426384504","","","","","","","","","","","","","","74","J","1","","","209","main_expt","",""
"","bandit","295","692947","0.0-251.0-0.0","07220096","wem/bandit_party_1","A19WWXPWT25JD0","either","4","375","","","","","","","0","0","1","","0.1997114924","0.2","0.8","0.4","0.6","0.1997114924","0.2176860071","0.41782505","0.2932754766","","","","","","","","","","","","","","72","H","0","img/none_selected.jpg","","210","main_expt","",""
"","bandit","296","694679","0.0-252.0-0.0","07220096","wem/bandit_party_1","A19WWXPWT25JD0","either","4","210","","","","","","","0","0","1","0.2460847292","","0.2","0.8","0.4","0.6","","","","","0.2631807131","0.2460847292","0.4377941382","0.2522206247","","","","","","","","","","74","J","1","","","211","main_expt","",""
"","bandit","297","696488","0.0-253.0-0.0","07220096","wem/bandit_party_1","A19WWXPWT25JD0","either","4","284","","","","","","","0","0","1","","0.2323705111","0.2","0.8","0.4","0.6","0.2008991105","0.2017704833","0.4619006446","0.2323705111","","","","","","","","","","","","","","76","L","3","","","212","main_expt","",""
"","bandit","298","698264","0.0-254.0-0.0","07220096","wem/bandit_party_1","A19WWXPWT25JD0","either","4","252","","","","","","","1","0","0","0.2815580385","","0.2","0.8","0.4","0.6","","","","","0.1656487101","0.1891715169","0.4508737721","0.2815580385","","","","","","","","","","76","L","3","","","213","main_expt","",""
"","bandit","299","700280","0.0-255.0-0.0","07220096","wem/bandit_party_1","A19WWXPWT25JD0","either","4","493","","","","","","","1","0","0","0.4639731149","","0.2","0.8","0.4","0.6","","","","","0.213788386","0.1819308411","0.4639731149","0.2955812139","","","","","","","","","","75","K","2","","","214","main_expt","",""
"","bandit","300","702222","0.0-256.0-0.0","07220096","wem/bandit_party_1","A19WWXPWT25JD0","either","4","420","","","","","","","0","0","1","0.2988647484","","0.2","0.8","0.4","0.6","","","","","0.2206736926","0.1406935411","0.4690757113","0.2988647484","","","","","","","","","","76","L","3","","","215","main_expt","",""
"","bandit","301","704112","0.0-257.0-0.0","07220096","wem/bandit_party_1","A19WWXPWT25JD0","either","4","366","","","","","","","0","0","1","0.4685680314","","0.2","0.8","0.4","0.6","","","","","0.2270120675","0.206739756","0.4685680314","0.3361974059","","","","","","","","","","75","K","2","","","216","main_expt","",""
"","bandit","302","705809","0.0-258.0-0.0","07220096","wem/bandit_party_1","A19WWXPWT25JD0","either","4","173","","","","","","","1","0","0","0.178624692","","0.2","0.8","0.4","0.6","","","","","0.2561581829","0.178624692","0.4873952874","0.2764506131","","","","","","","","","","74","J","1","","","217","main_expt","",""
"","bandit","303","707888","0.0-259.0-0.0","07220096","wem/bandit_party_1","A19WWXPWT25JD0","either","4","556","","","","","","","0","0","1","","0.2785758431","0.2","0.8","0.4","0.6","0.2785758431","0.2021641755","0.4790671899","0.299893698","","","","","","","","","","","","","","72","H","0","img/none_selected.jpg","","218","main_expt","",""
"","bandit","304","709723","0.0-260.0-0.0","07220096","wem/bandit_party_1","A19WWXPWT25JD0","either","4","309","","","","","","","0","0","1","","0.2076996705","0.2","0.8","0.4","0.6","0.2707863597","0.2076996705","0.4769795117","0.3213687962","","","","","","","","","","","","","","74","J","1","","","219","main_expt","",""
"","bandit","305","711503","0.0-261.0-0.0","07220096","wem/bandit_party_1","A19WWXPWT25JD0","either","4","258","","","","","","","0","0","1","0.4746148145","","0.2","0.8","0.4","0.6","","","","","0.2262269101","0.2479045362","0.4746148145","0.3782095139","","","","","","","","","","75","K","2","","","220","main_expt","",""
"","bandit","306","713159","0.0-262.0-0.0","07220096","wem/bandit_party_1","A19WWXPWT25JD0","either","4","132","","","","","","","1","0","0","0.3572699546","","0.2","0.8","0.4","0.6","","","","","0.2522421151","0.251163546","0.4789253058","0.3572699546","","","","","","","","","","76","L","3","","","221","main_expt","",""
"","bandit","307","715211","0.0-263.0-0.0","07220096","wem/bandit_party_1","A19WWXPWT25JD0","either","4","527","","","","","","","1","0","0","0.332217079","","0.2","0.8","0.4","0.6","","","","","0.2323100388","0.2653622565","0.4765400837","0.332217079","","","","","","","","","","76","L","3","","","222","main_expt","",""
"","bandit","308","717119","0.0-264.0-0.0","07220096","wem/bandit_party_1","A19WWXPWT25JD0","either","4","383","","","","","","","1","0","0","0.3327789551","","0.2","0.8","0.4","0.6","","","","","0.2013525365","0.2034578964","0.4872993944","0.3327789551","","","","","","","","","","76","L","3","","","223","main_expt","",""
"","bandit","309","719232","0.0-265.0-0.0","07220096","wem/bandit_party_1","A19WWXPWT25JD0","either","4","588","","","","","","","0","0","1","","0.3720138676","0.2","0.8","0.4","0.6","0.2017363432","0.1176985371","0.4864577786","0.3720138676","","","","","","","","","","","","","","76","L","3","","","224","main_expt","",""
"","bandit","310","721497","0.0-266.0-0.0","07220096","wem/bandit_party_1","A19WWXPWT25JD0","either","4","740","","","","","","","0","0","1","","0.4815865163","0.2","0.8","0.4","0.6","0.1608447522","0.08531446518","0.4815865163","0.4035982493","","","","","","","","","","","","","","75","K","2","","","225","main_expt","",""
