"consent","trial_type","trial_index","time_elapsed","internal_node_id","subjID","study","MID","cond","drift","rt","responses","button_pressed","key_press","like","value","connected","gems","bombs","no_reward","GemPrChosen","BombPrChosen","GainOverPainPr_0","GainOverPainPr_1","GainOverPainPr_2","GainOverPainPr_3","LosePr_0","LosePr_1","LosePr_2","LosePr_3","WinPr_0","WinPr_1","WinPr_2","WinPr_3","Q0","Q1","Q2","gender","age","ethnicity","label","expt_phase","target","respCharCode","respKey","respChoiceNum","respChoice","practice","trial_counter","trial_label","Q0_index"
"GDM/GDM_behavioral_consent_30min_online.html","consent","0","8942","0.0-0.0","07278561","wem/bandit_party_1","A2ZU1P6UYE1UBU","either","8","","","","","","","","","","","","","","","","","","","","","","","","","","","","","","","","","","","","","","","","",""
"","survey-text","1","23518","0.0-1.0","07278561","wem/bandit_party_1","A2ZU1P6UYE1UBU","either","8","13562","{""Q0"":""A2ZU1P6UYE1UBU""}","","","","","","","","","","","","","","","","","","","","","","","","","","","","","","","","","","","","","","",""
"","button-response","2","28080","0.0-2.0","07278561","wem/bandit_party_1","A2ZU1P6UYE1UBU","either","8","3550","","1","","","","","","","","","","","","","","","","","","","","","","","","","","","","","","","","","","","","","",""
"","text-replacement","3","35938","0.0-3.0","07278561","wem/bandit_party_1","A2ZU1P6UYE1UBU","either","8","6854","","","32","","","","","","","","","","","","","","","","","","","","","","","","","","","","","","","","","","","","",""
"","text-replacement","4","38411","0.0-4.0","07278561","wem/bandit_party_1","A2ZU1P6UYE1UBU","either","8","2467","","","32","","","","","","","","","","","","","","","","","","","","","","","","","","","","","","","","","","","","",""
"","identification","5","47274","0.0-6.0-0.0","07278561","wem/bandit_party_1","A2ZU1P6UYE1UBU","either","8","8830","","","","3","2","4","","","","","","","","","","","","","","","","","","","","","","","","pre","identification_pre","the Democratic Party","","","","","","","",""
"","identification","6","56734","0.0-6.0-1.0","07278561","wem/bandit_party_1","A2ZU1P6UYE1UBU","either","8","8437","","","","0","0","0","","","","","","","","","","","","","","","","","","","","","","","","pre","identification_pre","the Republican party","","","","","","","",""
"","text-replacement","7","106742","0.0-7.0","07278561","wem/bandit_party_1","A2ZU1P6UYE1UBU","either","8","49005","","","32","","","","","","","","","","","","","","","","","","","","","","","","","","","","","","","","","","","","",""
"","text-replacement","8","111400","0.0-8.0","07278561","wem/bandit_party_1","A2ZU1P6UYE1UBU","either","8","4654","","","32","","","","","","","","","","","","","","","","","","","","","","","","","","","","","","","","","","","","",""
"","text-replacement","9","119677","0.0-9.0","07278561","wem/bandit_party_1","A2ZU1P6UYE1UBU","either","8","8274","","","32","","","","","","","","","","","","","","","","","","","","","","","","","","","","","","","","","","","","",""
"","text-replacement","10","122537","0.0-10.0","07278561","wem/bandit_party_1","A2ZU1P6UYE1UBU","either","8","2856","","","32","","","","","","","","","","","","","","","","","","","","","","","","","","","","","","","","","","","","",""
"","text-replacement","11","125678","0.0-11.0","07278561","wem/bandit_party_1","A2ZU1P6UYE1UBU","either","8","3135","","","32","","","","","","","","","","","","","","","","","","","","","","","","","","","","","","","","","","","","",""
"","bandit","12","129904","0.0-12.0-0.0","07278561","wem/bandit_party_1","A2ZU1P6UYE1UBU","either","8","2704","","","","","","","0","0","1","0","0","","","","","0","","","","0","","","","","","","","","","","","","74","J","0","img/none_selected_demo.jpg","true","0","",""
"","bandit","13","132839","0.0-13.0-0.0","07278561","wem/bandit_party_1","A2ZU1P6UYE1UBU","either","8","1402","","","","","","","0","0","1","0","0","","","","","0","","","","0","","","","","","","","","","","","","75","K","0","img/none_selected_demo.jpg","true","0","",""
"","text-replacement","14","136393","0.0-14.0","07278561","wem/bandit_party_1","A2ZU1P6UYE1UBU","either","8","3549","","","32","","","","","","","","","","","","","","","","","","","","","","","","","","","","","","","","","","","","",""
"","text-replacement","15","140125","0.0-15.0","07278561","wem/bandit_party_1","A2ZU1P6UYE1UBU","either","8","3729","","","32","","","","","","","","","","","","","","","","","","","","","","","","","","","","","","","","","","","","",""
"","text-replacement","16","158184","0.0-16.0","07278561","wem/bandit_party_1","A2ZU1P6UYE1UBU","either","8","18056","","","32","","","","","","","","","","","","","","","","","","","","","","","","","","","","","","","","","","","","",""
"","text-replacement","17","159822","0.0-17.0","07278561","wem/bandit_party_1","A2ZU1P6UYE1UBU","either","8","1635","","","32","","","","","","","","","","","","","","","","","","","","","","","","","","","","","","","","","","","","",""
"","bandit","18","258332","0.0-18.0-0.0","07278561","wem/bandit_party_1","A2ZU1P6UYE1UBU","either","8","96992","","","","","","","0","1","0","","0.8","0.5","0.5","","","0.8","0.2","","","","","","","","","","","","","","","","74","J","0","img/none_selected_demo.jpg","true","0","80_20_practice",""
"","bandit","19","260435","0.0-18.0-1.0","07278561","wem/bandit_party_1","A2ZU1P6UYE1UBU","either","8","573","","","","","","","0","0","1","0.8","","0.5","0.5","","","","","","","0.8","0.2","","","","","","","","","","","","74","J","0","img/none_selected_demo.jpg","true","0","80_20_practice",""
"","bandit","20","262033","0.0-18.0-2.0","07278561","wem/bandit_party_1","A2ZU1P6UYE1UBU","either","8","51","","","","","","","1","0","0","0.8","","0.5","0.5","","","","","","","0.8","0.2","","","","","","","","","","","","74","J","0","img/none_selected_demo.jpg","true","0","80_20_practice",""
"","bandit","21","264075","0.0-18.0-3.0","07278561","wem/bandit_party_1","A2ZU1P6UYE1UBU","either","8","505","","","","","","","0","1","0","","0.8","0.5","0.5","","","0.8","0.2","","","","","","","","","","","","","","","","74","J","0","img/none_selected_demo.jpg","true","0","80_20_practice",""
"","bandit","22","265999","0.0-18.0-4.0","07278561","wem/bandit_party_1","A2ZU1P6UYE1UBU","either","8","409","","","","","","","0","1","0","","0.8","0.5","0.5","","","0.8","0.2","","","","","","","","","","","","","","","","74","J","0","img/none_selected_demo.jpg","true","0","80_20_practice",""
"","bandit","23","267883","0.0-18.0-5.0","07278561","wem/bandit_party_1","A2ZU1P6UYE1UBU","either","8","366","","","","","","","0","0","1","","0.8","0.5","0.5","","","0.8","0.2","","","","","","","","","","","","","","","","74","J","0","img/none_selected_demo.jpg","true","0","80_20_practice",""
"","bandit","24","269648","0.0-18.0-6.0","07278561","wem/bandit_party_1","A2ZU1P6UYE1UBU","either","8","256","","","","","","","1","0","0","0.8","","0.5","0.5","","","","","","","0.8","0.2","","","","","","","","","","","","74","J","0","img/none_selected_demo.jpg","true","0","80_20_practice",""
"","bandit","25","271514","0.0-18.0-7.0","07278561","wem/bandit_party_1","A2ZU1P6UYE1UBU","either","8","353","","","","","","","0","1","0","","0.8","0.5","0.5","","","0.8","0.2","","","","","","","","","","","","","","","","74","J","0","img/none_selected_demo.jpg","true","0","80_20_practice",""
"","bandit","26","273372","0.0-18.0-8.0","07278561","wem/bandit_party_1","A2ZU1P6UYE1UBU","either","8","350","","","","","","","1","0","0","0.8","","0.5","0.5","","","","","","","0.8","0.2","","","","","","","","","","","","74","J","0","img/none_selected_demo.jpg","true","0","80_20_practice",""
"","bandit","27","275201","0.0-18.0-9.0","07278561","wem/bandit_party_1","A2ZU1P6UYE1UBU","either","8","311","","","","","","","0","1","0","","0.8","0.5","0.5","","","0.8","0.2","","","","","","","","","","","","","","","","74","J","0","img/none_selected_demo.jpg","true","0","80_20_practice",""
"","bandit","28","277388","0.0-18.0-10.0","07278561","wem/bandit_party_1","A2ZU1P6UYE1UBU","either","8","670","","","","","","","0","0","1","0.8","","0.5","0.5","","","","","","","0.8","0.2","","","","","","","","","","","","74","J","0","img/none_selected_demo.jpg","true","0","80_20_practice",""
"","bandit","29","279278","0.0-18.0-11.0","07278561","wem/bandit_party_1","A2ZU1P6UYE1UBU","either","8","334","","","","","","","0","0","1","","0.2","0.5","0.5","","","0.8","0.2","","","","","","","","","","","","","","","","75","K","1","","true","0","80_20_practice",""
"","bandit","30","281036","0.0-18.0-12.0","07278561","wem/bandit_party_1","A2ZU1P6UYE1UBU","either","8","221","","","","","","","0","0","1","0.2","","0.5","0.5","","","","","","","0.8","0.2","","","","","","","","","","","","75","K","1","","true","0","80_20_practice",""
"","bandit","31","282852","0.0-18.0-13.0","07278561","wem/bandit_party_1","A2ZU1P6UYE1UBU","either","8","304","","","","","","","0","0","1","0.2","","0.5","0.5","","","","","","","0.8","0.2","","","","","","","","","","","","75","K","1","","true","0","80_20_practice",""
"","bandit","32","284602","0.0-18.0-14.0","07278561","wem/bandit_party_1","A2ZU1P6UYE1UBU","either","8","234","","","","","","","1","0","0","0.2","","0.5","0.5","","","","","","","0.8","0.2","","","","","","","","","","","","75","K","1","","true","0","80_20_practice",""
"","bandit","33","286322","0.0-18.0-15.0","07278561","wem/bandit_party_1","A2ZU1P6UYE1UBU","either","8","211","","","","","","","0","0","1","","0.2","0.5","0.5","","","0.8","0.2","","","","","","","","","","","","","","","","75","K","1","","true","0","80_20_practice",""
"","bandit","34","287867","0.0-18.0-16.0","07278561","wem/bandit_party_1","A2ZU1P6UYE1UBU","either","8","20","","","","","","","0","1","0","","0.8","0.5","0.5","","","0.8","0.2","","","","","","","","","","","","","","","","74","J","0","img/none_selected_demo.jpg","true","0","80_20_practice",""
"","bandit","35","289634","0.0-18.0-17.0","07278561","wem/bandit_party_1","A2ZU1P6UYE1UBU","either","8","253","","","","","","","1","0","0","0.8","","0.5","0.5","","","","","","","0.8","0.2","","","","","","","","","","","","74","J","0","img/none_selected_demo.jpg","true","0","80_20_practice",""
"","bandit","36","291408","0.0-18.0-18.0","07278561","wem/bandit_party_1","A2ZU1P6UYE1UBU","either","8","266","","","","","","","0","1","0","","0.8","0.5","0.5","","","0.8","0.2","","","","","","","","","","","","","","","","74","J","0","img/none_selected_demo.jpg","true","0","80_20_practice",""
"","bandit","37","293252","0.0-18.0-19.0","07278561","wem/bandit_party_1","A2ZU1P6UYE1UBU","either","8","335","","","","","","","0","1","0","","0.8","0.5","0.5","","","0.8","0.2","","","","","","","","","","","","","","","","74","J","0","img/none_selected_demo.jpg","true","0","80_20_practice",""
"","text-replacement","38","299440","0.0-19.0","07278561","wem/bandit_party_1","A2ZU1P6UYE1UBU","either","8","6183","","","32","","","","","","","","","","","","","","","","","","","","","","","","","","","","","","","","","","","","",""
"","bandit","39","302273","0.0-20.0-0.0","07278561","wem/bandit_party_1","A2ZU1P6UYE1UBU","either","8","1312","","","","","","","1","0","0","1","0","","","","","0","1","","","1","0","","","","","","","","","","","","74","J","0","img/none_selected_demo.jpg","true","0","",""
"","text-replacement","40","302313","0.0-21.0","07278561","wem/bandit_party_1","A2ZU1P6UYE1UBU","either","8","29","","","32","","","","","","","","","","","","","","","","","","","","","","","","","","","","","","","","","","","","",""
"","text-replacement","41","304748","0.0-22.0","07278561","wem/bandit_party_1","A2ZU1P6UYE1UBU","either","8","2431","","","32","","","","","","","","","","","","","","","","","","","","","","","","","","","","","","","","","","","","",""
"","text-replacement","42","306259","0.0-23.0","07278561","wem/bandit_party_1","A2ZU1P6UYE1UBU","either","8","1507","","","32","","","","","","","","","","","","","","","","","","","","","","","","","","","","","","","","","","","","",""
"","text-replacement","43","307767","0.0-24.0","07278561","wem/bandit_party_1","A2ZU1P6UYE1UBU","either","8","1504","","","32","","","","","","","","","","","","","","","","","","","","","","","","","","","","","","","","","","","","",""
"","text-replacement","44","311434","0.0-25.0","07278561","wem/bandit_party_1","A2ZU1P6UYE1UBU","either","8","3663","","","32","","","","","","","","","","","","","","","","","","","","","","","","","","","","","","","","","","","","",""
"","text-replacement","45","313505","0.0-26.0","07278561","wem/bandit_party_1","A2ZU1P6UYE1UBU","either","8","2068","","","32","","","","","","","","","","","","","","","","","","","","","","","","","","","","","","","","","","","","",""
"","text-replacement","46","315073","0.0-27.0","07278561","wem/bandit_party_1","A2ZU1P6UYE1UBU","either","8","1564","","","32","","","","","","","","","","","","","","","","","","","","","","","","","","","","","","","","","","","","",""
"","text-replacement","47","316787","0.0-28.0","07278561","wem/bandit_party_1","A2ZU1P6UYE1UBU","either","8","1710","","","32","","","","","","","","","","","","","","","","","","","","","","","","","","","","","","","","","","","","",""
"","text-replacement","48","318955","0.0-29.0","07278561","wem/bandit_party_1","A2ZU1P6UYE1UBU","either","8","2165","","","32","","","","","","","","","","","","","","","","","","","","","","","","","","","","","","","","","","","","",""
"","text-replacement","49","320828","0.0-30.0","07278561","wem/bandit_party_1","A2ZU1P6UYE1UBU","either","8","1869","","","32","","","","","","","","","","","","","","","","","","","","","","","","","","","","","","","","","","","","",""
"","text-replacement","50","323047","0.0-31.0","07278561","wem/bandit_party_1","A2ZU1P6UYE1UBU","either","8","2212","","","32","","","","","","","","","","","","","","","","","","","","","","","","","","","","","","","","","","","","",""
"","bandit","51","328695","0.0-32.0-0.0","07278561","wem/bandit_party_1","A2ZU1P6UYE1UBU","either","8","4140","","","","","","","0","1","0","","0.8","0.5","0.5","0.5","0.5","0.8","0.2","0.6","0.2","","","","","","","","","","","","","","72","H","0","img/none_selected.jpg","true","0","full_practice",""
"","bandit","52","330626","0.0-32.0-1.0","07278561","wem/bandit_party_1","A2ZU1P6UYE1UBU","either","8","397","","","","","","","0","0","1","","0.8","0.5","0.5","0.5","0.5","0.8","0.2","0.6","0.2","","","","","","","","","","","","","","72","H","0","img/none_selected.jpg","true","0","full_practice",""
"","bandit","53","332460","0.0-32.0-2.0","07278561","wem/bandit_party_1","A2ZU1P6UYE1UBU","either","8","326","","","","","","","1","0","0","0.8","","0.5","0.5","0.5","0.5","","","","","0.8","0.2","0.6","0.2","","","","","","","","","","72","H","0","img/none_selected.jpg","true","0","full_practice",""
"","bandit","54","334280","0.0-32.0-3.0","07278561","wem/bandit_party_1","A2ZU1P6UYE1UBU","either","8","311","","","","","","","0","1","0","","0.2","0.5","0.5","0.5","0.5","0.8","0.2","0.6","0.2","","","","","","","","","","","","","","74","J","1","","true","0","full_practice",""
"","bandit","55","336047","0.0-32.0-4.0","07278561","wem/bandit_party_1","A2ZU1P6UYE1UBU","either","8","250","","","","","","","1","0","0","0.6","","0.5","0.5","0.5","0.5","","","","","0.8","0.2","0.6","0.2","","","","","","","","","","75","K","2","","true","0","full_practice",""
"","bandit","56","337777","0.0-32.0-5.0","07278561","wem/bandit_party_1","A2ZU1P6UYE1UBU","either","8","214","","","","","","","0","0","1","0.2","","0.5","0.5","0.5","0.5","","","","","0.8","0.2","0.6","0.2","","","","","","","","","","74","J","1","","true","0","full_practice",""
"","bandit","57","339499","0.0-32.0-6.0","07278561","wem/bandit_party_1","A2ZU1P6UYE1UBU","either","8","179","","","","","","","0","0","1","0.2","","0.5","0.5","0.5","0.5","","","","","0.8","0.2","0.6","0.2","","","","","","","","","","76","L","3","","true","0","full_practice",""
"","bandit","58","341248","0.0-32.0-7.0","07278561","wem/bandit_party_1","A2ZU1P6UYE1UBU","either","8","240","","","","","","","0","0","1","","0.2","0.5","0.5","0.5","0.5","0.8","0.2","0.6","0.2","","","","","","","","","","","","","","76","L","3","","true","0","full_practice",""
"","bandit","59","342907","0.0-32.0-8.0","07278561","wem/bandit_party_1","A2ZU1P6UYE1UBU","either","8","151","","","","","","","0","0","1","","0.2","0.5","0.5","0.5","0.5","0.8","0.2","0.6","0.2","","","","","","","","","","","","","","76","L","3","","true","0","full_practice",""
"","bandit","60","344558","0.0-32.0-9.0","07278561","wem/bandit_party_1","A2ZU1P6UYE1UBU","either","8","142","","","","","","","0","1","0","","0.6","0.5","0.5","0.5","0.5","0.8","0.2","0.6","0.2","","","","","","","","","","","","","","75","K","2","","true","0","full_practice",""
"","bandit","61","346302","0.0-32.0-10.0","07278561","wem/bandit_party_1","A2ZU1P6UYE1UBU","either","8","218","","","","","","","0","0","1","","0.6","0.5","0.5","0.5","0.5","0.8","0.2","0.6","0.2","","","","","","","","","","","","","","75","K","2","","true","0","full_practice",""
"","bandit","62","347943","0.0-32.0-11.0","07278561","wem/bandit_party_1","A2ZU1P6UYE1UBU","either","8","132","","","","","","","0","1","0","","0.6","0.5","0.5","0.5","0.5","0.8","0.2","0.6","0.2","","","","","","","","","","","","","","75","K","2","","true","0","full_practice",""
"","bandit","63","349485","0.0-32.0-12.0","07278561","wem/bandit_party_1","A2ZU1P6UYE1UBU","either","8","33","","","","","","","0","0","1","0.6","","0.5","0.5","0.5","0.5","","","","","0.8","0.2","0.6","0.2","","","","","","","","","","75","K","2","","true","0","full_practice",""
"","bandit","64","351137","0.0-32.0-13.0","07278561","wem/bandit_party_1","A2ZU1P6UYE1UBU","either","8","143","","","","","","","0","0","1","0.6","","0.5","0.5","0.5","0.5","","","","","0.8","0.2","0.6","0.2","","","","","","","","","","75","K","2","","true","0","full_practice",""
"","bandit","65","352693","0.0-32.0-14.0","07278561","wem/bandit_party_1","A2ZU1P6UYE1UBU","either","8","42","","","","","","","0","0","1","0.2","","0.5","0.5","0.5","0.5","","","","","0.8","0.2","0.6","0.2","","","","","","","","","","74","J","1","","true","0","full_practice",""
"","bandit","66","354436","0.0-32.0-15.0","07278561","wem/bandit_party_1","A2ZU1P6UYE1UBU","either","8","192","","","","","","","0","1","0","","0.2","0.5","0.5","0.5","0.5","0.8","0.2","0.6","0.2","","","","","","","","","","","","","","74","J","1","","true","0","full_practice",""
"","bandit","67","356194","0.0-32.0-16.0","07278561","wem/bandit_party_1","A2ZU1P6UYE1UBU","either","8","245","","","","","","","0","0","1","0.2","","0.5","0.5","0.5","0.5","","","","","0.8","0.2","0.6","0.2","","","","","","","","","","74","J","1","","true","0","full_practice",""
"","bandit","68","357863","0.0-32.0-17.0","07278561","wem/bandit_party_1","A2ZU1P6UYE1UBU","either","8","158","","","","","","","0","1","0","","0.8","0.5","0.5","0.5","0.5","0.8","0.2","0.6","0.2","","","","","","","","","","","","","","72","H","0","img/none_selected.jpg","true","0","full_practice",""
"","bandit","69","359636","0.0-32.0-18.0","07278561","wem/bandit_party_1","A2ZU1P6UYE1UBU","either","8","262","","","","","","","0","1","0","","0.8","0.5","0.5","0.5","0.5","0.8","0.2","0.6","0.2","","","","","","","","","","","","","","72","H","0","img/none_selected.jpg","true","0","full_practice",""
"","bandit","70","361495","0.0-32.0-19.0","07278561","wem/bandit_party_1","A2ZU1P6UYE1UBU","either","8","325","","","","","","","0","0","1","0.8","","0.5","0.5","0.5","0.5","","","","","0.8","0.2","0.6","0.2","","","","","","","","","","72","H","0","img/none_selected.jpg","true","0","full_practice",""
"","text","71","364860","0.0-33.0","07278561","wem/bandit_party_1","A2ZU1P6UYE1UBU","either","8","3336","","","32","","","","","","","","","","","","","","","","","","","","","","","","","","","","","","","","","","","","",""
"","text-replacement","72","373624","0.0-34.0","07278561","wem/bandit_party_1","A2ZU1P6UYE1UBU","either","8","7759","","","32","","","","","","","","","","","","","","","","","","","","","","","","","","","","","","","","","","","","",""
"","text-replacement","73","376539","0.0-35.0","07278561","wem/bandit_party_1","A2ZU1P6UYE1UBU","either","8","2909","","","32","","","","","","","","","","","","","","","","","","","","","","","","","","","","","","","","","","","","",""
"","text-replacement","74","378793","0.0-36.0","07278561","wem/bandit_party_1","A2ZU1P6UYE1UBU","either","8","2248","","","32","","","","","","","","","","","","","","","","","","","","","","","","","","","","","","","","","","","","",""
"","text-replacement","75","384722","0.0-37.0","07278561","wem/bandit_party_1","A2ZU1P6UYE1UBU","either","8","5924","","","32","","","","","","","","","","","","","","","","","","","","","","","","","","","","","","","","","","","","",""
"","text-replacement","76","386275","0.0-38.0","07278561","wem/bandit_party_1","A2ZU1P6UYE1UBU","either","8","1547","","","32","","","","","","","","","","","","","","","","","","","","","","","","","","","","","","","","","","","","",""
"","survey-multi-choice-replacement","77","391014","0.0-39.0-0.0","07278561","wem/bandit_party_1","A2ZU1P6UYE1UBU","either","8","4719","","","","","","","","","","","","","","","","","","","","","","","","Money will be added to the pool for <span style='color:blue;'>DEMOCRATS</span>","","","","","","","attn_check","","","","","","","","","0"
"","survey-multi-choice-replacement","78","395814","0.0-40.0-0.0","07278561","wem/bandit_party_1","A2ZU1P6UYE1UBU","either","8","3771","","","","","","","","","","","","","","","","","","","","","","","","Equal amounts of money will be added to the pool for <span style='color:blue;'>DEMOCRATS</span> and subtracted from the pool for <span style='color:red;'>REPUBLICANS</span>","","","","","","","attn_check","","","","","","","","","2"
"","survey-multi-choice-replacement","79","400807","0.0-41.0-0.0","07278561","wem/bandit_party_1","A2ZU1P6UYE1UBU","either","8","3977","","","","","","","","","","","","","","","","","","","","","","","","No money will be added to either pool","","","","","","","attn_check","","","","","","","","","3"
"","bandit","80","405222","0.0-42.0-0.0","07278561","wem/bandit_party_1","A2ZU1P6UYE1UBU","either","8","1891","","","","","","","0","0","1","0.3540548627","","0.6","0.2","0.8","0.4","","","","","0.3540548627","0.1351790469","0.2928194041","0.2637293772","","","","","","","","","","72","H","0","img/none_selected.jpg","","1","main_expt",""
"","bandit","81","407175","0.0-43.0-0.0","07278561","wem/bandit_party_1","A2ZU1P6UYE1UBU","either","8","434","","","","","","","0","0","1","0.125602744","","0.6","0.2","0.8","0.4","","","","","0.3812516843","0.125602744","0.3040419902","0.2760013096","","","","","","","","","","74","J","1","","","2","main_expt",""
"","bandit","82","409398","0.0-44.0-0.0","07278561","wem/bandit_party_1","A2ZU1P6UYE1UBU","either","8","708","","","","","","","0","1","0","","0.09574082279","0.6","0.2","0.8","0.4","0.3901316494","0.09574082279","0.2875251023","0.3240499928","","","","","","","","","","","","","","74","J","1","","","3","main_expt",""
"","bandit","83","411395","0.0-45.0-0.0","07278561","wem/bandit_party_1","A2ZU1P6UYE1UBU","either","8","488","","","","","","","0","0","1","","0.0913382225","0.6","0.2","0.8","0.4","0.3945399471","0.0913382225","0.2965567903","0.3510822359","","","","","","","","","","","","","","74","J","1","","","4","main_expt",""
"","bandit","84","413290","0.0-46.0-0.0","07278561","wem/bandit_party_1","A2ZU1P6UYE1UBU","either","8","380","","","","","","","0","0","1","","0.2681113314","0.6","0.2","0.8","0.4","0.3997977613","0.106177601","0.2681113314","0.3522827721","","","","","","","","","","","","","","75","K","2","","","5","main_expt",""
"","bandit","85","415058","0.0-47.0-0.0","07278561","wem/bandit_party_1","A2ZU1P6UYE1UBU","either","8","256","","","","","","","0","0","1","0.382674005","","0.6","0.2","0.8","0.4","","","","","0.390783501","0.08998955495","0.2330443498","0.382674005","","","","","","","","","","76","L","3","","","6","main_expt",""
"","bandit","86","416941","0.0-48.0-0.0","07278561","wem/bandit_party_1","A2ZU1P6UYE1UBU","either","8","346","","","","","","","0","1","0","","0.3998463606","0.6","0.2","0.8","0.4","0.3305693427","0.1077526668","0.1630509172","0.3998463606","","","","","","","","","","","","","","76","L","3","","","7","main_expt",""
"","bandit","87","418867","0.0-49.0-0.0","07278561","wem/bandit_party_1","A2ZU1P6UYE1UBU","either","8","408","","","","","","","0","0","1","0.3832029687","","0.6","0.2","0.8","0.4","","","","","0.3056545716","0.1243697388","0.2002468685","0.3832029687","","","","","","","","","","76","L","3","","","8","main_expt",""
"","bandit","88","420598","0.0-50.0-0.0","07278561","wem/bandit_party_1","A2ZU1P6UYE1UBU","either","8","208","","","","","","","0","0","1","0.1835034381","","0.6","0.2","0.8","0.4","","","","","0.3278889804","0.1698108096","0.1835034381","0.3796681134","","","","","","","","","","75","K","2","","","9","main_expt",""
"","bandit","89","422399","0.0-51.0-0.0","07278561","wem/bandit_party_1","A2ZU1P6UYE1UBU","either","8","278","","","","","","","1","0","0","0.1939723001","","0.6","0.2","0.8","0.4","","","","","0.3137855556","0.221757114","0.1939723001","0.3614311416","","","","","","","","","","75","K","2","","","10","main_expt",""
"","bandit","90","424160","0.0-52.0-0.0","07278561","wem/bandit_party_1","A2ZU1P6UYE1UBU","either","8","247","","","","","","","1","0","0","0.3253079181","","0.6","0.2","0.8","0.4","","","","","0.3253079181","0.1961062924","0.1949806013","0.3938737051","","","","","","","","","","72","H","0","img/none_selected.jpg","","11","main_expt",""
"","bandit","91","425984","0.0-53.0-0.0","07278561","wem/bandit_party_1","A2ZU1P6UYE1UBU","either","8","309","","","","","","","0","0","1","","0.3298150516","0.6","0.2","0.8","0.4","0.3298150516","0.1907056259","0.2587943474","0.3810544723","","","","","","","","","","","","","","72","H","0","img/none_selected.jpg","","12","main_expt",""
"","bandit","92","427787","0.0-54.0-0.0","07278561","wem/bandit_party_1","A2ZU1P6UYE1UBU","either","8","291","","","","","","","0","0","1","","0.3673307406","0.6","0.2","0.8","0.4","0.3673307406","0.2162865666","0.3085985727","0.3707046684","","","","","","","","","","","","","","72","H","0","img/none_selected.jpg","","13","main_expt",""
"","bandit","93","429490","0.0-55.0-0.0","07278561","wem/bandit_party_1","A2ZU1P6UYE1UBU","either","8","194","","","","","","","0","0","1","","0.2399362825","0.6","0.2","0.8","0.4","0.3679224674","0.2399362825","0.2464992766","0.3486531997","","","","","","","","","","","","","","74","J","1","","","14","main_expt",""
"","bandit","94","431287","0.0-56.0-0.0","07278561","wem/bandit_party_1","A2ZU1P6UYE1UBU","either","8","287","","","","","","","0","0","1","","0.1986859052","0.6","0.2","0.8","0.4","0.3062507314","0.1986859052","0.2474611475","0.3263578384","","","","","","","","","","","","","","74","J","1","","","15","main_expt",""
"","bandit","95","432956","0.0-57.0-0.0","07278561","wem/bandit_party_1","A2ZU1P6UYE1UBU","either","8","159","","","","","","","0","0","1","0.2835538477","","0.6","0.2","0.8","0.4","","","","","0.2892976033","0.1865641621","0.2835538477","0.3514189979","","","","","","","","","","75","K","2","","","16","main_expt",""
"","bandit","96","434644","0.0-58.0-0.0","07278561","wem/bandit_party_1","A2ZU1P6UYE1UBU","either","8","177","","","","","","","0","1","0","","0.3532592314","0.6","0.2","0.8","0.4","0.2861796528","0.2035525071","0.3256112075","0.3532592314","","","","","","","","","","","","","","76","L","3","","","17","main_expt",""
"","bandit","97","436378","0.0-59.0-0.0","07278561","wem/bandit_party_1","A2ZU1P6UYE1UBU","either","8","218","","","","","","","0","0","1","0.3858608091","","0.6","0.2","0.8","0.4","","","","","0.2958570682","0.2039336531","0.3802227677","0.3858608091","","","","","","","","","","76","L","3","","","18","main_expt",""
"","bandit","98","438141","0.0-60.0-0.0","07278561","wem/bandit_party_1","A2ZU1P6UYE1UBU","either","8","251","","","","","","","1","0","0","0.360566968","","0.6","0.2","0.8","0.4","","","","","0.3353028819","0.1598579642","0.360566968","0.3837638756","","","","","","","","","","75","K","2","","","19","main_expt",""
"","bandit","99","439864","0.0-61.0-0.0","07278561","wem/bandit_party_1","A2ZU1P6UYE1UBU","either","8","213","","","","","","","0","0","1","0.3696799013","","0.6","0.2","0.8","0.4","","","","","0.3139704528","0.1437622327","0.3696799013","0.2872100501","","","","","","","","","","75","K","2","","","20","main_expt",""
"","bandit","100","441526","0.0-62.0-0.0","07278561","wem/bandit_party_1","A2ZU1P6UYE1UBU","either","8","152","","","","","","","0","0","1","","0.07974703335","0.6","0.2","0.8","0.4","0.2524707143","0.07974703335","0.4006907501","0.2975414498","","","","","","","","","","","","","","74","J","1","","","21","main_expt",""
"","bandit","101","443236","0.0-63.0-0.0","07278561","wem/bandit_party_1","A2ZU1P6UYE1UBU","either","8","187","","","","","","","1","0","0","0.4081217326","","0.6","0.2","0.8","0.4","","","","","0.248326021","0.1361132429","0.4081217326","0.2741965999","","","","","","","","","","75","K","2","","","22","main_expt",""
"","bandit","102","445049","0.0-64.0-0.0","07278561","wem/bandit_party_1","A2ZU1P6UYE1UBU","either","8","303","","","","","","","0","0","1","0.3740207531","","0.6","0.2","0.8","0.4","","","","","0.2937153481","0.1705973249","0.3740207531","0.2379064449","","","","","","","","","","75","K","2","","","23","main_expt",""
"","bandit","103","446730","0.0-65.0-0.0","07278561","wem/bandit_party_1","A2ZU1P6UYE1UBU","either","8","169","","","","","","","1","0","0","0.3913756451","","0.6","0.2","0.8","0.4","","","","","0.2625315469","0.1392759225","0.3913756451","0.2078598572","","","","","","","","","","75","K","2","","","24","main_expt",""
"","bandit","104","448495","0.0-66.0-0.0","07278561","wem/bandit_party_1","A2ZU1P6UYE1UBU","either","8","254","","","","","","","0","0","1","","0.1800538527","0.6","0.2","0.8","0.4","0.2405651368","0.1800538527","0.4100905738","0.2764850733","","","","","","","","","","","","","","74","J","1","","","25","main_expt",""
"","bandit","105","450241","0.0-67.0-0.0","07278561","wem/bandit_party_1","A2ZU1P6UYE1UBU","either","8","236","","","","","","","0","0","1","","0.2146400533","0.6","0.2","0.8","0.4","0.2503350336","0.2146400533","0.3600668969","0.3080191348","","","","","","","","","","","","","","74","J","1","","","26","main_expt",""
"","bandit","106","452124","0.0-68.0-0.0","07278561","wem/bandit_party_1","A2ZU1P6UYE1UBU","either","8","367","","","","","","","0","0","1","0.354091838","","0.6","0.2","0.8","0.4","","","","","0.354091838","0.1948367851","0.3703096079","0.3606197488","","","","","","","","","","72","H","0","img/none_selected.jpg","","27","main_expt",""
"","bandit","107","453809","0.0-69.0-0.0","07278561","wem/bandit_party_1","A2ZU1P6UYE1UBU","either","8","169","","","","","","","0","0","1","0.3419366675","","0.6","0.2","0.8","0.4","","","","","0.3419366675","0.2282666016","0.3527269899","0.3696097963","","","","","","","","","","72","H","0","img/none_selected.jpg","","28","main_expt",""
"","bandit","108","455460","0.0-70.0-0.0","07278561","wem/bandit_party_1","A2ZU1P6UYE1UBU","either","8","141","","","","","","","0","0","1","","0.3434444954","0.6","0.2","0.8","0.4","0.361896517","0.1842618798","0.2854860911","0.3434444954","","","","","","","","","","","","","","76","L","3","","","29","main_expt",""
"","bandit","109","457093","0.0-71.0-0.0","07278561","wem/bandit_party_1","A2ZU1P6UYE1UBU","either","8","121","","","","","","","0","0","1","","0.2971434158","0.6","0.2","0.8","0.4","0.3701160785","0.1930267653","0.2971434158","0.3528183973","","","","","","","","","","","","","","75","K","2","","","30","main_expt",""
"","bandit","110","458777","0.0-72.0-0.0","07278561","wem/bandit_party_1","A2ZU1P6UYE1UBU","either","8","147","","","","","","","0","0","1","0.2279264959","","0.6","0.2","0.8","0.4","","","","","0.3602312343","0.2279264959","0.3192935598","0.3436926249","","","","","","","","","","74","J","1","","","31","main_expt",""
"","bandit","111","460386","0.0-73.0-0.0","07278561","wem/bandit_party_1","A2ZU1P6UYE1UBU","either","8","88","","","","","","","0","0","1","","0.1922668126","0.6","0.2","0.8","0.4","0.3550043818","0.1922668126","0.2910845839","0.3392376576","","","","","","","","","","","","","","74","J","1","","","32","main_expt",""
"","bandit","112","462088","0.0-74.0-0.0","07278561","wem/bandit_party_1","A2ZU1P6UYE1UBU","either","8","183","","","","","","","0","0","1","","0.3927862597","0.6","0.2","0.8","0.4","0.3927862597","0.1503247695","0.2956883229","0.2524106513","","","","","","","","","","","","","","72","H","0","img/none_selected.jpg","","33","main_expt",""
"","bandit","113","463693","0.0-75.0-0.0","07278561","wem/bandit_party_1","A2ZU1P6UYE1UBU","either","8","85","","","","","","","0","0","1","","0.2378308988","0.6","0.2","0.8","0.4","0.4185963197","0.1875072744","0.2918182698","0.2378308988","","","","","","","","","","","","","","76","L","3","","","34","main_expt",""
"","bandit","114","465497","0.0-76.0-0.0","07278561","wem/bandit_party_1","A2ZU1P6UYE1UBU","either","8","279","","","","","","","1","0","0","0.3063909307","","0.6","0.2","0.8","0.4","","","","","0.441983755","0.2135507624","0.3063909307","0.2683654211","","","","","","","","","","75","K","2","","","35","main_expt",""
"","bandit","115","467329","0.0-77.0-0.0","07278561","wem/bandit_party_1","A2ZU1P6UYE1UBU","either","8","313","","","","","","","0","0","1","0.2820805085","","0.6","0.2","0.8","0.4","","","","","0.4352827683","0.2042402853","0.2820805085","0.2645223933","","","","","","","","","","75","K","2","","","36","main_expt",""
"","bandit","116","469011","0.0-78.0-0.0","07278561","wem/bandit_party_1","A2ZU1P6UYE1UBU","either","8","157","","","","","","","0","1","0","","0.2024605481","0.6","0.2","0.8","0.4","0.450520142","0.2024605481","0.2610370824","0.2360561858","","","","","","","","","","","","","","74","J","1","","","37","main_expt",""
"","bandit","117","470799","0.0-79.0-0.0","07278561","wem/bandit_party_1","A2ZU1P6UYE1UBU","either","8","269","","","","","","","0","0","1","","0.1677713785","0.6","0.2","0.8","0.4","0.4681224698","0.1677713785","0.1896233007","0.2001865083","","","","","","","","","","","","","","74","J","1","","","38","main_expt",""
"","bandit","118","472433","0.0-80.0-0.0","07278561","wem/bandit_party_1","A2ZU1P6UYE1UBU","either","8","117","","","","","","","0","0","1","0.4711022053","","0.6","0.2","0.8","0.4","","","","","0.4711022053","0.221779122","0.168851025","0.1687915361","","","","","","","","","","72","H","0","img/none_selected.jpg","","39","main_expt",""
"","bandit","119","474175","0.0-81.0-0.0","07278561","wem/bandit_party_1","A2ZU1P6UYE1UBU","either","8","226","","","","","","","0","1","0","","0.4559447699","0.6","0.2","0.8","0.4","0.4559447699","0.2722397218","0.1615787635","0.1503151413","","","","","","","","","","","","","","72","H","0","img/none_selected.jpg","","40","main_expt",""
"","bandit","120","475945","0.0-82.0-0.0","07278561","wem/bandit_party_1","A2ZU1P6UYE1UBU","either","8","257","","","","","","","0","1","0","","0.4412687596","0.6","0.2","0.8","0.4","0.4412687596","0.3298230943","0.1472326003","0.08168262283","","","","","","","","","","","","","","72","H","0","img/none_selected.jpg","","41","main_expt",""
"","bandit","121","477580","0.0-83.0-0.0","07278561","wem/bandit_party_1","A2ZU1P6UYE1UBU","either","8","123","","","","","","","1","0","0","0.4457751761","","0.6","0.2","0.8","0.4","","","","","0.4457751761","0.3104885444","0.1533480506","0.07668629145","","","","","","","","","","72","H","0","img/none_selected.jpg","","42","main_expt",""
"","bandit","122","479247","0.0-84.0-0.0","07278561","wem/bandit_party_1","A2ZU1P6UYE1UBU","either","8","136","","","","","","","0","0","1","","0.3005355489","0.6","0.2","0.8","0.4","0.4298378352","0.3005355489","0.1414351437","0.07394587158","","","","","","","","","","","","","","74","J","1","","","43","main_expt",""
"","bandit","123","481160","0.0-85.0-0.0","07278561","wem/bandit_party_1","A2ZU1P6UYE1UBU","either","8","396","","","","","","","0","0","1","0.1067646429","","0.6","0.2","0.8","0.4","","","","","0.4416915379","0.2456242138","0.1067646429","0.1192337685","","","","","","","","","","75","K","2","","","44","main_expt",""
"","bandit","124","482955","0.0-86.0-0.0","07278561","wem/bandit_party_1","A2ZU1P6UYE1UBU","either","8","280","","","","","","","1","0","0","0.3915522423","","0.6","0.2","0.8","0.4","","","","","0.3915522423","0.2839901561","0.1250796286","0.1285724119","","","","","","","","","","72","H","0","img/none_selected.jpg","","45","main_expt",""
"","bandit","125","484727","0.0-87.0-0.0","07278561","wem/bandit_party_1","A2ZU1P6UYE1UBU","either","8","258","","","","","","","0","0","1","0.4318427431","","0.6","0.2","0.8","0.4","","","","","0.4318427431","0.2353621531","0.1927264636","0.1112684106","","","","","","","","","","72","H","0","img/none_selected.jpg","","46","main_expt",""
"","bandit","126","486485","0.0-88.0-0.0","07278561","wem/bandit_party_1","A2ZU1P6UYE1UBU","either","8","216","","","","","","","0","0","1","0.1804488412","","0.6","0.2","0.8","0.4","","","","","0.4395998441","0.2405257196","0.1804488412","0.1207340475","","","","","","","","","","75","K","2","","","47","main_expt",""
"","bandit","127","488423","0.0-89.0-0.0","07278561","wem/bandit_party_1","A2ZU1P6UYE1UBU","either","8","425","","","","","","","0","0","1","","0.2629408555","0.6","0.2","0.8","0.4","0.4630443269","0.2629408555","0.168268176","0.1182533935","","","","","","","","","","","","","","74","J","1","","","48","main_expt",""
"","bandit","128","490301","0.0-90.0-0.0","07278561","wem/bandit_party_1","A2ZU1P6UYE1UBU","either","8","357","","","","","","","0","0","1","","0.2902453213","0.6","0.2","0.8","0.4","0.4794982466","0.2902453213","0.1466838001","0.1460801474","","","","","","","","","","","","","","74","J","1","","","49","main_expt",""
"","bandit","129","492227","0.0-91.0-0.0","07278561","wem/bandit_party_1","A2ZU1P6UYE1UBU","either","8","400","","","","","","","0","0","1","","0.3033715012","0.6","0.2","0.8","0.4","0.4562783041","0.3033715012","0.1336340117","0.1765155983","","","","","","","","","","","","","","74","J","1","","","50","main_expt",""
"","bandit","130","494005","0.0-92.0-0.0","07278561","wem/bandit_party_1","A2ZU1P6UYE1UBU","either","8","269","","","","","","","0","0","1","0.1067821754","","0.6","0.2","0.8","0.4","","","","","0.4515646323","0.3536831403","0.1067821754","0.1614266163","","","","","","","","","","75","K","2","","","51","main_expt",""
"","bandit","131","495871","0.0-93.0-0.0","07278561","wem/bandit_party_1","A2ZU1P6UYE1UBU","either","8","352","","","","","","","0","0","1","","0.07294577227","0.6","0.2","0.8","0.4","0.4344137529","0.3058792917","0.07294577227","0.1938643747","","","","","","","","","","","","","","75","K","2","","","52","main_expt",""
"","bandit","132","497666","0.0-94.0-0.0","07278561","wem/bandit_party_1","A2ZU1P6UYE1UBU","either","8","280","","","","","","","0","1","0","","0.1721886996","0.6","0.2","0.8","0.4","0.4421766306","0.3466820038","0.07676454597","0.1721886996","","","","","","","","","","","","","","76","L","3","","","53","main_expt",""
"","bandit","133","499644","0.0-95.0-0.0","07278561","wem/bandit_party_1","A2ZU1P6UYE1UBU","either","8","397","","","","","","","0","0","1","0.1542880765","","0.6","0.2","0.8","0.4","","","","","0.4591875032","0.3159173384","0.07707135067","0.1542880765","","","","","","","","","","76","L","3","","","54","main_expt",""
"","bandit","134","501560","0.0-96.0-0.0","07278561","wem/bandit_party_1","A2ZU1P6UYE1UBU","either","8","372","","","","","","","0","0","1","","0.2155598061","0.6","0.2","0.8","0.4","0.4455250987","0.3205246683","0.08227932488","0.2155598061","","","","","","","","","","","","","","76","L","3","","","55","main_expt",""
"","bandit","135","503397","0.0-97.0-0.0","07278561","wem/bandit_party_1","A2ZU1P6UYE1UBU","either","8","310","","","","","","","1","0","0","0.199350645","","0.6","0.2","0.8","0.4","","","","","0.4200701886","0.3067659888","0.09013031375","0.199350645","","","","","","","","","","76","L","3","","","56","main_expt",""
"","bandit","136","505164","0.0-98.0-0.0","07278561","wem/bandit_party_1","A2ZU1P6UYE1UBU","either","8","230","","","","","","","0","0","1","","0.1991981904","0.6","0.2","0.8","0.4","0.3635567377","0.3786279545","0.106866739","0.1991981904","","","","","","","","","","","","","","76","L","3","","","57","main_expt",""
"","bandit","137","506809","0.0-99.0-0.0","07278561","wem/bandit_party_1","A2ZU1P6UYE1UBU","either","8","131","","","","","","","0","0","1","","0.1307276253","0.6","0.2","0.8","0.4","0.3647217687","0.3796022377","0.0915584437","0.1307276253","","","","","","","","","","","","","","76","L","3","","","58","main_expt",""
"","bandit","138","508472","0.0-100.0-0.0","07278561","wem/bandit_party_1","A2ZU1P6UYE1UBU","either","8","149","","","","","","","0","0","1","0.1540949786","","0.6","0.2","0.8","0.4","","","","","0.3975499765","0.3570845549","0.1036540812","0.1540949786","","","","","","","","","","76","L","3","","","59","main_expt",""
"","bandit","139","510246","0.0-101.0-0.0","07278561","wem/bandit_party_1","A2ZU1P6UYE1UBU","either","8","237","","","","","","","1","0","0","0.376383165","","0.6","0.2","0.8","0.4","","","","","0.376383165","0.398525789","0.07948280662","0.1187181044","","","","","","","","","","72","H","0","img/none_selected.jpg","","60","main_expt",""
"","bandit","140","511809","0.0-102.0-0.0","07278561","wem/bandit_party_1","A2ZU1P6UYE1UBU","either","8","54","","","","","","","0","0","1","","0.3384437455","0.6","0.2","0.8","0.4","0.3384437455","0.380986593","0.0685056185","0.1734870435","","","","","","","","","","","","","","72","H","0","img/none_selected.jpg","","61","main_expt",""
"","bandit","141","513696","0.0-103.0-0.0","07278561","wem/bandit_party_1","A2ZU1P6UYE1UBU","either","8","376","","","","","","","0","0","1","","0.3086389155","0.6","0.2","0.8","0.4","0.3086389155","0.3928002855","0.04196312691","0.2056999461","","","","","","","","","","","","","","72","H","0","img/none_selected.jpg","","62","main_expt",""
"","bandit","142","515400","0.0-104.0-0.0","07278561","wem/bandit_party_1","A2ZU1P6UYE1UBU","either","8","186","","","","","","","0","0","1","","0.3098998428","0.6","0.2","0.8","0.4","0.3098998428","0.4097838671","0.06524357318","0.2421495796","","","","","","","","","","","","","","72","H","0","img/none_selected.jpg","","63","main_expt",""
"","bandit","143","517003","0.0-105.0-0.0","07278561","wem/bandit_party_1","A2ZU1P6UYE1UBU","either","8","90","","","","","","","0","0","1","","0.3942475769","0.6","0.2","0.8","0.4","0.2859800092","0.3942475769","0.04599317762","0.2678986655","","","","","","","","","","","","","","74","J","1","","","64","main_expt",""
"","bandit","144","518720","0.0-106.0-0.0","07278561","wem/bandit_party_1","A2ZU1P6UYE1UBU","either","8","205","","","","","","","0","0","1","","0.3756823908","0.6","0.2","0.8","0.4","0.2780623804","0.3756823908","0.04738713632","0.2780805564","","","","","","","","","","","","","","74","J","1","","","65","main_expt",""
"","bandit","145","520456","0.0-107.0-0.0","07278561","wem/bandit_party_1","A2ZU1P6UYE1UBU","either","8","216","","","","","","","0","1","0","","0.3780323226","0.6","0.2","0.8","0.4","0.2740889186","0.3780323226","0.02873144913","0.2923516192","","","","","","","","","","","","","","74","J","1","","","66","main_expt",""
"","bandit","146","522317","0.0-108.0-0.0","07278561","wem/bandit_party_1","A2ZU1P6UYE1UBU","either","8","348","","","","","","","0","1","0","","0.382091886","0.6","0.2","0.8","0.4","0.3122756929","0.382091886","0.0355516853","0.3481747094","","","","","","","","","","","","","","74","J","1","","","67","main_expt",""
"","bandit","147","524234","0.0-109.0-0.0","07278561","wem/bandit_party_1","A2ZU1P6UYE1UBU","either","8","398","","","","","","","0","0","1","","0.4080562953","0.6","0.2","0.8","0.4","0.3004294993","0.4080562953","0.04483006882","0.3540590834","","","","","","","","","","","","","","74","J","1","","","68","main_expt",""
"","bandit","148","526055","0.0-110.0-0.0","07278561","wem/bandit_party_1","A2ZU1P6UYE1UBU","either","8","288","","","","","","","0","1","0","","0.419826639","0.6","0.2","0.8","0.4","0.3312842332","0.419826639","0.04300650393","0.3348318208","","","","","","","","","","","","","","74","J","1","","","69","main_expt",""
"","bandit","149","528036","0.0-111.0-0.0","07278561","wem/bandit_party_1","A2ZU1P6UYE1UBU","either","8","467","","","","","","","1","0","0","0.3889643965","","0.6","0.2","0.8","0.4","","","","","0.2362018798","0.3889643965","0.03960880855","0.3844983113","","","","","","","","","","74","J","1","","","70","main_expt",""
"","bandit","150","529780","0.0-112.0-0.0","07278561","wem/bandit_party_1","A2ZU1P6UYE1UBU","either","8","227","","","","","","","0","1","0","","0.3492343966","0.6","0.2","0.8","0.4","0.1838323472","0.3492343966","0.02401392238","0.3753843975","","","","","","","","","","","","","","74","J","1","","","71","main_expt",""
"","bandit","151","531641","0.0-113.0-0.0","07278561","wem/bandit_party_1","A2ZU1P6UYE1UBU","either","8","338","","","","","","","0","1","0","","0.3502155883","0.6","0.2","0.8","0.4","0.1749810972","0.3502155883","0.008756159955","0.3861429343","","","","","","","","","","","","","","74","J","1","","","72","main_expt",""
"","bandit","152","533546","0.0-114.0-0.0","07278561","wem/bandit_party_1","A2ZU1P6UYE1UBU","either","8","384","","","","","","","0","1","0","","0.3568691787","0.6","0.2","0.8","0.4","0.1664097112","0.3568691787","0.006257651783","0.3978436086","","","","","","","","","","","","","","74","J","1","","","73","main_expt",""
"","bandit","153","535460","0.0-115.0-0.0","07278561","wem/bandit_party_1","A2ZU1P6UYE1UBU","either","8","395","","","","","","","1","0","0","0.3303653739","","0.6","0.2","0.8","0.4","","","","","0.2001176207","0.3303653739","0.004732084297","0.3847979518","","","","","","","","","","74","J","1","","","74","main_expt",""
"","bandit","154","537385","0.0-116.0-0.0","07278561","wem/bandit_party_1","A2ZU1P6UYE1UBU","either","8","405","","","","","","","1","0","0","0.3353283381","","0.6","0.2","0.8","0.4","","","","","0.1848717924","0.3353283381","0.006967558871","0.3974319157","","","","","","","","","","74","J","1","","","75","main_expt",""
"","bandit","155","539430","0.0-117.0-0.0","07278561","wem/bandit_party_1","A2ZU1P6UYE1UBU","either","8","512","","","","","","","0","0","1","","0.3009524994","0.6","0.2","0.8","0.4","0.1510178238","0.3009524994","0.004525860487","0.3987985884","","","","","","","","","","","","","","74","J","1","","","76","main_expt",""
"","bandit","156","541299","0.0-118.0-0.0","07278561","wem/bandit_party_1","A2ZU1P6UYE1UBU","either","8","355","","","","","","","0","0","1","0.3316028908","","0.6","0.2","0.8","0.4","","","","","0.2089633591","0.3316028908","0.007245535115","0.4127312768","","","","","","","","","","74","J","1","","","77","main_expt",""
"","bandit","157","543165","0.0-119.0-0.0","07278561","wem/bandit_party_1","A2ZU1P6UYE1UBU","either","8","353","","","","","","","0","0","1","","0.3571024926","0.6","0.2","0.8","0.4","0.2285147345","0.3571024926","0.00483057751","0.4257675477","","","","","","","","","","","","","","74","J","1","","","78","main_expt",""
"","bandit","158","544810","0.0-120.0-0.0","07278561","wem/bandit_party_1","A2ZU1P6UYE1UBU","either","8","124","","","","","","","1","0","0","0.2246975601","","0.6","0.2","0.8","0.4","","","","","0.2246975601","0.3542776451","0.005956317848","0.4331167668","","","","","","","","","","72","H","0","img/none_selected.jpg","","79","main_expt",""
"","bandit","159","546624","0.0-121.0-0.0","07278561","wem/bandit_party_1","A2ZU1P6UYE1UBU","either","8","282","","","","","","","0","0","1","","0.1878766281","0.6","0.2","0.8","0.4","0.1878766281","0.3201174307","0.0076590047","0.4294395537","","","","","","","","","","","","","","72","H","0","img/none_selected.jpg","","80","main_expt",""
"","bandit","160","548495","0.0-122.0-0.0","07278561","wem/bandit_party_1","A2ZU1P6UYE1UBU","either","8","355","","","","","","","0","1","0","","0.2436254364","0.6","0.2","0.8","0.4","0.2436254364","0.3503003334","0.009115568074","0.4234249918","","","","","","","","","","","","","","72","H","0","img/none_selected.jpg","","81","main_expt",""
"","bandit","161","550414","0.0-123.0-0.0","07278561","wem/bandit_party_1","A2ZU1P6UYE1UBU","either","8","374","","","","","","","1","0","0","0.2627531714","","0.6","0.2","0.8","0.4","","","","","0.2627531714","0.3509066846","0.01382977225","0.3956977209","","","","","","","","","","72","H","0","img/none_selected.jpg","","82","main_expt",""
"","bandit","162","552208","0.0-124.0-0.0","07278561","wem/bandit_party_1","A2ZU1P6UYE1UBU","either","8","264","","","","","","","0","0","1","","0.2672212524","0.6","0.2","0.8","0.4","0.2672212524","0.3951868033","0.01500629599","0.4248650233","","","","","","","","","","","","","","72","H","0","img/none_selected.jpg","","83","main_expt",""
"","bandit","163","554048","0.0-125.0-0.0","07278561","wem/bandit_party_1","A2ZU1P6UYE1UBU","either","8","319","","","","","","","0","1","0","","0.2817484998","0.6","0.2","0.8","0.4","0.2817484998","0.4131477378","0.02310127573","0.4196907627","","","","","","","","","","","","","","72","H","0","img/none_selected.jpg","","84","main_expt",""
"","bandit","164","555945","0.0-126.0-0.0","07278561","wem/bandit_party_1","A2ZU1P6UYE1UBU","either","8","367","","","","","","","0","0","1","0.3074775227","","0.6","0.2","0.8","0.4","","","","","0.3074775227","0.3889697292","0.02639065846","0.435633498","","","","","","","","","","72","H","0","img/none_selected.jpg","","85","main_expt",""
"","bandit","165","557823","0.0-127.0-0.0","07278561","wem/bandit_party_1","A2ZU1P6UYE1UBU","either","8","350","","","","","","","0","0","1","0.2717847629","","0.6","0.2","0.8","0.4","","","","","0.2717847629","0.3885636443","0.01746441632","0.4322222521","","","","","","","","","","72","H","0","img/none_selected.jpg","","86","main_expt",""
"","bandit","166","559588","0.0-128.0-0.0","07278561","wem/bandit_party_1","A2ZU1P6UYE1UBU","either","8","244","","","","","","","0","1","0","","0.2183858348","0.6","0.2","0.8","0.4","0.2183858348","0.4028282504","0.01256144444","0.4476119451","","","","","","","","","","","","","","72","H","0","img/none_selected.jpg","","87","main_expt",""
"","bandit","167","561553","0.0-129.0-0.0","07278561","wem/bandit_party_1","A2ZU1P6UYE1UBU","either","8","448","","","","","","","0","0","1","0.2054961256","","0.6","0.2","0.8","0.4","","","","","0.2054961256","0.4306890759","0.01178158386","0.4073123198","","","","","","","","","","72","H","0","img/none_selected.jpg","","88","main_expt",""
"","bandit","168","563408","0.0-130.0-0.0","07278561","wem/bandit_party_1","A2ZU1P6UYE1UBU","either","8","341","","","","","","","0","0","1","0.1452714398","","0.6","0.2","0.8","0.4","","","","","0.1452714398","0.4103738654","0.008722555822","0.3862301724","","","","","","","","","","72","H","0","img/none_selected.jpg","","89","main_expt",""
"","bandit","169","565298","0.0-131.0-0.0","07278561","wem/bandit_party_1","A2ZU1P6UYE1UBU","either","8","371","","","","","","","0","0","1","0.1077779513","","0.6","0.2","0.8","0.4","","","","","0.1077779513","0.3980827974","0.008232471735","0.3596745144","","","","","","","","","","72","H","0","img/none_selected.jpg","","90","main_expt",""
"","bandit","170","566945","0.0-132.0-0.0","07278561","wem/bandit_party_1","A2ZU1P6UYE1UBU","either","8","133","","","","","","","0","0","1","","0.1308407065","0.6","0.2","0.8","0.4","0.1308407065","0.4040531024","0.01249180717","0.3082854458","","","","","","","","","","","","","","72","H","0","img/none_selected.jpg","","91","main_expt",""
"","bandit","171","568506","0.0-133.0-0.0","07278561","wem/bandit_party_1","A2ZU1P6UYE1UBU","either","8","42","","","","","","","0","1","0","","0.3462944796","0.6","0.2","0.8","0.4","0.1652322036","0.3462944796","0.01470986316","0.312225492","","","","","","","","","","","","","","74","J","1","","","92","main_expt",""
"","bandit","172","570280","0.0-134.0-0.0","07278561","wem/bandit_party_1","A2ZU1P6UYE1UBU","either","8","247","","","","","","","0","0","1","0.3411451966","","0.6","0.2","0.8","0.4","","","","","0.1344678182","0.3411451966","0.02655281846","0.3671658277","","","","","","","","","","74","J","1","","","93","main_expt",""
"","bandit","173","572124","0.0-135.0-0.0","07278561","wem/bandit_party_1","A2ZU1P6UYE1UBU","either","8","317","","","","","","","0","1","0","","0.3384154489","0.6","0.2","0.8","0.4","0.1301314301","0.3384154489","0.02575246025","0.3401731108","","","","","","","","","","","","","","74","J","1","","","94","main_expt",""
"","bandit","174","573883","0.0-136.0-0.0","07278561","wem/bandit_party_1","A2ZU1P6UYE1UBU","either","8","234","","","","","","","0","0","1","","0.3126988266","0.6","0.2","0.8","0.4","0.1746055711","0.3126988266","0.02262355665","0.3413923724","","","","","","","","","","","","","","74","J","1","","","95","main_expt",""
"","bandit","175","575653","0.0-137.0-0.0","07278561","wem/bandit_party_1","A2ZU1P6UYE1UBU","either","8","247","","","","","","","0","0","1","","0.3800019137","0.6","0.2","0.8","0.4","0.1994244555","0.3800019137","0.02047181149","0.3570420485","","","","","","","","","","","","","","74","J","1","","","96","main_expt",""
"","bandit","176","577589","0.0-138.0-0.0","07278561","wem/bandit_party_1","A2ZU1P6UYE1UBU","either","8","421","","","","","","","0","0","1","","0.3328121005","0.6","0.2","0.8","0.4","0.1834602947","0.3328121005","0.0207754381","0.3435474977","","","","","","","","","","","","","","74","J","1","","","97","main_expt",""
"","bandit","177","579488","0.0-139.0-0.0","07278561","wem/bandit_party_1","A2ZU1P6UYE1UBU","either","8","358","","","","","","","0","0","1","","0.332228596","0.6","0.2","0.8","0.4","0.1719221531","0.332228596","0.02955834597","0.3614714926","","","","","","","","","","","","","","74","J","1","","","98","main_expt",""
"","bandit","178","581277","0.0-140.0-0.0","07278561","wem/bandit_party_1","A2ZU1P6UYE1UBU","either","8","268","","","","","","","0","0","1","0.1183399241","","0.6","0.2","0.8","0.4","","","","","0.1183399241","0.2843854285","0.0383131093","0.3176405447","","","","","","","","","","72","H","0","img/none_selected.jpg","","99","main_expt",""
"","bandit","179","583033","0.0-141.0-0.0","07278561","wem/bandit_party_1","A2ZU1P6UYE1UBU","either","8","220","","","","","","","0","0","1","0.03580757471","","0.6","0.2","0.8","0.4","","","","","0.1558635017","0.309751149","0.03580757471","0.3586553183","","","","","","","","","","75","K","2","","","100","main_expt",""
"","bandit","180","584831","0.0-142.0-0.0","07278561","wem/bandit_party_1","A2ZU1P6UYE1UBU","either","8","266","","","","","","","0","0","1","","0.2993195944","0.6","0.2","0.8","0.4","0.1389665978","0.2993195944","0.04899620691","0.2951503345","","","","","","","","","","","","","","74","J","1","","","101","main_expt",""
"","bandit","181","586571","0.0-143.0-0.0","07278561","wem/bandit_party_1","A2ZU1P6UYE1UBU","either","8","218","","","","","","","1","0","0","0.2998391809","","0.6","0.2","0.8","0.4","","","","","0.1377203561","0.3551890872","0.08055650644","0.2998391809","","","","","","","","","","76","L","3","","","102","main_expt",""
"","bandit","182","588449","0.0-144.0-0.0","07278561","wem/bandit_party_1","A2ZU1P6UYE1UBU","either","8","354","","","","","","","0","0","1","","0.2791823827","0.6","0.2","0.8","0.4","0.1285548106","0.3148404956","0.1040447627","0.2791823827","","","","","","","","","","","","","","76","L","3","","","103","main_expt",""
"","bandit","183","590579","0.0-145.0-0.0","07278561","wem/bandit_party_1","A2ZU1P6UYE1UBU","either","8","599","","","","","","","0","0","1","","0.3382769334","0.6","0.2","0.8","0.4","0.1555523735","0.3286912191","0.1143547335","0.3382769334","","","","","","","","","","","","","","76","L","3","","","104","main_expt",""
"","bandit","184","592742","0.0-146.0-0.0","07278561","wem/bandit_party_1","A2ZU1P6UYE1UBU","either","8","636","","","","","","","0","0","1","0.1487676438","","0.6","0.2","0.8","0.4","","","","","0.1775592141","0.298340497","0.1487676438","0.3339697125","","","","","","","","","","75","K","2","","","105","main_expt",""
"","bandit","185","594714","0.0-147.0-0.0","07278561","wem/bandit_party_1","A2ZU1P6UYE1UBU","either","8","446","","","","","","","0","0","1","0.152088545","","0.6","0.2","0.8","0.4","","","","","0.2263451353","0.3504464386","0.152088545","0.3124129253","","","","","","","","","","75","K","2","","","106","main_expt",""
"","bandit","186","596494","0.0-148.0-0.0","07278561","wem/bandit_party_1","A2ZU1P6UYE1UBU","either","8","264","","","","","","","1","0","0","0.2406734145","","0.6","0.2","0.8","0.4","","","","","0.1679769802","0.3510410077","0.2406734145","0.3400683723","","","","","","","","","","75","K","2","","","107","main_expt",""
"","bandit","187","598826","0.0-149.0-0.0","07278561","wem/bandit_party_1","A2ZU1P6UYE1UBU","either","8","813","","","","","","","0","0","1","0.3048040024","","0.6","0.2","0.8","0.4","","","","","0.1999870147","0.3282766846","0.3048040024","0.3557340834","","","","","","","","","","75","K","2","","","108","main_expt",""
"","bandit","188","601237","0.0-150.0-0.0","07278561","wem/bandit_party_1","A2ZU1P6UYE1UBU","either","8","888","","","","","","","0","0","1","","0.3418503096","0.6","0.2","0.8","0.4","0.208992856","0.3561186451","0.3418503096","0.3846418901","","","","","","","","","","","","","","75","K","2","","","109","main_expt",""
"","bandit","189","603862","0.0-151.0-0.0","07278561","wem/bandit_party_1","A2ZU1P6UYE1UBU","either","8","1108","","","","","","","0","0","1","","0.3576445865","0.6","0.2","0.8","0.4","0.1716040471","0.3576445865","0.3198501315","0.4057962062","","","","","","","","","","","","","","74","J","1","","","110","main_expt",""
"","bandit","190","605697","0.0-152.0-0.0","07278561","wem/bandit_party_1","A2ZU1P6UYE1UBU","either","8","310","","","","","","","0","1","0","","0.3681534847","0.6","0.2","0.8","0.4","0.08984071331","0.3377543854","0.3681534847","0.3692451483","","","","","","","","","","","","","","75","K","2","","","111","main_expt",""
"","bandit","191","607429","0.0-153.0-0.0","07278561","wem/bandit_party_1","A2ZU1P6UYE1UBU","either","8","211","","","","","","","0","0","1","0.3757830796","","0.6","0.2","0.8","0.4","","","","","0.1243463141","0.286234052","0.3757830796","0.3577317973","","","","","","","","","","75","K","2","","","112","main_expt",""
"","bandit","192","610381","0.0-154.0-0.0","07278561","wem/bandit_party_1","A2ZU1P6UYE1UBU","either","8","1434","","","","","","","0","0","1","0.3838999828","","0.6","0.2","0.8","0.4","","","","","0.1433440675","0.1932674395","0.3838999828","0.3328808086","","","","","","","","","","75","K","2","","","113","main_expt",""
"","bandit","193","612632","0.0-155.0-0.0","07278561","wem/bandit_party_1","A2ZU1P6UYE1UBU","either","8","709","","","","","","","1","0","0","0.4157938717","","0.6","0.2","0.8","0.4","","","","","0.1510662198","0.2403040534","0.4157938717","0.3416979579","","","","","","","","","","75","K","2","","","114","main_expt",""
"","bandit","194","615111","0.0-156.0-0.0","07278561","wem/bandit_party_1","A2ZU1P6UYE1UBU","either","8","947","","","","","","","0","0","1","0.4055870595","","0.6","0.2","0.8","0.4","","","","","0.09845245139","0.254937398","0.4055870595","0.3377137281","","","","","","","","","","75","K","2","","","115","main_expt",""
"","bandit","195","617555","0.0-157.0-0.0","07278561","wem/bandit_party_1","A2ZU1P6UYE1UBU","either","8","925","","","","","","","0","0","1","","0.107393795","0.6","0.2","0.8","0.4","0.107393795","0.2605063941","0.4161015278","0.3039448029","","","","","","","","","","","","","","72","H","0","img/none_selected.jpg","","116","main_expt",""
"","bandit","196","619376","0.0-158.0-0.0","07278561","wem/bandit_party_1","A2ZU1P6UYE1UBU","either","8","307","","","","","","","0","0","1","0.07879800556","","0.6","0.2","0.8","0.4","","","","","0.07879800556","0.2161328783","0.414877819","0.2974336912","","","","","","","","","","72","H","0","img/none_selected.jpg","","117","main_expt",""
"","bandit","197","621298","0.0-159.0-0.0","07278561","wem/bandit_party_1","A2ZU1P6UYE1UBU","either","8","400","","","","","","","0","0","1","0.08383735875","","0.6","0.2","0.8","0.4","","","","","0.08383735875","0.1931197841","0.3968259953","0.2651867246","","","","","","","","","","72","H","0","img/none_selected.jpg","","118","main_expt",""
"","bandit","198","623065","0.0-160.0-0.0","07278561","wem/bandit_party_1","A2ZU1P6UYE1UBU","either","8","250","","","","","","","0","0","1","","0.1392474383","0.6","0.2","0.8","0.4","0.1392474383","0.1638183597","0.4198241006","0.3131666206","","","","","","","","","","","","","","72","H","0","img/none_selected.jpg","","119","main_expt",""
"","bandit","199","624651","0.0-161.0-0.0","07278561","wem/bandit_party_1","A2ZU1P6UYE1UBU","either","8","64","","","","","","","0","0","1","0.4286088018","","0.6","0.2","0.8","0.4","","","","","0.1649404926","0.1893282748","0.4286088018","0.358829095","","","","","","","","","","75","K","2","","","120","main_expt",""
"","bandit","200","626487","0.0-162.0-0.0","07278561","wem/bandit_party_1","A2ZU1P6UYE1UBU","either","8","262","","","","","","","1","0","0","0.4253829576","","0.6","0.2","0.8","0.4","","","","","0.1764152442","0.2290368179","0.4253829576","0.3189860171","","","","","","","","","","75","K","2","","","121","main_expt",""
"","bandit","201","628501","0.0-163.0-0.0","07278561","wem/bandit_party_1","A2ZU1P6UYE1UBU","either","8","489","","","","","","","1","0","0","0.4235175979","","0.6","0.2","0.8","0.4","","","","","0.2092397698","0.2445441383","0.4235175979","0.3011672979","","","","","","","","","","75","K","2","","","122","main_expt",""
"","bandit","202","630202","0.0-164.0-0.0","07278561","wem/bandit_party_1","A2ZU1P6UYE1UBU","either","8","140","","","","","","","0","0","1","0.4182090072","","0.6","0.2","0.8","0.4","","","","","0.1884058447","0.2091075756","0.4182090072","0.3037948063","","","","","","","","","","75","K","2","","","123","main_expt",""
"","bandit","203","632371","0.0-165.0-0.0","07278561","wem/bandit_party_1","A2ZU1P6UYE1UBU","either","8","651","","","","","","","0","0","1","0.2216111921","","0.6","0.2","0.8","0.4","","","","","0.1876417206","0.2216111921","0.4356016004","0.2446200253","","","","","","","","","","74","J","1","","","124","main_expt",""
"","bandit","204","634557","0.0-166.0-0.0","07278561","wem/bandit_party_1","A2ZU1P6UYE1UBU","either","8","653","","","","","","","0","0","1","0.1890564589","","0.6","0.2","0.8","0.4","","","","","0.1890564589","0.1622020501","0.403953628","0.2464628806","","","","","","","","","","72","H","0","img/none_selected.jpg","","125","main_expt",""
"","bandit","205","636882","0.0-167.0-0.0","07278561","wem/bandit_party_1","A2ZU1P6UYE1UBU","either","8","798","","","","","","","0","0","1","0.1659850756","","0.6","0.2","0.8","0.4","","","","","0.1659850756","0.173533554","0.4020675328","0.281169445","","","","","","","","","","72","H","0","img/none_selected.jpg","","126","main_expt",""
"","bandit","206","639579","0.0-168.0-0.0","07278561","wem/bandit_party_1","A2ZU1P6UYE1UBU","either","8","12","","","","","","","0","0","1","","0.189829559","0.6","0.2","0.8","0.4","0.2006343121","0.189829559","0.338443572","0.290080064","","","","","","","","","","","","","","74","J","1","","","127","main_expt",""
"","bandit","207","641820","0.0-169.0-0.0","07278561","wem/bandit_party_1","A2ZU1P6UYE1UBU","either","8","701","","","","","","","0","0","1","","0.1764696366","0.6","0.2","0.8","0.4","0.2637444583","0.1764696366","0.323123489","0.3280989756","","","","","","","","","","","","","","74","J","1","","","128","main_expt",""
"","bandit","208","644358","0.0-170.0-0.0","07278561","wem/bandit_party_1","A2ZU1P6UYE1UBU","either","8","867","","","","","","","0","0","1","0.3052704822","","0.6","0.2","0.8","0.4","","","","","0.2783394686","0.172709194","0.3615310162","0.3052704822","","","","","","","","","","76","L","3","","","129","main_expt",""
"","bandit","209","650284","0.0-171.0-0.0","07278561","wem/bandit_party_1","A2ZU1P6UYE1UBU","either","8","4321","","","","","","","0","0","1","","0.1407460215","0.6","0.2","0.8","0.4","0.2674474002","0.1407460215","0.3667448715","0.314718742","","","","","","","","","","","","","","74","J","1","","","130","main_expt",""
"","bandit","210","651823","0.0-172.0-0.0","07278561","wem/bandit_party_1","A2ZU1P6UYE1UBU","either","8","2","","","","","","","0","0","1","0.2492347367","","0.6","0.2","0.8","0.4","","","","","0.2122920843","0.143826562","0.341745941","0.2492347367","","","","","","","","","","76","L","3","","","131","main_expt",""
"","bandit","211","654566","0.0-173.0-0.0","07278561","wem/bandit_party_1","A2ZU1P6UYE1UBU","either","8","226","","","","","","","0","0","1","","0.1862992663","0.6","0.2","0.8","0.4","0.1969346152","0.1862992663","0.2615325727","0.2495736985","","","","","","","","","","","","","","74","J","1","","","132","main_expt",""
"","bandit","212","664660","0.0-174.0-0.0","07278561","wem/bandit_party_1","A2ZU1P6UYE1UBU","either","8","8378","","","","","","","0","0","1","","0.185648564","0.6","0.2","0.8","0.4","0.1390835973","0.185648564","0.27905624","0.2487120015","","","","","","","","","","","","","","74","J","1","","","133","main_expt",""
"","bandit","213","666780","0.0-175.0-0.0","07278561","wem/bandit_party_1","A2ZU1P6UYE1UBU","either","8","139","","","","","","","0","0","1","0.2002276213","","0.6","0.2","0.8","0.4","","","","","0.1437640715","0.2002276213","0.2751163123","0.3239420422","","","","","","","","","","74","J","1","","","134","main_expt",""
"","bandit","214","668531","0.0-176.0-0.0","07278561","wem/bandit_party_1","A2ZU1P6UYE1UBU","either","8","223","","","","","","","0","0","1","","0.3903525049","0.6","0.2","0.8","0.4","0.1175999949","0.2474552851","0.2586507773","0.3903525049","","","","","","","","","","","","","","76","L","3","","","135","main_expt",""
"","bandit","215","670416","0.0-177.0-0.0","07278561","wem/bandit_party_1","A2ZU1P6UYE1UBU","either","8","369","","","","","","","0","0","1","","0.2385277364","0.6","0.2","0.8","0.4","0.1108499649","0.2454982057","0.2385277364","0.3703049055","","","","","","","","","","","","","","75","K","2","","","136","main_expt",""
"","bandit","216","672792","0.0-178.0-0.0","07278561","wem/bandit_party_1","A2ZU1P6UYE1UBU","either","8","22","","","","","","","0","0","1","0.1935782534","","0.6","0.2","0.8","0.4","","","","","0.1208727618","0.2708690816","0.1935782534","0.3657944308","","","","","","","","","","75","K","2","","","137","main_expt",""
"","bandit","217","674577","0.0-179.0-0.0","07278561","wem/bandit_party_1","A2ZU1P6UYE1UBU","either","8","216","","","","","","","0","0","1","","0.14087624","0.6","0.2","0.8","0.4","0.1098805161","0.2219039101","0.14087624","0.3452946514","","","","","","","","","","","","","","75","K","2","","","138","main_expt",""
"","bandit","218","676214","0.0-180.0-0.0","07278561","wem/bandit_party_1","A2ZU1P6UYE1UBU","either","8","99","","","","","","","0","1","0","","0.2485571535","0.6","0.2","0.8","0.4","0.1359731218","0.2485571535","0.1340930794","0.3225052804","","","","","","","","","","","","","","74","J","1","","","139","main_expt",""
"","bandit","219","677903","0.0-181.0-0.0","07278561","wem/bandit_party_1","A2ZU1P6UYE1UBU","either","8","169","","","","","","","0","1","0","","0.2605640439","0.6","0.2","0.8","0.4","0.1419248406","0.2605640439","0.1170750994","0.2997250911","","","","","","","","","","","","","","74","J","1","","","140","main_expt",""
"","bandit","220","679762","0.0-182.0-0.0","07278561","wem/bandit_party_1","A2ZU1P6UYE1UBU","either","8","340","","","","","","","0","0","1","","0.2260680923","0.6","0.2","0.8","0.4","0.1269577117","0.2260680923","0.1316830279","0.311933389","","","","","","","","","","","","","","74","J","1","","","141","main_expt",""
"","bandit","221","681579","0.0-183.0-0.0","07278561","wem/bandit_party_1","A2ZU1P6UYE1UBU","either","8","296","","","","","","","0","0","1","0.2354846983","","0.6","0.2","0.8","0.4","","","","","0.1073819056","0.2354846983","0.09490366034","0.3442568425","","","","","","","","","","74","J","1","","","142","main_expt",""
"","bandit","222","683304","0.0-184.0-0.0","07278561","wem/bandit_party_1","A2ZU1P6UYE1UBU","either","8","177","","","","","","","0","0","1","0.1152767294","","0.6","0.2","0.8","0.4","","","","","0.1152767294","0.2089358464","0.1246024154","0.3117203045","","","","","","","","","","72","H","0","img/none_selected.jpg","","143","main_expt",""
"","bandit","223","685071","0.0-185.0-0.0","07278561","wem/bandit_party_1","A2ZU1P6UYE1UBU","either","8","234","","","","","","","0","0","1","0.1179874238","","0.6","0.2","0.8","0.4","","","","","0.1317444946","0.1844607625","0.1179874238","0.3080771123","","","","","","","","","","75","K","2","","","144","main_expt",""
"","bandit","224","686957","0.0-186.0-0.0","07278561","wem/bandit_party_1","A2ZU1P6UYE1UBU","either","8","339","","","","","","","0","1","0","","0.3146876691","0.6","0.2","0.8","0.4","0.1058600218","0.1940384654","0.1211842963","0.3146876691","","","","","","","","","","","","","","76","L","3","","","145","main_expt",""
"","bandit","225","688800","0.0-187.0-0.0","07278561","wem/bandit_party_1","A2ZU1P6UYE1UBU","either","8","320","","","","","","","0","0","1","","0.3526806189","0.6","0.2","0.8","0.4","0.1862633901","0.2532022814","0.06212451067","0.3526806189","","","","","","","","","","","","","","76","L","3","","","146","main_expt",""
"","bandit","226","690677","0.0-188.0-0.0","07278561","wem/bandit_party_1","A2ZU1P6UYE1UBU","either","8","340","","","","","","","0","0","1","","0.3859334927","0.6","0.2","0.8","0.4","0.1944793183","0.272856749","0.05826033827","0.3859334927","","","","","","","","","","","","","","76","L","3","","","147","main_expt",""
"","bandit","227","692429","0.0-189.0-0.0","07278561","wem/bandit_party_1","A2ZU1P6UYE1UBU","either","8","224","","","","","","","1","0","0","0.04847575149","","0.6","0.2","0.8","0.4","","","","","0.1572605535","0.2441255329","0.04847575149","0.4089873985","","","","","","","","","","75","K","2","","","148","main_expt",""
"","bandit","228","694184","0.0-190.0-0.0","07278561","wem/bandit_party_1","A2ZU1P6UYE1UBU","either","8","239","","","","","","","0","0","1","0.2304797635","","0.6","0.2","0.8","0.4","","","","","0.1632070519","0.2304797635","0.07397138717","0.3317076441","","","","","","","","","","74","J","1","","","149","main_expt",""
"","bandit","229","745692","0.0-191.0-0.0","07278561","wem/bandit_party_1","A2ZU1P6UYE1UBU","either","8","49966","","","","","","","1","0","0","0.2162169298","","0.6","0.2","0.8","0.4","","","","","0.2162169298","0.2645424191","0.1178437277","0.2514439341","","","","","","","","","","72","H","0","img/none_selected.jpg","","150","main_expt",""
"","bandit","230","771822","0.0-192.0-0.0","07278561","wem/bandit_party_1","A2ZU1P6UYE1UBU","either","8","24586","","","","","","","0","0","1","0.2806681102","","0.6","0.2","0.8","0.4","","","","","0.2806681102","0.2919476008","0.1116740648","0.2209696772","","","","","","","","","","72","H","0","img/none_selected.jpg","","151","main_expt",""
"","bandit","231","775040","0.0-193.0-0.0","07278561","wem/bandit_party_1","A2ZU1P6UYE1UBU","either","8","402","","","","","","","0","0","1","","0.3004198658","0.6","0.2","0.8","0.4","0.25223767","0.3004198658","0.09681320826","0.2004300668","","","","","","","","","","","","","","74","J","1","","","152","main_expt",""
"","bandit","232","776855","0.0-194.0-0.0","07278561","wem/bandit_party_1","A2ZU1P6UYE1UBU","either","8","187","","","","","","","0","0","1","0.1162344283","","0.6","0.2","0.8","0.4","","","","","0.2259503681","0.2910243242","0.1162344283","0.1803159607","","","","","","","","","","75","K","2","","","153","main_expt",""
"","bandit","233","778605","0.0-195.0-0.0","07278561","wem/bandit_party_1","A2ZU1P6UYE1UBU","either","8","218","","","","","","","0","0","1","0.1793353988","","0.6","0.2","0.8","0.4","","","","","0.2520515582","0.2858680692","0.1441765144","0.1793353988","","","","","","","","","","76","L","3","","","154","main_expt",""
"","bandit","234","780427","0.0-196.0-0.0","07278561","wem/bandit_party_1","A2ZU1P6UYE1UBU","either","8","287","","","","","","","1","0","0","0.175125938","","0.6","0.2","0.8","0.4","","","","","0.246895917","0.276906037","0.1506434262","0.175125938","","","","","","","","","","76","L","3","","","155","main_expt",""
"","bandit","235","782281","0.0-197.0-0.0","07278561","wem/bandit_party_1","A2ZU1P6UYE1UBU","either","8","337","","","","","","","0","0","1","0.19004546","","0.6","0.2","0.8","0.4","","","","","0.2067462234","0.3087514371","0.1691825384","0.19004546","","","","","","","","","","76","L","3","","","156","main_expt",""
"","bandit","236","784095","0.0-198.0-0.0","07278561","wem/bandit_party_1","A2ZU1P6UYE1UBU","either","8","297","","","","","","","0","0","1","","0.1465267651","0.6","0.2","0.8","0.4","0.1736677602","0.3400763937","0.1465267651","0.1538528063","","","","","","","","","","","","","","75","K","2","","","157","main_expt",""
"","bandit","237","785889","0.0-199.0-0.0","07278561","wem/bandit_party_1","A2ZU1P6UYE1UBU","either","8","268","","","","","","","0","0","1","","0.1517260174","0.6","0.2","0.8","0.4","0.2437422656","0.3388441277","0.1517260174","0.1624419901","","","","","","","","","","","","","","75","K","2","","","158","main_expt",""
"","bandit","238","787622","0.0-200.0-0.0","07278561","wem/bandit_party_1","A2ZU1P6UYE1UBU","either","8","217","","","","","","","0","0","1","","0.3496437485","0.6","0.2","0.8","0.4","0.2627628197","0.3496437485","0.143579764","0.1749682205","","","","","","","","","","","","","","74","J","1","","","159","main_expt",""
"","bandit","239","789459","0.0-201.0-0.0","07278561","wem/bandit_party_1","A2ZU1P6UYE1UBU","either","8","322","","","","","","","0","0","1","","0.3347491532","0.6","0.2","0.8","0.4","0.2532756584","0.3347491532","0.1701049762","0.2227833177","","","","","","","","","","","","","","74","J","1","","","160","main_expt",""
"","bandit","240","791206","0.0-202.0-0.0","07278561","wem/bandit_party_1","A2ZU1P6UYE1UBU","either","8","228","","","","","","","0","0","1","","0.3036625801","0.6","0.2","0.8","0.4","0.2846030245","0.3036625801","0.1596038406","0.1616195486","","","","","","","","","","","","","","74","J","1","","","161","main_expt",""
"","bandit","241","792978","0.0-203.0-0.0","07278561","wem/bandit_party_1","A2ZU1P6UYE1UBU","either","8","251","","","","","","","0","1","0","","0.2480450928","0.6","0.2","0.8","0.4","0.2480450928","0.2735804545","0.1186271452","0.1440802068","","","","","","","","","","","","","","72","H","0","img/none_selected.jpg","","162","main_expt",""
"","bandit","242","794784","0.0-204.0-0.0","07278561","wem/bandit_party_1","A2ZU1P6UYE1UBU","either","8","282","","","","","","","1","0","0","0.3217860246","","0.6","0.2","0.8","0.4","","","","","0.3217860246","0.2219233964","0.1460830151","0.1349250059","","","","","","","","","","72","H","0","img/none_selected.jpg","","163","main_expt",""
"","bandit","243","797558","0.0-205.0-0.0","07278561","wem/bandit_party_1","A2ZU1P6UYE1UBU","either","8","274","","","","","","","0","0","1","","0.3528623486","0.6","0.2","0.8","0.4","0.3528623486","0.2489701673","0.1924179555","0.1482528248","","","","","","","","","","","","","","72","H","0","img/none_selected.jpg","","164","main_expt",""
"","bandit","244","825416","0.0-206.0-0.0","07278561","wem/bandit_party_1","A2ZU1P6UYE1UBU","either","8","26079","","","","","","","0","0","1","0.3113737792","","0.6","0.2","0.8","0.4","","","","","0.3113737792","0.2424219606","0.1909643941","0.1444116863","","","","","","","","","","72","H","0","img/none_selected.jpg","","165","main_expt",""
"","bandit","245","900243","0.0-207.0-0.0","07278561","wem/bandit_party_1","A2ZU1P6UYE1UBU","either","8","73295","","","","","","","1","0","0","0.2820045276","","0.6","0.2","0.8","0.4","","","","","0.2820045276","0.1899742571","0.1917506842","0.1621449425","","","","","","","","","","72","H","0","img/none_selected.jpg","","166","main_expt",""
"","bandit","246","972475","0.0-208.0-0.0","07278561","wem/bandit_party_1","A2ZU1P6UYE1UBU","either","8","70004","","","","","","","0","0","1","","0.2298880826","0.6","0.2","0.8","0.4","0.2539690707","0.2298880826","0.2238056512","0.1695256229","","","","","","","","","","","","","","74","J","1","","","167","main_expt",""
"","bandit","247","1009112","0.0-209.0-0.0","07278561","wem/bandit_party_1","A2ZU1P6UYE1UBU","either","8","35035","","","","","","","1","0","0","0.2177565821","","0.6","0.2","0.8","0.4","","","","","0.2177565821","0.241220494","0.2132240521","0.1712445676","","","","","","","","","","72","H","0","img/none_selected.jpg","","168","main_expt",""
"","bandit","248","1011233","0.0-210.0-0.0","07278561","wem/bandit_party_1","A2ZU1P6UYE1UBU","either","8","601","","","","","","","0","1","0","","0.183214586","0.6","0.2","0.8","0.4","0.183214586","0.2113351254","0.1363713625","0.191079104","","","","","","","","","","","","","","72","H","0","img/none_selected.jpg","","169","main_expt",""
"","bandit","249","1013146","0.0-211.0-0.0","07278561","wem/bandit_party_1","A2ZU1P6UYE1UBU","either","8","382","","","","","","","0","0","1","0.1757282231","","0.6","0.2","0.8","0.4","","","","","0.1757282231","0.2224744884","0.2007690262","0.2227666825","","","","","","","","","","72","H","0","img/none_selected.jpg","","170","main_expt",""
"","bandit","250","1014985","0.0-212.0-0.0","07278561","wem/bandit_party_1","A2ZU1P6UYE1UBU","either","8","317","","","","","","","0","0","1","","0.262177911","0.6","0.2","0.8","0.4","0.1679331046","0.262177911","0.1238998316","0.2719914804","","","","","","","","","","","","","","74","J","1","","","171","main_expt",""
"","bandit","251","1016731","0.0-213.0-0.0","07278561","wem/bandit_party_1","A2ZU1P6UYE1UBU","either","8","225","","","","","","","1","0","0","0.09746419185","","0.6","0.2","0.8","0.4","","","","","0.14560319","0.2822992514","0.09746419185","0.2330128459","","","","","","","","","","75","K","2","","","172","main_expt",""
"","bandit","252","1018549","0.0-214.0-0.0","07278561","wem/bandit_party_1","A2ZU1P6UYE1UBU","either","8","296","","","","","","","0","0","1","0.1018164217","","0.6","0.2","0.8","0.4","","","","","0.1341549344","0.2545762091","0.1018164217","0.2840251313","","","","","","","","","","75","K","2","","","173","main_expt",""
"","bandit","253","1020313","0.0-215.0-0.0","07278561","wem/bandit_party_1","A2ZU1P6UYE1UBU","either","8","220","","","","","","","0","0","1","0.1401689619","","0.6","0.2","0.8","0.4","","","","","0.1471305278","0.2838184637","0.1401689619","0.2739042306","","","","","","","","","","75","K","2","","","174","main_expt",""
"","bandit","254","1022034","0.0-216.0-0.0","07278561","wem/bandit_party_1","A2ZU1P6UYE1UBU","either","8","197","","","","","","","0","0","1","0.3002790513","","0.6","0.2","0.8","0.4","","","","","0.173963405","0.3002790513","0.1697524679","0.3444735506","","","","","","","","","","74","J","1","","","175","main_expt",""
"","bandit","255","1023800","0.0-217.0-0.0","07278561","wem/bandit_party_1","A2ZU1P6UYE1UBU","either","8","235","","","","","","","0","0","1","","0.3223017316","0.6","0.2","0.8","0.4","0.1821857965","0.3771690292","0.1896898672","0.3223017316","","","","","","","","","","","","","","76","L","3","","","176","main_expt",""
"","bandit","256","1025559","0.0-218.0-0.0","07278561","wem/bandit_party_1","A2ZU1P6UYE1UBU","either","8","229","","","","","","","1","0","0","0.4047809956","","0.6","0.2","0.8","0.4","","","","","0.1444884472","0.4047809956","0.2441254625","0.2964924158","","","","","","","","","","74","J","1","","","177","main_expt",""
"","bandit","257","1027341","0.0-219.0-0.0","07278561","wem/bandit_party_1","A2ZU1P6UYE1UBU","either","8","249","","","","","","","0","1","0","","0.4344960837","0.6","0.2","0.8","0.4","0.1207783293","0.4344960837","0.2427722412","0.2780576925","","","","","","","","","","","","","","74","J","1","","","178","main_expt",""
"","bandit","258","1029155","0.0-220.0-0.0","07278561","wem/bandit_party_1","A2ZU1P6UYE1UBU","either","8","293","","","","","","","0","0","1","","0.4287912686","0.6","0.2","0.8","0.4","0.111585665","0.4287912686","0.2284650367","0.2859751729","","","","","","","","","","","","","","74","J","1","","","179","main_expt",""
"","bandit","259","1030946","0.0-221.0-0.0","07278561","wem/bandit_party_1","A2ZU1P6UYE1UBU","either","8","258","","","","","","","0","0","1","","0.4294180747","0.6","0.2","0.8","0.4","0.06891525065","0.4294180747","0.2694081366","0.283533164","","","","","","","","","","","","","","74","J","1","","","180","main_expt",""
"","bandit","260","1032659","0.0-222.0-0.0","07278561","wem/bandit_party_1","A2ZU1P6UYE1UBU","either","8","190","","","","","","","0","0","1","0.2471628034","","0.6","0.2","0.8","0.4","","","","","0.07407739619","0.3887332701","0.2471628034","0.2430023428","","","","","","","","","","75","K","2","","","181","main_expt",""
"","bandit","261","1034406","0.0-223.0-0.0","07278561","wem/bandit_party_1","A2ZU1P6UYE1UBU","either","8","191","","","","","","","0","0","1","","0.223254837","0.6","0.2","0.8","0.4","0.07501704201","0.3910635387","0.275372354","0.223254837","","","","","","","","","","","","","","76","L","3","","","182","main_expt",""
"","bandit","262","1036176","0.0-224.0-0.0","07278561","wem/bandit_party_1","A2ZU1P6UYE1UBU","either","8","249","","","","","","","0","0","1","0.2378950907","","0.6","0.2","0.8","0.4","","","","","0.09354103142","0.3957792538","0.2378950907","0.2274286797","","","","","","","","","","75","K","2","","","183","main_expt",""
"","bandit","263","1037897","0.0-225.0-0.0","07278561","wem/bandit_party_1","A2ZU1P6UYE1UBU","either","8","198","","","","","","","0","0","1","0.3777829694","","0.6","0.2","0.8","0.4","","","","","0.06673830493","0.3777829694","0.2611999536","0.2485964068","","","","","","","","","","74","J","1","","","184","main_expt",""
"","bandit","264","1039585","0.0-226.0-0.0","07278561","wem/bandit_party_1","A2ZU1P6UYE1UBU","either","8","169","","","","","","","0","0","1","","0.4130939835","0.6","0.2","0.8","0.4","0.08617836821","0.4130939835","0.2799245071","0.2080173303","","","","","","","","","","","","","","74","J","1","","","185","main_expt",""
"","bandit","265","1043376","0.0-227.0-0.0","07278561","wem/bandit_party_1","A2ZU1P6UYE1UBU","either","8","2266","","","","","","","0","0","1","","0.376930599","0.6","0.2","0.8","0.4","0.05054014018","0.376930599","0.2275386122","0.2538883687","","","","","","","","","","","","","","74","J","1","","","186","main_expt",""
"","bandit","266","1045201","0.0-228.0-0.0","07278561","wem/bandit_party_1","A2ZU1P6UYE1UBU","either","8","304","","","","","","","0","0","1","","0.2558518805","0.6","0.2","0.8","0.4","0.1101456656","0.3934592684","0.2558518805","0.2267652077","","","","","","","","","","","","","","75","K","2","","","187","main_expt",""
"","bandit","267","1046757","0.0-229.0-0.0","07278561","wem/bandit_party_1","A2ZU1P6UYE1UBU","either","8","29","","","","","","","0","0","1","","0.1076418148","0.6","0.2","0.8","0.4","0.1076418148","0.4086060551","0.2757393749","0.2583789709","","","","","","","","","","","","","","72","H","0","img/none_selected.jpg","","188","main_expt",""
"","bandit","268","1048415","0.0-230.0-0.0","07278561","wem/bandit_party_1","A2ZU1P6UYE1UBU","either","8","133","","","","","","","0","0","1","0.1230456027","","0.6","0.2","0.8","0.4","","","","","0.1230456027","0.447145564","0.3326758055","0.2329768584","","","","","","","","","","72","H","0","img/none_selected.jpg","","189","main_expt",""
"","bandit","269","1049964","0.0-231.0-0.0","07278561","wem/bandit_party_1","A2ZU1P6UYE1UBU","either","8","22","","","","","","","0","0","1","0.1872873117","","0.6","0.2","0.8","0.4","","","","","0.1872873117","0.386091063","0.332927569","0.2002510669","","","","","","","","","","72","H","0","img/none_selected.jpg","","190","main_expt",""
"","bandit","270","1051818","0.0-232.0-0.0","07278561","wem/bandit_party_1","A2ZU1P6UYE1UBU","either","8","336","","","","","","","0","0","1","","0.4221145333","0.6","0.2","0.8","0.4","0.1413073252","0.4221145333","0.3859199101","0.2182600554","","","","","","","","","","","","","","74","J","1","","","191","main_expt",""
"","bandit","271","1053455","0.0-233.0-0.0","07278561","wem/bandit_party_1","A2ZU1P6UYE1UBU","either","8","71","","","","","","","1","0","0","0.392668484","","0.6","0.2","0.8","0.4","","","","","0.1868627967","0.3913199708","0.392668484","0.2681613901","","","","","","","","","","75","K","2","","","192","main_expt",""
"","bandit","272","1055222","0.0-234.0-0.0","07278561","wem/bandit_party_1","A2ZU1P6UYE1UBU","either","8","243","","","","","","","1","0","0","0.3789843676","","0.6","0.2","0.8","0.4","","","","","0.2312719224","0.4013624592","0.3789843676","0.3035027483","","","","","","","","","","75","K","2","","","193","main_expt",""
"","bandit","273","1056935","0.0-235.0-0.0","07278561","wem/bandit_party_1","A2ZU1P6UYE1UBU","either","8","186","","","","","","","0","0","1","0.3689216281","","0.6","0.2","0.8","0.4","","","","","0.2585201677","0.3668237699","0.3689216281","0.275531754","","","","","","","","","","75","K","2","","","194","main_expt",""
"","bandit","274","1058833","0.0-236.0-0.0","07278561","wem/bandit_party_1","A2ZU1P6UYE1UBU","either","8","373","","","","","","","1","0","0","0.4136905162","","0.6","0.2","0.8","0.4","","","","","0.2786104129","0.3856266791","0.4136905162","0.2716401532","","","","","","","","","","75","K","2","","","195","main_expt",""
"","bandit","275","1060498","0.0-237.0-0.0","07278561","wem/bandit_party_1","A2ZU1P6UYE1UBU","either","8","147","","","","","","","0","0","1","","0.4258575101","0.6","0.2","0.8","0.4","0.2407834285","0.3702439493","0.4258575101","0.2814611543","","","","","","","","","","","","","","75","K","2","","","196","main_expt",""
"","bandit","276","1062238","0.0-238.0-0.0","07278561","wem/bandit_party_1","A2ZU1P6UYE1UBU","either","8","212","","","","","","","0","0","1","","0.2588010394","0.6","0.2","0.8","0.4","0.2550568011","0.3665926528","0.3976178043","0.2588010394","","","","","","","","","","","","","","76","L","3","","","197","main_expt",""
"","bandit","277","1063798","0.0-239.0-0.0","07278561","wem/bandit_party_1","A2ZU1P6UYE1UBU","either","8","40","","","","","","","0","0","1","0.3432124584","","0.6","0.2","0.8","0.4","","","","","0.3094863904","0.3432124584","0.3802378075","0.3094610495","","","","","","","","","","74","J","1","","","198","main_expt",""
"","bandit","278","1066271","0.0-240.0-0.0","07278561","wem/bandit_party_1","A2ZU1P6UYE1UBU","either","8","271","","","","","","","0","0","1","","0.4096574544","0.6","0.2","0.8","0.4","0.3012985694","0.4096574544","0.3926800246","0.3139278769","","","","","","","","","","","","","","74","J","1","","","199","main_expt",""
"","bandit","279","1068954","0.0-241.0-0.0","07278561","wem/bandit_party_1","A2ZU1P6UYE1UBU","either","8","1117","","","","","","","0","0","1","","0.3799023259","0.6","0.2","0.8","0.4","0.3149132519","0.3799023259","0.3814844917","0.3459706187","","","","","","","","","","","","","","74","J","1","","","200","main_expt",""
"","bandit","280","1070633","0.0-242.0-0.0","07278561","wem/bandit_party_1","A2ZU1P6UYE1UBU","either","8","132","","","","","","","1","0","0","0.3831630738","","0.6","0.2","0.8","0.4","","","","","0.3236307962","0.3513783521","0.3831630738","0.3038365479","","","","","","","","","","75","K","2","","","201","main_expt",""
"","bandit","281","1072262","0.0-243.0-0.0","07278561","wem/bandit_party_1","A2ZU1P6UYE1UBU","either","8","104","","","","","","","1","0","0","0.3957430938","","0.6","0.2","0.8","0.4","","","","","0.3163717903","0.3439351057","0.3957430938","0.2964599608","","","","","","","","","","75","K","2","","","202","main_expt",""
"","bandit","282","1075264","0.0-244.0-0.0","07278561","wem/bandit_party_1","A2ZU1P6UYE1UBU","either","8","321","","","","","","","0","0","1","0.4175506619","","0.6","0.2","0.8","0.4","","","","","0.3165936227","0.2615327891","0.4175506619","0.280336616","","","","","","","","","","75","K","2","","","203","main_expt",""
"","bandit","283","1080707","0.0-245.0-0.0","07278561","wem/bandit_party_1","A2ZU1P6UYE1UBU","either","8","3893","","","","","","","1","0","0","0.4356800279","","0.6","0.2","0.8","0.4","","","","","0.3166231072","0.2211517471","0.4356800279","0.262900641","","","","","","","","","","75","K","2","","","204","main_expt",""
"","bandit","284","1089666","0.0-246.0-0.0","07278561","wem/bandit_party_1","A2ZU1P6UYE1UBU","either","8","7432","","","","","","","1","0","0","0.4342993254","","0.6","0.2","0.8","0.4","","","","","0.2983153058","0.1955747294","0.4342993254","0.3403150927","","","","","","","","","","75","K","2","","","205","main_expt",""
"","bandit","285","1091830","0.0-247.0-0.0","07278561","wem/bandit_party_1","A2ZU1P6UYE1UBU","either","8","639","","","","","","","0","0","1","0.4515967499","","0.6","0.2","0.8","0.4","","","","","0.255573156","0.3137251184","0.4515967499","0.3407188883","","","","","","","","","","75","K","2","","","206","main_expt",""
"","bandit","286","1096705","0.0-248.0-0.0","07278561","wem/bandit_party_1","A2ZU1P6UYE1UBU","either","8","3308","","","","","","","0","0","1","","0.2982459604","0.6","0.2","0.8","0.4","0.2816724171","0.2982459604","0.4559700358","0.2955601217","","","","","","","","","","","","","","74","J","1","","","207","main_expt",""
"","bandit","287","1098726","0.0-249.0-0.0","07278561","wem/bandit_party_1","A2ZU1P6UYE1UBU","either","8","501","","","","","","","0","1","0","","0.2359404152","0.6","0.2","0.8","0.4","0.2462622089","0.2359404152","0.4711787588","0.2832193826","","","","","","","","","","","","","","74","J","1","","","208","main_expt",""
"","bandit","288","1100432","0.0-250.0-0.0","07278561","wem/bandit_party_1","A2ZU1P6UYE1UBU","either","8","182","","","","","","","0","0","1","","0.2396635106","0.6","0.2","0.8","0.4","0.2608633631","0.2396635106","0.4859779177","0.25637755","","","","","","","","","","","","","","74","J","1","","","209","main_expt",""
"","bandit","289","1102526","0.0-251.0-0.0","07278561","wem/bandit_party_1","A2ZU1P6UYE1UBU","either","8","571","","","","","","","0","0","1","0.4798195452","","0.6","0.2","0.8","0.4","","","","","0.2649708152","0.2320506775","0.4798195452","0.2500912527","","","","","","","","","","75","K","2","","","210","main_expt",""
"","bandit","290","1104510","0.0-252.0-0.0","07278561","wem/bandit_party_1","A2ZU1P6UYE1UBU","either","8","458","","","","","","","0","0","1","0.4754072522","","0.6","0.2","0.8","0.4","","","","","0.2658594566","0.1894847828","0.4754072522","0.2481129288","","","","","","","","","","75","K","2","","","211","main_expt",""
"","bandit","291","1106635","0.0-253.0-0.0","07278561","wem/bandit_party_1","A2ZU1P6UYE1UBU","either","8","600","","","","","","","0","1","0","","0.2330804604","0.6","0.2","0.8","0.4","0.2648449814","0.2330804604","0.4780703898","0.3192168596","","","","","","","","","","","","","","74","J","1","","","212","main_expt",""
"","bandit","292","1109352","0.0-254.0-0.0","07278561","wem/bandit_party_1","A2ZU1P6UYE1UBU","either","8","1200","","","","","","","0","0","1","","0.2484053244","0.6","0.2","0.8","0.4","0.286492297","0.2484053244","0.4883488692","0.2361953268","","","","","","","","","","","","","","74","J","1","","","213","main_expt",""
"","bandit","293","1110969","0.0-255.0-0.0","07278561","wem/bandit_party_1","A2ZU1P6UYE1UBU","either","8","98","","","","","","","0","0","1","","0.4872562331","0.6","0.2","0.8","0.4","0.2540339129","0.2182548364","0.4872562331","0.2308921763","","","","","","","","","","","","","","75","K","2","","","214","main_expt",""
"","bandit","294","1112575","0.0-256.0-0.0","07278561","wem/bandit_party_1","A2ZU1P6UYE1UBU","either","8","72","","","","","","","0","0","1","0.4749609167","","0.6","0.2","0.8","0.4","","","","","0.254651127","0.1824073789","0.4749609167","0.2161033537","","","","","","","","","","75","K","2","","","215","main_expt",""
"","bandit","295","1114223","0.0-257.0-0.0","07278561","wem/bandit_party_1","A2ZU1P6UYE1UBU","either","8","126","","","","","","","0","0","1","","0.4798413464","0.6","0.2","0.8","0.4","0.3140517816","0.1923730387","0.4798413464","0.1896756427","","","","","","","","","","","","","","75","K","2","","","216","main_expt",""
"","bandit","296","1115897","0.0-258.0-0.0","07278561","wem/bandit_party_1","A2ZU1P6UYE1UBU","either","8","151","","","","","","","0","0","1","","0.2266612446","0.6","0.2","0.8","0.4","0.3338676317","0.2266612446","0.4865144435","0.1724286307","","","","","","","","","","","","","","74","J","1","","","217","main_expt",""
"","bandit","297","1117593","0.0-259.0-0.0","07278561","wem/bandit_party_1","A2ZU1P6UYE1UBU","either","8","140","","","","","","","0","0","1","","0.1702705737","0.6","0.2","0.8","0.4","0.3397001125","0.1702705737","0.4789145001","0.161168334","","","","","","","","","","","","","","74","J","1","","","218","main_expt",""
"","bandit","298","1119739","0.0-260.0-0.0","07278561","wem/bandit_party_1","A2ZU1P6UYE1UBU","either","8","624","","","","","","","0","1","0","","0.4834748692","0.6","0.2","0.8","0.4","0.2982528089","0.1159766116","0.4834748692","0.2021763003","","","","","","","","","","","","","","75","K","2","","","219","main_expt",""
"","bandit","299","1122258","0.0-261.0-0.0","07278561","wem/bandit_party_1","A2ZU1P6UYE1UBU","either","8","388","","","","","","","0","0","1","0.4722371777","","0.6","0.2","0.8","0.4","","","","","0.2770934022","0.09529473055","0.4722371777","0.2142164272","","","","","","","","","","75","K","2","","","220","main_expt",""
"","bandit","300","1127840","0.0-262.0-0.0","07278561","wem/bandit_party_1","A2ZU1P6UYE1UBU","either","8","4026","","","","","","","0","0","1","0.09060922323","","0.6","0.2","0.8","0.4","","","","","0.2696770889","0.09060922323","0.4654689219","0.189068297","","","","","","","","","","74","J","1","","","221","main_expt",""
"","bandit","301","1130384","0.0-263.0-0.0","07278561","wem/bandit_party_1","A2ZU1P6UYE1UBU","either","8","108","","","","","","","0","0","1","","0.1250772464","0.6","0.2","0.8","0.4","0.3103502417","0.1250772464","0.4533789701","0.2120997892","","","","","","","","","","","","","","74","J","1","","","222","main_expt",""
"","bandit","302","1163019","0.0-264.0-0.0","07278561","wem/bandit_party_1","A2ZU1P6UYE1UBU","either","8","30929","","","","","","","0","0","1","0.3477728299","","0.6","0.2","0.8","0.4","","","","","0.3477728299","0.1177235221","0.4473019993","0.1937664477","","","","","","","","","","72","H","0","img/none_selected.jpg","","223","main_expt",""
"","bandit","303","1164942","0.0-265.0-0.0","07278561","wem/bandit_party_1","A2ZU1P6UYE1UBU","either","8","409","","","","","","","0","0","1","0.4651086175","","0.6","0.2","0.8","0.4","","","","","0.3230244909","0.1589673504","0.4651086175","0.2195846313","","","","","","","","","","75","K","2","","","224","main_expt",""
"","bandit","304","1166999","0.0-266.0-0.0","07278561","wem/bandit_party_1","A2ZU1P6UYE1UBU","either","8","518","","","","","","","0","0","1","","0.1582937281","0.6","0.2","0.8","0.4","0.3641913847","0.1582937281","0.4704934375","0.1973587738","","","","","","","","","","","","","","74","J","1","","","225","main_expt",""
"","bandit","305","1168970","0.0-267.0-0.0","07278561","wem/bandit_party_1","A2ZU1P6UYE1UBU","either","8","451","","","","","","","0","0","1","","0.2029059012","0.6","0.2","0.8","0.4","0.3211822138","0.1585786296","0.4545632724","0.2029059012","","","","","","","","","","","","","","76","L","3","","","226","main_expt",""
"","bandit","306","1171240","0.0-268.0-0.0","07278561","wem/bandit_party_1","A2ZU1P6UYE1UBU","either","8","742","","","","","","","0","0","1","","0.1677618241","0.6","0.2","0.8","0.4","0.3318596792","0.1614007709","0.4313330006","0.1677618241","","","","","","","","","","","","","","76","L","3","","","227","main_expt",""
"","bandit","307","1173161","0.0-269.0-0.0","07278561","wem/bandit_party_1","A2ZU1P6UYE1UBU","either","8","395","","","","","","","1","0","0","0.4253897179","","0.6","0.2","0.8","0.4","","","","","0.3715738924","0.1160982884","0.4253897179","0.2079318551","","","","","","","","","","75","K","2","","","228","main_expt",""
"","bandit","308","1175016","0.0-270.0-0.0","07278561","wem/bandit_party_1","A2ZU1P6UYE1UBU","either","8","327","","","","","","","1","0","0","0.4416009531","","0.6","0.2","0.8","0.4","","","","","0.3571583743","0.1327168588","0.4416009531","0.1860779256","","","","","","","","","","75","K","2","","","229","main_expt",""
"","bandit","309","1176863","0.0-271.0-0.0","07278561","wem/bandit_party_1","A2ZU1P6UYE1UBU","either","8","290","","","","","","","0","1","0","","0.4612445757","0.6","0.2","0.8","0.4","0.3455313741","0.1751239199","0.4612445757","0.1294985144","","","","","","","","","","","","","","75","K","2","","","230","main_expt",""
"","bandit","310","1178707","0.0-272.0-0.0","07278561","wem/bandit_party_1","A2ZU1P6UYE1UBU","either","8","309","","","","","","","0","0","1","0.4455927364","","0.6","0.2","0.8","0.4","","","","","0.3114256563","0.2080149414","0.4455927364","0.1424139305","","","","","","","","","","75","K","2","","","231","main_expt",""
"","bandit","311","1180316","0.0-273.0-0.0","07278561","wem/bandit_party_1","A2ZU1P6UYE1UBU","either","8","83","","","","","","","0","1","0","","0.2305008548","0.6","0.2","0.8","0.4","0.3127001645","0.2305008548","0.4449483857","0.1777617008","","","","","","","","","","","","","","74","J","1","","","232","main_expt",""
"","bandit","312","1182079","0.0-274.0-0.0","07278561","wem/bandit_party_1","A2ZU1P6UYE1UBU","either","8","239","","","","","","","0","0","1","","0.2331895239","0.6","0.2","0.8","0.4","0.2953609795","0.2331895239","0.4570404202","0.1408291819","","","","","","","","","","","","","","74","J","1","","","233","main_expt",""
"","bandit","313","1183696","0.0-275.0-0.0","07278561","wem/bandit_party_1","A2ZU1P6UYE1UBU","either","8","98","","","","","","","0","0","1","","0.2743769666","0.6","0.2","0.8","0.4","0.2743769666","0.2007149185","0.4785018613","0.09563300426","","","","","","","","","","","","","","72","H","0","img/none_selected.jpg","","234","main_expt",""
"","bandit","314","1185931","0.0-276.0-0.0","07278561","wem/bandit_party_1","A2ZU1P6UYE1UBU","either","8","714","","","","","","","0","0","1","0.1428876463","","0.6","0.2","0.8","0.4","","","","","0.2842570603","0.1428876463","0.4708517218","0.06508254785","","","","","","","","","","74","J","1","","","235","main_expt",""
"","bandit","315","1187647","0.0-277.0-0.0","07278561","wem/bandit_party_1","A2ZU1P6UYE1UBU","either","8","193","","","","","","","1","0","0","0.4721911582","","0.6","0.2","0.8","0.4","","","","","0.3536106974","0.1327756685","0.4721911582","0.05272484418","","","","","","","","","","75","K","2","","","236","main_expt",""
"","bandit","316","1189516","0.0-278.0-0.0","07278561","wem/bandit_party_1","A2ZU1P6UYE1UBU","either","8","349","","","","","","","0","0","1","","0.4567984566","0.6","0.2","0.8","0.4","0.3777879982","0.1969646424","0.4567984566","0.05000735717","","","","","","","","","","","","","","75","K","2","","","237","main_expt",""
