"consent","trial_type","trial_index","time_elapsed","internal_node_id","subjID","study","MID","cond","drift","rt","responses","button_pressed","key_press","like","value","connected","gems","bombs","no_reward","GemPrChosen","BombPrChosen","GainOverPainPr_0","GainOverPainPr_1","GainOverPainPr_2","GainOverPainPr_3","LosePr_0","LosePr_1","LosePr_2","LosePr_3","WinPr_0","WinPr_1","WinPr_2","WinPr_3","Q0","Q1","Q2","gender","age","ethnicity","label","expt_phase","target","respCharCode","respKey","respChoiceNum","respChoice","practice","trial_counter","trial_label","Q0_index"
"GDM/GDM_behavioral_consent_30min_online.html","consent","0","9805","0.0-0.0","08055384","wem/bandit_party_1","AEWPAZBYA7XE","either","5","","","","","","","","","","","","","","","","","","","","","","","","","","","","","","","","","","","","","","","","",""
"","survey-text","1","17485","0.0-1.0","08055384","wem/bandit_party_1","AEWPAZBYA7XE","either","5","6652","{""Q0"":""AEWPAZBYA7XE""}","","","","","","","","","","","","","","","","","","","","","","","","","","","","","","","","","","","","","","",""
"","button-response","2","20547","0.0-2.0","08055384","wem/bandit_party_1","AEWPAZBYA7XE","either","5","2028","","0","","","","","","","","","","","","","","","","","","","","","","","","","","","","","","","","","","","","","",""
"","text-replacement","3","36971","0.0-3.0","08055384","wem/bandit_party_1","AEWPAZBYA7XE","either","5","15415","","","32","","","","","","","","","","","","","","","","","","","","","","","","","","","","","","","","","","","","",""
"","text-replacement","4","51023","0.0-4.0","08055384","wem/bandit_party_1","AEWPAZBYA7XE","either","5","14049","","","32","","","","","","","","","","","","","","","","","","","","","","","","","","","","","","","","","","","","",""
"","identification","5","104486","0.0-6.0-0.0","08055384","wem/bandit_party_1","AEWPAZBYA7XE","either","5","53428","","","","1","0","1","","","","","","","","","","","","","","","","","","","","","","","","pre","identification_pre","the Democratic Party","","","","","","","",""
"","identification","6","111609","0.0-6.0-1.0","08055384","wem/bandit_party_1","AEWPAZBYA7XE","either","5","6090","","","","4","4","4","","","","","","","","","","","","","","","","","","","","","","","","pre","identification_pre","the Republican party","","","","","","","",""
"","text-replacement","7","121191","0.0-7.0","08055384","wem/bandit_party_1","AEWPAZBYA7XE","either","5","8566","","","32","","","","","","","","","","","","","","","","","","","","","","","","","","","","","","","","","","","","",""
"","text-replacement","8","130360","0.0-8.0","08055384","wem/bandit_party_1","AEWPAZBYA7XE","either","5","9159","","","32","","","","","","","","","","","","","","","","","","","","","","","","","","","","","","","","","","","","",""
"","text-replacement","9","139894","0.0-9.0","08055384","wem/bandit_party_1","AEWPAZBYA7XE","either","5","9525","","","32","","","","","","","","","","","","","","","","","","","","","","","","","","","","","","","","","","","","",""
"","text-replacement","10","144351","0.0-10.0","08055384","wem/bandit_party_1","AEWPAZBYA7XE","either","5","4441","","","32","","","","","","","","","","","","","","","","","","","","","","","","","","","","","","","","","","","","",""
"","text-replacement","11","152154","0.0-11.0","08055384","wem/bandit_party_1","AEWPAZBYA7XE","either","5","7800","","","32","","","","","","","","","","","","","","","","","","","","","","","","","","","","","","","","","","","","",""
"","bandit","12","164770","0.0-12.0-0.0","08055384","wem/bandit_party_1","AEWPAZBYA7XE","either","5","10886","","","","","","","0","0","1","0","0","","","","","0","","","","0","","","","","","","","","","","","","74","J","0","img/none_selected_demo.jpg","true","0","",""
"","bandit","13","168084","0.0-13.0-0.0","08055384","wem/bandit_party_1","AEWPAZBYA7XE","either","5","1543","","","","","","","0","0","1","0","0","","","","","0","","","","0","","","","","","","","","","","","","75","K","0","img/none_selected_demo.jpg","true","0","",""
"","text-replacement","14","178755","0.0-14.0","08055384","wem/bandit_party_1","AEWPAZBYA7XE","either","5","10667","","","32","","","","","","","","","","","","","","","","","","","","","","","","","","","","","","","","","","","","",""
"","text-replacement","15","187068","0.0-15.0","08055384","wem/bandit_party_1","AEWPAZBYA7XE","either","5","8304","","","32","","","","","","","","","","","","","","","","","","","","","","","","","","","","","","","","","","","","",""
"","text-replacement","16","195216","0.0-16.0","08055384","wem/bandit_party_1","AEWPAZBYA7XE","either","5","8144","","","32","","","","","","","","","","","","","","","","","","","","","","","","","","","","","","","","","","","","",""
"","text-replacement","17","198608","0.0-17.0","08055384","wem/bandit_party_1","AEWPAZBYA7XE","either","5","3389","","","32","","","","","","","","","","","","","","","","","","","","","","","","","","","","","","","","","","","","",""
"","bandit","18","201218","0.0-18.0-0.0","08055384","wem/bandit_party_1","AEWPAZBYA7XE","either","5","1045","","","","","","","0","0","1","0.2","","0.5","0.5","","","","","","","0.8","0.2","","","","","","","","","","","","75","K","1","","true","0","80_20_practice",""
"","bandit","19","204706","0.0-18.0-1.0","08055384","wem/bandit_party_1","AEWPAZBYA7XE","either","5","908","","","","","","","0","0","1","","0.2","0.5","0.5","","","0.8","0.2","","","","","","","","","","","","","","","","75","K","1","","true","0","80_20_practice",""
"","bandit","20","206656","0.0-18.0-2.0","08055384","wem/bandit_party_1","AEWPAZBYA7XE","either","5","400","","","","","","","0","1","0","","0.8","0.5","0.5","","","0.8","0.2","","","","","","","","","","","","","","","","74","J","0","img/none_selected_demo.jpg","true","0","80_20_practice",""
"","bandit","21","208624","0.0-18.0-3.0","08055384","wem/bandit_party_1","AEWPAZBYA7XE","either","5","406","","","","","","","0","1","0","","0.8","0.5","0.5","","","0.8","0.2","","","","","","","","","","","","","","","","74","J","0","img/none_selected_demo.jpg","true","0","80_20_practice",""
"","bandit","22","210503","0.0-18.0-4.0","08055384","wem/bandit_party_1","AEWPAZBYA7XE","either","5","314","","","","","","","1","0","0","0.8","","0.5","0.5","","","","","","","0.8","0.2","","","","","","","","","","","","74","J","0","img/none_selected_demo.jpg","true","0","80_20_practice",""
"","bandit","23","212437","0.0-18.0-5.0","08055384","wem/bandit_party_1","AEWPAZBYA7XE","either","5","355","","","","","","","1","0","0","0.8","","0.5","0.5","","","","","","","0.8","0.2","","","","","","","","","","","","74","J","0","img/none_selected_demo.jpg","true","0","80_20_practice",""
"","bandit","24","214611","0.0-18.0-6.0","08055384","wem/bandit_party_1","AEWPAZBYA7XE","either","5","516","","","","","","","1","0","0","0.8","","0.5","0.5","","","","","","","0.8","0.2","","","","","","","","","","","","74","J","0","img/none_selected_demo.jpg","true","0","80_20_practice",""
"","bandit","25","216457","0.0-18.0-7.0","08055384","wem/bandit_party_1","AEWPAZBYA7XE","either","5","314","","","","","","","1","0","0","0.8","","0.5","0.5","","","","","","","0.8","0.2","","","","","","","","","","","","74","J","0","img/none_selected_demo.jpg","true","0","80_20_practice",""
"","bandit","26","218348","0.0-18.0-8.0","08055384","wem/bandit_party_1","AEWPAZBYA7XE","either","5","358","","","","","","","0","1","0","","0.8","0.5","0.5","","","0.8","0.2","","","","","","","","","","","","","","","","74","J","0","img/none_selected_demo.jpg","true","0","80_20_practice",""
"","bandit","27","220276","0.0-18.0-9.0","08055384","wem/bandit_party_1","AEWPAZBYA7XE","either","5","357","","","","","","","0","0","1","","0.8","0.5","0.5","","","0.8","0.2","","","","","","","","","","","","","","","","74","J","0","img/none_selected_demo.jpg","true","0","80_20_practice",""
"","bandit","28","222514","0.0-18.0-10.0","08055384","wem/bandit_party_1","AEWPAZBYA7XE","either","5","411","","","","","","","1","0","0","0.8","","0.5","0.5","","","","","","","0.8","0.2","","","","","","","","","","","","74","J","0","img/none_selected_demo.jpg","true","0","80_20_practice",""
"","bandit","29","224434","0.0-18.0-11.0","08055384","wem/bandit_party_1","AEWPAZBYA7XE","either","5","363","","","","","","","1","0","0","0.8","","0.5","0.5","","","","","","","0.8","0.2","","","","","","","","","","","","74","J","0","img/none_selected_demo.jpg","true","0","80_20_practice",""
"","bandit","30","226710","0.0-18.0-12.0","08055384","wem/bandit_party_1","AEWPAZBYA7XE","either","5","746","","","","","","","0","1","0","","0.8","0.5","0.5","","","0.8","0.2","","","","","","","","","","","","","","","","74","J","0","img/none_selected_demo.jpg","true","0","80_20_practice",""
"","bandit","31","229232","0.0-18.0-13.0","08055384","wem/bandit_party_1","AEWPAZBYA7XE","either","5","398","","","","","","","1","0","0","0.8","","0.5","0.5","","","","","","","0.8","0.2","","","","","","","","","","","","74","J","0","img/none_selected_demo.jpg","true","0","80_20_practice",""
"","bandit","32","231257","0.0-18.0-14.0","08055384","wem/bandit_party_1","AEWPAZBYA7XE","either","5","474","","","","","","","0","1","0","","0.8","0.5","0.5","","","0.8","0.2","","","","","","","","","","","","","","","","74","J","0","img/none_selected_demo.jpg","true","0","80_20_practice",""
"","bandit","33","234607","0.0-18.0-15.0","08055384","wem/bandit_party_1","AEWPAZBYA7XE","either","5","1795","","","","","","","0","1","0","","0.8","0.5","0.5","","","0.8","0.2","","","","","","","","","","","","","","","","74","J","0","img/none_selected_demo.jpg","true","0","80_20_practice",""
"","bandit","34","236503","0.0-18.0-16.0","08055384","wem/bandit_party_1","AEWPAZBYA7XE","either","5","329","","","","","","","0","0","1","","0.8","0.5","0.5","","","0.8","0.2","","","","","","","","","","","","","","","","74","J","0","img/none_selected_demo.jpg","true","0","80_20_practice",""
"","bandit","35","238408","0.0-18.0-17.0","08055384","wem/bandit_party_1","AEWPAZBYA7XE","either","5","368","","","","","","","0","1","0","","0.8","0.5","0.5","","","0.8","0.2","","","","","","","","","","","","","","","","74","J","0","img/none_selected_demo.jpg","true","0","80_20_practice",""
"","bandit","36","240276","0.0-18.0-18.0","08055384","wem/bandit_party_1","AEWPAZBYA7XE","either","5","324","","","","","","","0","1","0","","0.8","0.5","0.5","","","0.8","0.2","","","","","","","","","","","","","","","","74","J","0","img/none_selected_demo.jpg","true","0","80_20_practice",""
"","bandit","37","242141","0.0-18.0-19.0","08055384","wem/bandit_party_1","AEWPAZBYA7XE","either","5","329","","","","","","","1","0","0","0.8","","0.5","0.5","","","","","","","0.8","0.2","","","","","","","","","","","","74","J","0","img/none_selected_demo.jpg","true","0","80_20_practice",""
"","text-replacement","38","247523","0.0-19.0","08055384","wem/bandit_party_1","AEWPAZBYA7XE","either","5","5377","","","32","","","","","","","","","","","","","","","","","","","","","","","","","","","","","","","","","","","","",""
"","bandit","39","249781","0.0-20.0-0.0","08055384","wem/bandit_party_1","AEWPAZBYA7XE","either","5","611","","","","","","","1","0","0","1","0","","","","","0","1","","","1","0","","","","","","","","","","","","74","J","0","img/none_selected_demo.jpg","true","0","",""
"","text-replacement","40","258891","0.0-21.0","08055384","wem/bandit_party_1","AEWPAZBYA7XE","either","5","9107","","","32","","","","","","","","","","","","","","","","","","","","","","","","","","","","","","","","","","","","",""
"","text-replacement","41","262573","0.0-22.0","08055384","wem/bandit_party_1","AEWPAZBYA7XE","either","5","3675","","","32","","","","","","","","","","","","","","","","","","","","","","","","","","","","","","","","","","","","",""
"","text-replacement","42","267513","0.0-23.0","08055384","wem/bandit_party_1","AEWPAZBYA7XE","either","5","4932","","","32","","","","","","","","","","","","","","","","","","","","","","","","","","","","","","","","","","","","",""
"","text-replacement","43","273577","0.0-24.0","08055384","wem/bandit_party_1","AEWPAZBYA7XE","either","5","6038","","","32","","","","","","","","","","","","","","","","","","","","","","","","","","","","","","","","","","","","",""
"","text-replacement","44","280712","0.0-25.0","08055384","wem/bandit_party_1","AEWPAZBYA7XE","either","5","7115","","","32","","","","","","","","","","","","","","","","","","","","","","","","","","","","","","","","","","","","",""
"","text-replacement","45","284070","0.0-26.0","08055384","wem/bandit_party_1","AEWPAZBYA7XE","either","5","3337","","","32","","","","","","","","","","","","","","","","","","","","","","","","","","","","","","","","","","","","",""
"","text-replacement","46","287983","0.0-27.0","08055384","wem/bandit_party_1","AEWPAZBYA7XE","either","5","3908","","","32","","","","","","","","","","","","","","","","","","","","","","","","","","","","","","","","","","","","",""
"","text-replacement","47","290967","0.0-28.0","08055384","wem/bandit_party_1","AEWPAZBYA7XE","either","5","2979","","","32","","","","","","","","","","","","","","","","","","","","","","","","","","","","","","","","","","","","",""
"","text-replacement","48","292976","0.0-29.0","08055384","wem/bandit_party_1","AEWPAZBYA7XE","either","5","2006","","","32","","","","","","","","","","","","","","","","","","","","","","","","","","","","","","","","","","","","",""
"","text-replacement","49","295864","0.0-30.0","08055384","wem/bandit_party_1","AEWPAZBYA7XE","either","5","2885","","","32","","","","","","","","","","","","","","","","","","","","","","","","","","","","","","","","","","","","",""
"","text-replacement","50","297320","0.0-31.0","08055384","wem/bandit_party_1","AEWPAZBYA7XE","either","5","1452","","","32","","","","","","","","","","","","","","","","","","","","","","","","","","","","","","","","","","","","",""
"","bandit","51","299891","0.0-32.0-0.0","08055384","wem/bandit_party_1","AEWPAZBYA7XE","either","5","1036","","","","","","","0","0","1","0.2","","0.5","0.5","0.5","0.5","","","","","0.8","0.2","0.6","0.2","","","","","","","","","","76","L","3","","true","0","full_practice",""
"","bandit","52","303462","0.0-32.0-1.0","08055384","wem/bandit_party_1","AEWPAZBYA7XE","either","5","2024","","","","","","","0","0","1","0.2","","0.5","0.5","0.5","0.5","","","","","0.8","0.2","0.6","0.2","","","","","","","","","","76","L","3","","true","0","full_practice",""
"","bandit","53","305987","0.0-32.0-2.0","08055384","wem/bandit_party_1","AEWPAZBYA7XE","either","5","956","","","","","","","0","1","0","","0.6","0.5","0.5","0.5","0.5","0.8","0.2","0.6","0.2","","","","","","","","","","","","","","75","K","2","","true","0","full_practice",""
"","bandit","54","307913","0.0-32.0-3.0","08055384","wem/bandit_party_1","AEWPAZBYA7XE","either","5","331","","","","","","","0","0","1","0.6","","0.5","0.5","0.5","0.5","","","","","0.8","0.2","0.6","0.2","","","","","","","","","","75","K","2","","true","0","full_practice",""
"","bandit","55","309768","0.0-32.0-4.0","08055384","wem/bandit_party_1","AEWPAZBYA7XE","either","5","311","","","","","","","0","0","1","","0.6","0.5","0.5","0.5","0.5","0.8","0.2","0.6","0.2","","","","","","","","","","","","","","75","K","2","","true","0","full_practice",""
"","bandit","56","312388","0.0-32.0-5.0","08055384","wem/bandit_party_1","AEWPAZBYA7XE","either","5","487","","","","","","","0","0","1","0.2","","0.5","0.5","0.5","0.5","","","","","0.8","0.2","0.6","0.2","","","","","","","","","","74","J","1","","true","0","full_practice",""
"","bandit","57","314671","0.0-32.0-6.0","08055384","wem/bandit_party_1","AEWPAZBYA7XE","either","5","377","","","","","","","0","0","1","0.2","","0.5","0.5","0.5","0.5","","","","","0.8","0.2","0.6","0.2","","","","","","","","","","74","J","1","","true","0","full_practice",""
"","bandit","58","316609","0.0-32.0-7.0","08055384","wem/bandit_party_1","AEWPAZBYA7XE","either","5","386","","","","","","","1","0","0","0.8","","0.5","0.5","0.5","0.5","","","","","0.8","0.2","0.6","0.2","","","","","","","","","","72","H","0","img/none_selected.jpg","true","0","full_practice",""
"","bandit","59","318523","0.0-32.0-8.0","08055384","wem/bandit_party_1","AEWPAZBYA7XE","either","5","344","","","","","","","1","0","0","0.8","","0.5","0.5","0.5","0.5","","","","","0.8","0.2","0.6","0.2","","","","","","","","","","72","H","0","img/none_selected.jpg","true","0","full_practice",""
"","bandit","60","320442","0.0-32.0-9.0","08055384","wem/bandit_party_1","AEWPAZBYA7XE","either","5","352","","","","","","","1","0","0","0.8","","0.5","0.5","0.5","0.5","","","","","0.8","0.2","0.6","0.2","","","","","","","","","","72","H","0","img/none_selected.jpg","true","0","full_practice",""
"","bandit","61","322343","0.0-32.0-10.0","08055384","wem/bandit_party_1","AEWPAZBYA7XE","either","5","332","","","","","","","0","1","0","","0.8","0.5","0.5","0.5","0.5","0.8","0.2","0.6","0.2","","","","","","","","","","","","","","72","H","0","img/none_selected.jpg","true","0","full_practice",""
"","bandit","62","324257","0.0-32.0-11.0","08055384","wem/bandit_party_1","AEWPAZBYA7XE","either","5","373","","","","","","","0","1","0","","0.8","0.5","0.5","0.5","0.5","0.8","0.2","0.6","0.2","","","","","","","","","","","","","","72","H","0","img/none_selected.jpg","true","0","full_practice",""
"","bandit","63","326153","0.0-32.0-12.0","08055384","wem/bandit_party_1","AEWPAZBYA7XE","either","5","363","","","","","","","0","0","1","","0.8","0.5","0.5","0.5","0.5","0.8","0.2","0.6","0.2","","","","","","","","","","","","","","72","H","0","img/none_selected.jpg","true","0","full_practice",""
"","bandit","64","328720","0.0-32.0-13.0","08055384","wem/bandit_party_1","AEWPAZBYA7XE","either","5","372","","","","","","","0","0","1","","0.8","0.5","0.5","0.5","0.5","0.8","0.2","0.6","0.2","","","","","","","","","","","","","","72","H","0","img/none_selected.jpg","true","0","full_practice",""
"","bandit","65","331122","0.0-32.0-14.0","08055384","wem/bandit_party_1","AEWPAZBYA7XE","either","5","425","","","","","","","0","1","0","","0.8","0.5","0.5","0.5","0.5","0.8","0.2","0.6","0.2","","","","","","","","","","","","","","72","H","0","img/none_selected.jpg","true","0","full_practice",""
"","bandit","66","333010","0.0-32.0-15.0","08055384","wem/bandit_party_1","AEWPAZBYA7XE","either","5","330","","","","","","","0","1","0","","0.8","0.5","0.5","0.5","0.5","0.8","0.2","0.6","0.2","","","","","","","","","","","","","","72","H","0","img/none_selected.jpg","true","0","full_practice",""
"","bandit","67","336413","0.0-32.0-16.0","08055384","wem/bandit_party_1","AEWPAZBYA7XE","either","5","1864","","","","","","","1","0","0","0.8","","0.5","0.5","0.5","0.5","","","","","0.8","0.2","0.6","0.2","","","","","","","","","","72","H","0","img/none_selected.jpg","true","0","full_practice",""
"","bandit","68","338387","0.0-32.0-17.0","08055384","wem/bandit_party_1","AEWPAZBYA7XE","either","5","417","","","","","","","0","0","1","0.8","","0.5","0.5","0.5","0.5","","","","","0.8","0.2","0.6","0.2","","","","","","","","","","72","H","0","img/none_selected.jpg","true","0","full_practice",""
"","bandit","69","340893","0.0-32.0-18.0","08055384","wem/bandit_party_1","AEWPAZBYA7XE","either","5","962","","","","","","","0","1","0","","0.8","0.5","0.5","0.5","0.5","0.8","0.2","0.6","0.2","","","","","","","","","","","","","","72","H","0","img/none_selected.jpg","true","0","full_practice",""
"","bandit","70","342944","0.0-32.0-19.0","08055384","wem/bandit_party_1","AEWPAZBYA7XE","either","5","331","","","","","","","0","1","0","","0.8","0.5","0.5","0.5","0.5","0.8","0.2","0.6","0.2","","","","","","","","","","","","","","72","H","0","img/none_selected.jpg","true","0","full_practice",""
"","text","71","348180","0.0-33.0","08055384","wem/bandit_party_1","AEWPAZBYA7XE","either","5","5228","","","32","","","","","","","","","","","","","","","","","","","","","","","","","","","","","","","","","","","","",""
"","text-replacement","72","364051","0.0-34.0","08055384","wem/bandit_party_1","AEWPAZBYA7XE","either","5","14844","","","32","","","","","","","","","","","","","","","","","","","","","","","","","","","","","","","","","","","","",""
"","text-replacement","73","375679","0.0-35.0","08055384","wem/bandit_party_1","AEWPAZBYA7XE","either","5","11604","","","32","","","","","","","","","","","","","","","","","","","","","","","","","","","","","","","","","","","","",""
"","text-replacement","74","381363","0.0-36.0","08055384","wem/bandit_party_1","AEWPAZBYA7XE","either","5","5671","","","32","","","","","","","","","","","","","","","","","","","","","","","","","","","","","","","","","","","","",""
"","text-replacement","75","388878","0.0-37.0","08055384","wem/bandit_party_1","AEWPAZBYA7XE","either","5","7491","","","32","","","","","","","","","","","","","","","","","","","","","","","","","","","","","","","","","","","","",""
"","text-replacement","76","391764","0.0-38.0","08055384","wem/bandit_party_1","AEWPAZBYA7XE","either","5","2880","","","32","","","","","","","","","","","","","","","","","","","","","","","","","","","","","","","","","","","","",""
"","survey-multi-choice-replacement","77","397279","0.0-39.0-0.0","08055384","wem/bandit_party_1","AEWPAZBYA7XE","either","5","5486","","","","","","","","","","","","","","","","","","","","","","","","Money will be added to the pool for <span style='color:red;'>REPUBLICANS</span>","","","","","","","attn_check","","","","","","","","","0"
"","survey-multi-choice-replacement","78","403654","0.0-40.0-0.0","08055384","wem/bandit_party_1","AEWPAZBYA7XE","either","5","5350","","","","","","","","","","","","","","","","","","","","","","","","Equal amounts of money will be added to the pool for <span style='color:red;'>REPUBLICANS</span> and subtracted from the pool for <span style='color:blue;'>DEMOCRATS</span>","","","","","","","attn_check","","","","","","","","","2"
"","survey-multi-choice-replacement","79","406943","0.0-41.0-0.0","08055384","wem/bandit_party_1","AEWPAZBYA7XE","either","5","2263","","","","","","","","","","","","","","","","","","","","","","","","No money will be added to either pool","","","","","","","attn_check","","","","","","","","","3"
"","bandit","80","411125","0.0-42.0-0.0","08055384","wem/bandit_party_1","AEWPAZBYA7XE","either","5","1579","","","","","","","0","0","1","","0.1165465043","0.2","0.4","0.6","0.8","0.1165465043","0.4265570961","0.3897275569","0.3340388524","","","","","","","","","","","","","","72","H","0","img/none_selected.jpg","","1","main_expt",""
"","bandit","81","413199","0.0-43.0-0.0","08055384","wem/bandit_party_1","AEWPAZBYA7XE","either","5","515","","","","","","","0","0","1","","0.08371899021","0.2","0.4","0.6","0.8","0.08371899021","0.4177099958","0.3911966266","0.3223834482","","","","","","","","","","","","","","72","H","0","img/none_selected.jpg","","2","main_expt",""
"","bandit","82","415179","0.0-44.0-0.0","08055384","wem/bandit_party_1","AEWPAZBYA7XE","either","5","430","","","","","","","0","0","1","","0.4192185534","0.2","0.4","0.6","0.8","0.04339790364","0.4192185534","0.4074861021","0.3585509001","","","","","","","","","","","","","","74","J","1","","","3","main_expt",""
"","bandit","83","417529","0.0-45.0-0.0","08055384","wem/bandit_party_1","AEWPAZBYA7XE","either","5","417","","","","","","","0","0","1","0.4241610434","","0.2","0.4","0.6","0.8","","","","","0.04073472785","0.4241610434","0.3965638453","0.3416436242","","","","","","","","","","74","J","1","","","4","main_expt",""
"","bandit","84","419745","0.0-46.0-0.0","08055384","wem/bandit_party_1","AEWPAZBYA7XE","either","5","383","","","","","","","1","0","0","0.3688269119","","0.2","0.4","0.6","0.8","","","","","0.04731773769","0.4284837315","0.3688269119","0.3444758892","","","","","","","","","","75","K","2","","","5","main_expt",""
"","bandit","85","421623","0.0-47.0-0.0","08055384","wem/bandit_party_1","AEWPAZBYA7XE","either","5","329","","","","","","","0","1","0","","0.3865867917","0.2","0.4","0.6","0.8","0.05617088868","0.4328708062","0.3865867917","0.3574177426","","","","","","","","","","","","","","75","K","2","","","6","main_expt",""
"","bandit","86","423505","0.0-48.0-0.0","08055384","wem/bandit_party_1","AEWPAZBYA7XE","either","5","310","","","","","","","0","0","1","0.4294719924","","0.2","0.4","0.6","0.8","","","","","0.05606577856","0.4176545671","0.4294719924","0.3634052143","","","","","","","","","","75","K","2","","","7","main_expt",""
"","bandit","87","425393","0.0-49.0-0.0","08055384","wem/bandit_party_1","AEWPAZBYA7XE","either","5","326","","","","","","","0","1","0","","0.4210378118","0.2","0.4","0.6","0.8","0.09244853328","0.4022395488","0.4210378118","0.3675420607","","","","","","","","","","","","","","75","K","2","","","8","main_expt",""
"","bandit","88","427327","0.0-50.0-0.0","08055384","wem/bandit_party_1","AEWPAZBYA7XE","either","5","383","","","","","","","0","0","1","0.4502112583","","0.2","0.4","0.6","0.8","","","","","0.1271341085","0.3929004949","0.4502112583","0.3921196104","","","","","","","","","","75","K","2","","","9","main_expt",""
"","bandit","89","429664","0.0-51.0-0.0","08055384","wem/bandit_party_1","AEWPAZBYA7XE","either","5","353","","","","","","","0","0","1","0.4452653155","","0.2","0.4","0.6","0.8","","","","","0.1370717255","0.3863711448","0.4452653155","0.4026182126","","","","","","","","","","75","K","2","","","10","main_expt",""
"","bandit","90","431535","0.0-52.0-0.0","08055384","wem/bandit_party_1","AEWPAZBYA7XE","either","5","328","","","","","","","1","0","0","0.3543069494","","0.2","0.4","0.6","0.8","","","","","0.1275050207","0.4205849279","0.4352349267","0.3543069494","","","","","","","","","","76","L","3","","","11","main_expt",""
"","bandit","91","434047","0.0-53.0-0.0","08055384","wem/bandit_party_1","AEWPAZBYA7XE","either","5","359","","","","","","","0","0","1","0.3504097904","","0.2","0.4","0.6","0.8","","","","","0.122317004","0.4525069231","0.4029030639","0.3504097904","","","","","","","","","","76","L","3","","","12","main_expt",""
"","bandit","92","436228","0.0-54.0-0.0","08055384","wem/bandit_party_1","AEWPAZBYA7XE","either","5","378","","","","","","","0","0","1","0.2787441393","","0.2","0.4","0.6","0.8","","","","","0.1251711411","0.4485799753","0.4198147105","0.2787441393","","","","","","","","","","76","L","3","","","13","main_expt",""
"","bandit","93","438150","0.0-55.0-0.0","08055384","wem/bandit_party_1","AEWPAZBYA7XE","either","5","354","","","","","","","0","1","0","","0.3761312174","0.2","0.4","0.6","0.8","0.1380641988","0.4504049656","0.3761312174","0.2723245106","","","","","","","","","","","","","","75","K","2","","","14","main_expt",""
"","bandit","94","441427","0.0-56.0-0.0","08055384","wem/bandit_party_1","AEWPAZBYA7XE","either","5","1675","","","","","","","0","1","0","","0.4017507227","0.2","0.4","0.6","0.8","0.2010812313","0.4281165459","0.4017507227","0.3687644442","","","","","","","","","","","","","","75","K","2","","","15","main_expt",""
"","bandit","95","443299","0.0-57.0-0.0","08055384","wem/bandit_party_1","AEWPAZBYA7XE","either","5","317","","","","","","","0","1","0","","0.3859888637","0.2","0.4","0.6","0.8","0.1747275657","0.4035101098","0.3859888637","0.3992289848","","","","","","","","","","","","","","75","K","2","","","16","main_expt",""
"","bandit","96","445167","0.0-58.0-0.0","08055384","wem/bandit_party_1","AEWPAZBYA7XE","either","5","306","","","","","","","0","0","1","0.3706978481","","0.2","0.4","0.6","0.8","","","","","0.1816524112","0.4063691663","0.3706978481","0.4067061876","","","","","","","","","","75","K","2","","","17","main_expt",""
"","bandit","97","447041","0.0-59.0-0.0","08055384","wem/bandit_party_1","AEWPAZBYA7XE","either","5","326","","","","","","","1","0","0","0.3323991027","","0.2","0.4","0.6","0.8","","","","","0.1700798448","0.4201618032","0.3323991027","0.3969002131","","","","","","","","","","75","K","2","","","18","main_expt",""
"","bandit","98","449357","0.0-60.0-0.0","08055384","wem/bandit_party_1","AEWPAZBYA7XE","either","5","355","","","","","","","0","0","1","0.3301718366","","0.2","0.4","0.6","0.8","","","","","0.1998500639","0.3868389751","0.3301718366","0.3930099592","","","","","","","","","","75","K","2","","","19","main_expt",""
"","bandit","99","451239","0.0-61.0-0.0","08055384","wem/bandit_party_1","AEWPAZBYA7XE","either","5","312","","","","","","","0","0","1","0.3714618997","","0.2","0.4","0.6","0.8","","","","","0.2418808817","0.3868875991","0.3714618997","0.3791602553","","","","","","","","","","75","K","2","","","20","main_expt",""
"","bandit","100","453203","0.0-62.0-0.0","08055384","wem/bandit_party_1","AEWPAZBYA7XE","either","5","417","","","","","","","0","1","0","","0.4253770554","0.2","0.4","0.6","0.8","0.2293341009","0.4253770554","0.3621694591","0.4127515201","","","","","","","","","","","","","","74","J","1","","","21","main_expt",""
"","bandit","101","456680","0.0-63.0-0.0","08055384","wem/bandit_party_1","AEWPAZBYA7XE","either","5","533","","","","","","","0","0","1","0.4285762007","","0.2","0.4","0.6","0.8","","","","","0.2074184163","0.4285762007","0.3648829928","0.4164833055","","","","","","","","","","74","J","1","","","22","main_expt",""
"","bandit","102","458558","0.0-64.0-0.0","08055384","wem/bandit_party_1","AEWPAZBYA7XE","either","5","323","","","","","","","1","0","0","0.4082522222","","0.2","0.4","0.6","0.8","","","","","0.1832507358","0.4082522222","0.2856994719","0.4143027846","","","","","","","","","","74","J","1","","","23","main_expt",""
"","bandit","103","460486","0.0-65.0-0.0","08055384","wem/bandit_party_1","AEWPAZBYA7XE","either","5","355","","","","","","","1","0","0","0.4027270218","","0.2","0.4","0.6","0.8","","","","","0.1469425149","0.4027270218","0.3152516524","0.3649270698","","","","","","","","","","74","J","1","","","24","main_expt",""
"","bandit","104","462354","0.0-66.0-0.0","08055384","wem/bandit_party_1","AEWPAZBYA7XE","either","5","305","","","","","","","0","0","1","","0.4100212433","0.2","0.4","0.6","0.8","0.102794739","0.4100212433","0.2778145345","0.392676409","","","","","","","","","","","","","","74","J","1","","","25","main_expt",""
"","bandit","105","464303","0.0-67.0-0.0","08055384","wem/bandit_party_1","AEWPAZBYA7XE","either","5","325","","","","","","","1","0","0","0.4190791169","","0.2","0.4","0.6","0.8","","","","","0.1173732637","0.4190791169","0.3170506137","0.4031565401","","","","","","","","","","74","J","1","","","26","main_expt",""
"","bandit","106","466231","0.0-68.0-0.0","08055384","wem/bandit_party_1","AEWPAZBYA7XE","either","5","364","","","","","","","0","0","1","","0.4527212376","0.2","0.4","0.6","0.8","0.08835016803","0.4527212376","0.3223143746","0.4245959001","","","","","","","","","","","","","","74","J","1","","","27","main_expt",""
"","bandit","107","468196","0.0-69.0-0.0","08055384","wem/bandit_party_1","AEWPAZBYA7XE","either","5","392","","","","","","","0","1","0","","0.4480998813","0.2","0.4","0.6","0.8","0.1134440288","0.4480998813","0.3234472479","0.4232885055","","","","","","","","","","","","","","74","J","1","","","28","main_expt",""
"","bandit","108","470095","0.0-70.0-0.0","08055384","wem/bandit_party_1","AEWPAZBYA7XE","either","5","361","","","","","","","0","1","0","","0.4628669208","0.2","0.4","0.6","0.8","0.1982905849","0.4628669208","0.2881425904","0.4495512981","","","","","","","","","","","","","","74","J","1","","","29","main_expt",""
"","bandit","109","471984","0.0-71.0-0.0","08055384","wem/bandit_party_1","AEWPAZBYA7XE","either","5","327","","","","","","","0","1","0","","0.4565655028","0.2","0.4","0.6","0.8","0.2366655967","0.4565655028","0.2326555855","0.4485299892","","","","","","","","","","","","","","74","J","1","","","30","main_expt",""
"","bandit","110","473865","0.0-72.0-0.0","08055384","wem/bandit_party_1","AEWPAZBYA7XE","either","5","345","","","","","","","1","0","0","0.4686031056","","0.2","0.4","0.6","0.8","","","","","0.1622470467","0.4686031056","0.2364604256","0.4599237238","","","","","","","","","","74","J","1","","","31","main_expt",""
"","bandit","111","475756","0.0-73.0-0.0","08055384","wem/bandit_party_1","AEWPAZBYA7XE","either","5","319","","","","","","","0","1","0","","0.4659582456","0.2","0.4","0.6","0.8","0.1771911602","0.4659582456","0.2451982598","0.4508116693","","","","","","","","","","","","","","74","J","1","","","32","main_expt",""
"","bandit","112","479205","0.0-74.0-0.0","08055384","wem/bandit_party_1","AEWPAZBYA7XE","either","5","1821","","","","","","","0","0","1","0.4810757035","","0.2","0.4","0.6","0.8","","","","","0.1622836308","0.4810757035","0.2360369815","0.45101727","","","","","","","","","","74","J","1","","","33","main_expt",""
"","bandit","113","481104","0.0-75.0-0.0","08055384","wem/bandit_party_1","AEWPAZBYA7XE","either","5","345","","","","","","","0","1","0","","0.4842727378","0.2","0.4","0.6","0.8","0.1655985557","0.4842727378","0.2317763892","0.4340174653","","","","","","","","","","","","","","74","J","1","","","34","main_expt",""
"","bandit","114","482987","0.0-76.0-0.0","08055384","wem/bandit_party_1","AEWPAZBYA7XE","either","5","332","","","","","","","0","1","0","","0.4745470136","0.2","0.4","0.6","0.8","0.1492797185","0.4745470136","0.2527891731","0.4040147441","","","","","","","","","","","","","","74","J","1","","","35","main_expt",""
"","bandit","115","484869","0.0-77.0-0.0","08055384","wem/bandit_party_1","AEWPAZBYA7XE","either","5","312","","","","","","","0","0","1","","0.4440965139","0.2","0.4","0.6","0.8","0.1504543003","0.4440965139","0.2641283143","0.4268829696","","","","","","","","","","","","","","74","J","1","","","36","main_expt",""
"","bandit","116","487416","0.0-78.0-0.0","08055384","wem/bandit_party_1","AEWPAZBYA7XE","either","5","386","","","","","","","1","0","0","0.4544425755","","0.2","0.4","0.6","0.8","","","","","0.1064249526","0.4544425755","0.2309310423","0.4562327564","","","","","","","","","","74","J","1","","","37","main_expt",""
"","bandit","117","489434","0.0-79.0-0.0","08055384","wem/bandit_party_1","AEWPAZBYA7XE","either","5","481","","","","","","","0","1","0","","0.4700138218","0.2","0.4","0.6","0.8","0.1346530267","0.4700138218","0.2093170459","0.4481627861","","","","","","","","","","","","","","74","J","1","","","38","main_expt",""
"","bandit","118","492421","0.0-80.0-0.0","08055384","wem/bandit_party_1","AEWPAZBYA7XE","either","5","1447","","","","","","","0","0","1","0.466948448","","0.2","0.4","0.6","0.8","","","","","0.1303494481","0.466948448","0.1398625959","0.4475890948","","","","","","","","","","74","J","1","","","39","main_expt",""
"","bandit","119","494387","0.0-81.0-0.0","08055384","wem/bandit_party_1","AEWPAZBYA7XE","either","5","388","","","","","","","1","0","0","0.4679256248","","0.2","0.4","0.6","0.8","","","","","0.1492074344","0.4679256248","0.09690087606","0.4501575696","","","","","","","","","","74","J","1","","","40","main_expt",""
"","bandit","120","496285","0.0-82.0-0.0","08055384","wem/bandit_party_1","AEWPAZBYA7XE","either","5","337","","","","","","","0","0","1","","0.445537573","0.2","0.4","0.6","0.8","0.1370672299","0.445537573","0.1129569356","0.4121884666","","","","","","","","","","","","","","74","J","1","","","41","main_expt",""
"","bandit","121","498184","0.0-83.0-0.0","08055384","wem/bandit_party_1","AEWPAZBYA7XE","either","5","343","","","","","","","1","0","0","0.4521531226","","0.2","0.4","0.6","0.8","","","","","0.08144147181","0.4521531226","0.1227033228","0.4379939247","","","","","","","","","","74","J","1","","","42","main_expt",""
"","bandit","122","500415","0.0-84.0-0.0","08055384","wem/bandit_party_1","AEWPAZBYA7XE","either","5","451","","","","","","","0","0","1","0.4695072217","","0.2","0.4","0.6","0.8","","","","","0.06793865388","0.4695072217","0.08393287497","0.4271747655","","","","","","","","","","74","J","1","","","43","main_expt",""
"","bandit","123","502259","0.0-85.0-0.0","08055384","wem/bandit_party_1","AEWPAZBYA7XE","either","5","308","","","","","","","0","0","1","","0.4807409838","0.2","0.4","0.6","0.8","0.05295344446","0.4807409838","0.06260074275","0.4480494518","","","","","","","","","","","","","","74","J","1","","","44","main_expt",""
"","bandit","124","504256","0.0-86.0-0.0","08055384","wem/bandit_party_1","AEWPAZBYA7XE","either","5","467","","","","","","","0","0","1","0.02744239742","","0.2","0.4","0.6","0.8","","","","","0.02744239742","0.4507048108","0.08062123592","0.4269729589","","","","","","","","","","72","H","0","img/none_selected.jpg","","45","main_expt",""
"","bandit","125","506170","0.0-87.0-0.0","08055384","wem/bandit_party_1","AEWPAZBYA7XE","either","5","358","","","","","","","0","0","1","","0.02347437243","0.2","0.4","0.6","0.8","0.02347437243","0.4382321206","0.1110847749","0.4475746277","","","","","","","","","","","","","","72","H","0","img/none_selected.jpg","","46","main_expt",""
"","bandit","126","508113","0.0-88.0-0.0","08055384","wem/bandit_party_1","AEWPAZBYA7XE","either","5","416","","","","","","","0","1","0","","0.05346849493","0.2","0.4","0.6","0.8","0.02418160198","0.4393937913","0.05346849493","0.4295618238","","","","","","","","","","","","","","75","K","2","","","47","main_expt",""
"","bandit","127","509966","0.0-89.0-0.0","08055384","wem/bandit_party_1","AEWPAZBYA7XE","either","5","305","","","","","","","0","0","1","0.04499733497","","0.2","0.4","0.6","0.8","","","","","0.01182676654","0.440318131","0.04499733497","0.4431907244","","","","","","","","","","75","K","2","","","48","main_expt",""
"","bandit","128","512216","0.0-90.0-0.0","08055384","wem/bandit_party_1","AEWPAZBYA7XE","either","5","371","","","","","","","0","0","1","","0.07378534534","0.2","0.4","0.6","0.8","0.0186287842","0.4362102412","0.07378534534","0.4187732916","","","","","","","","","","","","","","75","K","2","","","49","main_expt",""
"","bandit","129","514151","0.0-91.0-0.0","08055384","wem/bandit_party_1","AEWPAZBYA7XE","either","5","376","","","","","","","0","0","1","0.06168845619","","0.2","0.4","0.6","0.8","","","","","0.02550629551","0.44488671","0.06168845619","0.356579213","","","","","","","","","","75","K","2","","","50","main_expt",""
"","bandit","130","517158","0.0-92.0-0.0","08055384","wem/bandit_party_1","AEWPAZBYA7XE","either","5","1470","","","","","","","1","0","0","0.2629404955","","0.2","0.4","0.6","0.8","","","","","0.04366809707","0.4633405548","0.1062028567","0.2629404955","","","","","","","","","","76","L","3","","","51","main_expt",""
"","bandit","131","519028","0.0-93.0-0.0","08055384","wem/bandit_party_1","AEWPAZBYA7XE","either","5","326","","","","","","","0","0","1","0.2919747068","","0.2","0.4","0.6","0.8","","","","","0.04357168116","0.4528043762","0.1379608546","0.2919747068","","","","","","","","","","76","L","3","","","52","main_expt",""
"","bandit","132","521057","0.0-94.0-0.0","08055384","wem/bandit_party_1","AEWPAZBYA7XE","either","5","458","","","","","","","1","0","0","0.3809901122","","0.2","0.4","0.6","0.8","","","","","0.03899227154","0.4390431751","0.1356826849","0.3809901122","","","","","","","","","","76","L","3","","","53","main_expt",""
"","bandit","133","522895","0.0-95.0-0.0","08055384","wem/bandit_party_1","AEWPAZBYA7XE","either","5","289","","","","","","","1","0","0","0.3452518694","","0.2","0.4","0.6","0.8","","","","","0.04009146386","0.4549270822","0.1038772241","0.3452518694","","","","","","","","","","76","L","3","","","54","main_expt",""
"","bandit","134","525275","0.0-96.0-0.0","08055384","wem/bandit_party_1","AEWPAZBYA7XE","either","5","378","","","","","","","0","0","1","0.3263112327","","0.2","0.4","0.6","0.8","","","","","0.0155768565","0.4710341864","0.1689791829","0.3263112327","","","","","","","","","","76","L","3","","","55","main_expt",""
"","bandit","135","527169","0.0-97.0-0.0","08055384","wem/bandit_party_1","AEWPAZBYA7XE","either","5","325","","","","","","","0","1","0","","0.3308963945","0.2","0.4","0.6","0.8","0.02112461672","0.4745834276","0.1108888145","0.3308963945","","","","","","","","","","","","","","76","L","3","","","56","main_expt",""
"","bandit","136","529085","0.0-98.0-0.0","08055384","wem/bandit_party_1","AEWPAZBYA7XE","either","5","369","","","","","","","0","0","1","0.3150326571","","0.2","0.4","0.6","0.8","","","","","0.0126553198","0.489318572","0.1206542402","0.3150326571","","","","","","","","","","76","L","3","","","57","main_expt",""
"","bandit","137","531007","0.0-99.0-0.0","08055384","wem/bandit_party_1","AEWPAZBYA7XE","either","5","353","","","","","","","1","0","0","0.3049116772","","0.2","0.4","0.6","0.8","","","","","0.01131359515","0.480037986","0.09707343937","0.3049116772","","","","","","","","","","76","L","3","","","58","main_expt",""
"","bandit","138","533964","0.0-100.0-0.0","08055384","wem/bandit_party_1","AEWPAZBYA7XE","either","5","1326","","","","","","","0","0","1","0.3050987947","","0.2","0.4","0.6","0.8","","","","","0.01030075821","0.4593461039","0.1044384952","0.3050987947","","","","","","","","","","76","L","3","","","59","main_expt",""
"","bandit","139","535958","0.0-101.0-0.0","08055384","wem/bandit_party_1","AEWPAZBYA7XE","either","5","352","","","","","","","0","0","1","","0.3274009355","0.2","0.4","0.6","0.8","0.005868957973","0.446051488","0.08890369623","0.3274009355","","","","","","","","","","","","","","76","L","3","","","60","main_expt",""
"","bandit","140","537989","0.0-102.0-0.0","08055384","wem/bandit_party_1","AEWPAZBYA7XE","either","5","472","","","","","","","1","0","0","0.3428943983","","0.2","0.4","0.6","0.8","","","","","0.004361943215","0.4391285327","0.08921221942","0.3428943983","","","","","","","","","","76","L","3","","","61","main_expt",""
"","bandit","141","539902","0.0-103.0-0.0","08055384","wem/bandit_party_1","AEWPAZBYA7XE","either","5","331","","","","","","","0","0","1","0.3549763931","","0.2","0.4","0.6","0.8","","","","","0.005208412743","0.4063883723","0.09812025034","0.3549763931","","","","","","","","","","76","L","3","","","62","main_expt",""
"","bandit","142","542051","0.0-104.0-0.0","08055384","wem/bandit_party_1","AEWPAZBYA7XE","either","5","394","","","","","","","1","0","0","0.3496678451","","0.2","0.4","0.6","0.8","","","","","0.006461011255","0.4330387396","0.09006279409","0.3496678451","","","","","","","","","","76","L","3","","","63","main_expt",""
"","bandit","143","543922","0.0-105.0-0.0","08055384","wem/bandit_party_1","AEWPAZBYA7XE","either","5","301","","","","","","","0","0","1","0.3188537263","","0.2","0.4","0.6","0.8","","","","","0.01267926231","0.4207902426","0.1118976224","0.3188537263","","","","","","","","","","76","L","3","","","64","main_expt",""
"","bandit","144","545897","0.0-106.0-0.0","08055384","wem/bandit_party_1","AEWPAZBYA7XE","either","5","426","","","","","","","1","0","0","0.3191795336","","0.2","0.4","0.6","0.8","","","","","0.009732787917","0.3719582347","0.1053817613","0.3191795336","","","","","","","","","","76","L","3","","","65","main_expt",""
"","bandit","145","549238","0.0-107.0-0.0","08055384","wem/bandit_party_1","AEWPAZBYA7XE","either","5","566","","","","","","","0","0","1","","0.268616347","0.2","0.4","0.6","0.8","0.01092542651","0.3748569955","0.1307356695","0.268616347","","","","","","","","","","","","","","76","L","3","","","66","main_expt",""
"","bandit","146","551113","0.0-108.0-0.0","08055384","wem/bandit_party_1","AEWPAZBYA7XE","either","5","323","","","","","","","0","1","0","","0.259194563","0.2","0.4","0.6","0.8","0.02125534741","0.335252031","0.1418436428","0.259194563","","","","","","","","","","","","","","76","L","3","","","67","main_expt",""
"","bandit","147","552992","0.0-109.0-0.0","08055384","wem/bandit_party_1","AEWPAZBYA7XE","either","5","337","","","","","","","0","0","1","0.2281204868","","0.2","0.4","0.6","0.8","","","","","0.02360283027","0.3199157278","0.1459089566","0.2281204868","","","","","","","","","","76","L","3","","","68","main_expt",""
"","bandit","148","554893","0.0-110.0-0.0","08055384","wem/bandit_party_1","AEWPAZBYA7XE","either","5","345","","","","","","","0","0","1","0.2195844169","","0.2","0.4","0.6","0.8","","","","","0.02539305756","0.3068525281","0.1809721424","0.2195844169","","","","","","","","","","76","L","3","","","69","main_expt",""
"","bandit","149","556855","0.0-111.0-0.0","08055384","wem/bandit_party_1","AEWPAZBYA7XE","either","5","300","","","","","","","0","1","0","","0.1784068974","0.2","0.4","0.6","0.8","0.05014388586","0.3181076016","0.1784068974","0.1883338509","","","","","","","","","","","","","","75","K","2","","","70","main_expt",""
"","bandit","150","559417","0.0-112.0-0.0","08055384","wem/bandit_party_1","AEWPAZBYA7XE","either","5","433","","","","","","","0","0","1","0.1973023396","","0.2","0.4","0.6","0.8","","","","","0.04209054697","0.2926426422","0.1973023396","0.1639708178","","","","","","","","","","75","K","2","","","71","main_expt",""
"","bandit","151","561315","0.0-113.0-0.0","08055384","wem/bandit_party_1","AEWPAZBYA7XE","either","5","326","","","","","","","0","0","1","0.2436342847","","0.2","0.4","0.6","0.8","","","","","0.05611199342","0.2380263643","0.2436342847","0.1312842785","","","","","","","","","","75","K","2","","","72","main_expt",""
"","bandit","152","564354","0.0-114.0-0.0","08055384","wem/bandit_party_1","AEWPAZBYA7XE","either","5","1485","","","","","","","0","1","0","","0.2407197948","0.2","0.4","0.6","0.8","0.05293238473","0.2407197948","0.1992173182","0.1805041857","","","","","","","","","","","","","","74","J","1","","","73","main_expt",""
"","bandit","153","566287","0.0-115.0-0.0","08055384","wem/bandit_party_1","AEWPAZBYA7XE","either","5","353","","","","","","","0","0","1","0.2317468449","","0.2","0.4","0.6","0.8","","","","","0.0318456884","0.2317468449","0.2347098304","0.1739557812","","","","","","","","","","74","J","1","","","74","main_expt",""
"","bandit","154","568167","0.0-116.0-0.0","08055384","wem/bandit_party_1","AEWPAZBYA7XE","either","5","318","","","","","","","0","0","1","","0.2545997551","0.2","0.4","0.6","0.8","0.03873230677","0.2545997551","0.2641442137","0.2434916027","","","","","","","","","","","","","","74","J","1","","","75","main_expt",""
"","bandit","155","570068","0.0-117.0-0.0","08055384","wem/bandit_party_1","AEWPAZBYA7XE","either","5","340","","","","","","","0","0","1","0.2890845388","","0.2","0.4","0.6","0.8","","","","","0.03304947682","0.2890845388","0.3192644053","0.2438468568","","","","","","","","","","74","J","1","","","76","main_expt",""
"","bandit","156","572250","0.0-118.0-0.0","08055384","wem/bandit_party_1","AEWPAZBYA7XE","either","5","370","","","","","","","0","1","0","","0.02607887458","0.2","0.4","0.6","0.8","0.02607887458","0.2386362654","0.3351132613","0.2425324642","","","","","","","","","","","","","","72","H","0","img/none_selected.jpg","","77","main_expt",""
"","bandit","157","574115","0.0-119.0-0.0","08055384","wem/bandit_party_1","AEWPAZBYA7XE","either","5","324","","","","","","","0","0","1","","0.02492981692","0.2","0.4","0.6","0.8","0.02492981692","0.2673679704","0.3086784207","0.205588479","","","","","","","","","","","","","","72","H","0","img/none_selected.jpg","","78","main_expt",""
"","bandit","158","576713","0.0-120.0-0.0","08055384","wem/bandit_party_1","AEWPAZBYA7XE","either","5","622","","","","","","","0","0","1","","0.01824110002","0.2","0.4","0.6","0.8","0.01824110002","0.2813811921","0.3076482073","0.213062191","","","","","","","","","","","","","","72","H","0","img/none_selected.jpg","","79","main_expt",""
"","bandit","159","580330","0.0-121.0-0.0","08055384","wem/bandit_party_1","AEWPAZBYA7XE","either","5","1846","","","","","","","0","0","1","","0.0202176162","0.2","0.4","0.6","0.8","0.0202176162","0.2419447949","0.3605025214","0.1852926048","","","","","","","","","","","","","","72","H","0","img/none_selected.jpg","","80","main_expt",""
"","bandit","160","582721","0.0-122.0-0.0","08055384","wem/bandit_party_1","AEWPAZBYA7XE","either","5","477","","","","","","","0","0","1","0.2332942271","","0.2","0.4","0.6","0.8","","","","","0.0252752587","0.323481111","0.3286166321","0.2332942271","","","","","","","","","","76","L","3","","","81","main_expt",""
"","bandit","161","584615","0.0-123.0-0.0","08055384","wem/bandit_party_1","AEWPAZBYA7XE","either","5","332","","","","","","","0","0","1","0.2087797338","","0.2","0.4","0.6","0.8","","","","","0.05668457717","0.3097244961","0.3459677762","0.2087797338","","","","","","","","","","76","L","3","","","82","main_expt",""
"","bandit","162","587006","0.0-124.0-0.0","08055384","wem/bandit_party_1","AEWPAZBYA7XE","either","5","418","","","","","","","0","0","1","0.3092751195","","0.2","0.4","0.6","0.8","","","","","0.07760530004","0.2787498647","0.3092751195","0.2049979043","","","","","","","","","","75","K","2","","","83","main_expt",""
"","bandit","163","589958","0.0-125.0-0.0","08055384","wem/bandit_party_1","AEWPAZBYA7XE","either","5","302","","","","","","","0","0","1","0.3044630387","","0.2","0.4","0.6","0.8","","","","","0.03696005566","0.2589524449","0.3044630387","0.2151780091","","","","","","","","","","75","K","2","","","84","main_expt",""
"","bandit","164","591792","0.0-126.0-0.0","08055384","wem/bandit_party_1","AEWPAZBYA7XE","either","5","280","","","","","","","0","0","1","","0.2769318636","0.2","0.4","0.6","0.8","0.04177257934","0.2769318636","0.2812480587","0.1497615914","","","","","","","","","","","","","","74","J","1","","","85","main_expt",""
"","bandit","165","593683","0.0-127.0-0.0","08055384","wem/bandit_party_1","AEWPAZBYA7XE","either","5","327","","","","","","","0","0","1","","0.2849222391","0.2","0.4","0.6","0.8","0.0385770192","0.2849222391","0.2506532223","0.1223687677","","","","","","","","","","","","","","74","J","1","","","86","main_expt",""
"","bandit","166","595692","0.0-128.0-0.0","08055384","wem/bandit_party_1","AEWPAZBYA7XE","either","5","339","","","","","","","0","0","1","0.03720252147","","0.2","0.4","0.6","0.8","","","","","0.03720252147","0.3131087309","0.2269900387","0.1472857413","","","","","","","","","","72","H","0","img/none_selected.jpg","","87","main_expt",""
"","bandit","167","597641","0.0-129.0-0.0","08055384","wem/bandit_party_1","AEWPAZBYA7XE","either","5","377","","","","","","","0","0","1","0.06746059371","","0.2","0.4","0.6","0.8","","","","","0.06746059371","0.3038587512","0.1504729919","0.1252586248","","","","","","","","","","72","H","0","img/none_selected.jpg","","88","main_expt",""
"","bandit","168","599816","0.0-130.0-0.0","08055384","wem/bandit_party_1","AEWPAZBYA7XE","either","5","471","","","","","","","1","0","0","0.3308022157","","0.2","0.4","0.6","0.8","","","","","0.04069757945","0.3308022157","0.1382070302","0.1194927994","","","","","","","","","","74","J","1","","","89","main_expt",""
"","bandit","169","601667","0.0-131.0-0.0","08055384","wem/bandit_party_1","AEWPAZBYA7XE","either","5","325","","","","","","","0","0","1","","0.3574922351","0.2","0.4","0.6","0.8","0.07325379503","0.3574922351","0.1364765349","0.1589750007","","","","","","","","","","","","","","74","J","1","","","90","main_expt",""
"","bandit","170","604178","0.0-132.0-0.0","08055384","wem/bandit_party_1","AEWPAZBYA7XE","either","5","379","","","","","","","0","0","1","0.3729517688","","0.2","0.4","0.6","0.8","","","","","0.06877471811","0.3729517688","0.09318196272","0.1859960426","","","","","","","","","","74","J","1","","","91","main_expt",""
"","bandit","171","606210","0.0-133.0-0.0","08055384","wem/bandit_party_1","AEWPAZBYA7XE","either","5","472","","","","","","","0","0","1","","0.398352994","0.2","0.4","0.6","0.8","0.04115987362","0.398352994","0.06946097624","0.192419488","","","","","","","","","","","","","","74","J","1","","","92","main_expt",""
"","bandit","172","608019","0.0-134.0-0.0","08055384","wem/bandit_party_1","AEWPAZBYA7XE","either","5","246","","","","","","","0","0","1","0.08102832817","","0.2","0.4","0.6","0.8","","","","","0.07078892783","0.4135860398","0.08102832817","0.1716033463","","","","","","","","","","75","K","2","","","93","main_expt",""
"","bandit","173","609890","0.0-135.0-0.0","08055384","wem/bandit_party_1","AEWPAZBYA7XE","either","5","309","","","","","","","0","0","1","0.1271360848","","0.2","0.4","0.6","0.8","","","","","0.05572868433","0.3786880174","0.1271360848","0.1935897604","","","","","","","","","","75","K","2","","","94","main_expt",""
"","bandit","174","612357","0.0-136.0-0.0","08055384","wem/bandit_party_1","AEWPAZBYA7XE","either","5","315","","","","","","","0","0","1","0.1097592989","","0.2","0.4","0.6","0.8","","","","","0.05056929995","0.3823424718","0.1097592989","0.2193228015","","","","","","","","","","75","K","2","","","95","main_expt",""
"","bandit","175","614708","0.0-137.0-0.0","08055384","wem/bandit_party_1","AEWPAZBYA7XE","either","5","824","","","","","","","1","0","0","0.3262643469","","0.2","0.4","0.6","0.8","","","","","0.04159874267","0.3642725552","0.1085490834","0.3262643469","","","","","","","","","","76","L","3","","","96","main_expt",""
"","bandit","176","617267","0.0-138.0-0.0","08055384","wem/bandit_party_1","AEWPAZBYA7XE","either","5","1023","","","","","","","0","0","1","0.3207405496","","0.2","0.4","0.6","0.8","","","","","0.03654451862","0.3197717944","0.1049812554","0.3207405496","","","","","","","","","","76","L","3","","","97","main_expt",""
"","bandit","177","619651","0.0-139.0-0.0","08055384","wem/bandit_party_1","AEWPAZBYA7XE","either","5","353","","","","","","","1","0","0","0.3712856991","","0.2","0.4","0.6","0.8","","","","","0.04190300095","0.2514424369","0.08177978443","0.3712856991","","","","","","","","","","76","L","3","","","98","main_expt",""
"","bandit","178","621537","0.0-140.0-0.0","08055384","wem/bandit_party_1","AEWPAZBYA7XE","either","5","328","","","","","","","0","0","1","0.3740145378","","0.2","0.4","0.6","0.8","","","","","0.08742990617","0.2926772137","0.07574087804","0.3740145378","","","","","","","","","","76","L","3","","","99","main_expt",""
"","bandit","179","624987","0.0-141.0-0.0","08055384","wem/bandit_party_1","AEWPAZBYA7XE","either","5","1904","","","","","","","1","0","0","0.3776295542","","0.2","0.4","0.6","0.8","","","","","0.08966523481","0.234485335","0.07829319678","0.3776295542","","","","","","","","","","76","L","3","","","100","main_expt",""
"","bandit","180","626980","0.0-142.0-0.0","08055384","wem/bandit_party_1","AEWPAZBYA7XE","either","5","364","","","","","","","0","0","1","0.3592666398","","0.2","0.4","0.6","0.8","","","","","0.07849065771","0.250352175","0.07919243683","0.3592666398","","","","","","","","","","76","L","3","","","101","main_expt",""
"","bandit","181","629006","0.0-143.0-0.0","08055384","wem/bandit_party_1","AEWPAZBYA7XE","either","5","357","","","","","","","0","0","1","0.3412191773","","0.2","0.4","0.6","0.8","","","","","0.1054267613","0.2139972863","0.1052753188","0.3412191773","","","","","","","","","","76","L","3","","","102","main_expt",""
"","bandit","182","630960","0.0-144.0-0.0","08055384","wem/bandit_party_1","AEWPAZBYA7XE","either","5","298","","","","","","","0","0","1","","0.3133100433","0.2","0.4","0.6","0.8","0.1120981937","0.20092706","0.1248526142","0.3133100433","","","","","","","","","","","","","","76","L","3","","","103","main_expt",""
"","bandit","183","632976","0.0-145.0-0.0","08055384","wem/bandit_party_1","AEWPAZBYA7XE","either","5","397","","","","","","","0","0","1","0.3219148419","","0.2","0.4","0.6","0.8","","","","","0.1034740879","0.2305366804","0.142969925","0.3219148419","","","","","","","","","","76","L","3","","","104","main_expt",""
"","bandit","184","634931","0.0-146.0-0.0","08055384","wem/bandit_party_1","AEWPAZBYA7XE","either","5","401","","","","","","","0","0","1","","0.13947254","0.2","0.4","0.6","0.8","0.07597240327","0.2102135581","0.13947254","0.3300892518","","","","","","","","","","","","","","75","K","2","","","105","main_expt",""
"","bandit","185","637447","0.0-147.0-0.0","08055384","wem/bandit_party_1","AEWPAZBYA7XE","either","5","365","","","","","","","0","0","1","","0.1329526997","0.2","0.4","0.6","0.8","0.1124257427","0.2219457329","0.1329526997","0.3401839058","","","","","","","","","","","","","","75","K","2","","","106","main_expt",""
"","bandit","186","639804","0.0-148.0-0.0","08055384","wem/bandit_party_1","AEWPAZBYA7XE","either","5","323","","","","","","","0","1","0","","0.1727290233","0.2","0.4","0.6","0.8","0.1133168519","0.3048423019","0.1727290233","0.3784706915","","","","","","","","","","","","","","75","K","2","","","107","main_expt",""
"","bandit","187","641655","0.0-149.0-0.0","08055384","wem/bandit_party_1","AEWPAZBYA7XE","either","5","296","","","","","","","0","0","1","0.1864487031","","0.2","0.4","0.6","0.8","","","","","0.1752395656","0.258150515","0.1864487031","0.3945753887","","","","","","","","","","75","K","2","","","108","main_expt",""
"","bandit","188","643540","0.0-150.0-0.0","08055384","wem/bandit_party_1","AEWPAZBYA7XE","either","5","311","","","","","","","0","0","1","0.2463216238","","0.2","0.4","0.6","0.8","","","","","0.1862973424","0.1859129148","0.2463216238","0.356827327","","","","","","","","","","75","K","2","","","109","main_expt",""
"","bandit","189","645431","0.0-151.0-0.0","08055384","wem/bandit_party_1","AEWPAZBYA7XE","either","5","325","","","","","","","0","0","1","0.1371624404","","0.2","0.4","0.6","0.8","","","","","0.2015845776","0.1371624404","0.2431522628","0.2344179837","","","","","","","","","","74","J","1","","","110","main_expt",""
"","bandit","190","647373","0.0-152.0-0.0","08055384","wem/bandit_party_1","AEWPAZBYA7XE","either","5","403","","","","","","","0","0","1","","0.1258232978","0.2","0.4","0.6","0.8","0.2003651753","0.1258232978","0.1757476643","0.2644823096","","","","","","","","","","","","","","74","J","1","","","111","main_expt",""
"","bandit","191","650003","0.0-153.0-0.0","08055384","wem/bandit_party_1","AEWPAZBYA7XE","either","5","381","","","","","","","0","0","1","","0.1529967373","0.2","0.4","0.6","0.8","0.21392293","0.1529967373","0.2451518953","0.28311182","","","","","","","","","","","","","","74","J","1","","","112","main_expt",""
"","bandit","192","651897","0.0-154.0-0.0","08055384","wem/bandit_party_1","AEWPAZBYA7XE","either","5","343","","","","","","","0","0","1","","0.148248117","0.2","0.4","0.6","0.8","0.1606798039","0.148248117","0.2407836715","0.2413269532","","","","","","","","","","","","","","74","J","1","","","113","main_expt",""
"","bandit","193","653952","0.0-155.0-0.0","08055384","wem/bandit_party_1","AEWPAZBYA7XE","either","5","439","","","","","","","0","0","1","","0.2095980235","0.2","0.4","0.6","0.8","0.2095980235","0.1562208239","0.3099317417","0.3100969134","","","","","","","","","","","","","","72","H","0","img/none_selected.jpg","","114","main_expt",""
"","bandit","194","655856","0.0-156.0-0.0","08055384","wem/bandit_party_1","AEWPAZBYA7XE","either","5","346","","","","","","","0","0","1","0.2550279667","","0.2","0.4","0.6","0.8","","","","","0.2550279667","0.2138032898","0.3180754701","0.329842252","","","","","","","","","","72","H","0","img/none_selected.jpg","","115","main_expt",""
"","bandit","195","658465","0.0-157.0-0.0","08055384","wem/bandit_party_1","AEWPAZBYA7XE","either","5","476","","","","","","","0","0","1","0.2471764387","","0.2","0.4","0.6","0.8","","","","","0.2471764387","0.2331260325","0.2919742107","0.3223706096","","","","","","","","","","72","H","0","img/none_selected.jpg","","116","main_expt",""
"","bandit","196","662214","0.0-158.0-0.0","08055384","wem/bandit_party_1","AEWPAZBYA7XE","either","5","2210","","","","","","","0","0","1","0.3098408215","","0.2","0.4","0.6","0.8","","","","","0.2730878341","0.1826309729","0.2799774295","0.3098408215","","","","","","","","","","76","L","3","","","117","main_expt",""
"","bandit","197","664185","0.0-159.0-0.0","08055384","wem/bandit_party_1","AEWPAZBYA7XE","either","5","326","","","","","","","0","1","0","","0.2974554567","0.2","0.4","0.6","0.8","0.2071462199","0.1511269107","0.2646714695","0.2974554567","","","","","","","","","","","","","","76","L","3","","","118","main_expt",""
"","bandit","198","666044","0.0-160.0-0.0","08055384","wem/bandit_party_1","AEWPAZBYA7XE","either","5","301","","","","","","","0","0","1","0.3598468986","","0.2","0.4","0.6","0.8","","","","","0.2275232499","0.1559979654","0.3179839519","0.3598468986","","","","","","","","","","76","L","3","","","119","main_expt",""
"","bandit","199","667907","0.0-161.0-0.0","08055384","wem/bandit_party_1","AEWPAZBYA7XE","either","5","296","","","","","","","0","0","1","0.2984373086","","0.2","0.4","0.6","0.8","","","","","0.2767559596","0.1463004055","0.3302262658","0.2984373086","","","","","","","","","","76","L","3","","","120","main_expt",""
"","bandit","200","670347","0.0-162.0-0.0","08055384","wem/bandit_party_1","AEWPAZBYA7XE","either","5","347","","","","","","","0","1","0","","0.2973090059","0.2","0.4","0.6","0.8","0.3448590315","0.1418195479","0.3500549905","0.2973090059","","","","","","","","","","","","","","76","L","3","","","121","main_expt",""
"","bandit","201","672196","0.0-163.0-0.0","08055384","wem/bandit_party_1","AEWPAZBYA7XE","either","5","299","","","","","","","1","0","0","0.3382791822","","0.2","0.4","0.6","0.8","","","","","0.3593301016","0.1270782113","0.2686616284","0.3382791822","","","","","","","","","","76","L","3","","","122","main_expt",""
"","bandit","202","674100","0.0-164.0-0.0","08055384","wem/bandit_party_1","AEWPAZBYA7XE","either","5","360","","","","","","","1","0","0","0.3154347028","","0.2","0.4","0.6","0.8","","","","","0.3680529171","0.1207154071","0.2277230314","0.3154347028","","","","","","","","","","76","L","3","","","123","main_expt",""
"","bandit","203","677111","0.0-165.0-0.0","08055384","wem/bandit_party_1","AEWPAZBYA7XE","either","5","311","","","","","","","0","0","1","0.2966737815","","0.2","0.4","0.6","0.8","","","","","0.3476523483","0.1229329119","0.3287090939","0.2966737815","","","","","","","","","","76","L","3","","","124","main_expt",""
"","bandit","204","679048","0.0-166.0-0.0","08055384","wem/bandit_party_1","AEWPAZBYA7XE","either","5","390","","","","","","","0","0","1","0.3094831126","","0.2","0.4","0.6","0.8","","","","","0.3564603465","0.09241122996","0.3687339586","0.3094831126","","","","","","","","","","76","L","3","","","125","main_expt",""
"","bandit","205","680955","0.0-167.0-0.0","08055384","wem/bandit_party_1","AEWPAZBYA7XE","either","5","331","","","","","","","0","0","1","0.2488993205","","0.2","0.4","0.6","0.8","","","","","0.3550684458","0.08418962236","0.3836195774","0.2488993205","","","","","","","","","","76","L","3","","","126","main_expt",""
"","bandit","206","682865","0.0-168.0-0.0","08055384","wem/bandit_party_1","AEWPAZBYA7XE","either","5","339","","","","","","","0","0","1","","0.3617365958","0.2","0.4","0.6","0.8","0.3235559827","0.154715772","0.3617365958","0.1953487027","","","","","","","","","","","","","","75","K","2","","","127","main_expt",""
"","bandit","207","686150","0.0-169.0-0.0","08055384","wem/bandit_party_1","AEWPAZBYA7XE","either","5","324","","","","","","","0","0","1","0.3235283493","","0.2","0.4","0.6","0.8","","","","","0.312087491","0.1556709078","0.3235283493","0.2171889907","","","","","","","","","","75","K","2","","","128","main_expt",""
"","bandit","208","688045","0.0-170.0-0.0","08055384","wem/bandit_party_1","AEWPAZBYA7XE","either","5","356","","","","","","","0","0","1","0.3453830546","","0.2","0.4","0.6","0.8","","","","","0.2843272188","0.1214200615","0.3453830546","0.2467699801","","","","","","","","","","75","K","2","","","129","main_expt",""
"","bandit","209","689956","0.0-171.0-0.0","08055384","wem/bandit_party_1","AEWPAZBYA7XE","either","5","335","","","","","","","0","0","1","","0.1377283829","0.2","0.4","0.6","0.8","0.2128416856","0.1377283829","0.3242747857","0.2814443482","","","","","","","","","","","","","","74","J","1","","","130","main_expt",""
"","bandit","210","691895","0.0-172.0-0.0","08055384","wem/bandit_party_1","AEWPAZBYA7XE","either","5","364","","","","","","","0","0","1","","0.1397421628","0.2","0.4","0.6","0.8","0.2403879813","0.1397421628","0.3417201858","0.2834176508","","","","","","","","","","","","","","74","J","1","","","131","main_expt",""
"","bandit","211","693777","0.0-173.0-0.0","08055384","wem/bandit_party_1","AEWPAZBYA7XE","either","5","305","","","","","","","0","1","0","","0.1061875113","0.2","0.4","0.6","0.8","0.2811421594","0.1061875113","0.3498614837","0.2429908031","","","","","","","","","","","","","","74","J","1","","","132","main_expt",""
"","bandit","212","695981","0.0-174.0-0.0","08055384","wem/bandit_party_1","AEWPAZBYA7XE","either","5","502","","","","","","","0","0","1","","0.07774811701","0.2","0.4","0.6","0.8","0.3002858371","0.07774811701","0.3134828643","0.3053559495","","","","","","","","","","","","","","74","J","1","","","133","main_expt",""
"","bandit","213","697926","0.0-175.0-0.0","08055384","wem/bandit_party_1","AEWPAZBYA7XE","either","5","330","","","","","","","0","0","1","","0.08211281178","0.2","0.4","0.6","0.8","0.277406375","0.08211281178","0.3554593188","0.2693478067","","","","","","","","","","","","","","74","J","1","","","134","main_expt",""
"","bandit","214","701079","0.0-176.0-0.0","08055384","wem/bandit_party_1","AEWPAZBYA7XE","either","5","1542","","","","","","","0","0","1","","0.1123817552","0.2","0.4","0.6","0.8","0.2897147582","0.1123817552","0.3150900126","0.3369166079","","","","","","","","","","","","","","74","J","1","","","135","main_expt",""
"","bandit","215","703076","0.0-177.0-0.0","08055384","wem/bandit_party_1","AEWPAZBYA7XE","either","5","463","","","","","","","0","0","1","","0.3590576628","0.2","0.4","0.6","0.8","0.3590576628","0.1478339482","0.3199395785","0.268603144","","","","","","","","","","","","","","72","H","0","img/none_selected.jpg","","136","main_expt",""
"","bandit","216","704982","0.0-178.0-0.0","08055384","wem/bandit_party_1","AEWPAZBYA7XE","either","5","340","","","","","","","0","1","0","","0.3822427384","0.2","0.4","0.6","0.8","0.3822427384","0.1374936615","0.33362357","0.2373427956","","","","","","","","","","","","","","72","H","0","img/none_selected.jpg","","137","main_expt",""
"","bandit","217","706876","0.0-179.0-0.0","08055384","wem/bandit_party_1","AEWPAZBYA7XE","either","5","334","","","","","","","0","1","0","","0.3410071165","0.2","0.4","0.6","0.8","0.3410071165","0.159761955","0.3611324022","0.2206869265","","","","","","","","","","","","","","72","H","0","img/none_selected.jpg","","138","main_expt",""
"","bandit","218","709190","0.0-180.0-0.0","08055384","wem/bandit_party_1","AEWPAZBYA7XE","either","5","347","","","","","","","0","0","1","0.3738014659","","0.2","0.4","0.6","0.8","","","","","0.3738014659","0.1363721132","0.3504145086","0.2177966349","","","","","","","","","","72","H","0","img/none_selected.jpg","","139","main_expt",""
"","bandit","219","711075","0.0-181.0-0.0","08055384","wem/bandit_party_1","AEWPAZBYA7XE","either","5","320","","","","","","","0","0","1","","0.422575493","0.2","0.4","0.6","0.8","0.422575493","0.1031445192","0.309774603","0.2387685432","","","","","","","","","","","","","","72","H","0","img/none_selected.jpg","","140","main_expt",""
"","bandit","220","713010","0.0-182.0-0.0","08055384","wem/bandit_party_1","AEWPAZBYA7XE","either","5","410","","","","","","","0","0","1","","0.4439129864","0.2","0.4","0.6","0.8","0.4439129864","0.09805286369","0.3506531288","0.2575087366","","","","","","","","","","","","","","72","H","0","img/none_selected.jpg","","141","main_expt",""
"","bandit","221","714899","0.0-183.0-0.0","08055384","wem/bandit_party_1","AEWPAZBYA7XE","either","5","325","","","","","","","0","0","1","0.1149002948","","0.2","0.4","0.6","0.8","","","","","0.4323802182","0.1149002948","0.2965027242","0.2392038972","","","","","","","","","","74","J","1","","","142","main_expt",""
"","bandit","222","716855","0.0-184.0-0.0","08055384","wem/bandit_party_1","AEWPAZBYA7XE","either","5","384","","","","","","","0","0","1","0.2087517366","","0.2","0.4","0.6","0.8","","","","","0.4358412593","0.1209542099","0.2087517366","0.2216470548","","","","","","","","","","75","K","2","","","143","main_expt",""
"","bandit","223","718816","0.0-185.0-0.0","08055384","wem/bandit_party_1","AEWPAZBYA7XE","either","5","401","","","","","","","0","0","1","0.2224896139","","0.2","0.4","0.6","0.8","","","","","0.4407373256","0.1202521083","0.2313605626","0.2224896139","","","","","","","","","","76","L","3","","","144","main_expt",""
"","bandit","224","720841","0.0-186.0-0.0","08055384","wem/bandit_party_1","AEWPAZBYA7XE","either","5","411","","","","","","","0","0","1","","0.1785565547","0.2","0.4","0.6","0.8","0.4661091035","0.1619743669","0.1785565547","0.1925605464","","","","","","","","","","","","","","75","K","2","","","145","main_expt",""
"","bandit","225","724357","0.0-187.0-0.0","08055384","wem/bandit_party_1","AEWPAZBYA7XE","either","5","301","","","","","","","0","0","1","","0.1664631043","0.2","0.4","0.6","0.8","0.4637097668","0.1664631043","0.1770660648","0.2069800611","","","","","","","","","","","","","","74","J","1","","","146","main_expt",""
"","bandit","226","726329","0.0-188.0-0.0","08055384","wem/bandit_party_1","AEWPAZBYA7XE","either","5","336","","","","","","","0","1","0","","0.4700491642","0.2","0.4","0.6","0.8","0.4700491642","0.1669241763","0.1063371611","0.2489662189","","","","","","","","","","","","","","72","H","0","img/none_selected.jpg","","147","main_expt",""
"","bandit","227","728217","0.0-189.0-0.0","08055384","wem/bandit_party_1","AEWPAZBYA7XE","either","5","347","","","","","","","0","0","1","","0.4648109734","0.2","0.4","0.6","0.8","0.4648109734","0.1581456949","0.1216370817","0.1946464158","","","","","","","","","","","","","","72","H","0","img/none_selected.jpg","","148","main_expt",""
"","bandit","228","730154","0.0-190.0-0.0","08055384","wem/bandit_party_1","AEWPAZBYA7XE","either","5","365","","","","","","","0","1","0","","0.4635511513","0.2","0.4","0.6","0.8","0.4635511513","0.1698392466","0.1024256959","0.1826562491","","","","","","","","","","","","","","72","H","0","img/none_selected.jpg","","149","main_expt",""
"","bandit","229","732115","0.0-191.0-0.0","08055384","wem/bandit_party_1","AEWPAZBYA7XE","either","5","361","","","","","","","0","1","0","","0.4445017148","0.2","0.4","0.6","0.8","0.4445017148","0.2140114634","0.1371094633","0.1750473563","","","","","","","","","","","","","","72","H","0","img/none_selected.jpg","","150","main_expt",""
"","bandit","230","734658","0.0-192.0-0.0","08055384","wem/bandit_party_1","AEWPAZBYA7XE","either","5","387","","","","","","","0","0","1","","0.4434799742","0.2","0.4","0.6","0.8","0.4434799742","0.2392960001","0.1702433702","0.1109536645","","","","","","","","","","","","","","72","H","0","img/none_selected.jpg","","151","main_expt",""
"","bandit","231","737031","0.0-193.0-0.0","08055384","wem/bandit_party_1","AEWPAZBYA7XE","either","5","378","","","","","","","0","1","0","","0.4451665291","0.2","0.4","0.6","0.8","0.4451665291","0.2095863317","0.1860489046","0.1143086707","","","","","","","","","","","","","","72","H","0","img/none_selected.jpg","","152","main_expt",""
"","bandit","232","739040","0.0-194.0-0.0","08055384","wem/bandit_party_1","AEWPAZBYA7XE","either","5","471","","","","","","","0","1","0","","0.4401532833","0.2","0.4","0.6","0.8","0.4401532833","0.2543258611","0.2117094388","0.1236290712","","","","","","","","","","","","","","72","H","0","img/none_selected.jpg","","153","main_expt",""
"","bandit","233","740955","0.0-195.0-0.0","08055384","wem/bandit_party_1","AEWPAZBYA7XE","either","5","361","","","","","","","0","0","1","","0.4516855879","0.2","0.4","0.6","0.8","0.4516855879","0.2602259906","0.2072389033","0.1600695342","","","","","","","","","","","","","","72","H","0","img/none_selected.jpg","","154","main_expt",""
"","bandit","234","742815","0.0-196.0-0.0","08055384","wem/bandit_party_1","AEWPAZBYA7XE","either","5","302","","","","","","","0","1","0","","0.4480264808","0.2","0.4","0.6","0.8","0.4480264808","0.2750581274","0.1986333914","0.1770288166","","","","","","","","","","","","","","72","H","0","img/none_selected.jpg","","155","main_expt",""
"","bandit","235","745804","0.0-197.0-0.0","08055384","wem/bandit_party_1","AEWPAZBYA7XE","either","5","1446","","","","","","","0","0","1","","0.4260414265","0.2","0.4","0.6","0.8","0.4260414265","0.2438045727","0.2054640346","0.1761817894","","","","","","","","","","","","","","72","H","0","img/none_selected.jpg","","156","main_expt",""
"","bandit","236","747624","0.0-198.0-0.0","08055384","wem/bandit_party_1","AEWPAZBYA7XE","either","5","250","","","","","","","0","0","1","","0.4365201507","0.2","0.4","0.6","0.8","0.4365201507","0.2857025143","0.1810715383","0.1998830888","","","","","","","","","","","","","","72","H","0","img/none_selected.jpg","","157","main_expt",""
"","bandit","237","749476","0.0-199.0-0.0","08055384","wem/bandit_party_1","AEWPAZBYA7XE","either","5","308","","","","","","","0","0","1","","0.4076244479","0.2","0.4","0.6","0.8","0.4076244479","0.2887719476","0.2118906364","0.2150354531","","","","","","","","","","","","","","72","H","0","img/none_selected.jpg","","158","main_expt",""
"","bandit","238","751520","0.0-200.0-0.0","08055384","wem/bandit_party_1","AEWPAZBYA7XE","either","5","494","","","","","","","0","1","0","","0.403953851","0.2","0.4","0.6","0.8","0.403953851","0.2859462397","0.2293976715","0.2221069796","","","","","","","","","","","","","","72","H","0","img/none_selected.jpg","","159","main_expt",""
"","bandit","239","753879","0.0-201.0-0.0","08055384","wem/bandit_party_1","AEWPAZBYA7XE","either","5","372","","","","","","","0","0","1","","0.4282135537","0.2","0.4","0.6","0.8","0.4282135537","0.207432816","0.2186051381","0.2627335039","","","","","","","","","","","","","","72","H","0","img/none_selected.jpg","","160","main_expt",""
"","bandit","240","755725","0.0-202.0-0.0","08055384","wem/bandit_party_1","AEWPAZBYA7XE","either","5","289","","","","","","","0","0","1","","0.4479073124","0.2","0.4","0.6","0.8","0.4479073124","0.1611694724","0.2175927206","0.2922457848","","","","","","","","","","","","","","72","H","0","img/none_selected.jpg","","161","main_expt",""
"","bandit","241","758898","0.0-203.0-0.0","08055384","wem/bandit_party_1","AEWPAZBYA7XE","either","5","1640","","","","","","","0","0","1","","0.4456201243","0.2","0.4","0.6","0.8","0.4456201243","0.14378348","0.2370404117","0.3040212123","","","","","","","","","","","","","","72","H","0","img/none_selected.jpg","","162","main_expt",""
"","bandit","242","760814","0.0-204.0-0.0","08055384","wem/bandit_party_1","AEWPAZBYA7XE","either","5","362","","","","","","","0","0","1","","0.1707099899","0.2","0.4","0.6","0.8","0.4384930657","0.1707099899","0.2778780432","0.2933359027","","","","","","","","","","","","","","74","J","1","","","163","main_expt",""
"","bandit","243","762733","0.0-205.0-0.0","08055384","wem/bandit_party_1","AEWPAZBYA7XE","either","5","362","","","","","","","0","0","1","0.2643388611","","0.2","0.4","0.6","0.8","","","","","0.4231568034","0.1933693166","0.2643388611","0.2388203062","","","","","","","","","","75","K","2","","","164","main_expt",""
"","bandit","244","764653","0.0-206.0-0.0","08055384","wem/bandit_party_1","AEWPAZBYA7XE","either","5","358","","","","","","","1","0","0","0.2646204916","","0.2","0.4","0.6","0.8","","","","","0.4412535734","0.2406324952","0.1967204453","0.2646204916","","","","","","","","","","76","L","3","","","165","main_expt",""
"","bandit","245","767265","0.0-207.0-0.0","08055384","wem/bandit_party_1","AEWPAZBYA7XE","either","5","359","","","","","","","0","0","1","","0.2591758032","0.2","0.4","0.6","0.8","0.438364003","0.2650462377","0.1567937345","0.2591758032","","","","","","","","","","","","","","76","L","3","","","166","main_expt",""
"","bandit","246","769147","0.0-208.0-0.0","08055384","wem/bandit_party_1","AEWPAZBYA7XE","either","5","311","","","","","","","1","0","0","0.1955934818","","0.2","0.4","0.6","0.8","","","","","0.4290991351","0.245875583","0.1201482918","0.1955934818","","","","","","","","","","76","L","3","","","167","main_expt",""
"","bandit","247","772357","0.0-209.0-0.0","08055384","wem/bandit_party_1","AEWPAZBYA7XE","either","5","1577","","","","","","","0","0","1","0.2090603634","","0.2","0.4","0.6","0.8","","","","","0.4510860662","0.257303599","0.0936051119","0.2090603634","","","","","","","","","","76","L","3","","","168","main_expt",""
"","bandit","248","774143","0.0-210.0-0.0","08055384","wem/bandit_party_1","AEWPAZBYA7XE","either","5","240","","","","","","","0","1","0","","0.2678479696","0.2","0.4","0.6","0.8","0.4491424364","0.2993732043","0.08775096918","0.2678479696","","","","","","","","","","","","","","76","L","3","","","169","main_expt",""
"","bandit","249","776052","0.0-211.0-0.0","08055384","wem/bandit_party_1","AEWPAZBYA7XE","either","5","342","","","","","","","1","0","0","0.2532125956","","0.2","0.4","0.6","0.8","","","","","0.4332244901","0.3388977639","0.06743429675","0.2532125956","","","","","","","","","","76","L","3","","","170","main_expt",""
"","bandit","250","777917","0.0-212.0-0.0","08055384","wem/bandit_party_1","AEWPAZBYA7XE","either","5","322","","","","","","","1","0","0","0.2568627054","","0.2","0.4","0.6","0.8","","","","","0.4405036994","0.2947926635","0.05979118822","0.2568627054","","","","","","","","","","76","L","3","","","171","main_expt",""
"","bandit","251","780247","0.0-213.0-0.0","08055384","wem/bandit_party_1","AEWPAZBYA7XE","either","5","325","","","","","","","0","0","1","0.2451563353","","0.2","0.4","0.6","0.8","","","","","0.4358521759","0.2892529657","0.03200499914","0.2451563353","","","","","","","","","","76","L","3","","","172","main_expt",""
"","bandit","252","781977","0.0-214.0-0.0","08055384","wem/bandit_party_1","AEWPAZBYA7XE","either","5","194","","","","","","","1","0","0","0.3003395367","","0.2","0.4","0.6","0.8","","","","","0.4471617722","0.2571917514","0.04613358223","0.3003395367","","","","","","","","","","76","L","3","","","173","main_expt",""
"","bandit","253","784504","0.0-215.0-0.0","08055384","wem/bandit_party_1","AEWPAZBYA7XE","either","5","306","","","","","","","1","0","0","0.2545998681","","0.2","0.4","0.6","0.8","","","","","0.4560251174","0.244173221","0.05969677181","0.2545998681","","","","","","","","","","76","L","3","","","174","main_expt",""
"","bandit","254","786384","0.0-216.0-0.0","08055384","wem/bandit_party_1","AEWPAZBYA7XE","either","5","313","","","","","","","0","0","1","","0.3383135611","0.2","0.4","0.6","0.8","0.4379349024","0.2038098688","0.05930066603","0.3383135611","","","","","","","","","","","","","","76","L","3","","","175","main_expt",""
"","bandit","255","788255","0.0-217.0-0.0","08055384","wem/bandit_party_1","AEWPAZBYA7XE","either","5","306","","","","","","","1","0","0","0.3880627729","","0.2","0.4","0.6","0.8","","","","","0.4328841116","0.2053823003","0.08110879181","0.3880627729","","","","","","","","","","76","L","3","","","176","main_expt",""
"","bandit","256","790147","0.0-218.0-0.0","08055384","wem/bandit_party_1","AEWPAZBYA7XE","either","5","326","","","","","","","0","0","1","0.3920994557","","0.2","0.4","0.6","0.8","","","","","0.3965365967","0.2193083282","0.07611568943","0.3920994557","","","","","","","","","","76","L","3","","","177","main_expt",""
"","bandit","257","792042","0.0-219.0-0.0","08055384","wem/bandit_party_1","AEWPAZBYA7XE","either","5","301","","","","","","","1","0","0","0.3882277994","","0.2","0.4","0.6","0.8","","","","","0.3899234309","0.1904263594","0.1220467165","0.3882277994","","","","","","","","","","76","L","3","","","178","main_expt",""
"","bandit","258","794636","0.0-220.0-0.0","08055384","wem/bandit_party_1","AEWPAZBYA7XE","either","5","1054","","","","","","","0","0","1","0.3939691408","","0.2","0.4","0.6","0.8","","","","","0.4238443777","0.2212788648","0.1698853315","0.3939691408","","","","","","","","","","76","L","3","","","179","main_expt",""
"","bandit","259","797011","0.0-221.0-0.0","08055384","wem/bandit_party_1","AEWPAZBYA7XE","either","5","402","","","","","","","1","0","0","0.4074656662","","0.2","0.4","0.6","0.8","","","","","0.4487400994","0.2640717145","0.1374762061","0.4074656662","","","","","","","","","","76","L","3","","","180","main_expt",""
"","bandit","260","799581","0.0-222.0-0.0","08055384","wem/bandit_party_1","AEWPAZBYA7XE","either","5","350","","","","","","","0","1","0","","0.3724421945","0.2","0.4","0.6","0.8","0.4314573438","0.2426483564","0.09961924189","0.3724421945","","","","","","","","","","","","","","76","L","3","","","181","main_expt",""
"","bandit","261","801508","0.0-223.0-0.0","08055384","wem/bandit_party_1","AEWPAZBYA7XE","either","5","379","","","","","","","1","0","0","0.2998177931","","0.2","0.4","0.6","0.8","","","","","0.4458059303","0.2001563476","0.1391043194","0.2998177931","","","","","","","","","","76","L","3","","","182","main_expt",""
"","bandit","262","804674","0.0-224.0-0.0","08055384","wem/bandit_party_1","AEWPAZBYA7XE","either","5","1524","","","","","","","0","0","1","0.3629728763","","0.2","0.4","0.6","0.8","","","","","0.4485460149","0.2167094124","0.1336424596","0.3629728763","","","","","","","","","","76","L","3","","","183","main_expt",""
"","bandit","263","806807","0.0-225.0-0.0","08055384","wem/bandit_party_1","AEWPAZBYA7XE","either","5","576","","","","","","","1","0","0","0.3763603645","","0.2","0.4","0.6","0.8","","","","","0.4078350507","0.2402813617","0.115911235","0.3763603645","","","","","","","","","","76","L","3","","","184","main_expt",""
"","bandit","264","808792","0.0-226.0-0.0","08055384","wem/bandit_party_1","AEWPAZBYA7XE","either","5","316","","","","","","","1","0","0","0.3472982705","","0.2","0.4","0.6","0.8","","","","","0.3805788675","0.2745112141","0.1394203739","0.3472982705","","","","","","","","","","76","L","3","","","185","main_expt",""
"","bandit","265","810740","0.0-227.0-0.0","08055384","wem/bandit_party_1","AEWPAZBYA7XE","either","5","352","","","","","","","0","0","1","0.3095995051","","0.2","0.4","0.6","0.8","","","","","0.4236809331","0.2774566956","0.1557479742","0.3095995051","","","","","","","","","","76","L","3","","","186","main_expt",""
"","bandit","266","812766","0.0-228.0-0.0","08055384","wem/bandit_party_1","AEWPAZBYA7XE","either","5","424","","","","","","","0","0","1","0.2567332284","","0.2","0.4","0.6","0.8","","","","","0.4058627081","0.2876011691","0.1823611596","0.2567332284","","","","","","","","","","76","L","3","","","187","main_expt",""
"","bandit","267","814788","0.0-229.0-0.0","08055384","wem/bandit_party_1","AEWPAZBYA7XE","either","5","447","","","","","","","1","0","0","0.2555256861","","0.2","0.4","0.6","0.8","","","","","0.3913346521","0.2947112378","0.1854179297","0.2555256861","","","","","","","","","","76","L","3","","","188","main_expt",""
"","bandit","268","818226","0.0-230.0-0.0","08055384","wem/bandit_party_1","AEWPAZBYA7XE","either","5","1805","","","","","","","0","0","1","0.2009875262","","0.2","0.4","0.6","0.8","","","","","0.3760164219","0.2581494","0.1875645599","0.2009875262","","","","","","","","","","76","L","3","","","189","main_expt",""
"","bandit","269","820102","0.0-231.0-0.0","08055384","wem/bandit_party_1","AEWPAZBYA7XE","either","5","320","","","","","","","0","0","1","0.2055488595","","0.2","0.4","0.6","0.8","","","","","0.3327352817","0.1756323468","0.2018323604","0.2055488595","","","","","","","","","","76","L","3","","","190","main_expt",""
"","bandit","270","822275","0.0-232.0-0.0","08055384","wem/bandit_party_1","AEWPAZBYA7XE","either","5","523","","","","","","","0","0","1","0.1506387864","","0.2","0.4","0.6","0.8","","","","","0.3015177445","0.2521570866","0.221094727","0.1506387864","","","","","","","","","","76","L","3","","","191","main_expt",""
"","bandit","271","824253","0.0-233.0-0.0","08055384","wem/bandit_party_1","AEWPAZBYA7XE","either","5","354","","","","","","","0","1","0","","0.2320570195","0.2","0.4","0.6","0.8","0.2773298268","0.2964739449","0.2320570195","0.2027442266","","","","","","","","","","","","","","75","K","2","","","192","main_expt",""
"","bandit","272","827054","0.0-234.0-0.0","08055384","wem/bandit_party_1","AEWPAZBYA7XE","either","5","991","","","","","","","0","1","0","","0.2948950962","0.2","0.4","0.6","0.8","0.2836613797","0.2612966838","0.2948950962","0.1969137872","","","","","","","","","","","","","","75","K","2","","","193","main_expt",""
"","bandit","273","829579","0.0-235.0-0.0","08055384","wem/bandit_party_1","AEWPAZBYA7XE","either","5","387","","","","","","","0","1","0","","0.2602906927","0.2","0.4","0.6","0.8","0.2799350415","0.3292914436","0.2602906927","0.2114994946","","","","","","","","","","","","","","75","K","2","","","194","main_expt",""
"","bandit","274","831460","0.0-236.0-0.0","08055384","wem/bandit_party_1","AEWPAZBYA7XE","either","5","315","","","","","","","0","0","1","0.1771499101","","0.2","0.4","0.6","0.8","","","","","0.2068597772","0.4070308407","0.1771499101","0.2467939011","","","","","","","","","","75","K","2","","","195","main_expt",""
"","bandit","275","834573","0.0-237.0-0.0","08055384","wem/bandit_party_1","AEWPAZBYA7XE","either","5","1585","","","","","","","0","0","1","0.1746274925","","0.2","0.4","0.6","0.8","","","","","0.2679469531","0.3494820729","0.1746274925","0.2731811988","","","","","","","","","","75","K","2","","","196","main_expt",""
"","bandit","276","836410","0.0-238.0-0.0","08055384","wem/bandit_party_1","AEWPAZBYA7XE","either","5","290","","","","","","","0","0","1","0.193224684","","0.2","0.4","0.6","0.8","","","","","0.2448078588","0.3571939809","0.193224684","0.2512114903","","","","","","","","","","75","K","2","","","197","main_expt",""
"","bandit","277","838302","0.0-239.0-0.0","08055384","wem/bandit_party_1","AEWPAZBYA7XE","either","5","326","","","","","","","0","0","1","0.1771509929","","0.2","0.4","0.6","0.8","","","","","0.2433987968","0.382430028","0.1771509929","0.190651112","","","","","","","","","","75","K","2","","","198","main_expt",""
"","bandit","278","840156","0.0-240.0-0.0","08055384","wem/bandit_party_1","AEWPAZBYA7XE","either","5","296","","","","","","","0","0","1","0.2466668772","","0.2","0.4","0.6","0.8","","","","","0.2653624242","0.3353474301","0.2466668772","0.1701189695","","","","","","","","","","75","K","2","","","199","main_expt",""
"","bandit","279","842760","0.0-241.0-0.0","08055384","wem/bandit_party_1","AEWPAZBYA7XE","either","5","359","","","","","","","0","0","1","0.3321976498","","0.2","0.4","0.6","0.8","","","","","0.2551376492","0.3321976498","0.2477816141","0.1656975488","","","","","","","","","","74","J","1","","","200","main_expt",""
"","bandit","280","844809","0.0-242.0-0.0","08055384","wem/bandit_party_1","AEWPAZBYA7XE","either","5","485","","","","","","","0","0","1","","0.2660639347","0.2","0.4","0.6","0.8","0.2660639347","0.3218117355","0.2744817861","0.1647298582","","","","","","","","","","","","","","72","H","0","img/none_selected.jpg","","201","main_expt",""
"","bandit","281","847959","0.0-243.0-0.0","08055384","wem/bandit_party_1","AEWPAZBYA7XE","either","5","1605","","","","","","","0","0","1","","0.2949214693","0.2","0.4","0.6","0.8","0.2220900594","0.2949214693","0.3043062986","0.1242041815","","","","","","","","","","","","","","74","J","1","","","202","main_expt",""
"","bandit","282","849891","0.0-244.0-0.0","08055384","wem/bandit_party_1","AEWPAZBYA7XE","either","5","367","","","","","","","0","1","0","","0.1543353204","0.2","0.4","0.6","0.8","0.1543353204","0.300077299","0.272185569","0.1684487429","","","","","","","","","","","","","","72","H","0","img/none_selected.jpg","","203","main_expt",""
"","bandit","283","851780","0.0-245.0-0.0","08055384","wem/bandit_party_1","AEWPAZBYA7XE","either","5","316","","","","","","","0","1","0","","0.1605482003","0.2","0.4","0.6","0.8","0.1605482003","0.2866085977","0.2610767704","0.1666409686","","","","","","","","","","","","","","72","H","0","img/none_selected.jpg","","204","main_expt",""
"","bandit","284","853642","0.0-246.0-0.0","08055384","wem/bandit_party_1","AEWPAZBYA7XE","either","5","305","","","","","","","0","0","1","","0.1406914754","0.2","0.4","0.6","0.8","0.1406914754","0.2695546272","0.2832615928","0.2197286508","","","","","","","","","","","","","","72","H","0","img/none_selected.jpg","","205","main_expt",""
"","bandit","285","856385","0.0-247.0-0.0","08055384","wem/bandit_party_1","AEWPAZBYA7XE","either","5","368","","","","","","","0","0","1","","0.1138947463","0.2","0.4","0.6","0.8","0.1138947463","0.2622178416","0.300913322","0.2754509052","","","","","","","","","","","","","","72","H","0","img/none_selected.jpg","","206","main_expt",""
"","bandit","286","858281","0.0-248.0-0.0","08055384","wem/bandit_party_1","AEWPAZBYA7XE","either","5","292","","","","","","","0","0","1","","0.1096702189","0.2","0.4","0.6","0.8","0.1096702189","0.2498186578","0.3260258847","0.2664869377","","","","","","","","","","","","","","72","H","0","img/none_selected.jpg","","207","main_expt",""
"","bandit","287","860170","0.0-249.0-0.0","08055384","wem/bandit_party_1","AEWPAZBYA7XE","either","5","315","","","","","","","0","0","1","","0.2335358635","0.2","0.4","0.6","0.8","0.09922356593","0.2335358635","0.3173829003","0.2686565688","","","","","","","","","","","","","","74","J","1","","","208","main_expt",""
"","bandit","288","861895","0.0-250.0-0.0","08055384","wem/bandit_party_1","AEWPAZBYA7XE","either","5","169","","","","","","","0","0","1","0.3153846937","","0.2","0.4","0.6","0.8","","","","","0.101567507","0.2638942681","0.3153846937","0.2380255957","","","","","","","","","","75","K","2","","","209","main_expt",""
"","bandit","289","863732","0.0-251.0-0.0","08055384","wem/bandit_party_1","AEWPAZBYA7XE","either","5","309","","","","","","","0","0","1","0.2507768727","","0.2","0.4","0.6","0.8","","","","","0.08675379402","0.2526926237","0.3010876552","0.2507768727","","","","","","","","","","76","L","3","","","210","main_expt",""
"","bandit","290","865620","0.0-252.0-0.0","08055384","wem/bandit_party_1","AEWPAZBYA7XE","either","5","318","","","","","","","0","0","1","0.2685142319","","0.2","0.4","0.6","0.8","","","","","0.07512021269","0.2740367769","0.2864900033","0.2685142319","","","","","","","","","","76","L","3","","","211","main_expt",""
"","bandit","291","868765","0.0-253.0-0.0","08055384","wem/bandit_party_1","AEWPAZBYA7XE","either","5","1583","","","","","","","0","1","0","","0.3163372434","0.2","0.4","0.6","0.8","0.08144254236","0.2440836191","0.3163372434","0.260511483","","","","","","","","","","","","","","75","K","2","","","212","main_expt",""
"","bandit","292","870739","0.0-254.0-0.0","08055384","wem/bandit_party_1","AEWPAZBYA7XE","either","5","283","","","","","","","1","0","0","0.2701305136","","0.2","0.4","0.6","0.8","","","","","0.06585574052","0.2341903104","0.2701305136","0.2579605047","","","","","","","","","","75","K","2","","","213","main_expt",""
"","bandit","293","872598","0.0-255.0-0.0","08055384","wem/bandit_party_1","AEWPAZBYA7XE","either","5","302","","","","","","","0","0","1","0.302599165","","0.2","0.4","0.6","0.8","","","","","0.08686614453","0.2097526345","0.302599165","0.2470456849","","","","","","","","","","75","K","2","","","214","main_expt",""
"","bandit","294","874503","0.0-256.0-0.0","08055384","wem/bandit_party_1","AEWPAZBYA7XE","either","5","332","","","","","","","0","0","1","0.2968005471","","0.2","0.4","0.6","0.8","","","","","0.1068548489","0.1796882487","0.2968005471","0.3285383036","","","","","","","","","","75","K","2","","","215","main_expt",""
"","bandit","295","876686","0.0-257.0-0.0","08055384","wem/bandit_party_1","AEWPAZBYA7XE","either","5","368","","","","","","","0","0","1","","0.2237900511","0.2","0.4","0.6","0.8","0.1211736082","0.2237900511","0.2835536598","0.3780044773","","","","","","","","","","","","","","74","J","1","","","216","main_expt",""
"","bandit","296","878559","0.0-258.0-0.0","08055384","wem/bandit_party_1","AEWPAZBYA7XE","either","5","326","","","","","","","0","0","1","","0.09343701815","0.2","0.4","0.6","0.8","0.09343701815","0.2265358539","0.2520762718","0.3939228946","","","","","","","","","","","","","","72","H","0","img/none_selected.jpg","","217","main_expt",""
"","bandit","297","881999","0.0-259.0-0.0","08055384","wem/bandit_party_1","AEWPAZBYA7XE","either","5","1889","","","","","","","0","0","1","","0.1001055386","0.2","0.4","0.6","0.8","0.1001055386","0.2364013437","0.2562699476","0.3198270803","","","","","","","","","","","","","","72","H","0","img/none_selected.jpg","","218","main_expt",""
"","bandit","298","884067","0.0-260.0-0.0","08055384","wem/bandit_party_1","AEWPAZBYA7XE","either","5","357","","","","","","","0","1","0","","0.2810560361","0.2","0.4","0.6","0.8","0.09524874014","0.2810560361","0.3002431464","0.3502502288","","","","","","","","","","","","","","74","J","1","","","219","main_expt",""
"","bandit","299","886086","0.0-261.0-0.0","08055384","wem/bandit_party_1","AEWPAZBYA7XE","either","5","349","","","","","","","0","0","1","","0.3027429446","0.2","0.4","0.6","0.8","0.1304899995","0.3027429446","0.3365413303","0.3402456168","","","","","","","","","","","","","","74","J","1","","","220","main_expt",""
"","bandit","300","888021","0.0-262.0-0.0","08055384","wem/bandit_party_1","AEWPAZBYA7XE","either","5","296","","","","","","","0","0","1","","0.3132134988","0.2","0.4","0.6","0.8","0.1272814923","0.3132134988","0.2946103072","0.3770059732","","","","","","","","","","","","","","74","J","1","","","221","main_expt",""
"","bandit","301","890561","0.0-263.0-0.0","08055384","wem/bandit_party_1","AEWPAZBYA7XE","either","5","272","","","","","","","0","0","1","0.3267284332","","0.2","0.4","0.6","0.8","","","","","0.1654407056","0.2424821827","0.3267284332","0.3864421123","","","","","","","","","","75","K","2","","","222","main_expt",""
"","bandit","302","892407","0.0-264.0-0.0","08055384","wem/bandit_party_1","AEWPAZBYA7XE","either","5","306","","","","","","","1","0","0","0.4205211408","","0.2","0.4","0.6","0.8","","","","","0.1788325852","0.2595367495","0.3175152631","0.4205211408","","","","","","","","","","76","L","3","","","223","main_expt",""
"","bandit","303","894422","0.0-265.0-0.0","08055384","wem/bandit_party_1","AEWPAZBYA7XE","either","5","318","","","","","","","0","1","0","","0.4131889957","0.2","0.4","0.6","0.8","0.1736623033","0.328819141","0.3192400935","0.4131889957","","","","","","","","","","","","","","76","L","3","","","224","main_expt",""
"","bandit","304","896284","0.0-266.0-0.0","08055384","wem/bandit_party_1","AEWPAZBYA7XE","either","5","301","","","","","","","1","0","0","0.4001513574","","0.2","0.4","0.6","0.8","","","","","0.1721911447","0.356121412","0.3096750449","0.4001513574","","","","","","","","","","76","L","3","","","225","main_expt",""
"","bandit","305","899478","0.0-267.0-0.0","08055384","wem/bandit_party_1","AEWPAZBYA7XE","either","5","1642","","","","","","","0","0","1","","0.3963688582","0.2","0.4","0.6","0.8","0.2133818582","0.3394019192","0.3142833063","0.3963688582","","","","","","","","","","","","","","76","L","3","","","226","main_expt",""
"","bandit","306","901375","0.0-268.0-0.0","08055384","wem/bandit_party_1","AEWPAZBYA7XE","either","5","343","","","","","","","1","0","0","0.3979714495","","0.2","0.4","0.6","0.8","","","","","0.2620007467","0.2860553004","0.3096885674","0.3979714495","","","","","","","","","","76","L","3","","","227","main_expt",""
"","bandit","307","903254","0.0-269.0-0.0","08055384","wem/bandit_party_1","AEWPAZBYA7XE","either","5","315","","","","","","","1","0","0","0.3811043637","","0.2","0.4","0.6","0.8","","","","","0.2961930455","0.2967856672","0.3048295172","0.3811043637","","","","","","","","","","76","L","3","","","228","main_expt",""
"","bandit","308","905120","0.0-270.0-0.0","08055384","wem/bandit_party_1","AEWPAZBYA7XE","either","5","302","","","","","","","0","0","1","0.3488149186","","0.2","0.4","0.6","0.8","","","","","0.3081123415","0.2857745529","0.2553920021","0.3488149186","","","","","","","","","","76","L","3","","","229","main_expt",""
"","bandit","309","907570","0.0-271.0-0.0","08055384","wem/bandit_party_1","AEWPAZBYA7XE","either","5","402","","","","","","","0","0","1","0.2883621188","","0.2","0.4","0.6","0.8","","","","","0.3027177586","0.2589404948","0.2783794412","0.2883621188","","","","","","","","","","76","L","3","","","230","main_expt",""
"","bandit","310","909482","0.0-272.0-0.0","08055384","wem/bandit_party_1","AEWPAZBYA7XE","either","5","328","","","","","","","1","0","0","0.2735536708","","0.2","0.4","0.6","0.8","","","","","0.2495346478","0.2628441024","0.2735536708","0.2444465504","","","","","","","","","","75","K","2","","","231","main_expt",""
"","bandit","311","911447","0.0-273.0-0.0","08055384","wem/bandit_party_1","AEWPAZBYA7XE","either","5","346","","","","","","","0","0","1","","0.2262440502","0.2","0.4","0.6","0.8","0.2185872191","0.276537748","0.2262440502","0.2996930955","","","","","","","","","","","","","","75","K","2","","","232","main_expt",""
"","bandit","312","914004","0.0-274.0-0.0","08055384","wem/bandit_party_1","AEWPAZBYA7XE","either","5","1025","","","","","","","0","0","1","","0.2171974885","0.2","0.4","0.6","0.8","0.1874863907","0.2485723575","0.2171974885","0.3103031796","","","","","","","","","","","","","","75","K","2","","","233","main_expt",""
"","bandit","313","917065","0.0-275.0-0.0","08055384","wem/bandit_party_1","AEWPAZBYA7XE","either","5","295","","","","","","","0","0","1","0.2172766866","","0.2","0.4","0.6","0.8","","","","","0.2165838284","0.2172766866","0.2951485073","0.2971988612","","","","","","","","","","74","J","1","","","234","main_expt",""
"","bandit","314","918684","0.0-276.0-0.0","08055384","wem/bandit_party_1","AEWPAZBYA7XE","either","5","48","","","","","","","0","0","1","","0.1791302586","0.2","0.4","0.6","0.8","0.1791302586","0.221542824","0.3135740045","0.3266576642","","","","","","","","","","","","","","72","H","0","img/none_selected.jpg","","235","main_expt",""
"","bandit","315","920642","0.0-277.0-0.0","08055384","wem/bandit_party_1","AEWPAZBYA7XE","either","5","373","","","","","","","0","0","1","0.2463713802","","0.2","0.4","0.6","0.8","","","","","0.2463713802","0.2200573756","0.2945285262","0.3596878827","","","","","","","","","","72","H","0","img/none_selected.jpg","","236","main_expt",""
"","bandit","316","922836","0.0-278.0-0.0","08055384","wem/bandit_party_1","AEWPAZBYA7XE","either","5","636","","","","","","","0","1","0","","0.2204623923","0.2","0.4","0.6","0.8","0.2204623923","0.2146478317","0.2797454337","0.3951370387","","","","","","","","","","","","","","72","H","0","img/none_selected.jpg","","237","main_expt",""
"","bandit","317","924720","0.0-279.0-0.0","08055384","wem/bandit_party_1","AEWPAZBYA7XE","either","5","300","","","","","","","0","1","0","","0.2316256556","0.2","0.4","0.6","0.8","0.2316256556","0.2237656472","0.266453507","0.3863552979","","","","","","","","","","","","","","72","H","0","img/none_selected.jpg","","238","main_expt",""
"","bandit","318","927398","0.0-280.0-0.0","08055384","wem/bandit_party_1","AEWPAZBYA7XE","either","5","1105","","","","","","","0","0","1","0.2406304147","","0.2","0.4","0.6","0.8","","","","","0.2406304147","0.2302611888","0.310831157","0.3962704677","","","","","","","","","","72","H","0","img/none_selected.jpg","","239","main_expt",""
