"consent","trial_type","trial_index","time_elapsed","internal_node_id","subjID","study","MID","cond","drift","rt","responses","button_pressed","key_press","like","value","connected","gems","bombs","no_reward","GemPrChosen","BombPrChosen","GainOverPainPr_0","GainOverPainPr_1","GainOverPainPr_2","GainOverPainPr_3","LosePr_0","LosePr_1","LosePr_2","LosePr_3","WinPr_0","WinPr_1","WinPr_2","WinPr_3","Q0","Q1","Q2","gender","age","ethnicity","label","expt_phase","target","respCharCode","respKey","respChoiceNum","respChoice","practice","trial_counter","trial_label","Q0_index"
"GDM/GDM_behavioral_consent_30min_online.html","consent","0","10766","0.0-0.0","08276320","wem/bandit_party_1","A2YBZFSUD5OP7W","either","7","","","","","","","","","","","","","","","","","","","","","","","","","","","","","","","","","","","","","","","","",""
"","survey-text","1","15242","0.0-1.0","08276320","wem/bandit_party_1","A2YBZFSUD5OP7W","either","7","3470","{""Q0"":""A2YBZFSUD5OP7W""}","","","","","","","","","","","","","","","","","","","","","","","","","","","","","","","","","","","","","","",""
"","button-response","2","17678","0.0-2.0","08276320","wem/bandit_party_1","A2YBZFSUD5OP7W","either","7","1432","","1","","","","","","","","","","","","","","","","","","","","","","","","","","","","","","","","","","","","","",""
"","text-replacement","3","25466","0.0-3.0","08276320","wem/bandit_party_1","A2YBZFSUD5OP7W","either","7","6784","","","32","","","","","","","","","","","","","","","","","","","","","","","","","","","","","","","","","","","","",""
"","text-replacement","4","32178","0.0-4.0","08276320","wem/bandit_party_1","A2YBZFSUD5OP7W","either","7","6711","","","32","","","","","","","","","","","","","","","","","","","","","","","","","","","","","","","","","","","","",""
"","identification","5","37558","0.0-6.0-0.0","08276320","wem/bandit_party_1","A2YBZFSUD5OP7W","either","7","5370","","","","0","0","0","","","","","","","","","","","","","","","","","","","","","","","","pre","identification_pre","the Republican party","","","","","","","",""
"","identification","6","42620","0.0-6.0-1.0","08276320","wem/bandit_party_1","A2YBZFSUD5OP7W","either","7","4053","","","","5","4","5","","","","","","","","","","","","","","","","","","","","","","","","pre","identification_pre","the Democratic Party","","","","","","","",""
"","text-replacement","7","352278","0.0-7.0","08276320","wem/bandit_party_1","A2YBZFSUD5OP7W","either","7","308657","","","32","","","","","","","","","","","","","","","","","","","","","","","","","","","","","","","","","","","","",""
"","text-replacement","8","354694","0.0-8.0","08276320","wem/bandit_party_1","A2YBZFSUD5OP7W","either","7","2414","","","32","","","","","","","","","","","","","","","","","","","","","","","","","","","","","","","","","","","","",""
"","text-replacement","9","364744","0.0-9.0","08276320","wem/bandit_party_1","A2YBZFSUD5OP7W","either","7","10049","","","32","","","","","","","","","","","","","","","","","","","","","","","","","","","","","","","","","","","","",""
"","text-replacement","10","367646","0.0-10.0","08276320","wem/bandit_party_1","A2YBZFSUD5OP7W","either","7","2901","","","32","","","","","","","","","","","","","","","","","","","","","","","","","","","","","","","","","","","","",""
"","text-replacement","11","371638","0.0-11.0","08276320","wem/bandit_party_1","A2YBZFSUD5OP7W","either","7","3991","","","32","","","","","","","","","","","","","","","","","","","","","","","","","","","","","","","","","","","","",""
"","bandit","12","375381","0.0-12.0-0.0","08276320","wem/bandit_party_1","A2YBZFSUD5OP7W","either","7","2238","","","","","","","0","0","1","0","0","","","","","0","","","","0","","","","","","","","","","","","","74","J","0","img/none_selected_demo.jpg","true","0","",""
"","bandit","13","378228","0.0-13.0-0.0","08276320","wem/bandit_party_1","A2YBZFSUD5OP7W","either","7","1343","","","","","","","0","0","1","0","0","","","","","0","","","","0","","","","","","","","","","","","","75","K","0","img/none_selected_demo.jpg","true","0","",""
"","text-replacement","14","381910","0.0-14.0","08276320","wem/bandit_party_1","A2YBZFSUD5OP7W","either","7","3680","","","32","","","","","","","","","","","","","","","","","","","","","","","","","","","","","","","","","","","","",""
"","text-replacement","15","385366","0.0-15.0","08276320","wem/bandit_party_1","A2YBZFSUD5OP7W","either","7","3455","","","32","","","","","","","","","","","","","","","","","","","","","","","","","","","","","","","","","","","","",""
"","text-replacement","16","389334","0.0-16.0","08276320","wem/bandit_party_1","A2YBZFSUD5OP7W","either","7","3968","","","32","","","","","","","","","","","","","","","","","","","","","","","","","","","","","","","","","","","","",""
"","text-replacement","17","391974","0.0-17.0","08276320","wem/bandit_party_1","A2YBZFSUD5OP7W","either","7","2639","","","32","","","","","","","","","","","","","","","","","","","","","","","","","","","","","","","","","","","","",""
"","bandit","18","394908","0.0-18.0-0.0","08276320","wem/bandit_party_1","A2YBZFSUD5OP7W","either","7","1430","","","","","","","0","1","0","","0.8","0.5","0.5","","","0.8","0.2","","","","","","","","","","","","","","","","74","J","0","img/none_selected_demo.jpg","true","0","80_20_practice",""
"","bandit","19","396756","0.0-18.0-1.0","08276320","wem/bandit_party_1","A2YBZFSUD5OP7W","either","7","344","","","","","","","0","1","0","","0.2","0.5","0.5","","","0.8","0.2","","","","","","","","","","","","","","","","75","K","1","","true","0","80_20_practice",""
"","bandit","20","398508","0.0-18.0-2.0","08276320","wem/bandit_party_1","A2YBZFSUD5OP7W","either","7","247","","","","","","","1","0","0","0.8","","0.5","0.5","","","","","","","0.8","0.2","","","","","","","","","","","","74","J","0","img/none_selected_demo.jpg","true","0","80_20_practice",""
"","bandit","21","400284","0.0-18.0-3.0","08276320","wem/bandit_party_1","A2YBZFSUD5OP7W","either","7","271","","","","","","","0","0","1","","0.8","0.5","0.5","","","0.8","0.2","","","","","","","","","","","","","","","","74","J","0","img/none_selected_demo.jpg","true","0","80_20_practice",""
"","bandit","22","402100","0.0-18.0-4.0","08276320","wem/bandit_party_1","A2YBZFSUD5OP7W","either","7","311","","","","","","","0","1","0","","0.8","0.5","0.5","","","0.8","0.2","","","","","","","","","","","","","","","","74","J","0","img/none_selected_demo.jpg","true","0","80_20_practice",""
"","bandit","23","403884","0.0-18.0-5.0","08276320","wem/bandit_party_1","A2YBZFSUD5OP7W","either","7","279","","","","","","","0","1","0","","0.8","0.5","0.5","","","0.8","0.2","","","","","","","","","","","","","","","","74","J","0","img/none_selected_demo.jpg","true","0","80_20_practice",""
"","bandit","24","405627","0.0-18.0-6.0","08276320","wem/bandit_party_1","A2YBZFSUD5OP7W","either","7","239","","","","","","","0","0","1","0.8","","0.5","0.5","","","","","","","0.8","0.2","","","","","","","","","","","","74","J","0","img/none_selected_demo.jpg","true","0","80_20_practice",""
"","bandit","25","407331","0.0-18.0-7.0","08276320","wem/bandit_party_1","A2YBZFSUD5OP7W","either","7","200","","","","","","","0","0","1","0.2","","0.5","0.5","","","","","","","0.8","0.2","","","","","","","","","","","","75","K","1","","true","0","80_20_practice",""
"","bandit","26","408966","0.0-18.0-8.0","08276320","wem/bandit_party_1","A2YBZFSUD5OP7W","either","7","127","","","","","","","0","0","1","0.2","","0.5","0.5","","","","","","","0.8","0.2","","","","","","","","","","","","75","K","1","","true","0","80_20_practice",""
"","bandit","27","410758","0.0-18.0-9.0","08276320","wem/bandit_party_1","A2YBZFSUD5OP7W","either","7","288","","","","","","","0","0","1","","0.2","0.5","0.5","","","0.8","0.2","","","","","","","","","","","","","","","","75","K","1","","true","0","80_20_practice",""
"","bandit","28","412295","0.0-18.0-10.0","08276320","wem/bandit_party_1","A2YBZFSUD5OP7W","either","7","33","","","","","","","0","0","1","","0.2","0.5","0.5","","","0.8","0.2","","","","","","","","","","","","","","","","75","K","1","","true","0","80_20_practice",""
"","bandit","29","413894","0.0-18.0-11.0","08276320","wem/bandit_party_1","A2YBZFSUD5OP7W","either","7","94","","","","","","","1","0","0","0.8","","0.5","0.5","","","","","","","0.8","0.2","","","","","","","","","","","","74","J","0","img/none_selected_demo.jpg","true","0","80_20_practice",""
"","bandit","30","415462","0.0-18.0-12.0","08276320","wem/bandit_party_1","A2YBZFSUD5OP7W","either","7","63","","","","","","","1","0","0","0.8","","0.5","0.5","","","","","","","0.8","0.2","","","","","","","","","","","","74","J","0","img/none_selected_demo.jpg","true","0","80_20_practice",""
"","bandit","31","417078","0.0-18.0-13.0","08276320","wem/bandit_party_1","A2YBZFSUD5OP7W","either","7","111","","","","","","","0","1","0","","0.8","0.5","0.5","","","0.8","0.2","","","","","","","","","","","","","","","","74","J","0","img/none_selected_demo.jpg","true","0","80_20_practice",""
"","bandit","32","418774","0.0-18.0-14.0","08276320","wem/bandit_party_1","A2YBZFSUD5OP7W","either","7","191","","","","","","","1","0","0","0.8","","0.5","0.5","","","","","","","0.8","0.2","","","","","","","","","","","","74","J","0","img/none_selected_demo.jpg","true","0","80_20_practice",""
"","bandit","33","420301","0.0-18.0-15.0","08276320","wem/bandit_party_1","A2YBZFSUD5OP7W","either","7","23","","","","","","","0","1","0","","0.8","0.5","0.5","","","0.8","0.2","","","","","","","","","","","","","","","","74","J","0","img/none_selected_demo.jpg","true","0","80_20_practice",""
"","bandit","34","422335","0.0-18.0-16.0","08276320","wem/bandit_party_1","A2YBZFSUD5OP7W","either","7","529","","","","","","","1","0","0","0.8","","0.5","0.5","","","","","","","0.8","0.2","","","","","","","","","","","","74","J","0","img/none_selected_demo.jpg","true","0","80_20_practice",""
"","bandit","35","423839","0.0-18.0-17.0","08276320","wem/bandit_party_1","A2YBZFSUD5OP7W","either","7","0","","","","","","","0","0","1","0.8","","0.5","0.5","","","","","","","0.8","0.2","","","","","","","","","","","","74","J","0","img/none_selected_demo.jpg","true","0","80_20_practice",""
"","bandit","36","425613","0.0-18.0-18.0","08276320","wem/bandit_party_1","A2YBZFSUD5OP7W","either","7","270","","","","","","","0","0","1","","0.2","0.5","0.5","","","0.8","0.2","","","","","","","","","","","","","","","","75","K","1","","true","0","80_20_practice",""
"","bandit","37","427142","0.0-18.0-19.0","08276320","wem/bandit_party_1","A2YBZFSUD5OP7W","either","7","23","","","","","","","0","1","0","","0.8","0.5","0.5","","","0.8","0.2","","","","","","","","","","","","","","","","74","J","0","img/none_selected_demo.jpg","true","0","80_20_practice",""
"","text-replacement","38","433385","0.0-19.0","08276320","wem/bandit_party_1","A2YBZFSUD5OP7W","either","7","6241","","","32","","","","","","","","","","","","","","","","","","","","","","","","","","","","","","","","","","","","",""
"","bandit","39","436013","0.0-20.0-0.0","08276320","wem/bandit_party_1","A2YBZFSUD5OP7W","either","7","1125","","","","","","","1","0","0","1","0","","","","","0","1","","","1","0","","","","","","","","","","","","74","J","0","img/none_selected_demo.jpg","true","0","",""
"","text-replacement","40","438775","0.0-21.0","08276320","wem/bandit_party_1","A2YBZFSUD5OP7W","either","7","2761","","","32","","","","","","","","","","","","","","","","","","","","","","","","","","","","","","","","","","","","",""
"","text-replacement","41","440431","0.0-22.0","08276320","wem/bandit_party_1","A2YBZFSUD5OP7W","either","7","1655","","","32","","","","","","","","","","","","","","","","","","","","","","","","","","","","","","","","","","","","",""
"","text-replacement","42","442111","0.0-23.0","08276320","wem/bandit_party_1","A2YBZFSUD5OP7W","either","7","1679","","","32","","","","","","","","","","","","","","","","","","","","","","","","","","","","","","","","","","","","",""
"","text-replacement","43","444513","0.0-24.0","08276320","wem/bandit_party_1","A2YBZFSUD5OP7W","either","7","2400","","","32","","","","","","","","","","","","","","","","","","","","","","","","","","","","","","","","","","","","",""
"","text-replacement","44","446720","0.0-25.0","08276320","wem/bandit_party_1","A2YBZFSUD5OP7W","either","7","2206","","","32","","","","","","","","","","","","","","","","","","","","","","","","","","","","","","","","","","","","",""
"","text-replacement","45","449056","0.0-26.0","08276320","wem/bandit_party_1","A2YBZFSUD5OP7W","either","7","2334","","","32","","","","","","","","","","","","","","","","","","","","","","","","","","","","","","","","","","","","",""
"","text-replacement","46","450632","0.0-27.0","08276320","wem/bandit_party_1","A2YBZFSUD5OP7W","either","7","1574","","","32","","","","","","","","","","","","","","","","","","","","","","","","","","","","","","","","","","","","",""
"","text-replacement","47","452087","0.0-28.0","08276320","wem/bandit_party_1","A2YBZFSUD5OP7W","either","7","1454","","","32","","","","","","","","","","","","","","","","","","","","","","","","","","","","","","","","","","","","",""
"","text-replacement","48","454447","0.0-29.0","08276320","wem/bandit_party_1","A2YBZFSUD5OP7W","either","7","2359","","","32","","","","","","","","","","","","","","","","","","","","","","","","","","","","","","","","","","","","",""
"","text-replacement","49","455857","0.0-30.0","08276320","wem/bandit_party_1","A2YBZFSUD5OP7W","either","7","1408","","","32","","","","","","","","","","","","","","","","","","","","","","","","","","","","","","","","","","","","",""
"","text-replacement","50","459679","0.0-31.0","08276320","wem/bandit_party_1","A2YBZFSUD5OP7W","either","7","3821","","","32","","","","","","","","","","","","","","","","","","","","","","","","","","","","","","","","","","","","",""
"","bandit","51","461646","0.0-32.0-0.0","08276320","wem/bandit_party_1","A2YBZFSUD5OP7W","either","7","462","","","","","","","0","0","1","","0.8","0.5","0.5","0.5","0.5","0.8","0.2","0.6","0.2","","","","","","","","","","","","","","72","H","0","img/none_selected.jpg","true","0","full_practice",""
"","bandit","52","463446","0.0-32.0-1.0","08276320","wem/bandit_party_1","A2YBZFSUD5OP7W","either","7","296","","","","","","","1","0","0","0.8","","0.5","0.5","0.5","0.5","","","","","0.8","0.2","0.6","0.2","","","","","","","","","","72","H","0","img/none_selected.jpg","true","0","full_practice",""
"","bandit","53","465198","0.0-32.0-2.0","08276320","wem/bandit_party_1","A2YBZFSUD5OP7W","either","7","247","","","","","","","0","0","1","","0.2","0.5","0.5","0.5","0.5","0.8","0.2","0.6","0.2","","","","","","","","","","","","","","74","J","1","","true","0","full_practice",""
"","bandit","54","466982","0.0-32.0-3.0","08276320","wem/bandit_party_1","A2YBZFSUD5OP7W","either","7","278","","","","","","","0","0","1","","0.2","0.5","0.5","0.5","0.5","0.8","0.2","0.6","0.2","","","","","","","","","","","","","","74","J","1","","true","0","full_practice",""
"","bandit","55","468687","0.0-32.0-4.0","08276320","wem/bandit_party_1","A2YBZFSUD5OP7W","either","7","199","","","","","","","1","0","0","0.6","","0.5","0.5","0.5","0.5","","","","","0.8","0.2","0.6","0.2","","","","","","","","","","75","K","2","","true","0","full_practice",""
"","bandit","56","470432","0.0-32.0-5.0","08276320","wem/bandit_party_1","A2YBZFSUD5OP7W","either","7","238","","","","","","","1","0","0","0.6","","0.5","0.5","0.5","0.5","","","","","0.8","0.2","0.6","0.2","","","","","","","","","","75","K","2","","true","0","full_practice",""
"","bandit","57","472032","0.0-32.0-6.0","08276320","wem/bandit_party_1","A2YBZFSUD5OP7W","either","7","96","","","","","","","0","0","1","0.2","","0.5","0.5","0.5","0.5","","","","","0.8","0.2","0.6","0.2","","","","","","","","","","76","L","3","","true","0","full_practice",""
"","bandit","58","473592","0.0-32.0-7.0","08276320","wem/bandit_party_1","A2YBZFSUD5OP7W","either","7","54","","","","","","","0","0","1","","0.2","0.5","0.5","0.5","0.5","0.8","0.2","0.6","0.2","","","","","","","","","","","","","","76","L","3","","true","0","full_practice",""
"","bandit","59","475128","0.0-32.0-8.0","08276320","wem/bandit_party_1","A2YBZFSUD5OP7W","either","7","31","","","","","","","0","0","1","","0.6","0.5","0.5","0.5","0.5","0.8","0.2","0.6","0.2","","","","","","","","","","","","","","75","K","2","","true","0","full_practice",""
"","bandit","60","476848","0.0-32.0-9.0","08276320","wem/bandit_party_1","A2YBZFSUD5OP7W","either","7","215","","","","","","","0","0","1","","0.2","0.5","0.5","0.5","0.5","0.8","0.2","0.6","0.2","","","","","","","","","","","","","","76","L","3","","true","0","full_practice",""
"","bandit","61","478826","0.0-32.0-10.0","08276320","wem/bandit_party_1","A2YBZFSUD5OP7W","either","7","472","","","","","","","0","0","1","0.6","","0.5","0.5","0.5","0.5","","","","","0.8","0.2","0.6","0.2","","","","","","","","","","75","K","2","","true","0","full_practice",""
"","bandit","62","480409","0.0-32.0-11.0","08276320","wem/bandit_party_1","A2YBZFSUD5OP7W","either","7","77","","","","","","","0","1","0","","0.8","0.5","0.5","0.5","0.5","0.8","0.2","0.6","0.2","","","","","","","","","","","","","","72","H","0","img/none_selected.jpg","true","0","full_practice",""
"","bandit","63","482248","0.0-32.0-12.0","08276320","wem/bandit_party_1","A2YBZFSUD5OP7W","either","7","335","","","","","","","0","0","1","","0.2","0.5","0.5","0.5","0.5","0.8","0.2","0.6","0.2","","","","","","","","","","","","","","74","J","1","","true","0","full_practice",""
"","bandit","64","483937","0.0-32.0-13.0","08276320","wem/bandit_party_1","A2YBZFSUD5OP7W","either","7","184","","","","","","","0","0","1","","0.2","0.5","0.5","0.5","0.5","0.8","0.2","0.6","0.2","","","","","","","","","","","","","","74","J","1","","true","0","full_practice",""
"","bandit","65","485576","0.0-32.0-14.0","08276320","wem/bandit_party_1","A2YBZFSUD5OP7W","either","7","135","","","","","","","0","1","0","","0.6","0.5","0.5","0.5","0.5","0.8","0.2","0.6","0.2","","","","","","","","","","","","","","75","K","2","","true","0","full_practice",""
"","bandit","66","487248","0.0-32.0-15.0","08276320","wem/bandit_party_1","A2YBZFSUD5OP7W","either","7","167","","","","","","","0","0","1","0.2","","0.5","0.5","0.5","0.5","","","","","0.8","0.2","0.6","0.2","","","","","","","","","","76","L","3","","true","0","full_practice",""
"","bandit","67","488881","0.0-32.0-16.0","08276320","wem/bandit_party_1","A2YBZFSUD5OP7W","either","7","129","","","","","","","1","0","0","0.8","","0.5","0.5","0.5","0.5","","","","","0.8","0.2","0.6","0.2","","","","","","","","","","72","H","0","img/none_selected.jpg","true","0","full_practice",""
"","bandit","68","490552","0.0-32.0-17.0","08276320","wem/bandit_party_1","A2YBZFSUD5OP7W","either","7","167","","","","","","","1","0","0","0.8","","0.5","0.5","0.5","0.5","","","","","0.8","0.2","0.6","0.2","","","","","","","","","","72","H","0","img/none_selected.jpg","true","0","full_practice",""
"","bandit","69","492232","0.0-32.0-18.0","08276320","wem/bandit_party_1","A2YBZFSUD5OP7W","either","7","175","","","","","","","1","0","0","0.6","","0.5","0.5","0.5","0.5","","","","","0.8","0.2","0.6","0.2","","","","","","","","","","75","K","2","","true","0","full_practice",""
"","bandit","70","493880","0.0-32.0-19.0","08276320","wem/bandit_party_1","A2YBZFSUD5OP7W","either","7","143","","","","","","","0","1","0","","0.6","0.5","0.5","0.5","0.5","0.8","0.2","0.6","0.2","","","","","","","","","","","","","","75","K","2","","true","0","full_practice",""
"","text","71","496227","0.0-33.0","08276320","wem/bandit_party_1","A2YBZFSUD5OP7W","either","7","2342","","","32","","","","","","","","","","","","","","","","","","","","","","","","","","","","","","","","","","","","",""
"","text-replacement","72","503875","0.0-34.0","08276320","wem/bandit_party_1","A2YBZFSUD5OP7W","either","7","6646","","","32","","","","","","","","","","","","","","","","","","","","","","","","","","","","","","","","","","","","",""
"","text-replacement","73","508482","0.0-35.0","08276320","wem/bandit_party_1","A2YBZFSUD5OP7W","either","7","4604","","","32","","","","","","","","","","","","","","","","","","","","","","","","","","","","","","","","","","","","",""
"","text-replacement","74","510426","0.0-36.0","08276320","wem/bandit_party_1","A2YBZFSUD5OP7W","either","7","1942","","","32","","","","","","","","","","","","","","","","","","","","","","","","","","","","","","","","","","","","",""
"","text-replacement","75","512482","0.0-37.0","08276320","wem/bandit_party_1","A2YBZFSUD5OP7W","either","7","2054","","","32","","","","","","","","","","","","","","","","","","","","","","","","","","","","","","","","","","","","",""
"","text-replacement","76","514332","0.0-38.0","08276320","wem/bandit_party_1","A2YBZFSUD5OP7W","either","7","1848","","","32","","","","","","","","","","","","","","","","","","","","","","","","","","","","","","","","","","","","",""
"","survey-multi-choice-replacement","77","518558","0.0-39.0-0.0","08276320","wem/bandit_party_1","A2YBZFSUD5OP7W","either","7","4220","","","","","","","","","","","","","","","","","","","","","","","","Money will be added to the pool for <span style='color:blue;'>DEMOCRATS</span>","","","","","","","attn_check","","","","","","","","","0"
"","survey-multi-choice-replacement","78","523188","0.0-40.0-0.0","08276320","wem/bandit_party_1","A2YBZFSUD5OP7W","either","7","3622","","","","","","","","","","","","","","","","","","","","","","","","Equal amounts of money will be added to the pool for <span style='color:blue;'>DEMOCRATS</span> and subtracted from the pool for <span style='color:red;'>REPUBLICANS</span>","","","","","","","attn_check","","","","","","","","","2"
"","survey-multi-choice-replacement","79","526540","0.0-41.0-0.0","08276320","wem/bandit_party_1","A2YBZFSUD5OP7W","either","7","2344","","","","","","","","","","","","","","","","","","","","","","","","No money will be added to either pool","","","","","","","attn_check","","","","","","","","","3"
"","bandit","80","530794","0.0-42.0-0.0","08276320","wem/bandit_party_1","A2YBZFSUD5OP7W","either","7","1745","","","","","","","0","0","1","","0.01738065524","0.4","0.8","0.2","0.6","0.01738065524","0.1480066451","0.1952616071","0.06530018083","","","","","","","","","","","","","","72","H","0","img/none_selected.jpg","","1","main_expt",""
"","bandit","81","533170","0.0-43.0-0.0","08276320","wem/bandit_party_1","A2YBZFSUD5OP7W","either","7","872","","","","","","","0","0","1","0.1053714073","","0.4","0.8","0.2","0.6","","","","","0.0196943787","0.1053714073","0.1652234336","0.1011701763","","","","","","","","","","74","J","1","","","2","main_expt",""
"","bandit","82","535426","0.0-44.0-0.0","08276320","wem/bandit_party_1","A2YBZFSUD5OP7W","either","7","752","","","","","","","0","0","1","","0.1347382479","0.4","0.8","0.2","0.6","0.01678573497","0.1460078221","0.1347382479","0.09486719381","","","","","","","","","","","","","","75","K","2","","","3","main_expt",""
"","bandit","83","537467","0.0-45.0-0.0","08276320","wem/bandit_party_1","A2YBZFSUD5OP7W","either","7","537","","","","","","","0","0","1","0.06705802814","","0.4","0.8","0.2","0.6","","","","","0.02981965743","0.1866138214","0.1684625442","0.06705802814","","","","","","","","","","76","L","3","","","4","main_expt",""
"","bandit","84","539291","0.0-46.0-0.0","08276320","wem/bandit_party_1","A2YBZFSUD5OP7W","either","7","318","","","","","","","0","0","1","0.02600208211","","0.4","0.8","0.2","0.6","","","","","0.02600208211","0.2445348717","0.1792029032","0.0822298525","","","","","","","","","","72","H","0","img/none_selected.jpg","","5","main_expt",""
"","bandit","85","541106","0.0-47.0-0.0","08276320","wem/bandit_party_1","A2YBZFSUD5OP7W","either","7","310","","","","","","","0","0","1","0.02332436933","","0.4","0.8","0.2","0.6","","","","","0.02332436933","0.2546962146","0.2153873139","0.09162209411","","","","","","","","","","72","H","0","img/none_selected.jpg","","6","main_expt",""
"","bandit","86","542697","0.0-48.0-0.0","08276320","wem/bandit_party_1","A2YBZFSUD5OP7W","either","7","87","","","","","","","0","1","0","","0.2344841702","0.4","0.8","0.2","0.6","0.02864040813","0.2344841702","0.1757762721","0.1028820098","","","","","","","","","","","","","","74","J","1","","","7","main_expt",""
"","bandit","87","544457","0.0-49.0-0.0","08276320","wem/bandit_party_1","A2YBZFSUD5OP7W","either","7","256","","","","","","","0","0","1","0.2473344203","","0.4","0.8","0.2","0.6","","","","","0.02951264166","0.2473344203","0.2241229746","0.1532270122","","","","","","","","","","74","J","1","","","8","main_expt",""
"","bandit","88","546257","0.0-50.0-0.0","08276320","wem/bandit_party_1","A2YBZFSUD5OP7W","either","7","295","","","","","","","0","0","1","0.2642160399","","0.4","0.8","0.2","0.6","","","","","0.02997011939","0.2642160399","0.2199426203","0.2131450397","","","","","","","","","","74","J","1","","","9","main_expt",""
"","bandit","89","548002","0.0-51.0-0.0","08276320","wem/bandit_party_1","A2YBZFSUD5OP7W","either","7","239","","","","","","","0","0","1","","0.1520686932","0.4","0.8","0.2","0.6","0.02489651457","0.2104627424","0.1520686932","0.2985754635","","","","","","","","","","","","","","75","K","2","","","10","main_expt",""
"","bandit","90","549674","0.0-52.0-0.0","08276320","wem/bandit_party_1","A2YBZFSUD5OP7W","either","7","167","","","","","","","0","0","1","","0.2013349999","0.4","0.8","0.2","0.6","0.01651058827","0.219372878","0.2013349999","0.2924640086","","","","","","","","","","","","","","75","K","2","","","11","main_expt",""
"","bandit","91","551418","0.0-53.0-0.0","08276320","wem/bandit_party_1","A2YBZFSUD5OP7W","either","7","239","","","","","","","0","0","1","","0.2156800105","0.4","0.8","0.2","0.6","0.02341729431","0.2105839871","0.2156800105","0.3264291113","","","","","","","","","","","","","","75","K","2","","","12","main_expt",""
"","bandit","92","553010","0.0-54.0-0.0","08276320","wem/bandit_party_1","A2YBZFSUD5OP7W","either","7","87","","","","","","","0","0","1","0.3254913314","","0.4","0.8","0.2","0.6","","","","","0.0257410372","0.2511698571","0.1833947696","0.3254913314","","","","","","","","","","76","L","3","","","13","main_expt",""
"","bandit","93","554978","0.0-55.0-0.0","08276320","wem/bandit_party_1","A2YBZFSUD5OP7W","either","7","463","","","","","","","0","1","0","","0.3428504842","0.4","0.8","0.2","0.6","0.02570014082","0.2158977649","0.243643366","0.3428504842","","","","","","","","","","","","","","76","L","3","","","14","main_expt",""
"","bandit","94","556730","0.0-56.0-0.0","08276320","wem/bandit_party_1","A2YBZFSUD5OP7W","either","7","247","","","","","","","1","0","0","0.3244047679","","0.4","0.8","0.2","0.6","","","","","0.04268316416","0.2762480727","0.2265365198","0.3244047679","","","","","","","","","","76","L","3","","","15","main_expt",""
"","bandit","95","558435","0.0-57.0-0.0","08276320","wem/bandit_party_1","A2YBZFSUD5OP7W","either","7","200","","","","","","","0","0","1","0.3025313629","","0.4","0.8","0.2","0.6","","","","","0.04667408308","0.3202890724","0.2484951132","0.3025313629","","","","","","","","","","76","L","3","","","16","main_expt",""
"","bandit","96","560105","0.0-58.0-0.0","08276320","wem/bandit_party_1","A2YBZFSUD5OP7W","either","7","165","","","","","","","0","0","1","0.3680552247","","0.4","0.8","0.2","0.6","","","","","0.0506688767","0.3680552247","0.2570267238","0.3291216938","","","","","","","","","","74","J","1","","","17","main_expt",""
"","bandit","97","561649","0.0-59.0-0.0","08276320","wem/bandit_party_1","A2YBZFSUD5OP7W","either","7","39","","","","","","","0","1","0","","0.3968593921","0.4","0.8","0.2","0.6","0.02988526167","0.3968593921","0.287418789","0.2987881532","","","","","","","","","","","","","","74","J","1","","","18","main_expt",""
"","bandit","98","563281","0.0-60.0-0.0","08276320","wem/bandit_party_1","A2YBZFSUD5OP7W","either","7","126","","","","","","","0","0","1","0.4192996399","","0.4","0.8","0.2","0.6","","","","","0.03476350355","0.4192996399","0.2338710899","0.281207523","","","","","","","","","","74","J","1","","","19","main_expt",""
"","bandit","99","565049","0.0-61.0-0.0","08276320","wem/bandit_party_1","A2YBZFSUD5OP7W","either","7","261","","","","","","","0","0","1","0.0233687216","","0.4","0.8","0.2","0.6","","","","","0.0233687216","0.4362768361","0.2335293464","0.291129981","","","","","","","","","","72","H","0","img/none_selected.jpg","","20","main_expt",""
"","bandit","100","566738","0.0-62.0-0.0","08276320","wem/bandit_party_1","A2YBZFSUD5OP7W","either","7","184","","","","","","","0","0","1","0.01272547494","","0.4","0.8","0.2","0.6","","","","","0.01272547494","0.4599691003","0.2434826965","0.2729578326","","","","","","","","","","72","H","0","img/none_selected.jpg","","21","main_expt",""
"","bandit","101","568619","0.0-63.0-0.0","08276320","wem/bandit_party_1","A2YBZFSUD5OP7W","either","7","377","","","","","","","0","0","1","0.44353765","","0.4","0.8","0.2","0.6","","","","","0.01739491555","0.44353765","0.2702300591","0.2805141014","","","","","","","","","","74","J","1","","","22","main_expt",""
"","bandit","102","570124","0.0-64.0-0.0","08276320","wem/bandit_party_1","A2YBZFSUD5OP7W","either","7","0","","","","","","","0","0","1","","0.2424740502","0.4","0.8","0.2","0.6","0.006692102231","0.4105594395","0.2424740502","0.3016389313","","","","","","","","","","","","","","75","K","2","","","23","main_expt",""
"","bandit","103","571642","0.0-65.0-0.0","08276320","wem/bandit_party_1","A2YBZFSUD5OP7W","either","7","12","","","","","","","0","0","1","0.2475621169","","0.4","0.8","0.2","0.6","","","","","0.01209419849","0.4243351486","0.1754503809","0.2475621169","","","","","","","","","","76","L","3","","","24","main_expt",""
"","bandit","104","573369","0.0-66.0-0.0","08276320","wem/bandit_party_1","A2YBZFSUD5OP7W","either","7","222","","","","","","","0","0","1","","0.2023019753","0.4","0.8","0.2","0.6","0.009734580702","0.4172780312","0.2023019753","0.2607476102","","","","","","","","","","","","","","75","K","2","","","25","main_expt",""
"","bandit","105","574938","0.0-67.0-0.0","08276320","wem/bandit_party_1","A2YBZFSUD5OP7W","either","7","63","","","","","","","0","0","1","0.3981062588","","0.4","0.8","0.2","0.6","","","","","0.008596148908","0.3981062588","0.1887270612","0.292589008","","","","","","","","","","74","J","1","","","26","main_expt",""
"","bandit","106","576730","0.0-68.0-0.0","08276320","wem/bandit_party_1","A2YBZFSUD5OP7W","either","7","286","","","","","","","0","0","1","","0.01380650739","0.4","0.8","0.2","0.6","0.01380650739","0.3889188119","0.2526986378","0.2978950393","","","","","","","","","","","","","","72","H","0","img/none_selected.jpg","","27","main_expt",""
"","bandit","107","578257","0.0-69.0-0.0","08276320","wem/bandit_party_1","A2YBZFSUD5OP7W","either","7","22","","","","","","","0","0","1","","0.01160852189","0.4","0.8","0.2","0.6","0.01160852189","0.3699095679","0.2536033627","0.337392419","","","","","","","","","","","","","","72","H","0","img/none_selected.jpg","","28","main_expt",""
"","bandit","108","579954","0.0-70.0-0.0","08276320","wem/bandit_party_1","A2YBZFSUD5OP7W","either","7","192","","","","","","","0","0","1","","0.02858314752","0.4","0.8","0.2","0.6","0.02858314752","0.4087832773","0.258258936","0.3830759015","","","","","","","","","","","","","","72","H","0","img/none_selected.jpg","","29","main_expt",""
"","bandit","109","581585","0.0-71.0-0.0","08276320","wem/bandit_party_1","A2YBZFSUD5OP7W","either","7","126","","","","","","","0","0","1","0.0265596094","","0.4","0.8","0.2","0.6","","","","","0.0265596094","0.4162513677","0.3152574144","0.3778881599","","","","","","","","","","72","H","0","img/none_selected.jpg","","30","main_expt",""
"","bandit","110","583202","0.0-72.0-0.0","08276320","wem/bandit_party_1","A2YBZFSUD5OP7W","either","7","111","","","","","","","0","0","1","0.43337534","","0.4","0.8","0.2","0.6","","","","","0.02828816112","0.43337534","0.3508579725","0.3585458117","","","","","","","","","","74","J","1","","","31","main_expt",""
"","bandit","111","584818","0.0-73.0-0.0","08276320","wem/bandit_party_1","A2YBZFSUD5OP7W","either","7","111","","","","","","","0","0","1","0.4399105216","","0.4","0.8","0.2","0.6","","","","","0.03857304495","0.4399105216","0.3902021543","0.3511664436","","","","","","","","","","74","J","1","","","32","main_expt",""
"","bandit","112","586378","0.0-74.0-0.0","08276320","wem/bandit_party_1","A2YBZFSUD5OP7W","either","7","54","","","","","","","1","0","0","0.4112626521","","0.4","0.8","0.2","0.6","","","","","0.02642959278","0.3859623535","0.4112626521","0.3924960189","","","","","","","","","","75","K","2","","","33","main_expt",""
"","bandit","113","588186","0.0-75.0-0.0","08276320","wem/bandit_party_1","A2YBZFSUD5OP7W","either","7","303","","","","","","","0","0","1","","0.3912589523","0.4","0.8","0.2","0.6","0.06800028167","0.4231921331","0.3912589523","0.3713907517","","","","","","","","","","","","","","75","K","2","","","34","main_expt",""
"","bandit","114","589745","0.0-76.0-0.0","08276320","wem/bandit_party_1","A2YBZFSUD5OP7W","either","7","52","","","","","","","0","0","1","","0.3663646496","0.4","0.8","0.2","0.6","0.05710280771","0.3950458867","0.3663646496","0.3929004689","","","","","","","","","","","","","","75","K","2","","","35","main_expt",""
"","bandit","115","591468","0.0-77.0-0.0","08276320","wem/bandit_party_1","A2YBZFSUD5OP7W","either","7","215","","","","","","","0","0","1","","0.3820467604","0.4","0.8","0.2","0.6","0.07756943076","0.4005306787","0.3045225128","0.3820467604","","","","","","","","","","","","","","76","L","3","","","36","main_expt",""
"","bandit","116","593164","0.0-78.0-0.0","08276320","wem/bandit_party_1","A2YBZFSUD5OP7W","either","7","191","","","","","","","1","0","0","0.3948022939","","0.4","0.8","0.2","0.6","","","","","0.06074629621","0.3972735937","0.2806474599","0.3948022939","","","","","","","","","","76","L","3","","","37","main_expt",""
"","bandit","117","594868","0.0-79.0-0.0","08276320","wem/bandit_party_1","A2YBZFSUD5OP7W","either","7","199","","","","","","","1","0","0","0.3769579019","","0.4","0.8","0.2","0.6","","","","","0.07063042774","0.38339591","0.3558759705","0.3769579019","","","","","","","","","","76","L","3","","","38","main_expt",""
"","bandit","118","596524","0.0-80.0-0.0","08276320","wem/bandit_party_1","A2YBZFSUD5OP7W","either","7","151","","","","","","","0","0","1","","0.4030344636","0.4","0.8","0.2","0.6","0.06209293178","0.3906354184","0.3194138052","0.4030344636","","","","","","","","","","","","","","76","L","3","","","39","main_expt",""
"","bandit","119","598284","0.0-81.0-0.0","08276320","wem/bandit_party_1","A2YBZFSUD5OP7W","either","7","255","","","","","","","0","0","1","","0.3622335218","0.4","0.8","0.2","0.6","0.06952578958","0.3623676206","0.3549086085","0.3622335218","","","","","","","","","","","","","","76","L","3","","","40","main_expt",""
"","bandit","120","599860","0.0-82.0-0.0","08276320","wem/bandit_party_1","A2YBZFSUD5OP7W","either","7","70","","","","","","","1","0","0","0.3911596719","","0.4","0.8","0.2","0.6","","","","","0.1291245709","0.3873704927","0.3452113815","0.3911596719","","","","","","","","","","76","L","3","","","41","main_expt",""
"","bandit","121","602053","0.0-83.0-0.0","08276320","wem/bandit_party_1","A2YBZFSUD5OP7W","either","7","686","","","","","","","0","1","0","","0.3921858285","0.4","0.8","0.2","0.6","0.1174523948","0.359823116","0.3522960267","0.3921858285","","","","","","","","","","","","","","76","L","3","","","42","main_expt",""
"","bandit","122","603868","0.0-84.0-0.0","08276320","wem/bandit_party_1","A2YBZFSUD5OP7W","either","7","310","","","","","","","0","0","1","","0.3831213528","0.4","0.8","0.2","0.6","0.1201484523","0.3710191411","0.3093122096","0.3831213528","","","","","","","","","","","","","","76","L","3","","","43","main_expt",""
"","bandit","123","605509","0.0-85.0-0.0","08276320","wem/bandit_party_1","A2YBZFSUD5OP7W","either","7","134","","","","","","","0","0","1","","0.3518708159","0.4","0.8","0.2","0.6","0.09958360536","0.3874065465","0.3026159556","0.3518708159","","","","","","","","","","","","","","76","L","3","","","44","main_expt",""
"","bandit","124","607036","0.0-86.0-0.0","08276320","wem/bandit_party_1","A2YBZFSUD5OP7W","either","7","22","","","","","","","0","0","1","0.3122870636","","0.4","0.8","0.2","0.6","","","","","0.05173655998","0.3851533971","0.3336294247","0.3122870636","","","","","","","","","","76","L","3","","","45","main_expt",""
"","bandit","125","608884","0.0-87.0-0.0","08276320","wem/bandit_party_1","A2YBZFSUD5OP7W","either","7","343","","","","","","","0","1","0","","0.3400222736","0.4","0.8","0.2","0.6","0.05945041096","0.4055883719","0.3400222736","0.2635721956","","","","","","","","","","","","","","75","K","2","","","46","main_expt",""
"","bandit","126","610404","0.0-88.0-0.0","08276320","wem/bandit_party_1","A2YBZFSUD5OP7W","either","7","15","","","","","","","0","0","1","","0.328707825","0.4","0.8","0.2","0.6","0.04375763727","0.3671593179","0.328707825","0.2856785865","","","","","","","","","","","","","","75","K","2","","","47","main_expt",""
"","bandit","127","612037","0.0-89.0-0.0","08276320","wem/bandit_party_1","A2YBZFSUD5OP7W","either","7","128","","","","","","","0","0","1","","0.3307690822","0.4","0.8","0.2","0.6","0.0666370861","0.3198203038","0.3307690822","0.2649087478","","","","","","","","","","","","","","75","K","2","","","48","main_expt",""
"","bandit","128","613660","0.0-90.0-0.0","08276320","wem/bandit_party_1","A2YBZFSUD5OP7W","either","7","117","","","","","","","0","0","1","","0.3438067684","0.4","0.8","0.2","0.6","0.08266213623","0.3111357295","0.3438067684","0.2462979357","","","","","","","","","","","","","","75","K","2","","","49","main_expt",""
"","bandit","129","615356","0.0-91.0-0.0","08276320","wem/bandit_party_1","A2YBZFSUD5OP7W","either","7","190","","","","","","","0","0","1","0.3196682981","","0.4","0.8","0.2","0.6","","","","","0.08795051988","0.3196682981","0.4037002216","0.2490076798","","","","","","","","","","74","J","1","","","50","main_expt",""
"","bandit","130","616908","0.0-92.0-0.0","08276320","wem/bandit_party_1","A2YBZFSUD5OP7W","either","7","46","","","","","","","0","0","1","0.07533366945","","0.4","0.8","0.2","0.6","","","","","0.07533366945","0.3088596379","0.3557518394","0.305209751","","","","","","","","","","72","H","0","img/none_selected.jpg","","51","main_expt",""
"","bandit","131","618461","0.0-93.0-0.0","08276320","wem/bandit_party_1","A2YBZFSUD5OP7W","either","7","46","","","","","","","0","0","1","","0.06506638851","0.4","0.8","0.2","0.6","0.06506638851","0.3060924957","0.3254324358","0.3087204988","","","","","","","","","","","","","","72","H","0","img/none_selected.jpg","","52","main_expt",""
"","bandit","132","620037","0.0-94.0-0.0","08276320","wem/bandit_party_1","A2YBZFSUD5OP7W","either","7","70","","","","","","","0","0","1","0.06562792832","","0.4","0.8","0.2","0.6","","","","","0.06562792832","0.3229319808","0.2952150256","0.2984188648","","","","","","","","","","72","H","0","img/none_selected.jpg","","53","main_expt",""
"","bandit","133","621789","0.0-95.0-0.0","08276320","wem/bandit_party_1","A2YBZFSUD5OP7W","either","7","246","","","","","","","0","0","1","0.3353917468","","0.4","0.8","0.2","0.6","","","","","0.04630081711","0.3280138586","0.300320608","0.3353917468","","","","","","","","","","76","L","3","","","54","main_expt",""
"","bandit","134","623436","0.0-96.0-0.0","08276320","wem/bandit_party_1","A2YBZFSUD5OP7W","either","7","142","","","","","","","0","0","1","","0.3259144651","0.4","0.8","0.2","0.6","0.03868373719","0.2777260571","0.2985084879","0.3259144651","","","","","","","","","","","","","","76","L","3","","","55","main_expt",""
"","bandit","135","624942","0.0-97.0-0.0","08276320","wem/bandit_party_1","A2YBZFSUD5OP7W","either","7","1","","","","","","","0","0","1","","0.2607009345","0.4","0.8","0.2","0.6","0.06235362297","0.1791004868","0.2607009345","0.3259049121","","","","","","","","","","","","","","75","K","2","","","56","main_expt",""
"","bandit","136","626756","0.0-98.0-0.0","08276320","wem/bandit_party_1","A2YBZFSUD5OP7W","either","7","308","","","","","","","0","0","1","","0.2565854794","0.4","0.8","0.2","0.6","0.04639461243","0.2182265394","0.2565854794","0.3687904078","","","","","","","","","","","","","","75","K","2","","","57","main_expt",""
"","bandit","137","628340","0.0-99.0-0.0","08276320","wem/bandit_party_1","A2YBZFSUD5OP7W","either","7","79","","","","","","","0","0","1","0.2970860181","","0.4","0.8","0.2","0.6","","","","","0.08954448139","0.2970860181","0.319121847","0.3422038875","","","","","","","","","","74","J","1","","","58","main_expt",""
"","bandit","138","630228","0.0-100.0-0.0","08276320","wem/bandit_party_1","A2YBZFSUD5OP7W","either","7","382","","","","","","","1","0","0","0.3249685468","","0.4","0.8","0.2","0.6","","","","","0.07390342289","0.3249685468","0.3269923399","0.3771421139","","","","","","","","","","74","J","1","","","59","main_expt",""
"","bandit","139","632061","0.0-101.0-0.0","08276320","wem/bandit_party_1","A2YBZFSUD5OP7W","either","7","326","","","","","","","0","0","1","0.2931470039","","0.4","0.8","0.2","0.6","","","","","0.05801548519","0.2931470039","0.3150968823","0.3620124399","","","","","","","","","","74","J","1","","","60","main_expt",""
"","bandit","140","633677","0.0-102.0-0.0","08276320","wem/bandit_party_1","A2YBZFSUD5OP7W","either","7","112","","","","","","","0","0","1","0.2646536279","","0.4","0.8","0.2","0.6","","","","","0.07333263924","0.2646536279","0.324539239","0.3958116198","","","","","","","","","","74","J","1","","","61","main_expt",""
"","bandit","141","635468","0.0-103.0-0.0","08276320","wem/bandit_party_1","A2YBZFSUD5OP7W","either","7","285","","","","","","","1","0","0","0.242461968","","0.4","0.8","0.2","0.6","","","","","0.07563430262","0.242461968","0.3066306166","0.3615218546","","","","","","","","","","74","J","1","","","62","main_expt",""
"","bandit","142","637253","0.0-104.0-0.0","08276320","wem/bandit_party_1","A2YBZFSUD5OP7W","either","7","278","","","","","","","0","0","1","","0.2206683029","0.4","0.8","0.2","0.6","0.06826526778","0.2206683029","0.3068900116","0.3574266064","","","","","","","","","","","","","","74","J","1","","","63","main_expt",""
"","bandit","143","639140","0.0-105.0-0.0","08276320","wem/bandit_party_1","A2YBZFSUD5OP7W","either","7","382","","","","","","","0","0","1","0.2288959862","","0.4","0.8","0.2","0.6","","","","","0.1175271989","0.2288959862","0.2936494982","0.3541915859","","","","","","","","","","74","J","1","","","64","main_expt",""
"","bandit","144","640804","0.0-106.0-0.0","08276320","wem/bandit_party_1","A2YBZFSUD5OP7W","either","7","158","","","","","","","0","0","1","","0.290236101","0.4","0.8","0.2","0.6","0.1273865191","0.2346523549","0.290236101","0.3339820985","","","","","","","","","","","","","","75","K","2","","","65","main_expt",""
"","bandit","145","642372","0.0-107.0-0.0","08276320","wem/bandit_party_1","A2YBZFSUD5OP7W","either","7","62","","","","","","","0","1","0","","0.2512036594","0.4","0.8","0.2","0.6","0.09075088943","0.1881688105","0.2512036594","0.3195467083","","","","","","","","","","","","","","75","K","2","","","66","main_expt",""
"","bandit","146","644117","0.0-108.0-0.0","08276320","wem/bandit_party_1","A2YBZFSUD5OP7W","either","7","240","","","","","","","0","0","1","","0.263747572","0.4","0.8","0.2","0.6","0.08077075725","0.231043846","0.263747572","0.3477383846","","","","","","","","","","","","","","75","K","2","","","67","main_expt",""
"","bandit","147","645788","0.0-109.0-0.0","08276320","wem/bandit_party_1","A2YBZFSUD5OP7W","either","7","165","","","","","","","0","1","0","","0.3365352069","0.4","0.8","0.2","0.6","0.08810311296","0.2576664243","0.2892519303","0.3365352069","","","","","","","","","","","","","","76","L","3","","","68","main_expt",""
"","bandit","148","647548","0.0-110.0-0.0","08276320","wem/bandit_party_1","A2YBZFSUD5OP7W","either","7","254","","","","","","","1","0","0","0.3148812039","","0.4","0.8","0.2","0.6","","","","","0.1260156682","0.2183283259","0.2383664846","0.3148812039","","","","","","","","","","76","L","3","","","69","main_expt",""
"","bandit","149","649245","0.0-111.0-0.0","08276320","wem/bandit_party_1","A2YBZFSUD5OP7W","either","7","190","","","","","","","1","0","0","0.3154014692","","0.4","0.8","0.2","0.6","","","","","0.08773951932","0.2260484764","0.2497111545","0.3154014692","","","","","","","","","","76","L","3","","","70","main_expt",""
"","bandit","150","650964","0.0-112.0-0.0","08276320","wem/bandit_party_1","A2YBZFSUD5OP7W","either","7","213","","","","","","","0","1","0","","0.219815459","0.4","0.8","0.2","0.6","0.1154304285","0.3196469567","0.2095843002","0.219815459","","","","","","","","","","","","","","76","L","3","","","71","main_expt",""
"","bandit","151","652742","0.0-113.0-0.0","08276320","wem/bandit_party_1","A2YBZFSUD5OP7W","either","7","270","","","","","","","0","0","1","0.2623730272","","0.4","0.8","0.2","0.6","","","","","0.10097247","0.3644141189","0.1972488467","0.2623730272","","","","","","","","","","76","L","3","","","72","main_expt",""
"","bandit","152","654385","0.0-114.0-0.0","08276320","wem/bandit_party_1","A2YBZFSUD5OP7W","either","7","136","","","","","","","0","0","1","0.2639805735","","0.4","0.8","0.2","0.6","","","","","0.0746930591","0.4081842109","0.15494396","0.2639805735","","","","","","","","","","76","L","3","","","73","main_expt",""
"","bandit","153","656015","0.0-115.0-0.0","08276320","wem/bandit_party_1","A2YBZFSUD5OP7W","either","7","125","","","","","","","0","0","1","0.2770925356","","0.4","0.8","0.2","0.6","","","","","0.1124392477","0.4506698749","0.1324790415","0.2770925356","","","","","","","","","","76","L","3","","","74","main_expt",""
"","bandit","154","657647","0.0-116.0-0.0","08276320","wem/bandit_party_1","A2YBZFSUD5OP7W","either","7","126","","","","","","","0","0","1","0.2796652475","","0.4","0.8","0.2","0.6","","","","","0.113494578","0.454520075","0.179195356","0.2796652475","","","","","","","","","","76","L","3","","","75","main_expt",""
"","bandit","155","659399","0.0-117.0-0.0","08276320","wem/bandit_party_1","A2YBZFSUD5OP7W","either","7","247","","","","","","","1","0","0","0.3153427244","","0.4","0.8","0.2","0.6","","","","","0.1469344428","0.466199952","0.215808919","0.3153427244","","","","","","","","","","76","L","3","","","76","main_expt",""
"","bandit","156","661247","0.0-118.0-0.0","08276320","wem/bandit_party_1","A2YBZFSUD5OP7W","either","7","343","","","","","","","0","0","1","0.3676911864","","0.4","0.8","0.2","0.6","","","","","0.2152215887","0.4402141775","0.2312347408","0.3676911864","","","","","","","","","","76","L","3","","","77","main_expt",""
"","bandit","157","662879","0.0-119.0-0.0","08276320","wem/bandit_party_1","A2YBZFSUD5OP7W","either","7","126","","","","","","","1","0","0","0.3434277392","","0.4","0.8","0.2","0.6","","","","","0.2055177618","0.4525957793","0.2197025874","0.3434277392","","","","","","","","","","76","L","3","","","78","main_expt",""
"","bandit","158","664472","0.0-120.0-0.0","08276320","wem/bandit_party_1","A2YBZFSUD5OP7W","either","7","88","","","","","","","0","0","1","","0.3758616161","0.4","0.8","0.2","0.6","0.222262525","0.4630799716","0.2227420924","0.3758616161","","","","","","","","","","","","","","76","L","3","","","79","main_expt",""
"","bandit","159","666119","0.0-121.0-0.0","08276320","wem/bandit_party_1","A2YBZFSUD5OP7W","either","7","141","","","","","","","0","1","0","","0.3862393514","0.4","0.8","0.2","0.6","0.2700860438","0.423693353","0.2283057493","0.3862393514","","","","","","","","","","","","","","76","L","3","","","80","main_expt",""
"","bandit","160","667854","0.0-122.0-0.0","08276320","wem/bandit_party_1","A2YBZFSUD5OP7W","either","7","229","","","","","","","0","0","1","0.3593770893","","0.4","0.8","0.2","0.6","","","","","0.2642688004","0.4319112677","0.2721525977","0.3593770893","","","","","","","","","","76","L","3","","","81","main_expt",""
"","bandit","161","669366","0.0-123.0-0.0","08276320","wem/bandit_party_1","A2YBZFSUD5OP7W","either","7","6","","","","","","","0","0","1","0.4035110645","","0.4","0.8","0.2","0.6","","","","","0.2824164754","0.441827487","0.2850237184","0.4035110645","","","","","","","","","","76","L","3","","","82","main_expt",""
"","bandit","162","671015","0.0-124.0-0.0","08276320","wem/bandit_party_1","A2YBZFSUD5OP7W","either","7","143","","","","","","","0","1","0","","0.3719627038","0.4","0.8","0.2","0.6","0.2819095575","0.4288861504","0.3236436683","0.3719627038","","","","","","","","","","","","","","76","L","3","","","83","main_expt",""
"","bandit","163","672671","0.0-125.0-0.0","08276320","wem/bandit_party_1","A2YBZFSUD5OP7W","either","7","150","","","","","","","0","0","1","0.3349288927","","0.4","0.8","0.2","0.6","","","","","0.2589745902","0.4350385517","0.3339638593","0.3349288927","","","","","","","","","","76","L","3","","","84","main_expt",""
"","bandit","164","674327","0.0-126.0-0.0","08276320","wem/bandit_party_1","A2YBZFSUD5OP7W","either","7","150","","","","","","","0","0","1","","0.3247899262","0.4","0.8","0.2","0.6","0.3626504113","0.4255505645","0.3795022601","0.3247899262","","","","","","","","","","","","","","76","L","3","","","85","main_expt",""
"","bandit","165","675897","0.0-127.0-0.0","08276320","wem/bandit_party_1","A2YBZFSUD5OP7W","either","7","64","","","","","","","0","1","0","","0.3443557019","0.4","0.8","0.2","0.6","0.3598915268","0.4330938692","0.3835523064","0.3443557019","","","","","","","","","","","","","","76","L","3","","","86","main_expt",""
"","bandit","166","677711","0.0-128.0-0.0","08276320","wem/bandit_party_1","A2YBZFSUD5OP7W","either","7","309","","","","","","","0","0","1","0.3648776167","","0.4","0.8","0.2","0.6","","","","","0.3433052933","0.4548398529","0.3772514457","0.3648776167","","","","","","","","","","76","L","3","","","87","main_expt",""
"","bandit","167","679327","0.0-129.0-0.0","08276320","wem/bandit_party_1","A2YBZFSUD5OP7W","either","7","110","","","","","","","0","0","1","0.3609631839","","0.4","0.8","0.2","0.6","","","","","0.4022938878","0.4493124031","0.3766830519","0.3609631839","","","","","","","","","","76","L","3","","","88","main_expt",""
"","bandit","168","681031","0.0-130.0-0.0","08276320","wem/bandit_party_1","A2YBZFSUD5OP7W","either","7","197","","","","","","","0","0","1","0.3636167192","","0.4","0.8","0.2","0.6","","","","","0.4141493151","0.4161110063","0.3537755119","0.3636167192","","","","","","","","","","76","L","3","","","89","main_expt",""
"","bandit","169","682735","0.0-131.0-0.0","08276320","wem/bandit_party_1","A2YBZFSUD5OP7W","either","7","197","","","","","","","1","0","0","0.3563441379","","0.4","0.8","0.2","0.6","","","","","0.4136124289","0.405260856","0.3014761449","0.3563441379","","","","","","","","","","76","L","3","","","90","main_expt",""
"","bandit","170","684343","0.0-132.0-0.0","08276320","wem/bandit_party_1","A2YBZFSUD5OP7W","either","7","102","","","","","","","0","0","1","0.3827048226","","0.4","0.8","0.2","0.6","","","","","0.4184852842","0.3827048226","0.2694038268","0.3389138503","","","","","","","","","","74","J","1","","","91","main_expt",""
"","bandit","171","686016","0.0-133.0-0.0","08276320","wem/bandit_party_1","A2YBZFSUD5OP7W","either","7","167","","","","","","","1","0","0","0.3552182969","","0.4","0.8","0.2","0.6","","","","","0.4456808576","0.3552182969","0.2651536323","0.3263360165","","","","","","","","","","74","J","1","","","92","main_expt",""
"","bandit","172","687670","0.0-134.0-0.0","08276320","wem/bandit_party_1","A2YBZFSUD5OP7W","either","7","148","","","","","","","0","0","1","0.3286897504","","0.4","0.8","0.2","0.6","","","","","0.4355219805","0.3286897504","0.1997208586","0.2844131911","","","","","","","","","","74","J","1","","","93","main_expt",""
"","bandit","173","689407","0.0-135.0-0.0","08276320","wem/bandit_party_1","A2YBZFSUD5OP7W","either","7","229","","","","","","","0","0","1","0.3422490236","","0.4","0.8","0.2","0.6","","","","","0.4609821192","0.3422490236","0.2442555344","0.2978465223","","","","","","","","","","74","J","1","","","94","main_expt",""
"","bandit","174","691159","0.0-136.0-0.0","08276320","wem/bandit_party_1","A2YBZFSUD5OP7W","either","7","246","","","","","","","0","0","1","0.3160161054","","0.4","0.8","0.2","0.6","","","","","0.4419374505","0.3160161054","0.2638839348","0.2638723705","","","","","","","","","","74","J","1","","","95","main_expt",""
"","bandit","175","692855","0.0-137.0-0.0","08276320","wem/bandit_party_1","A2YBZFSUD5OP7W","either","7","189","","","","","","","0","0","1","0.2945538732","","0.4","0.8","0.2","0.6","","","","","0.39438674","0.2945538732","0.2265245807","0.2276010735","","","","","","","","","","74","J","1","","","96","main_expt",""
"","bandit","176","694622","0.0-138.0-0.0","08276320","wem/bandit_party_1","A2YBZFSUD5OP7W","either","7","261","","","","","","","0","0","1","","0.1969189177","0.4","0.8","0.2","0.6","0.3617668419","0.393563827","0.1969189177","0.2045446072","","","","","","","","","","","","","","75","K","2","","","97","main_expt",""
"","bandit","177","696232","0.0-139.0-0.0","08276320","wem/bandit_party_1","A2YBZFSUD5OP7W","either","7","105","","","","","","","0","0","1","0.1761144245","","0.4","0.8","0.2","0.6","","","","","0.3737913853","0.4046254927","0.1761144245","0.2436418828","","","","","","","","","","75","K","2","","","98","main_expt",""
"","bandit","178","698230","0.0-140.0-0.0","08276320","wem/bandit_party_1","A2YBZFSUD5OP7W","either","7","492","","","","","","","1","0","0","0.1211630765","","0.4","0.8","0.2","0.6","","","","","0.4221129479","0.3659012549","0.1211630765","0.2473144087","","","","","","","","","","75","K","2","","","99","main_expt",""
"","bandit","179","699966","0.0-141.0-0.0","08276320","wem/bandit_party_1","A2YBZFSUD5OP7W","either","7","230","","","","","","","0","0","1","","0.1257326749","0.4","0.8","0.2","0.6","0.3857893684","0.400368336","0.1257326749","0.2707360286","","","","","","","","","","","","","","75","K","2","","","100","main_expt",""
"","bandit","180","701670","0.0-142.0-0.0","08276320","wem/bandit_party_1","A2YBZFSUD5OP7W","either","7","199","","","","","","","0","0","1","","0.09975532208","0.4","0.8","0.2","0.6","0.3635527264","0.4367931528","0.09975532208","0.3250409822","","","","","","","","","","","","","","75","K","2","","","101","main_expt",""
"","bandit","181","703230","0.0-143.0-0.0","08276320","wem/bandit_party_1","A2YBZFSUD5OP7W","either","7","54","","","","","","","0","0","1","0.1127414424","","0.4","0.8","0.2","0.6","","","","","0.3738375489","0.4371155326","0.1127414424","0.3088580598","","","","","","","","","","75","K","2","","","102","main_expt",""
"","bandit","182","704790","0.0-144.0-0.0","08276320","wem/bandit_party_1","A2YBZFSUD5OP7W","either","7","54","","","","","","","0","0","1","","0.3860163181","0.4","0.8","0.2","0.6","0.3860163181","0.388648264","0.1232600734","0.2901001995","","","","","","","","","","","","","","72","H","0","img/none_selected.jpg","","103","main_expt",""
"","bandit","183","706400","0.0-145.0-0.0","08276320","wem/bandit_party_1","A2YBZFSUD5OP7W","either","7","103","","","","","","","0","0","1","0.390692362","","0.4","0.8","0.2","0.6","","","","","0.390692362","0.3718469433","0.08156843846","0.309645936","","","","","","","","","","72","H","0","img/none_selected.jpg","","104","main_expt",""
"","bandit","184","708215","0.0-146.0-0.0","08276320","wem/bandit_party_1","A2YBZFSUD5OP7W","either","7","310","","","","","","","1","0","0","0.4139082553","","0.4","0.8","0.2","0.6","","","","","0.4139082553","0.3920304628","0.08245659199","0.3386062745","","","","","","","","","","72","H","0","img/none_selected.jpg","","105","main_expt",""
"","bandit","185","709879","0.0-147.0-0.0","08276320","wem/bandit_party_1","A2YBZFSUD5OP7W","either","7","158","","","","","","","0","1","0","","0.3295275825","0.4","0.8","0.2","0.6","0.3295275825","0.3733497125","0.1276639339","0.3827539061","","","","","","","","","","","","","","72","H","0","img/none_selected.jpg","","106","main_expt",""
"","bandit","186","711663","0.0-148.0-0.0","08276320","wem/bandit_party_1","A2YBZFSUD5OP7W","either","7","277","","","","","","","0","0","1","","0.3499712774","0.4","0.8","0.2","0.6","0.3499712774","0.3878439861","0.1812689745","0.3401355396","","","","","","","","","","","","","","72","H","0","img/none_selected.jpg","","107","main_expt",""
"","bandit","187","713313","0.0-149.0-0.0","08276320","wem/bandit_party_1","A2YBZFSUD5OP7W","either","7","141","","","","","","","0","1","0","","0.2666891207","0.4","0.8","0.2","0.6","0.2666891207","0.3529013302","0.2187982558","0.3258039352","","","","","","","","","","","","","","72","H","0","img/none_selected.jpg","","108","main_expt",""
"","bandit","188","714896","0.0-150.0-0.0","08276320","wem/bandit_party_1","A2YBZFSUD5OP7W","either","7","77","","","","","","","0","0","1","","0.2575067634","0.4","0.8","0.2","0.6","0.2575067634","0.3457683734","0.2201216928","0.374919859","","","","","","","","","","","","","","72","H","0","img/none_selected.jpg","","109","main_expt",""
"","bandit","189","716466","0.0-151.0-0.0","08276320","wem/bandit_party_1","A2YBZFSUD5OP7W","either","7","63","","","","","","","1","0","0","0.2664913793","","0.4","0.8","0.2","0.6","","","","","0.2664913793","0.3316873257","0.1789817232","0.3656186065","","","","","","","","","","72","H","0","img/none_selected.jpg","","110","main_expt",""
"","bandit","190","717992","0.0-152.0-0.0","08276320","wem/bandit_party_1","A2YBZFSUD5OP7W","either","7","20","","","","","","","0","0","1","","0.2233446911","0.4","0.8","0.2","0.6","0.2233446911","0.3434945318","0.2404947452","0.3649701027","","","","","","","","","","","","","","72","H","0","img/none_selected.jpg","","111","main_expt",""
"","bandit","191","719736","0.0-153.0-0.0","08276320","wem/bandit_party_1","A2YBZFSUD5OP7W","either","7","238","","","","","","","0","0","1","","0.2170082082","0.4","0.8","0.2","0.6","0.2170082082","0.2729480053","0.2959558532","0.3371716456","","","","","","","","","","","","","","72","H","0","img/none_selected.jpg","","112","main_expt",""
"","bandit","192","721344","0.0-154.0-0.0","08276320","wem/bandit_party_1","A2YBZFSUD5OP7W","either","7","102","","","","","","","0","0","1","0.1912277411","","0.4","0.8","0.2","0.6","","","","","0.1912277411","0.2579672073","0.2966985553","0.2587224119","","","","","","","","","","72","H","0","img/none_selected.jpg","","113","main_expt",""
"","bandit","193","722851","0.0-155.0-0.0","08276320","wem/bandit_party_1","A2YBZFSUD5OP7W","either","7","0","","","","","","","0","0","1","","0.1691995451","0.4","0.8","0.2","0.6","0.1691995451","0.24654084","0.3289730608","0.2384324947","","","","","","","","","","","","","","72","H","0","img/none_selected.jpg","","114","main_expt",""
"","bandit","194","724585","0.0-156.0-0.0","08276320","wem/bandit_party_1","A2YBZFSUD5OP7W","either","7","227","","","","","","","1","0","0","0.2705755989","","0.4","0.8","0.2","0.6","","","","","0.1263730162","0.246649757","0.2783705844","0.2705755989","","","","","","","","","","76","L","3","","","115","main_expt",""
"","bandit","195","726297","0.0-157.0-0.0","08276320","wem/bandit_party_1","A2YBZFSUD5OP7W","either","7","206","","","","","","","0","0","1","","0.2666822","0.4","0.8","0.2","0.6","0.1130092975","0.2190482835","0.2990421824","0.2666822","","","","","","","","","","","","","","76","L","3","","","116","main_expt",""
"","bandit","196","728074","0.0-158.0-0.0","08276320","wem/bandit_party_1","A2YBZFSUD5OP7W","either","7","270","","","","","","","1","0","0","0.2664749026","","0.4","0.8","0.2","0.6","","","","","0.1317362661","0.1860086181","0.3214730448","0.2664749026","","","","","","","","","","76","L","3","","","117","main_expt",""
"","bandit","197","729777","0.0-159.0-0.0","08276320","wem/bandit_party_1","A2YBZFSUD5OP7W","either","7","196","","","","","","","0","0","1","","0.285497096","0.4","0.8","0.2","0.6","0.08460291254","0.1765749983","0.3996160597","0.285497096","","","","","","","","","","","","","","76","L","3","","","118","main_expt",""
"","bandit","198","731552","0.0-160.0-0.0","08276320","wem/bandit_party_1","A2YBZFSUD5OP7W","either","7","269","","","","","","","0","0","1","","0.3004427434","0.4","0.8","0.2","0.6","0.09168363065","0.1840588368","0.4143362638","0.3004427434","","","","","","","","","","","","","","76","L","3","","","119","main_expt",""
"","bandit","199","733224","0.0-161.0-0.0","08276320","wem/bandit_party_1","A2YBZFSUD5OP7W","either","7","166","","","","","","","0","0","1","","0.372340151","0.4","0.8","0.2","0.6","0.06729372802","0.1988357929","0.372340151","0.2419855731","","","","","","","","","","","","","","75","K","2","","","120","main_expt",""
"","bandit","200","734824","0.0-162.0-0.0","08276320","wem/bandit_party_1","A2YBZFSUD5OP7W","either","7","94","","","","","","","0","1","0","","0.3910424524","0.4","0.8","0.2","0.6","0.08346408207","0.2315674","0.3910424524","0.3054132847","","","","","","","","","","","","","","75","K","2","","","121","main_expt",""
"","bandit","201","736560","0.0-163.0-0.0","08276320","wem/bandit_party_1","A2YBZFSUD5OP7W","either","7","230","","","","","","","0","1","0","","0.3813410711","0.4","0.8","0.2","0.6","0.05632743158","0.2041322171","0.3813410711","0.2473202095","","","","","","","","","","","","","","75","K","2","","","122","main_expt",""
"","bandit","202","738345","0.0-164.0-0.0","08276320","wem/bandit_party_1","A2YBZFSUD5OP7W","either","7","279","","","","","","","0","0","1","0.4247291795","","0.4","0.8","0.2","0.6","","","","","0.05516745574","0.1945268209","0.4247291795","0.2909195989","","","","","","","","","","75","K","2","","","123","main_expt",""
"","bandit","203","740000","0.0-165.0-0.0","08276320","wem/bandit_party_1","A2YBZFSUD5OP7W","either","7","149","","","","","","","1","0","0","0.4311179713","","0.4","0.8","0.2","0.6","","","","","0.05528311039","0.2206749142","0.4311179713","0.3493750294","","","","","","","","","","75","K","2","","","124","main_expt",""
"","bandit","204","741689","0.0-166.0-0.0","08276320","wem/bandit_party_1","A2YBZFSUD5OP7W","either","7","182","","","","","","","0","0","1","","0.4085782939","0.4","0.8","0.2","0.6","0.07149807259","0.212012295","0.4085782939","0.3883668019","","","","","","","","","","","","","","75","K","2","","","125","main_expt",""
"","bandit","205","743401","0.0-167.0-0.0","08276320","wem/bandit_party_1","A2YBZFSUD5OP7W","either","7","205","","","","","","","0","1","0","","0.4110861309","0.4","0.8","0.2","0.6","0.1137803622","0.1656684785","0.4110861309","0.3888129637","","","","","","","","","","","","","","75","K","2","","","126","main_expt",""
"","bandit","206","745217","0.0-168.0-0.0","08276320","wem/bandit_party_1","A2YBZFSUD5OP7W","either","7","309","","","","","","","0","0","1","","0.4214671818","0.4","0.8","0.2","0.6","0.1003054442","0.1685301808","0.4214671818","0.3659195129","","","","","","","","","","","","","","75","K","2","","","127","main_expt",""
"","bandit","207","746801","0.0-169.0-0.0","08276320","wem/bandit_party_1","A2YBZFSUD5OP7W","either","7","77","","","","","","","0","1","0","","0.36889317","0.4","0.8","0.2","0.6","0.1378169536","0.1703551811","0.36889317","0.3689954399","","","","","","","","","","","","","","75","K","2","","","128","main_expt",""
"","bandit","208","748554","0.0-170.0-0.0","08276320","wem/bandit_party_1","A2YBZFSUD5OP7W","either","7","246","","","","","","","0","0","1","0.3840267129","","0.4","0.8","0.2","0.6","","","","","0.1333081235","0.1624753709","0.3840267129","0.3600340942","","","","","","","","","","75","K","2","","","129","main_expt",""
"","bandit","209","750104","0.0-171.0-0.0","08276320","wem/bandit_party_1","A2YBZFSUD5OP7W","either","7","44","","","","","","","0","0","1","","0.3809677701","0.4","0.8","0.2","0.6","0.1682212827","0.2335662737","0.3809677701","0.3580797835","","","","","","","","","","","","","","75","K","2","","","130","main_expt",""
"","bandit","210","751680","0.0-172.0-0.0","08276320","wem/bandit_party_1","A2YBZFSUD5OP7W","either","7","70","","","","","","","0","1","0","","0.3681933818","0.4","0.8","0.2","0.6","0.2193829955","0.240441026","0.3681933818","0.3785893338","","","","","","","","","","","","","","75","K","2","","","131","main_expt",""
"","bandit","211","753304","0.0-173.0-0.0","08276320","wem/bandit_party_1","A2YBZFSUD5OP7W","either","7","118","","","","","","","0","1","0","","0.3664045944","0.4","0.8","0.2","0.6","0.2693349046","0.2266699971","0.3664045944","0.3764735404","","","","","","","","","","","","","","75","K","2","","","132","main_expt",""
"","bandit","212","754992","0.0-174.0-0.0","08276320","wem/bandit_party_1","A2YBZFSUD5OP7W","either","7","182","","","","","","","0","1","0","","0.4046437197","0.4","0.8","0.2","0.6","0.2576546077","0.1994193025","0.4046437197","0.3433534211","","","","","","","","","","","","","","75","K","2","","","133","main_expt",""
"","bandit","213","756656","0.0-175.0-0.0","08276320","wem/bandit_party_1","A2YBZFSUD5OP7W","either","7","158","","","","","","","0","0","1","","0.364490756","0.4","0.8","0.2","0.6","0.2412372273","0.1891464922","0.364490756","0.3606247271","","","","","","","","","","","","","","75","K","2","","","134","main_expt",""
"","bandit","214","758281","0.0-176.0-0.0","08276320","wem/bandit_party_1","A2YBZFSUD5OP7W","either","7","116","","","","","","","0","0","1","","0.311914316","0.4","0.8","0.2","0.6","0.2198641054","0.1614798668","0.311914316","0.3268624306","","","","","","","","","","","","","","75","K","2","","","135","main_expt",""
"","bandit","215","760161","0.0-177.0-0.0","08276320","wem/bandit_party_1","A2YBZFSUD5OP7W","either","7","373","","","","","","","0","0","1","","0.2653901568","0.4","0.8","0.2","0.6","0.2504132697","0.1880386222","0.2653901568","0.2854606769","","","","","","","","","","","","","","75","K","2","","","136","main_expt",""
"","bandit","216","761729","0.0-178.0-0.0","08276320","wem/bandit_party_1","A2YBZFSUD5OP7W","either","7","61","","","","","","","0","1","0","","0.2413295316","0.4","0.8","0.2","0.6","0.1912230989","0.1961818793","0.2413295316","0.3311747399","","","","","","","","","","","","","","75","K","2","","","137","main_expt",""
"","bandit","217","764424","0.0-179.0-0.0","08276320","wem/bandit_party_1","A2YBZFSUD5OP7W","either","7","1189","","","","","","","0","1","0","","0.2060295423","0.4","0.8","0.2","0.6","0.1576256809","0.2857678963","0.2060295423","0.2570785188","","","","","","","","","","","","","","75","K","2","","","138","main_expt",""
"","bandit","218","766648","0.0-180.0-0.0","08276320","wem/bandit_party_1","A2YBZFSUD5OP7W","either","7","718","","","","","","","0","0","1","","0.1809645164","0.4","0.8","0.2","0.6","0.1019788138","0.3449131854","0.1809645164","0.2858060749","","","","","","","","","","","","","","75","K","2","","","139","main_expt",""
"","bandit","219","772913","0.0-181.0-0.0","08276320","wem/bandit_party_1","A2YBZFSUD5OP7W","either","7","4759","","","","","","","0","0","1","","0.2975559752","0.4","0.8","0.2","0.6","0.07754087054","0.2537716732","0.1843216893","0.2975559752","","","","","","","","","","","","","","76","L","3","","","140","main_expt",""
"","bandit","220","774763","0.0-182.0-0.0","08276320","wem/bandit_party_1","A2YBZFSUD5OP7W","either","7","340","","","","","","","0","0","1","0.2858111263","","0.4","0.8","0.2","0.6","","","","","0.09489610577","0.2858111263","0.1651876155","0.2802168405","","","","","","","","","","74","J","1","","","141","main_expt",""
"","bandit","221","855159","0.0-183.0-0.0","08276320","wem/bandit_party_1","A2YBZFSUD5OP7W","either","7","78889","","","","","","","0","0","1","0.1536427928","","0.4","0.8","0.2","0.6","","","","","0.09601428546","0.303049367","0.1536427928","0.2231986748","","","","","","","","","","75","K","2","","","142","main_expt",""
"","bandit","222","856966","0.0-184.0-0.0","08276320","wem/bandit_party_1","A2YBZFSUD5OP7W","either","7","299","","","","","","","0","0","1","","0.2969419413","0.4","0.8","0.2","0.6","0.08301142993","0.2969419413","0.1546140226","0.2032880393","","","","","","","","","","","","","","74","J","1","","","143","main_expt",""
"","bandit","223","858813","0.0-185.0-0.0","08276320","wem/bandit_party_1","A2YBZFSUD5OP7W","either","7","341","","","","","","","0","0","1","0.1967741464","","0.4","0.8","0.2","0.6","","","","","0.09599686985","0.3128690494","0.1746031107","0.1967741464","","","","","","","","","","76","L","3","","","144","main_expt",""
"","bandit","224","860725","0.0-186.0-0.0","08276320","wem/bandit_party_1","A2YBZFSUD5OP7W","either","7","406","","","","","","","0","0","1","0.2283154954","","0.4","0.8","0.2","0.6","","","","","0.07499383622","0.2991796355","0.2021387556","0.2283154954","","","","","","","","","","76","L","3","","","145","main_expt",""
"","bandit","225","862461","0.0-187.0-0.0","08276320","wem/bandit_party_1","A2YBZFSUD5OP7W","either","7","230","","","","","","","0","0","1","","0.2504344391","0.4","0.8","0.2","0.6","0.09566861","0.3163763193","0.2504344391","0.2118700154","","","","","","","","","","","","","","75","K","2","","","146","main_expt",""
"","bandit","226","864214","0.0-188.0-0.0","08276320","wem/bandit_party_1","A2YBZFSUD5OP7W","either","7","246","","","","","","","0","0","1","0.3198025905","","0.4","0.8","0.2","0.6","","","","","0.08578591382","0.3198025905","0.2437718569","0.210437557","","","","","","","","","","74","J","1","","","147","main_expt",""
"","bandit","227","867095","0.0-189.0-0.0","08276320","wem/bandit_party_1","A2YBZFSUD5OP7W","either","7","1375","","","","","","","0","0","1","0.2588245921","","0.4","0.8","0.2","0.6","","","","","0.1147887709","0.2588245921","0.2446677265","0.2370661354","","","","","","","","","","74","J","1","","","148","main_expt",""
"","bandit","228","868765","0.0-190.0-0.0","08276320","wem/bandit_party_1","A2YBZFSUD5OP7W","either","7","164","","","","","","","0","0","1","0.1378203382","","0.4","0.8","0.2","0.6","","","","","0.1378203382","0.248712437","0.2911002833","0.2430363771","","","","","","","","","","72","H","0","img/none_selected.jpg","","149","main_expt",""
"","bandit","229","870430","0.0-191.0-0.0","08276320","wem/bandit_party_1","A2YBZFSUD5OP7W","either","7","158","","","","","","","0","0","1","","0.3529655025","0.4","0.8","0.2","0.6","0.1414499273","0.179144869","0.3529655025","0.2242182381","","","","","","","","","","","","","","75","K","2","","","150","main_expt",""
"","bandit","230","872245","0.0-192.0-0.0","08276320","wem/bandit_party_1","A2YBZFSUD5OP7W","either","7","309","","","","","","","0","0","1","","0.1997145133","0.4","0.8","0.2","0.6","0.07852348772","0.1545669956","0.3885741111","0.1997145133","","","","","","","","","","","","","","76","L","3","","","151","main_expt",""
"","bandit","231","873949","0.0-193.0-0.0","08276320","wem/bandit_party_1","A2YBZFSUD5OP7W","either","7","198","","","","","","","0","0","1","","0.1651714415","0.4","0.8","0.2","0.6","0.08485793113","0.1651714415","0.3690499696","0.2195927633","","","","","","","","","","","","","","74","J","1","","","152","main_expt",""
"","bandit","232","875926","0.0-194.0-0.0","08276320","wem/bandit_party_1","A2YBZFSUD5OP7W","either","7","470","","","","","","","0","0","1","","0.1083789561","0.4","0.8","0.2","0.6","0.1083789561","0.2396245514","0.3710492515","0.2121816628","","","","","","","","","","","","","","72","H","0","img/none_selected.jpg","","153","main_expt",""
"","bandit","233","877598","0.0-195.0-0.0","08276320","wem/bandit_party_1","A2YBZFSUD5OP7W","either","7","167","","","","","","","0","1","0","","0.3483335413","0.4","0.8","0.2","0.6","0.109098481","0.2085838567","0.3483335413","0.1830588608","","","","","","","","","","","","","","75","K","2","","","154","main_expt",""
"","bandit","234","879501","0.0-196.0-0.0","08276320","wem/bandit_party_1","A2YBZFSUD5OP7W","either","7","397","","","","","","","0","0","1","","0.3343760247","0.4","0.8","0.2","0.6","0.1758262092","0.1864274254","0.3343760247","0.2031423662","","","","","","","","","","","","","","75","K","2","","","155","main_expt",""
"","bandit","235","881470","0.0-197.0-0.0","08276320","wem/bandit_party_1","A2YBZFSUD5OP7W","either","7","462","","","","","","","0","0","1","","0.2022731065","0.4","0.8","0.2","0.6","0.2046597001","0.1750870897","0.3742013553","0.2022731065","","","","","","","","","","","","","","76","L","3","","","156","main_expt",""
"","bandit","236","883262","0.0-198.0-0.0","08276320","wem/bandit_party_1","A2YBZFSUD5OP7W","either","7","285","","","","","","","0","0","1","","0.3620366094","0.4","0.8","0.2","0.6","0.1774751899","0.1321985386","0.3620366094","0.1826661219","","","","","","","","","","","","","","75","K","2","","","157","main_expt",""
"","bandit","237","884886","0.0-199.0-0.0","08276320","wem/bandit_party_1","A2YBZFSUD5OP7W","either","7","117","","","","","","","0","0","1","0.1341899746","","0.4","0.8","0.2","0.6","","","","","0.1612033886","0.1341899746","0.3671714071","0.1658993888","","","","","","","","","","74","J","1","","","158","main_expt",""
"","bandit","238","886590","0.0-200.0-0.0","08276320","wem/bandit_party_1","A2YBZFSUD5OP7W","either","7","197","","","","","","","0","0","1","","0.1586838935","0.4","0.8","0.2","0.6","0.1586838935","0.1567784951","0.4015988616","0.1620079643","","","","","","","","","","","","","","72","H","0","img/none_selected.jpg","","159","main_expt",""
"","bandit","239","888111","0.0-201.0-0.0","08276320","wem/bandit_party_1","A2YBZFSUD5OP7W","either","7","14","","","","","","","0","0","1","0.2453635642","","0.4","0.8","0.2","0.6","","","","","0.2159944071","0.1615549635","0.4004877553","0.2453635642","","","","","","","","","","76","L","3","","","160","main_expt",""
"","bandit","240","889629","0.0-202.0-0.0","08276320","wem/bandit_party_1","A2YBZFSUD5OP7W","either","7","12","","","","","","","0","0","1","","0.4095849454","0.4","0.8","0.2","0.6","0.2105769377","0.1854631015","0.4095849454","0.2456373749","","","","","","","","","","","","","","75","K","2","","","161","main_expt",""
"","bandit","241","891157","0.0-203.0-0.0","08276320","wem/bandit_party_1","A2YBZFSUD5OP7W","either","7","22","","","","","","","0","0","1","0.3978002783","","0.4","0.8","0.2","0.6","","","","","0.2006925765","0.21229469","0.3978002783","0.2460125232","","","","","","","","","","75","K","2","","","162","main_expt",""
"","bandit","242","892797","0.0-204.0-0.0","08276320","wem/bandit_party_1","A2YBZFSUD5OP7W","either","7","133","","","","","","","0","1","0","","0.2365124807","0.4","0.8","0.2","0.6","0.2365124807","0.162194177","0.4180552148","0.2013568893","","","","","","","","","","","","","","72","H","0","img/none_selected.jpg","","163","main_expt",""
"","bandit","243","894493","0.0-205.0-0.0","08276320","wem/bandit_party_1","A2YBZFSUD5OP7W","either","7","190","","","","","","","0","1","0","","0.2157370886","0.4","0.8","0.2","0.6","0.2157370886","0.1535707797","0.4407560021","0.1933595846","","","","","","","","","","","","","","72","H","0","img/none_selected.jpg","","164","main_expt",""
"","bandit","244","896277","0.0-206.0-0.0","08276320","wem/bandit_party_1","A2YBZFSUD5OP7W","either","7","277","","","","","","","0","0","1","","0.2166787898","0.4","0.8","0.2","0.6","0.2166787898","0.2315934193","0.4582960521","0.167552211","","","","","","","","","","","","","","72","H","0","img/none_selected.jpg","","165","main_expt",""
"","bandit","245","897998","0.0-207.0-0.0","08276320","wem/bandit_party_1","A2YBZFSUD5OP7W","either","7","213","","","","","","","0","0","1","0.1846262972","","0.4","0.8","0.2","0.6","","","","","0.1846262972","0.2579087381","0.4337500892","0.1311237951","","","","","","","","","","72","H","0","img/none_selected.jpg","","166","main_expt",""
"","bandit","246","899766","0.0-208.0-0.0","08276320","wem/bandit_party_1","A2YBZFSUD5OP7W","either","7","260","","","","","","","1","0","0","0.2496457694","","0.4","0.8","0.2","0.6","","","","","0.1888750078","0.2496457694","0.4537582576","0.1714029316","","","","","","","","","","74","J","1","","","167","main_expt",""
"","bandit","247","901494","0.0-209.0-0.0","08276320","wem/bandit_party_1","A2YBZFSUD5OP7W","either","7","220","","","","","","","0","0","1","0.234558796","","0.4","0.8","0.2","0.6","","","","","0.2315683769","0.234558796","0.4473485534","0.1494402723","","","","","","","","","","74","J","1","","","168","main_expt",""
"","bandit","248","903269","0.0-210.0-0.0","08276320","wem/bandit_party_1","A2YBZFSUD5OP7W","either","7","268","","","","","","","1","0","0","0.2458600006","","0.4","0.8","0.2","0.6","","","","","0.2018123945","0.2458600006","0.4471591033","0.1819888556","","","","","","","","","","74","J","1","","","169","main_expt",""
"","bandit","249","904965","0.0-211.0-0.0","08276320","wem/bandit_party_1","A2YBZFSUD5OP7W","either","7","189","","","","","","","0","0","1","0.2214583157","","0.4","0.8","0.2","0.6","","","","","0.139238222","0.2214583157","0.4581839475","0.2329206984","","","","","","","","","","74","J","1","","","170","main_expt",""
"","bandit","250","906949","0.0-212.0-0.0","08276320","wem/bandit_party_1","A2YBZFSUD5OP7W","either","7","477","","","","","","","0","0","1","0.296208115","","0.4","0.8","0.2","0.6","","","","","0.1466511374","0.296208115","0.4674995421","0.2000607923","","","","","","","","","","74","J","1","","","171","main_expt",""
"","bandit","251","909229","0.0-213.0-0.0","08276320","wem/bandit_party_1","A2YBZFSUD5OP7W","either","7","772","","","","","","","1","0","0","0.3062379281","","0.4","0.8","0.2","0.6","","","","","0.1348290388","0.3062379281","0.4455620345","0.2342957318","","","","","","","","","","74","J","1","","","172","main_expt",""
"","bandit","252","911085","0.0-214.0-0.0","08276320","wem/bandit_party_1","A2YBZFSUD5OP7W","either","7","349","","","","","","","1","0","0","0.2498067723","","0.4","0.8","0.2","0.6","","","","","0.1521691919","0.2498067723","0.4471610379","0.2189308077","","","","","","","","","","74","J","1","","","173","main_expt",""
"","bandit","253","912952","0.0-215.0-0.0","08276320","wem/bandit_party_1","A2YBZFSUD5OP7W","either","7","356","","","","","","","0","0","1","0.1803522277","","0.4","0.8","0.2","0.6","","","","","0.2191935525","0.1803522277","0.4496576915","0.2373932689","","","","","","","","","","74","J","1","","","174","main_expt",""
"","bandit","254","914472","0.0-216.0-0.0","08276320","wem/bandit_party_1","A2YBZFSUD5OP7W","either","7","12","","","","","","","0","0","1","","0.2014319342","0.4","0.8","0.2","0.6","0.219961305","0.2014319342","0.4715297358","0.2160264752","","","","","","","","","","","","","","74","J","1","","","175","main_expt",""
"","bandit","255","916057","0.0-217.0-0.0","08276320","wem/bandit_party_1","A2YBZFSUD5OP7W","either","7","76","","","","","","","0","1","0","","0.1882485239","0.4","0.8","0.2","0.6","0.1882485239","0.2122003168","0.477956151","0.1990604306","","","","","","","","","","","","","","72","H","0","img/none_selected.jpg","","176","main_expt",""
"","bandit","256","917634","0.0-218.0-0.0","08276320","wem/bandit_party_1","A2YBZFSUD5OP7W","either","7","68","","","","","","","0","0","1","0.1644902553","","0.4","0.8","0.2","0.6","","","","","0.1644902553","0.2629069455","0.4563721206","0.1729978196","","","","","","","","","","72","H","0","img/none_selected.jpg","","177","main_expt",""
"","bandit","257","919168","0.0-219.0-0.0","08276320","wem/bandit_party_1","A2YBZFSUD5OP7W","either","7","28","","","","","","","0","1","0","","0.1713669852","0.4","0.8","0.2","0.6","0.1713669852","0.2336104206","0.4409869931","0.1633080779","","","","","","","","","","","","","","72","H","0","img/none_selected.jpg","","178","main_expt",""
"","bandit","258","920968","0.0-220.0-0.0","08276320","wem/bandit_party_1","A2YBZFSUD5OP7W","either","7","293","","","","","","","0","0","1","","0.2263400462","0.4","0.8","0.2","0.6","0.2263400462","0.1887504226","0.4243126063","0.1243251356","","","","","","","","","","","","","","72","H","0","img/none_selected.jpg","","179","main_expt",""
"","bandit","259","922793","0.0-221.0-0.0","08276320","wem/bandit_party_1","A2YBZFSUD5OP7W","either","7","318","","","","","","","0","0","1","","0.2036870175","0.4","0.8","0.2","0.6","0.2036870175","0.138376641","0.4312830743","0.1150149055","","","","","","","","","","","","","","72","H","0","img/none_selected.jpg","","180","main_expt",""
"","bandit","260","924300","0.0-222.0-0.0","08276320","wem/bandit_party_1","A2YBZFSUD5OP7W","either","7","0","","","","","","","0","0","1","0.1934599198","","0.4","0.8","0.2","0.6","","","","","0.1934599198","0.1883992559","0.4433127893","0.1407924877","","","","","","","","","","72","H","0","img/none_selected.jpg","","181","main_expt",""
"","bandit","261","926016","0.0-223.0-0.0","08276320","wem/bandit_party_1","A2YBZFSUD5OP7W","either","7","208","","","","","","","1","0","0","0.440136403","","0.4","0.8","0.2","0.6","","","","","0.2424515525","0.128889003","0.440136403","0.09672650852","","","","","","","","","","75","K","2","","","182","main_expt",""
"","bandit","262","927744","0.0-224.0-0.0","08276320","wem/bandit_party_1","A2YBZFSUD5OP7W","either","7","220","","","","","","","0","1","0","","0.4347693449","0.4","0.8","0.2","0.6","0.1961777535","0.1748769843","0.4347693449","0.09888002855","","","","","","","","","","","","","","75","K","2","","","183","main_expt",""
"","bandit","263","929252","0.0-225.0-0.0","08276320","wem/bandit_party_1","A2YBZFSUD5OP7W","either","7","1","","","","","","","0","0","1","","0.4277130926","0.4","0.8","0.2","0.6","0.1489283113","0.1945994373","0.4277130926","0.07200145298","","","","","","","","","","","","","","75","K","2","","","184","main_expt",""
"","bandit","264","930905","0.0-226.0-0.0","08276320","wem/bandit_party_1","A2YBZFSUD5OP7W","either","7","146","","","","","","","0","1","0","","0.3956248437","0.4","0.8","0.2","0.6","0.1499965078","0.1644748654","0.3956248437","0.09476413333","","","","","","","","","","","","","","75","K","2","","","185","main_expt",""
"","bandit","265","932472","0.0-227.0-0.0","08276320","wem/bandit_party_1","A2YBZFSUD5OP7W","either","7","59","","","","","","","0","1","0","","0.3748928266","0.4","0.8","0.2","0.6","0.2169832988","0.1504635592","0.3748928266","0.06556422103","","","","","","","","","","","","","","75","K","2","","","186","main_expt",""
"","bandit","266","934097","0.0-228.0-0.0","08276320","wem/bandit_party_1","A2YBZFSUD5OP7W","either","7","116","","","","","","","0","0","1","","0.3848139325","0.4","0.8","0.2","0.6","0.2655186329","0.1760039214","0.3848139325","0.08901149072","","","","","","","","","","","","","","75","K","2","","","187","main_expt",""
"","bandit","267","935768","0.0-229.0-0.0","08276320","wem/bandit_party_1","A2YBZFSUD5OP7W","either","7","164","","","","","","","0","0","1","","0.3990176401","0.4","0.8","0.2","0.6","0.2738785118","0.1203267588","0.3990176401","0.09471428588","","","","","","","","","","","","","","75","K","2","","","188","main_expt",""
"","bandit","268","937432","0.0-230.0-0.0","08276320","wem/bandit_party_1","A2YBZFSUD5OP7W","either","7","157","","","","","","","0","1","0","","0.3581396838","0.4","0.8","0.2","0.6","0.3041874674","0.1171540391","0.3581396838","0.05118235823","","","","","","","","","","","","","","75","K","2","","","189","main_expt",""
"","bandit","269","939104","0.0-231.0-0.0","08276320","wem/bandit_party_1","A2YBZFSUD5OP7W","either","7","164","","","","","","","0","0","1","","0.2882972244","0.4","0.8","0.2","0.6","0.3229453735","0.1535230761","0.2882972244","0.05788318751","","","","","","","","","","","","","","75","K","2","","","190","main_expt",""
"","bandit","270","940752","0.0-232.0-0.0","08276320","wem/bandit_party_1","A2YBZFSUD5OP7W","either","7","141","","","","","","","0","0","1","","0.3145326233","0.4","0.8","0.2","0.6","0.3818249757","0.1372750947","0.3145326233","0.08736915481","","","","","","","","","","","","","","75","K","2","","","191","main_expt",""
"","bandit","271","942329","0.0-233.0-0.0","08276320","wem/bandit_party_1","A2YBZFSUD5OP7W","either","7","70","","","","","","","0","1","0","","0.3270603702","0.4","0.8","0.2","0.6","0.4157726243","0.1047771501","0.3270603702","0.08251019118","","","","","","","","","","","","","","75","K","2","","","192","main_expt",""
"","bandit","272","943848","0.0-234.0-0.0","08276320","wem/bandit_party_1","A2YBZFSUD5OP7W","either","7","11","","","","","","","0","0","1","","0.3604030797","0.4","0.8","0.2","0.6","0.4611608212","0.1100845432","0.3604030797","0.06897628064","","","","","","","","","","","","","","75","K","2","","","193","main_expt",""
"","bandit","273","945496","0.0-235.0-0.0","08276320","wem/bandit_party_1","A2YBZFSUD5OP7W","either","7","141","","","","","","","0","1","0","","0.357423186","0.4","0.8","0.2","0.6","0.4508818777","0.1468163818","0.357423186","0.06801266305","","","","","","","","","","","","","","75","K","2","","","194","main_expt",""
"","bandit","274","947039","0.0-236.0-0.0","08276320","wem/bandit_party_1","A2YBZFSUD5OP7W","either","7","36","","","","","","","0","0","1","","0.3697779856","0.4","0.8","0.2","0.6","0.4278921451","0.1495594621","0.3697779856","0.09923709358","","","","","","","","","","","","","","75","K","2","","","195","main_expt",""
"","bandit","275","948848","0.0-237.0-0.0","08276320","wem/bandit_party_1","A2YBZFSUD5OP7W","either","7","301","","","","","","","0","0","1","","0.3617177512","0.4","0.8","0.2","0.6","0.4256293003","0.2263220537","0.3617177512","0.1103063831","","","","","","","","","","","","","","75","K","2","","","196","main_expt",""
"","bandit","276","950720","0.0-238.0-0.0","08276320","wem/bandit_party_1","A2YBZFSUD5OP7W","either","7","364","","","","","","","0","1","0","","0.3775990084","0.4","0.8","0.2","0.6","0.4476975038","0.2204718804","0.3775990084","0.07377144043","","","","","","","","","","","","","","75","K","2","","","197","main_expt",""
"","bandit","277","952264","0.0-239.0-0.0","08276320","wem/bandit_party_1","A2YBZFSUD5OP7W","either","7","36","","","","","","","0","0","1","","0.4144042571","0.4","0.8","0.2","0.6","0.4434357272","0.2401118457","0.4144042571","0.08863448313","","","","","","","","","","","","","","75","K","2","","","198","main_expt",""
"","bandit","278","953856","0.0-240.0-0.0","08276320","wem/bandit_party_1","A2YBZFSUD5OP7W","either","7","83","","","","","","","0","0","1","","0.4081775392","0.4","0.8","0.2","0.6","0.4245114622","0.2673724497","0.4081775392","0.1082179128","","","","","","","","","","","","","","75","K","2","","","199","main_expt",""
"","bandit","279","955616","0.0-241.0-0.0","08276320","wem/bandit_party_1","A2YBZFSUD5OP7W","either","7","253","","","","","","","0","1","0","","0.4166156547","0.4","0.8","0.2","0.6","0.4087100315","0.3125307902","0.4166156547","0.09350688576","","","","","","","","","","","","","","75","K","2","","","200","main_expt",""
"","bandit","280","957272","0.0-242.0-0.0","08276320","wem/bandit_party_1","A2YBZFSUD5OP7W","either","7","149","","","","","","","0","0","1","","0.4306537176","0.4","0.8","0.2","0.6","0.4361521275","0.2914574258","0.4306537176","0.1036625099","","","","","","","","","","","","","","75","K","2","","","201","main_expt",""
"","bandit","281","958968","0.0-243.0-0.0","08276320","wem/bandit_party_1","A2YBZFSUD5OP7W","either","7","189","","","","","","","0","0","1","0.449382563","","0.4","0.8","0.2","0.6","","","","","0.3332596158","0.2550600684","0.449382563","0.1216733889","","","","","","","","","","75","K","2","","","202","main_expt",""
"","bandit","282","960544","0.0-244.0-0.0","08276320","wem/bandit_party_1","A2YBZFSUD5OP7W","either","7","67","","","","","","","0","0","1","","0.4506576586","0.4","0.8","0.2","0.6","0.3581848779","0.2769745997","0.4506576586","0.120655788","","","","","","","","","","","","","","75","K","2","","","203","main_expt",""
"","bandit","283","962240","0.0-245.0-0.0","08276320","wem/bandit_party_1","A2YBZFSUD5OP7W","either","7","188","","","","","","","0","1","0","","0.454839243","0.4","0.8","0.2","0.6","0.3597133043","0.2752990059","0.454839243","0.1082970726","","","","","","","","","","","","","","75","K","2","","","204","main_expt",""
"","bandit","284","963793","0.0-246.0-0.0","08276320","wem/bandit_party_1","A2YBZFSUD5OP7W","either","7","45","","","","","","","0","1","0","","0.4512889682","0.4","0.8","0.2","0.6","0.3630183988","0.2901512169","0.4512889682","0.09143681274","","","","","","","","","","","","","","75","K","2","","","205","main_expt",""
"","bandit","285","965567","0.0-247.0-0.0","08276320","wem/bandit_party_1","A2YBZFSUD5OP7W","either","7","267","","","","","","","0","1","0","","0.4591490044","0.4","0.8","0.2","0.6","0.3737494834","0.2823763913","0.4591490044","0.08377413986","","","","","","","","","","","","","","75","K","2","","","206","main_expt",""
"","bandit","286","967111","0.0-248.0-0.0","08276320","wem/bandit_party_1","A2YBZFSUD5OP7W","either","7","37","","","","","","","0","1","0","","0.4650593633","0.4","0.8","0.2","0.6","0.3668784438","0.2708062506","0.4650593633","0.1585073664","","","","","","","","","","","","","","75","K","2","","","207","main_expt",""
"","bandit","287","968674","0.0-249.0-0.0","08276320","wem/bandit_party_1","A2YBZFSUD5OP7W","either","7","53","","","","","","","0","0","1","","0.4641513068","0.4","0.8","0.2","0.6","0.4045351895","0.2641553663","0.4641513068","0.162299901","","","","","","","","","","","","","","75","K","2","","","208","main_expt",""
"","bandit","288","970560","0.0-250.0-0.0","08276320","wem/bandit_party_1","A2YBZFSUD5OP7W","either","7","379","","","","","","","0","0","1","0.4567807332","","0.4","0.8","0.2","0.6","","","","","0.4402386934","0.2704675845","0.4567807332","0.1542266077","","","","","","","","","","75","K","2","","","209","main_expt",""
"","bandit","289","972080","0.0-251.0-0.0","08276320","wem/bandit_party_1","A2YBZFSUD5OP7W","either","7","12","","","","","","","0","0","1","","0.428253188","0.4","0.8","0.2","0.6","0.4483623408","0.3420868926","0.428253188","0.1890415559","","","","","","","","","","","","","","75","K","2","","","210","main_expt",""
"","bandit","290","973658","0.0-252.0-0.0","08276320","wem/bandit_party_1","A2YBZFSUD5OP7W","either","7","68","","","","","","","0","1","0","","0.410271385","0.4","0.8","0.2","0.6","0.4471415093","0.3069688952","0.410271385","0.1818133019","","","","","","","","","","","","","","75","K","2","","","211","main_expt",""
"","bandit","291","975226","0.0-253.0-0.0","08276320","wem/bandit_party_1","A2YBZFSUD5OP7W","either","7","61","","","","","","","0","0","1","","0.4065587724","0.4","0.8","0.2","0.6","0.4374655127","0.3005379093","0.4065587724","0.1782747956","","","","","","","","","","","","","","75","K","2","","","212","main_expt",""
"","bandit","292","976753","0.0-254.0-0.0","08276320","wem/bandit_party_1","A2YBZFSUD5OP7W","either","7","20","","","","","","","0","0","1","","0.4007116542","0.4","0.8","0.2","0.6","0.4381457257","0.213882915","0.4007116542","0.1935195711","","","","","","","","","","","","","","75","K","2","","","213","main_expt",""
"","bandit","293","978410","0.0-255.0-0.0","08276320","wem/bandit_party_1","A2YBZFSUD5OP7W","either","7","149","","","","","","","0","0","1","0.2421176173","","0.4","0.8","0.2","0.6","","","","","0.4643769008","0.2138557204","0.4246209323","0.2421176173","","","","","","","","","","76","L","3","","","214","main_expt",""
"","bandit","294","979955","0.0-256.0-0.0","08276320","wem/bandit_party_1","A2YBZFSUD5OP7W","either","7","36","","","","","","","0","0","1","0.2629876012","","0.4","0.8","0.2","0.6","","","","","0.4328812357","0.2142566612","0.3993057066","0.2629876012","","","","","","","","","","76","L","3","","","215","main_expt",""
"","bandit","295","981601","0.0-257.0-0.0","08276320","wem/bandit_party_1","A2YBZFSUD5OP7W","either","7","139","","","","","","","0","0","1","","0.1900351118","0.4","0.8","0.2","0.6","0.4064507999","0.1900351118","0.3987772474","0.2977714141","","","","","","","","","","","","","","74","J","1","","","216","main_expt",""
"","bandit","296","983201","0.0-258.0-0.0","08276320","wem/bandit_party_1","A2YBZFSUD5OP7W","either","7","93","","","","","","","0","1","0","","0.4197961641","0.4","0.8","0.2","0.6","0.4197961641","0.2185169477","0.4101433534","0.3017601552","","","","","","","","","","","","","","72","H","0","img/none_selected.jpg","","217","main_expt",""
"","bandit","297","984825","0.0-259.0-0.0","08276320","wem/bandit_party_1","A2YBZFSUD5OP7W","either","7","117","","","","","","","0","0","1","0.4167397569","","0.4","0.8","0.2","0.6","","","","","0.4167397569","0.2240895604","0.4448029092","0.2888566207","","","","","","","","","","72","H","0","img/none_selected.jpg","","218","main_expt",""
"","bandit","298","987306","0.0-260.0-0.0","08276320","wem/bandit_party_1","A2YBZFSUD5OP7W","either","7","974","","","","","","","1","0","0","0.4250944588","","0.4","0.8","0.2","0.6","","","","","0.4250944588","0.1990808675","0.4454766299","0.2844008008","","","","","","","","","","72","H","0","img/none_selected.jpg","","219","main_expt",""
"","bandit","299","989106","0.0-261.0-0.0","08276320","wem/bandit_party_1","A2YBZFSUD5OP7W","either","7","293","","","","","","","0","1","0","","0.4173336587","0.4","0.8","0.2","0.6","0.4173336587","0.266602996","0.4610997771","0.2225062479","","","","","","","","","","","","","","72","H","0","img/none_selected.jpg","","220","main_expt",""
"","bandit","300","990842","0.0-262.0-0.0","08276320","wem/bandit_party_1","A2YBZFSUD5OP7W","either","7","227","","","","","","","0","0","1","0.3944711005","","0.4","0.8","0.2","0.6","","","","","0.3944711005","0.2443661227","0.4642289789","0.2409900116","","","","","","","","","","72","H","0","img/none_selected.jpg","","221","main_expt",""
"","bandit","301","992898","0.0-263.0-0.0","08276320","wem/bandit_party_1","A2YBZFSUD5OP7W","either","7","548","","","","","","","0","0","1","","0.3619306912","0.4","0.8","0.2","0.6","0.3619306912","0.2205922116","0.4641270597","0.1989678636","","","","","","","","","","","","","","72","H","0","img/none_selected.jpg","","222","main_expt",""
"","bandit","302","994602","0.0-264.0-0.0","08276320","wem/bandit_party_1","A2YBZFSUD5OP7W","either","7","196","","","","","","","0","0","1","","0.4117842179","0.4","0.8","0.2","0.6","0.4117842179","0.1861223506","0.4697433819","0.1902867071","","","","","","","","","","","","","","72","H","0","img/none_selected.jpg","","223","main_expt",""
"","bandit","303","996345","0.0-265.0-0.0","08276320","wem/bandit_party_1","A2YBZFSUD5OP7W","either","7","236","","","","","","","1","0","0","0.3965092367","","0.4","0.8","0.2","0.6","","","","","0.3965092367","0.1668884863","0.460898083","0.2076415522","","","","","","","","","","72","H","0","img/none_selected.jpg","","224","main_expt",""
"","bandit","304","997873","0.0-266.0-0.0","08276320","wem/bandit_party_1","A2YBZFSUD5OP7W","either","7","21","","","","","","","0","0","1","0.4084477862","","0.4","0.8","0.2","0.6","","","","","0.4084477862","0.1481472712","0.4394890665","0.2393469174","","","","","","","","","","72","H","0","img/none_selected.jpg","","225","main_expt",""
"","bandit","305","999497","0.0-267.0-0.0","08276320","wem/bandit_party_1","A2YBZFSUD5OP7W","either","7","116","","","","","","","0","0","1","","0.4104601526","0.4","0.8","0.2","0.6","0.4104601526","0.1140846591","0.4520955237","0.2425440376","","","","","","","","","","","","","","72","H","0","img/none_selected.jpg","","226","main_expt",""
"","bandit","306","1001217","0.0-268.0-0.0","08276320","wem/bandit_party_1","A2YBZFSUD5OP7W","either","7","213","","","","","","","0","0","1","0.1074218354","","0.4","0.8","0.2","0.6","","","","","0.3899733519","0.1074218354","0.4324220164","0.2365603363","","","","","","","","","","74","J","1","","","227","main_expt",""
"","bandit","307","1002842","0.0-269.0-0.0","08276320","wem/bandit_party_1","A2YBZFSUD5OP7W","either","7","116","","","","","","","0","0","1","","0.4220482421","0.4","0.8","0.2","0.6","0.3796730737","0.08065165665","0.4220482421","0.2127958296","","","","","","","","","","","","","","75","K","2","","","228","main_expt",""
"","bandit","308","1004418","0.0-270.0-0.0","08276320","wem/bandit_party_1","A2YBZFSUD5OP7W","either","7","68","","","","","","","0","0","1","0.2207861463","","0.4","0.8","0.2","0.6","","","","","0.4046866514","0.07774059362","0.3885749154","0.2207861463","","","","","","","","","","76","L","3","","","229","main_expt",""
"","bandit","309","1006235","0.0-271.0-0.0","08276320","wem/bandit_party_1","A2YBZFSUD5OP7W","either","7","310","","","","","","","0","0","1","0.2589226453","","0.4","0.8","0.2","0.6","","","","","0.3988793555","0.1109483114","0.4023755806","0.2589226453","","","","","","","","","","76","L","3","","","230","main_expt",""
"","bandit","310","1008298","0.0-272.0-0.0","08276320","wem/bandit_party_1","A2YBZFSUD5OP7W","either","7","555","","","","","","","1","0","0","0.2956158432","","0.4","0.8","0.2","0.6","","","","","0.3981898202","0.05902300203","0.3768725222","0.2956158432","","","","","","","","","","76","L","3","","","231","main_expt",""
"","bandit","311","1010242","0.0-273.0-0.0","08276320","wem/bandit_party_1","A2YBZFSUD5OP7W","either","7","436","","","","","","","0","1","0","","0.3202484073","0.4","0.8","0.2","0.6","0.4411941832","0.06675855664","0.3619917427","0.3202484073","","","","","","","","","","","","","","76","L","3","","","232","main_expt",""
"","bandit","312","1011937","0.0-274.0-0.0","08276320","wem/bandit_party_1","A2YBZFSUD5OP7W","either","7","188","","","","","","","0","0","1","0.2933644042","","0.4","0.8","0.2","0.6","","","","","0.42967461","0.06703699679","0.3833578816","0.2933644042","","","","","","","","","","76","L","3","","","233","main_expt",""
"","bandit","313","1013633","0.0-275.0-0.0","08276320","wem/bandit_party_1","A2YBZFSUD5OP7W","either","7","189","","","","","","","1","0","0","0.3106154811","","0.4","0.8","0.2","0.6","","","","","0.4242798354","0.05331023031","0.3552131768","0.3106154811","","","","","","","","","","76","L","3","","","234","main_expt",""
"","bandit","314","1015329","0.0-276.0-0.0","08276320","wem/bandit_party_1","A2YBZFSUD5OP7W","either","7","188","","","","","","","0","0","1","","0.3158990995","0.4","0.8","0.2","0.6","0.4617388459","0.05187545802","0.3135084543","0.3158990995","","","","","","","","","","","","","","76","L","3","","","235","main_expt",""
"","bandit","315","1016881","0.0-277.0-0.0","08276320","wem/bandit_party_1","A2YBZFSUD5OP7W","either","7","43","","","","","","","0","0","1","","0.3036927748","0.4","0.8","0.2","0.6","0.4619510484","0.06939909985","0.244945467","0.3036927748","","","","","","","","","","","","","","76","L","3","","","236","main_expt",""
"","bandit","316","1018625","0.0-278.0-0.0","08276320","wem/bandit_party_1","A2YBZFSUD5OP7W","either","7","237","","","","","","","0","0","1","","0.3491021326","0.4","0.8","0.2","0.6","0.4482398789","0.1210409879","0.1823839079","0.3491021326","","","","","","","","","","","","","","76","L","3","","","237","main_expt",""
"","bandit","317","1020137","0.0-279.0-0.0","08276320","wem/bandit_party_1","A2YBZFSUD5OP7W","either","7","3","","","","","","","0","0","1","0.1147840357","","0.4","0.8","0.2","0.6","","","","","0.4193969143","0.1147840357","0.1685050226","0.3939254097","","","","","","","","","","74","J","1","","","238","main_expt",""
