"consent","trial_type","trial_index","time_elapsed","internal_node_id","subjID","study","MID","cond","drift","rt","responses","button_pressed","key_press","like","value","connected","gems","bombs","no_reward","GemPrChosen","BombPrChosen","GainOverPainPr_0","GainOverPainPr_1","GainOverPainPr_2","GainOverPainPr_3","LosePr_0","LosePr_1","LosePr_2","LosePr_3","WinPr_0","WinPr_1","WinPr_2","WinPr_3","Q0","Q1","Q2","gender","age","ethnicity","label","expt_phase","target","respCharCode","respKey","respChoiceNum","respChoice","practice","trial_counter","trial_label","Q0_index","view_history"
"GDM/GDM_behavioral_consent_30min_online.html","consent","0","13005","0.0-0.0","09623065","wem/bandit_party_1","AT3C00TKZK13L","either","3","","","","","","","","","","","","","","","","","","","","","","","","","","","","","","","","","","","","","","","","","",""
"","survey-text","1","18301","0.0-1.0","09623065","wem/bandit_party_1","AT3C00TKZK13L","either","3","4277","{""Q0"":""AT3C00TKZK13L""}","","","","","","","","","","","","","","","","","","","","","","","","","","","","","","","","","","","","","","","",""
"","button-response","2","20970","0.0-2.0","09623065","wem/bandit_party_1","AT3C00TKZK13L","either","3","1643","","1","","","","","","","","","","","","","","","","","","","","","","","","","","","","","","","","","","","","","","",""
"","text-replacement","3","347979","0.0-3.0","09623065","wem/bandit_party_1","AT3C00TKZK13L","either","3","325999","","","32","","","","","","","","","","","","","","","","","","","","","","","","","","","","","","","","","","","","","",""
"","text-replacement","4","352888","0.0-4.0","09623065","wem/bandit_party_1","AT3C00TKZK13L","either","3","4903","","","32","","","","","","","","","","","","","","","","","","","","","","","","","","","","","","","","","","","","","",""
"","identification","5","357206","0.0-6.0-0.0","09623065","wem/bandit_party_1","AT3C00TKZK13L","either","3","4226","","","","6","6","6","","","","","","","","","","","","","","","","","","","","","","","","pre","identification_pre","the Democratic Party","","","","","","","","",""
"","identification","6","361385","0.0-6.0-1.0","09623065","wem/bandit_party_1","AT3C00TKZK13L","either","3","3051","","","","0","0","0","","","","","","","","","","","","","","","","","","","","","","","","pre","identification_pre","the Republican party","","","","","","","","",""
"","text-replacement","7","371000","0.0-7.0","09623065","wem/bandit_party_1","AT3C00TKZK13L","either","3","8066","","","32","","","","","","","","","","","","","","","","","","","","","","","","","","","","","","","","","","","","","",""
"","text-replacement","8","372704","0.0-8.0","09623065","wem/bandit_party_1","AT3C00TKZK13L","either","3","1698","","","32","","","","","","","","","","","","","","","","","","","","","","","","","","","","","","","","","","","","","",""
"","text-replacement","9","373214","0.0-9.0","09623065","wem/bandit_party_1","AT3C00TKZK13L","either","3","504","","","32","","","","","","","","","","","","","","","","","","","","","","","","","","","","","","","","","","","","","",""
"","text-replacement","10","373569","0.0-10.0","09623065","wem/bandit_party_1","AT3C00TKZK13L","either","3","349","","","32","","","","","","","","","","","","","","","","","","","","","","","","","","","","","","","","","","","","","",""
"","text-replacement","11","373940","0.0-11.0","09623065","wem/bandit_party_1","AT3C00TKZK13L","either","3","368","","","32","","","","","","","","","","","","","","","","","","","","","","","","","","","","","","","","","","","","","",""
"","bandit","12","375635","0.0-12.0-0.0","09623065","wem/bandit_party_1","AT3C00TKZK13L","either","3","160","","","","","","","0","0","1","0","0","","","","","0","","","","0","","","","","","","","","","","","","74","J","0","img/none_selected_demo.jpg","true","0","","",""
"","bandit","13","377369","0.0-13.0-0.0","09623065","wem/bandit_party_1","AT3C00TKZK13L","either","3","219","","","","","","","0","0","1","0","0","","","","","0","","","","0","","","","","","","","","","","","","75","K","0","img/none_selected_demo.jpg","true","0","","",""
"","text-replacement","14","377482","0.0-14.0","09623065","wem/bandit_party_1","AT3C00TKZK13L","either","3","110","","","32","","","","","","","","","","","","","","","","","","","","","","","","","","","","","","","","","","","","","",""
"","text-replacement","15","378574","0.0-15.0","09623065","wem/bandit_party_1","AT3C00TKZK13L","either","3","1088","","","32","","","","","","","","","","","","","","","","","","","","","","","","","","","","","","","","","","","","","",""
"","text-replacement","16","378950","0.0-16.0","09623065","wem/bandit_party_1","AT3C00TKZK13L","either","3","361","","","32","","","","","","","","","","","","","","","","","","","","","","","","","","","","","","","","","","","","","",""
"","text-replacement","17","379330","0.0-17.0","09623065","wem/bandit_party_1","AT3C00TKZK13L","either","3","380","","","32","","","","","","","","","","","","","","","","","","","","","","","","","","","","","","","","","","","","","",""
"","bandit","18","380973","0.0-18.0-0.0","09623065","wem/bandit_party_1","AT3C00TKZK13L","either","3","131","","","","","","","0","0","1","0.2","","0.5","0.5","","","","","","","0.8","0.2","","","","","","","","","","","","75","K","1","","true","0","80_20_practice","",""
"","bandit","19","382506","0.0-18.0-1.0","09623065","wem/bandit_party_1","AT3C00TKZK13L","either","3","16","","","","","","","1","0","0","0.8","","0.5","0.5","","","","","","","0.8","0.2","","","","","","","","","","","","74","J","0","img/none_selected_demo.jpg","true","0","80_20_practice","",""
"","bandit","20","384256","0.0-18.0-2.0","09623065","wem/bandit_party_1","AT3C00TKZK13L","either","3","246","","","","","","","0","0","1","","0.2","0.5","0.5","","","0.8","0.2","","","","","","","","","","","","","","","","75","K","1","","true","0","80_20_practice","",""
"","bandit","21","385820","0.0-18.0-3.0","09623065","wem/bandit_party_1","AT3C00TKZK13L","either","3","38","","","","","","","0","0","1","","0.2","0.5","0.5","","","0.8","0.2","","","","","","","","","","","","","","","","75","K","1","","true","0","80_20_practice","",""
"","bandit","22","387639","0.0-18.0-4.0","09623065","wem/bandit_party_1","AT3C00TKZK13L","either","3","299","","","","","","","1","0","0","0.8","","0.5","0.5","","","","","","","0.8","0.2","","","","","","","","","","","","74","J","0","img/none_selected_demo.jpg","true","0","80_20_practice","",""
"","bandit","23","389307","0.0-18.0-5.0","09623065","wem/bandit_party_1","AT3C00TKZK13L","either","3","125","","","","","","","0","1","0","","0.8","0.5","0.5","","","0.8","0.2","","","","","","","","","","","","","","","","74","J","0","img/none_selected_demo.jpg","true","0","80_20_practice","",""
"","bandit","24","390889","0.0-18.0-6.0","09623065","wem/bandit_party_1","AT3C00TKZK13L","either","3","60","","","","","","","0","1","0","","0.8","0.5","0.5","","","0.8","0.2","","","","","","","","","","","","","","","","74","J","0","img/none_selected_demo.jpg","true","0","80_20_practice","",""
"","bandit","25","392572","0.0-18.0-7.0","09623065","wem/bandit_party_1","AT3C00TKZK13L","either","3","172","","","","","","","0","0","1","","0.2","0.5","0.5","","","0.8","0.2","","","","","","","","","","","","","","","","75","K","1","","true","0","80_20_practice","",""
"","bandit","26","403864","0.0-18.0-8.0","09623065","wem/bandit_party_1","AT3C00TKZK13L","either","3","9712","","","","","","","0","1","0","","0.8","0.5","0.5","","","0.8","0.2","","","","","","","","","","","","","","","","74","J","0","img/none_selected_demo.jpg","true","0","80_20_practice","",""
"","bandit","27","405722","0.0-18.0-9.0","09623065","wem/bandit_party_1","AT3C00TKZK13L","either","3","350","","","","","","","0","0","1","","0.2","0.5","0.5","","","0.8","0.2","","","","","","","","","","","","","","","","75","K","1","","true","0","80_20_practice","",""
"","bandit","28","407371","0.0-18.0-10.0","09623065","wem/bandit_party_1","AT3C00TKZK13L","either","3","134","","","","","","","0","0","1","","0.2","0.5","0.5","","","0.8","0.2","","","","","","","","","","","","","","","","75","K","1","","true","0","80_20_practice","",""
"","bandit","29","408934","0.0-18.0-11.0","09623065","wem/bandit_party_1","AT3C00TKZK13L","either","3","57","","","","","","","0","1","0","","0.8","0.5","0.5","","","0.8","0.2","","","","","","","","","","","","","","","","74","J","0","img/none_selected_demo.jpg","true","0","80_20_practice","",""
"","bandit","30","410667","0.0-18.0-12.0","09623065","wem/bandit_party_1","AT3C00TKZK13L","either","3","192","","","","","","","0","0","1","","0.8","0.5","0.5","","","0.8","0.2","","","","","","","","","","","","","","","","74","J","0","img/none_selected_demo.jpg","true","0","80_20_practice","",""
"","bandit","31","412274","0.0-18.0-13.0","09623065","wem/bandit_party_1","AT3C00TKZK13L","either","3","72","","","","","","","1","0","0","0.8","","0.5","0.5","","","","","","","0.8","0.2","","","","","","","","","","","","74","J","0","img/none_selected_demo.jpg","true","0","80_20_practice","",""
"","bandit","32","413807","0.0-18.0-14.0","09623065","wem/bandit_party_1","AT3C00TKZK13L","either","3","5","","","","","","","0","0","1","0.2","","0.5","0.5","","","","","","","0.8","0.2","","","","","","","","","","","","75","K","1","","true","0","80_20_practice","",""
"","bandit","33","415451","0.0-18.0-15.0","09623065","wem/bandit_party_1","AT3C00TKZK13L","either","3","136","","","","","","","0","0","1","0.8","","0.5","0.5","","","","","","","0.8","0.2","","","","","","","","","","","","74","J","0","img/none_selected_demo.jpg","true","0","80_20_practice","",""
"","bandit","34","417099","0.0-18.0-16.0","09623065","wem/bandit_party_1","AT3C00TKZK13L","either","3","126","","","","","","","0","0","1","","0.2","0.5","0.5","","","0.8","0.2","","","","","","","","","","","","","","","","75","K","1","","true","0","80_20_practice","",""
"","bandit","35","418701","0.0-18.0-17.0","09623065","wem/bandit_party_1","AT3C00TKZK13L","either","3","90","","","","","","","0","0","1","0.2","","0.5","0.5","","","","","","","0.8","0.2","","","","","","","","","","","","75","K","1","","true","0","80_20_practice","",""
"","bandit","36","420367","0.0-18.0-18.0","09623065","wem/bandit_party_1","AT3C00TKZK13L","either","3","142","","","","","","","0","1","0","","0.8","0.5","0.5","","","0.8","0.2","","","","","","","","","","","","","","","","74","J","0","img/none_selected_demo.jpg","true","0","80_20_practice","",""
"","bandit","37","421986","0.0-18.0-19.0","09623065","wem/bandit_party_1","AT3C00TKZK13L","either","3","112","","","","","","","0","1","0","","0.8","0.5","0.5","","","0.8","0.2","","","","","","","","","","","","","","","","74","J","0","img/none_selected_demo.jpg","true","0","80_20_practice","",""
"","text-replacement","38","427706","0.0-19.0","09623065","wem/bandit_party_1","AT3C00TKZK13L","either","3","5720","","","32","","","","","","","","","","","","","","","","","","","","","","","","","","","","","","","","","","","","","",""
"","bandit","39","430021","0.0-20.0-0.0","09623065","wem/bandit_party_1","AT3C00TKZK13L","either","3","794","","","","","","","1","0","0","1","0","","","","","0","1","","","1","0","","","","","","","","","","","","74","J","0","img/none_selected_demo.jpg","true","0","","",""
"","text-replacement","40","432862","0.0-21.0","09623065","wem/bandit_party_1","AT3C00TKZK13L","either","3","2825","","","72","","","","","","","","","","","","","","","","","","","","","","","","","","","","","","","","","","","","","",""
"","text-replacement","41","436199","0.0-22.0","09623065","wem/bandit_party_1","AT3C00TKZK13L","either","3","3337","","","32","","","","","","","","","","","","","","","","","","","","","","","","","","","","","","","","","","","","","",""
"","text-replacement","42","438156","0.0-23.0","09623065","wem/bandit_party_1","AT3C00TKZK13L","either","3","1941","","","32","","","","","","","","","","","","","","","","","","","","","","","","","","","","","","","","","","","","","",""
"","text-replacement","43","440466","0.0-24.0","09623065","wem/bandit_party_1","AT3C00TKZK13L","either","3","2310","","","32","","","","","","","","","","","","","","","","","","","","","","","","","","","","","","","","","","","","","",""
"","text-replacement","44","441611","0.0-25.0","09623065","wem/bandit_party_1","AT3C00TKZK13L","either","3","1145","","","32","","","","","","","","","","","","","","","","","","","","","","","","","","","","","","","","","","","","","",""
"","text-replacement","45","443259","0.0-26.0","09623065","wem/bandit_party_1","AT3C00TKZK13L","either","3","1633","","","32","","","","","","","","","","","","","","","","","","","","","","","","","","","","","","","","","","","","","",""
"","text-replacement","46","444455","0.0-27.0","09623065","wem/bandit_party_1","AT3C00TKZK13L","either","3","1180","","","32","","","","","","","","","","","","","","","","","","","","","","","","","","","","","","","","","","","","","",""
"","text-replacement","47","445827","0.0-28.0","09623065","wem/bandit_party_1","AT3C00TKZK13L","either","3","1356","","","32","","","","","","","","","","","","","","","","","","","","","","","","","","","","","","","","","","","","","",""
"","text-replacement","48","446991","0.0-29.0","09623065","wem/bandit_party_1","AT3C00TKZK13L","either","3","1164","","","32","","","","","","","","","","","","","","","","","","","","","","","","","","","","","","","","","","","","","",""
"","text-replacement","49","448033","0.0-30.0","09623065","wem/bandit_party_1","AT3C00TKZK13L","either","3","1026","","","32","","","","","","","","","","","","","","","","","","","","","","","","","","","","","","","","","","","","","",""
"","text-replacement","50","451677","0.0-31.0","09623065","wem/bandit_party_1","AT3C00TKZK13L","either","3","3644","","","32","","","","","","","","","","","","","","","","","","","","","","","","","","","","","","","","","","","","","",""
"","bandit","51","453848","0.0-32.0-0.0","09623065","wem/bandit_party_1","AT3C00TKZK13L","either","3","600","","","","","","","0","1","0","","0.8","0.5","0.5","0.5","0.5","0.8","0.2","0.6","0.2","","","","","","","","","","","","","","72","H","0","img/none_selected.jpg","true","0","full_practice","",""
"","bandit","52","455986","0.0-32.0-1.0","09623065","wem/bandit_party_1","AT3C00TKZK13L","either","3","594","","","","","","","0","1","0","","0.6","0.5","0.5","0.5","0.5","0.8","0.2","0.6","0.2","","","","","","","","","","","","","","75","K","2","","true","0","full_practice","",""
"","bandit","53","457665","0.0-32.0-2.0","09623065","wem/bandit_party_1","AT3C00TKZK13L","either","3","155","","","","","","","0","0","1","","0.2","0.5","0.5","0.5","0.5","0.8","0.2","0.6","0.2","","","","","","","","","","","","","","76","L","3","","true","0","full_practice","",""
"","bandit","54","459415","0.0-32.0-3.0","09623065","wem/bandit_party_1","AT3C00TKZK13L","either","3","222","","","","","","","0","0","1","0.2","","0.5","0.5","0.5","0.5","","","","","0.8","0.2","0.6","0.2","","","","","","","","","","74","J","1","","true","0","full_practice","",""
"","bandit","55","461241","0.0-32.0-4.0","09623065","wem/bandit_party_1","AT3C00TKZK13L","either","3","302","","","","","","","0","0","1","","0.2","0.5","0.5","0.5","0.5","0.8","0.2","0.6","0.2","","","","","","","","","","","","","","76","L","3","","true","0","full_practice","",""
"","bandit","56","463072","0.0-32.0-5.0","09623065","wem/bandit_party_1","AT3C00TKZK13L","either","3","327","","","","","","","1","0","0","0.8","","0.5","0.5","0.5","0.5","","","","","0.8","0.2","0.6","0.2","","","","","","","","","","72","H","0","img/none_selected.jpg","true","0","full_practice","",""
"","bandit","57","464739","0.0-32.0-6.0","09623065","wem/bandit_party_1","AT3C00TKZK13L","either","3","137","","","","","","","0","1","0","","0.6","0.5","0.5","0.5","0.5","0.8","0.2","0.6","0.2","","","","","","","","","","","","","","75","K","2","","true","0","full_practice","",""
"","bandit","58","466289","0.0-32.0-7.0","09623065","wem/bandit_party_1","AT3C00TKZK13L","either","3","0","","","","","","","0","0","1","","0.2","0.5","0.5","0.5","0.5","0.8","0.2","0.6","0.2","","","","","","","","","","","","","","74","J","1","","true","0","full_practice","",""
"","bandit","59","467888","0.0-32.0-8.0","09623065","wem/bandit_party_1","AT3C00TKZK13L","either","3","51","","","","","","","0","0","1","0.2","","0.5","0.5","0.5","0.5","","","","","0.8","0.2","0.6","0.2","","","","","","","","","","74","J","1","","true","0","full_practice","",""
"","bandit","60","469487","0.0-32.0-9.0","09623065","wem/bandit_party_1","AT3C00TKZK13L","either","3","80","","","","","","","0","0","1","","0.2","0.5","0.5","0.5","0.5","0.8","0.2","0.6","0.2","","","","","","","","","","","","","","74","J","1","","true","0","full_practice","",""
"","bandit","61","471157","0.0-32.0-10.0","09623065","wem/bandit_party_1","AT3C00TKZK13L","either","3","128","","","","","","","0","0","1","0.8","","0.5","0.5","0.5","0.5","","","","","0.8","0.2","0.6","0.2","","","","","","","","","","72","H","0","img/none_selected.jpg","true","0","full_practice","",""
"","bandit","62","472686","0.0-32.0-11.0","09623065","wem/bandit_party_1","AT3C00TKZK13L","either","3","0","","","","","","","0","0","1","0.2","","0.5","0.5","0.5","0.5","","","","","0.8","0.2","0.6","0.2","","","","","","","","","","76","L","3","","true","0","full_practice","",""
"","bandit","63","474406","0.0-32.0-12.0","09623065","wem/bandit_party_1","AT3C00TKZK13L","either","3","205","","","","","","","1","0","0","0.8","","0.5","0.5","0.5","0.5","","","","","0.8","0.2","0.6","0.2","","","","","","","","","","72","H","0","img/none_selected.jpg","true","0","full_practice","",""
"","bandit","64","476203","0.0-32.0-13.0","09623065","wem/bandit_party_1","AT3C00TKZK13L","either","3","281","","","","","","","0","1","0","","0.8","0.5","0.5","0.5","0.5","0.8","0.2","0.6","0.2","","","","","","","","","","","","","","72","H","0","img/none_selected.jpg","true","0","full_practice","",""
"","bandit","65","477921","0.0-32.0-14.0","09623065","wem/bandit_party_1","AT3C00TKZK13L","either","3","206","","","","","","","0","1","0","","0.8","0.5","0.5","0.5","0.5","0.8","0.2","0.6","0.2","","","","","","","","","","","","","","72","H","0","img/none_selected.jpg","true","0","full_practice","",""
"","bandit","66","479473","0.0-32.0-15.0","09623065","wem/bandit_party_1","AT3C00TKZK13L","either","3","44","","","","","","","0","1","0","","0.2","0.5","0.5","0.5","0.5","0.8","0.2","0.6","0.2","","","","","","","","","","","","","","76","L","3","","true","0","full_practice","",""
"","bandit","67","481423","0.0-32.0-16.0","09623065","wem/bandit_party_1","AT3C00TKZK13L","either","3","422","","","","","","","0","0","1","","0.2","0.5","0.5","0.5","0.5","0.8","0.2","0.6","0.2","","","","","","","","","","","","","","74","J","1","","true","0","full_practice","",""
"","bandit","68","483036","0.0-32.0-17.0","09623065","wem/bandit_party_1","AT3C00TKZK13L","either","3","50","","","","","","","0","1","0","","0.6","0.5","0.5","0.5","0.5","0.8","0.2","0.6","0.2","","","","","","","","","","","","","","75","K","2","","true","0","full_practice","",""
"","bandit","69","484607","0.0-32.0-18.0","09623065","wem/bandit_party_1","AT3C00TKZK13L","either","3","48","","","","","","","1","0","0","0.6","","0.5","0.5","0.5","0.5","","","","","0.8","0.2","0.6","0.2","","","","","","","","","","75","K","2","","true","0","full_practice","",""
"","bandit","70","488540","0.0-32.0-19.0","09623065","wem/bandit_party_1","AT3C00TKZK13L","either","3","2391","","","","","","","0","0","1","0.2","","0.5","0.5","0.5","0.5","","","","","0.8","0.2","0.6","0.2","","","","","","","","","","74","J","1","","true","0","full_practice","",""
"","text","71","491028","0.0-33.0","09623065","wem/bandit_party_1","AT3C00TKZK13L","either","3","2472","","","32","","","","","","","","","","","","","","","","","","","","","","","","","","","","","","","","","","","","","",""
"","text-replacement","72","522686","0.0-34.0","09623065","wem/bandit_party_1","AT3C00TKZK13L","either","3","30648","","","32","","","","","","","","","","","","","","","","","","","","","","","","","","","","","","","","","","","","","",""
"","text-replacement","73","531677","0.0-35.0","09623065","wem/bandit_party_1","AT3C00TKZK13L","either","3","8981","","","32","","","","","","","","","","","","","","","","","","","","","","","","","","","","","","","","","","","","","",""
"","text-replacement","74","532140","0.0-36.0","09623065","wem/bandit_party_1","AT3C00TKZK13L","either","3","447","","","32","","","","","","","","","","","","","","","","","","","","","","","","","","","","","","","","","","","","","",""
"","text-replacement","75","532547","0.0-37.0","09623065","wem/bandit_party_1","AT3C00TKZK13L","either","3","391","","","32","","","","","","","","","","","","","","","","","","","","","","","","","","","","","","","","","","","","","",""
"","text-replacement","76","532980","0.0-38.0","09623065","wem/bandit_party_1","AT3C00TKZK13L","either","3","433","","","32","","","","","","","","","","","","","","","","","","","","","","","","","","","","","","","","","","","","","",""
"","survey-multi-choice-replacement","77","541875","0.0-39.0-0.0","09623065","wem/bandit_party_1","AT3C00TKZK13L","either","3","8834","","","","","","","","","","","","","","","","","","","","","","","","Money will be added to the pool for <span style='color:blue;'>DEMOCRATS</span>","","","","","","","attn_check","","","","","","","","","0",""
"","survey-multi-choice-replacement","78","558899","0.0-40.0-0.0","09623065","wem/bandit_party_1","AT3C00TKZK13L","either","3","15929","","","","","","","","","","","","","","","","","","","","","","","","Money will be subtracted from the pool for <span style='color:red;'>REPUBLICANS</span>","","","","","","","attn_check","","","","","","","","","1",""
"","instructions","79","561114","0.0-40.0-1.0-0.0","09623065","wem/bandit_party_1","AT3C00TKZK13L","either","3","1178","","","","","","","","","","","","","","","","","","","","","","","","","","","","","","","","","","","","","","","","","[{""page_index"":0,""viewing_time"":1178}]"
"","survey-multi-choice-replacement","80","568283","0.0-40.1-0.1","09623065","wem/bandit_party_1","AT3C00TKZK13L","either","3","6118","","","","","","","","","","","","","","","","","","","","","","","","No money will be added to either pool","","","","","","","attn_check","","","","","","","","","3",""
"","instructions","81","570257","0.0-40.1-1.1-0.1","09623065","wem/bandit_party_1","AT3C00TKZK13L","either","3","950","","","","","","","","","","","","","","","","","","","","","","","","","","","","","","","","","","","","","","","","","[{""page_index"":0,""viewing_time"":949}]"
"","survey-multi-choice-replacement","82","577515","0.0-40.2-0.2","09623065","wem/bandit_party_1","AT3C00TKZK13L","either","3","6201","","","","","","","","","","","","","","","","","","","","","","","","Equal amounts of money will be added to the pool for <span style='color:blue;'>DEMOCRATS</span> and subtracted from the pool for <span style='color:red;'>REPUBLICANS</span>","","","","","","","attn_check","","","","","","","","","2",""
"","survey-multi-choice-replacement","83","584838","0.0-41.0-0.0","09623065","wem/bandit_party_1","AT3C00TKZK13L","either","3","6279","","","","","","","","","","","","","","","","","","","","","","","","No money will be added to either pool","","","","","","","attn_check","","","","","","","","","3",""
"","bandit","84","588408","0.0-42.0-0.0","09623065","wem/bandit_party_1","AT3C00TKZK13L","either","3","1035","","","","","","","0","0","1","0.1646489015","","0.4","0.6","0.2","0.8","","","","","0.1426046982","0.1646489015","0.07685641067","0.4870892339","","","","","","","","","","74","J","1","","","1","main_expt","",""
"","bandit","85","589971","0.0-43.0-0.0","09623065","wem/bandit_party_1","AT3C00TKZK13L","either","3","7","","","","","","","0","0","1","","0.08388143876","0.4","0.6","0.2","0.8","0.1597004976","0.2180431119","0.08388143876","0.4875162112","","","","","","","","","","","","","","75","K","2","","","2","main_expt","",""
"","bandit","86","591636","0.0-44.0-0.0","09623065","wem/bandit_party_1","AT3C00TKZK13L","either","3","108","","","","","","","0","0","1","0.2294217256","","0.4","0.6","0.2","0.8","","","","","0.1381850853","0.2294217256","0.06528774038","0.4909945117","","","","","","","","","","74","J","1","","","3","main_expt","",""
"","bandit","87","593161","0.0-45.0-0.0","09623065","wem/bandit_party_1","AT3C00TKZK13L","either","3","16","","","","","","","0","0","1","","0.2162119515","0.4","0.6","0.2","0.8","0.1787932262","0.2162119515","0.07987899881","0.482579304","","","","","","","","","","","","","","74","J","1","","","4","main_expt","",""
"","bandit","88","594892","0.0-46.0-0.0","09623065","wem/bandit_party_1","AT3C00TKZK13L","either","3","156","","","","","","","0","0","1","0.4887913002","","0.4","0.6","0.2","0.8","","","","","0.1795032464","0.2246316054","0.0432391811","0.4887913002","","","","","","","","","","76","L","3","","","5","main_expt","",""
"","bandit","89","596530","0.0-47.0-0.0","09623065","wem/bandit_party_1","AT3C00TKZK13L","either","3","89","","","","","","","0","0","1","","0.2061018479","0.4","0.6","0.2","0.8","0.164375756","0.2061018479","0.03467601655","0.4887860333","","","","","","","","","","","","","","74","J","1","","","6","main_expt","",""
"","bandit","90","598229","0.0-48.0-0.0","09623065","wem/bandit_party_1","AT3C00TKZK13L","either","3","137","","","","","","","0","0","1","0.1795347326","","0.4","0.6","0.2","0.8","","","","","0.204957223","0.1795347326","0.05033951668","0.4901971563","","","","","","","","","","74","J","1","","","7","main_expt","",""
"","bandit","91","599947","0.0-49.0-0.0","09623065","wem/bandit_party_1","AT3C00TKZK13L","either","3","132","","","","","","","0","0","1","","0.07676355645","0.4","0.6","0.2","0.8","0.2162036531","0.1290452752","0.07676355645","0.4862230721","","","","","","","","","","","","","","75","K","2","","","8","main_expt","",""
"","bandit","92","601665","0.0-50.0-0.0","09623065","wem/bandit_party_1","AT3C00TKZK13L","either","3","170","","","","","","","0","0","1","","0.4759730645","0.4","0.6","0.2","0.8","0.2167418122","0.1559184374","0.08620859221","0.4759730645","","","","","","","","","","","","","","76","L","3","","","9","main_expt","",""
"","bandit","93","603260","0.0-51.0-0.0","09623065","wem/bandit_party_1","AT3C00TKZK13L","either","3","43","","","","","","","0","0","1","0.1381514788","","0.4","0.6","0.2","0.8","","","","","0.1607923637","0.1381514788","0.1103839657","0.4560980466","","","","","","","","","","74","J","1","","","10","main_expt","",""
"","bandit","94","604888","0.0-52.0-0.0","09623065","wem/bandit_party_1","AT3C00TKZK13L","either","3","93","","","","","","","0","0","1","0.1386410957","","0.4","0.6","0.2","0.8","","","","","0.1386410957","0.1271140015","0.1334948588","0.4775116046","","","","","","","","","","72","H","0","img/none_selected.jpg","","11","main_expt","",""
"","bandit","95","606478","0.0-53.0-0.0","09623065","wem/bandit_party_1","AT3C00TKZK13L","either","3","47","","","","","","","1","0","0","0.4705073552","","0.4","0.6","0.2","0.8","","","","","0.1718380738","0.1854664659","0.1535602519","0.4705073552","","","","","","","","","","76","L","3","","","12","main_expt","",""
"","bandit","96","608086","0.0-54.0-0.0","09623065","wem/bandit_party_1","AT3C00TKZK13L","either","3","60","","","","","","","0","0","1","","0.127854239","0.4","0.6","0.2","0.8","0.1686303413","0.1869952656","0.127854239","0.4851887342","","","","","","","","","","","","","","75","K","2","","","13","main_expt","",""
"","bandit","97","609945","0.0-55.0-0.0","09623065","wem/bandit_party_1","AT3C00TKZK13L","either","3","266","","","","","","","0","0","1","0.4731273917","","0.4","0.6","0.2","0.8","","","","","0.1460019496","0.2035171393","0.1507911491","0.4731273917","","","","","","","","","","76","L","3","","","14","main_expt","",""
"","bandit","98","611677","0.0-56.0-0.0","09623065","wem/bandit_party_1","AT3C00TKZK13L","either","3","190","","","","","","","0","0","1","","0.4585867004","0.4","0.6","0.2","0.8","0.1667614464","0.2800299461","0.1741212098","0.4585867004","","","","","","","","","","","","","","76","L","3","","","15","main_expt","",""
"","bandit","99","613347","0.0-57.0-0.0","09623065","wem/bandit_party_1","AT3C00TKZK13L","either","3","144","","","","","","","0","0","1","","0.2725454461","0.4","0.6","0.2","0.8","0.1973644546","0.2725454461","0.1918308831","0.4366533258","","","","","","","","","","","","","","74","J","1","","","16","main_expt","",""
"","bandit","100","615152","0.0-58.0-0.0","09623065","wem/bandit_party_1","AT3C00TKZK13L","either","3","256","","","","","","","1","0","0","0.4405228744","","0.4","0.6","0.2","0.8","","","","","0.1873415792","0.1570621471","0.1950212473","0.4405228744","","","","","","","","","","76","L","3","","","17","main_expt","",""
"","bandit","101","616885","0.0-59.0-0.0","09623065","wem/bandit_party_1","AT3C00TKZK13L","either","3","200","","","","","","","1","0","0","0.4678551263","","0.4","0.6","0.2","0.8","","","","","0.1875860444","0.1968188506","0.2094813194","0.4678551263","","","","","","","","","","76","L","3","","","18","main_expt","",""
"","bandit","102","618694","0.0-60.0-0.0","09623065","wem/bandit_party_1","AT3C00TKZK13L","either","3","250","","","","","","","1","0","0","0.466140525","","0.4","0.6","0.2","0.8","","","","","0.1988439388","0.2439518204","0.2628959394","0.466140525","","","","","","","","","","76","L","3","","","19","main_expt","",""
"","bandit","103","620461","0.0-61.0-0.0","09623065","wem/bandit_party_1","AT3C00TKZK13L","either","3","238","","","","","","","1","0","0","0.4094087999","","0.4","0.6","0.2","0.8","","","","","0.1813993393","0.2806117898","0.2116504525","0.4094087999","","","","","","","","","","76","L","3","","","20","main_expt","",""
"","bandit","104","622111","0.0-62.0-0.0","09623065","wem/bandit_party_1","AT3C00TKZK13L","either","3","111","","","","","","","0","0","1","0.2658005831","","0.4","0.6","0.2","0.8","","","","","0.2012004452","0.2658005831","0.1904426465","0.4386974508","","","","","","","","","","74","J","1","","","21","main_expt","",""
"","bandit","105","623827","0.0-63.0-0.0","09623065","wem/bandit_party_1","AT3C00TKZK13L","either","3","174","","","","","","","0","0","1","0.4505723784","","0.4","0.6","0.2","0.8","","","","","0.1958646163","0.2774390086","0.1581796968","0.4505723784","","","","","","","","","","76","L","3","","","22","main_expt","",""
"","bandit","106","625513","0.0-64.0-0.0","09623065","wem/bandit_party_1","AT3C00TKZK13L","either","3","158","","","","","","","0","0","1","","0.2039009352","0.4","0.6","0.2","0.8","0.2626819079","0.2795917474","0.2039009352","0.4568000239","","","","","","","","","","","","","","75","K","2","","","23","main_expt","",""
"","bandit","107","627327","0.0-65.0-0.0","09623065","wem/bandit_party_1","AT3C00TKZK13L","either","3","277","","","","","","","0","0","1","","0.2906682881","0.4","0.6","0.2","0.8","0.2906682881","0.2981059477","0.228339491","0.4518339256","","","","","","","","","","","","","","72","H","0","img/none_selected.jpg","","24","main_expt","",""
"","bandit","108","629146","0.0-66.0-0.0","09623065","wem/bandit_party_1","AT3C00TKZK13L","either","3","275","","","","","","","0","0","1","0.4120159309","","0.4","0.6","0.2","0.8","","","","","0.3270173502","0.3272059922","0.2602465224","0.4120159309","","","","","","","","","","76","L","3","","","25","main_expt","",""
"","bandit","109","630926","0.0-67.0-0.0","09623065","wem/bandit_party_1","AT3C00TKZK13L","either","3","215","","","","","","","0","0","1","","0.3369826645","0.4","0.6","0.2","0.8","0.2951289915","0.3369826645","0.1939420306","0.4134154185","","","","","","","","","","","","","","74","J","1","","","26","main_expt","",""
"","bandit","110","632576","0.0-68.0-0.0","09623065","wem/bandit_party_1","AT3C00TKZK13L","either","3","128","","","","","","","0","1","0","","0.2387331149","0.4","0.6","0.2","0.8","0.3520126272","0.2531212506","0.2387331149","0.4031068294","","","","","","","","","","","","","","75","K","2","","","27","main_expt","",""
"","bandit","111","634281","0.0-69.0-0.0","09623065","wem/bandit_party_1","AT3C00TKZK13L","either","3","175","","","","","","","1","0","0","0.4305883772","","0.4","0.6","0.2","0.8","","","","","0.3369287003","0.2170461037","0.2183458617","0.4305883772","","","","","","","","","","76","L","3","","","28","main_expt","",""
"","bandit","112","636044","0.0-70.0-0.0","09623065","wem/bandit_party_1","AT3C00TKZK13L","either","3","212","","","","","","","1","0","0","0.4383329838","","0.4","0.6","0.2","0.8","","","","","0.3591799128","0.2346211465","0.2151501268","0.4383329838","","","","","","","","","","76","L","3","","","29","main_expt","",""
"","bandit","113","637681","0.0-71.0-0.0","09623065","wem/bandit_party_1","AT3C00TKZK13L","either","3","110","","","","","","","0","0","1","","0.4233276099","0.4","0.6","0.2","0.8","0.3324285477","0.2450860663","0.2267233056","0.4233276099","","","","","","","","","","","","","","76","L","3","","","30","main_expt","",""
"","bandit","114","639360","0.0-72.0-0.0","09623065","wem/bandit_party_1","AT3C00TKZK13L","either","3","134","","","","","","","0","0","1","0.327032362","","0.4","0.6","0.2","0.8","","","","","0.327032362","0.2141169407","0.2663701676","0.4016185005","","","","","","","","","","72","H","0","img/none_selected.jpg","","31","main_expt","",""
"","bandit","115","641046","0.0-73.0-0.0","09623065","wem/bandit_party_1","AT3C00TKZK13L","either","3","136","","","","","","","1","0","0","0.4134940178","","0.4","0.6","0.2","0.8","","","","","0.3230905041","0.2347854155","0.275969473","0.4134940178","","","","","","","","","","76","L","3","","","32","main_expt","",""
"","bandit","116","642766","0.0-74.0-0.0","09623065","wem/bandit_party_1","AT3C00TKZK13L","either","3","117","","","","","","","0","0","1","0.4331174495","","0.4","0.6","0.2","0.8","","","","","0.2969008969","0.246596708","0.3365270118","0.4331174495","","","","","","","","","","76","L","3","","","33","main_expt","",""
"","bandit","117","644394","0.0-75.0-0.0","09623065","wem/bandit_party_1","AT3C00TKZK13L","either","3","71","","","","","","","1","0","0","0.1914370393","","0.4","0.6","0.2","0.8","","","","","0.2536392951","0.1914370393","0.2916301021","0.4454497031","","","","","","","","","","74","J","1","","","34","main_expt","",""
"","bandit","118","645927","0.0-76.0-0.0","09623065","wem/bandit_party_1","AT3C00TKZK13L","either","3","0","","","","","","","0","0","1","0.1408207185","","0.4","0.6","0.2","0.8","","","","","0.2336030597","0.1408207185","0.3236538836","0.4419706984","","","","","","","","","","74","J","1","","","35","main_expt","",""
"","bandit","119","647573","0.0-77.0-0.0","09623065","wem/bandit_party_1","AT3C00TKZK13L","either","3","111","","","","","","","1","0","0","0.4205940312","","0.4","0.6","0.2","0.8","","","","","0.3110392291","0.09539735145","0.3317439785","0.4205940312","","","","","","","","","","76","L","3","","","36","main_expt","",""
"","bandit","120","649309","0.0-78.0-0.0","09623065","wem/bandit_party_1","AT3C00TKZK13L","either","3","170","","","","","","","0","0","1","","0.3354302382","0.4","0.6","0.2","0.8","0.3354302382","0.08867332122","0.3620900841","0.4227305347","","","","","","","","","","","","","","72","H","0","img/none_selected.jpg","","37","main_expt","",""
"","bandit","121","650903","0.0-79.0-0.0","09623065","wem/bandit_party_1","AT3C00TKZK13L","either","3","14","","","","","","","0","0","1","","0.0804097964","0.4","0.6","0.2","0.8","0.3359947902","0.0804097964","0.3649119955","0.3904174821","","","","","","","","","","","","","","74","J","1","","","38","main_expt","",""
"","bandit","122","652588","0.0-80.0-0.0","09623065","wem/bandit_party_1","AT3C00TKZK13L","either","3","128","","","","","","","1","0","0","0.3704092514","","0.4","0.6","0.2","0.8","","","","","0.3719467902","0.1092906338","0.3993258453","0.3704092514","","","","","","","","","","76","L","3","","","39","main_expt","",""
"","bandit","123","654239","0.0-81.0-0.0","09623065","wem/bandit_party_1","AT3C00TKZK13L","either","3","117","","","","","","","0","0","1","0.37180955","","0.4","0.6","0.2","0.8","","","","","0.37180955","0.08771014895","0.43145226","0.3250394812","","","","","","","","","","72","H","0","img/none_selected.jpg","","40","main_expt","",""
"","bandit","124","655808","0.0-82.0-0.0","09623065","wem/bandit_party_1","AT3C00TKZK13L","either","3","32","","","","","","","1","0","0","0.1065106481","","0.4","0.6","0.2","0.8","","","","","0.3972707938","0.1065106481","0.3925837484","0.3633775572","","","","","","","","","","74","J","1","","","41","main_expt","",""
"","bandit","125","657457","0.0-83.0-0.0","09623065","wem/bandit_party_1","AT3C00TKZK13L","either","3","85","","","","","","","0","0","1","0.0926848955","","0.4","0.6","0.2","0.8","","","","","0.3981555674","0.0926848955","0.4020613291","0.3708570881","","","","","","","","","","74","J","1","","","42","main_expt","",""
"","bandit","126","659137","0.0-84.0-0.0","09623065","wem/bandit_party_1","AT3C00TKZK13L","either","3","115","","","","","","","0","0","1","0.3698022864","","0.4","0.6","0.2","0.8","","","","","0.3698022864","0.09213729174","0.4199094288","0.3852030547","","","","","","","","","","72","H","0","img/none_selected.jpg","","43","main_expt","",""
"","bandit","127","660739","0.0-85.0-0.0","09623065","wem/bandit_party_1","AT3C00TKZK13L","either","3","71","","","","","","","0","0","1","0.3278340923","","0.4","0.6","0.2","0.8","","","","","0.3278340923","0.0950319608","0.4362917367","0.3653477133","","","","","","","","","","72","H","0","img/none_selected.jpg","","44","main_expt","",""
"","bandit","128","662300","0.0-86.0-0.0","09623065","wem/bandit_party_1","AT3C00TKZK13L","either","3","4","","","","","","","0","0","1","0.4004869948","","0.4","0.6","0.2","0.8","","","","","0.4004869948","0.07917944011","0.4310393502","0.3423722135","","","","","","","","","","72","H","0","img/none_selected.jpg","","45","main_expt","",""
"","bandit","129","663895","0.0-87.0-0.0","09623065","wem/bandit_party_1","AT3C00TKZK13L","either","3","5","","","","","","","0","0","1","0.08528552535","","0.4","0.6","0.2","0.8","","","","","0.4389658195","0.08528552535","0.4301719659","0.2713785315","","","","","","","","","","74","J","1","","","46","main_expt","",""
"","bandit","130","665470","0.0-88.0-0.0","09623065","wem/bandit_party_1","AT3C00TKZK13L","either","3","5","","","","","","","0","0","1","0.4294918489","","0.4","0.6","0.2","0.8","","","","","0.4294918489","0.08303267599","0.4274268526","0.2675382036","","","","","","","","","","72","H","0","img/none_selected.jpg","","47","main_expt","",""
"","bandit","131","667071","0.0-89.0-0.0","09623065","wem/bandit_party_1","AT3C00TKZK13L","either","3","42","","","","","","","0","0","1","","0.3948346084","0.4","0.6","0.2","0.8","0.3948346084","0.1183490009","0.4559220927","0.3006553151","","","","","","","","","","","","","","72","H","0","img/none_selected.jpg","","48","main_expt","",""
"","bandit","132","668672","0.0-90.0-0.0","09623065","wem/bandit_party_1","AT3C00TKZK13L","either","3","47","","","","","","","1","0","0","0.4226663974","","0.4","0.6","0.2","0.8","","","","","0.4226663974","0.09831357925","0.4362936898","0.2865645246","","","","","","","","","","72","H","0","img/none_selected.jpg","","49","main_expt","",""
"","bandit","133","670288","0.0-91.0-0.0","09623065","wem/bandit_party_1","AT3C00TKZK13L","either","3","95","","","","","","","0","0","1","0.0896163698","","0.4","0.6","0.2","0.8","","","","","0.3943232949","0.0896163698","0.4001593617","0.2842330123","","","","","","","","","","74","J","1","","","50","main_expt","",""
"","bandit","134","671923","0.0-92.0-0.0","09623065","wem/bandit_party_1","AT3C00TKZK13L","either","3","74","","","","","","","0","0","1","0.08239790895","","0.4","0.6","0.2","0.8","","","","","0.3911898034","0.08239790895","0.3737598101","0.2933637591","","","","","","","","","","74","J","1","","","51","main_expt","",""
"","bandit","135","673587","0.0-93.0-0.0","09623065","wem/bandit_party_1","AT3C00TKZK13L","either","3","124","","","","","","","0","0","1","0.06509061927","","0.4","0.6","0.2","0.8","","","","","0.3897106723","0.06509061927","0.3490564905","0.2802127762","","","","","","","","","","74","J","1","","","52","main_expt","",""
"","bandit","136","675221","0.0-94.0-0.0","09623065","wem/bandit_party_1","AT3C00TKZK13L","either","3","88","","","","","","","0","0","1","0.05503049918","","0.4","0.6","0.2","0.8","","","","","0.3977919118","0.05503049918","0.3606416198","0.2567133084","","","","","","","","","","74","J","1","","","53","main_expt","",""
"","bandit","137","676901","0.0-95.0-0.0","09623065","wem/bandit_party_1","AT3C00TKZK13L","either","3","142","","","","","","","0","0","1","0.06606451817","","0.4","0.6","0.2","0.8","","","","","0.3803623479","0.06606451817","0.3920172378","0.304436262","","","","","","","","","","74","J","1","","","54","main_expt","",""
"","bandit","138","678527","0.0-96.0-0.0","09623065","wem/bandit_party_1","AT3C00TKZK13L","either","3","94","","","","","","","1","0","0","0.3050376594","","0.4","0.6","0.2","0.8","","","","","0.3898030924","0.0812436444","0.3841867886","0.3050376594","","","","","","","","","","76","L","3","","","55","main_expt","",""
"","bandit","139","680169","0.0-97.0-0.0","09623065","wem/bandit_party_1","AT3C00TKZK13L","either","3","80","","","","","","","0","0","1","0.2874076515","","0.4","0.6","0.2","0.8","","","","","0.4332266089","0.05752214818","0.3752679739","0.2874076515","","","","","","","","","","76","L","3","","","56","main_expt","",""
"","bandit","140","681854","0.0-98.0-0.0","09623065","wem/bandit_party_1","AT3C00TKZK13L","either","3","159","","","","","","","0","0","1","0.05957573693","","0.4","0.6","0.2","0.8","","","","","0.4598680415","0.05957573693","0.3595388075","0.2633226407","","","","","","","","","","74","J","1","","","57","main_expt","",""
"","bandit","141","683655","0.0-99.0-0.0","09623065","wem/bandit_party_1","AT3C00TKZK13L","either","3","195","","","","","","","0","0","1","","0.282557186","0.4","0.6","0.2","0.8","0.4510058242","0.08347810371","0.2926617498","0.282557186","","","","","","","","","","","","","","76","L","3","","","58","main_expt","",""
"","bandit","142","685337","0.0-100.0-0.0","09623065","wem/bandit_party_1","AT3C00TKZK13L","either","3","151","","","","","","","0","0","1","0.1166757522","","0.4","0.6","0.2","0.8","","","","","0.4587464736","0.1166757522","0.2854140482","0.2675679041","","","","","","","","","","74","J","1","","","59","main_expt","",""
"","bandit","143","686903","0.0-101.0-0.0","09623065","wem/bandit_party_1","AT3C00TKZK13L","either","3","4","","","","","","","0","0","1","0.1223048521","","0.4","0.6","0.2","0.8","","","","","0.4534111386","0.1223048521","0.2767785787","0.2654645802","","","","","","","","","","74","J","1","","","60","main_expt","",""
"","bandit","144","688471","0.0-102.0-0.0","09623065","wem/bandit_party_1","AT3C00TKZK13L","either","3","34","","","","","","","0","0","1","","0.1341525672","0.4","0.6","0.2","0.8","0.4581751116","0.1341525672","0.3110110239","0.2326588137","","","","","","","","","","","","","","74","J","1","","","61","main_expt","",""
"","bandit","145","690188","0.0-103.0-0.0","09623065","wem/bandit_party_1","AT3C00TKZK13L","either","3","132","","","","","","","0","0","1","0.4447189615","","0.4","0.6","0.2","0.8","","","","","0.4447189615","0.1748443247","0.2739379344","0.2430345153","","","","","","","","","","72","H","0","img/none_selected.jpg","","62","main_expt","",""
"","bandit","146","691752","0.0-104.0-0.0","09623065","wem/bandit_party_1","AT3C00TKZK13L","either","3","4","","","","","","","0","0","1","0.1872250423","","0.4","0.6","0.2","0.8","","","","","0.4351057758","0.1872250423","0.2518438402","0.2682261916","","","","","","","","","","74","J","1","","","63","main_expt","",""
"","bandit","147","693470","0.0-105.0-0.0","09623065","wem/bandit_party_1","AT3C00TKZK13L","either","3","176","","","","","","","0","0","1","0.3136585585","","0.4","0.6","0.2","0.8","","","","","0.4559228662","0.1592276408","0.216118181","0.3136585585","","","","","","","","","","76","L","3","","","64","main_expt","",""
"","bandit","148","695070","0.0-106.0-0.0","09623065","wem/bandit_party_1","AT3C00TKZK13L","either","3","52","","","","","","","0","0","1","0.3208042698","","0.4","0.6","0.2","0.8","","","","","0.4526438492","0.1881419285","0.1961712117","0.3208042698","","","","","","","","","","76","L","3","","","65","main_expt","",""
"","bandit","149","696738","0.0-107.0-0.0","09623065","wem/bandit_party_1","AT3C00TKZK13L","either","3","117","","","","","","","1","0","0","0.2075830042","","0.4","0.6","0.2","0.8","","","","","0.4604690516","0.2075830042","0.1821057022","0.3550213758","","","","","","","","","","74","J","1","","","66","main_expt","",""
"","bandit","150","698362","0.0-108.0-0.0","09623065","wem/bandit_party_1","AT3C00TKZK13L","either","3","95","","","","","","","1","0","0","0.2883445083","","0.4","0.6","0.2","0.8","","","","","0.4479534522","0.210321401","0.2221692745","0.2883445083","","","","","","","","","","76","L","3","","","67","main_expt","",""
"","bandit","151","700037","0.0-109.0-0.0","09623065","wem/bandit_party_1","AT3C00TKZK13L","either","3","95","","","","","","","0","0","1","0.2492112051","","0.4","0.6","0.2","0.8","","","","","0.4420076102","0.1740681144","0.2385328342","0.2492112051","","","","","","","","","","76","L","3","","","68","main_expt","",""
"","bandit","152","701752","0.0-110.0-0.0","09623065","wem/bandit_party_1","AT3C00TKZK13L","either","3","146","","","","","","","0","0","1","0.1495678232","","0.4","0.6","0.2","0.8","","","","","0.3840886122","0.1495678232","0.2693988132","0.1725364023","","","","","","","","","","74","J","1","","","69","main_expt","",""
"","bandit","153","703354","0.0-111.0-0.0","09623065","wem/bandit_party_1","AT3C00TKZK13L","either","3","20","","","","","","","0","0","1","","0.1594524764","0.4","0.6","0.2","0.8","0.3764426572","0.1594524764","0.2633889128","0.2081322216","","","","","","","","","","","","","","74","J","1","","","70","main_expt","",""
"","bandit","154","704971","0.0-112.0-0.0","09623065","wem/bandit_party_1","AT3C00TKZK13L","either","3","90","","","","","","","0","0","1","0.1308665948","","0.4","0.6","0.2","0.8","","","","","0.3925575972","0.1308665948","0.2881785301","0.2222096595","","","","","","","","","","74","J","1","","","71","main_expt","",""
"","bandit","155","706605","0.0-113.0-0.0","09623065","wem/bandit_party_1","AT3C00TKZK13L","either","3","82","","","","","","","0","0","1","","0.1413665491","0.4","0.6","0.2","0.8","0.4055717031","0.1413665491","0.3496752211","0.2276413934","","","","","","","","","","","","","","74","J","1","","","72","main_expt","",""
"","bandit","156","708220","0.0-114.0-0.0","09623065","wem/bandit_party_1","AT3C00TKZK13L","either","3","75","","","","","","","0","0","1","0.4313753627","","0.4","0.6","0.2","0.8","","","","","0.4313753627","0.1562096843","0.3662649551","0.202726327","","","","","","","","","","72","H","0","img/none_selected.jpg","","73","main_expt","",""
"","bandit","157","709902","0.0-115.0-0.0","09623065","wem/bandit_party_1","AT3C00TKZK13L","either","3","138","","","","","","","0","0","1","0.2465356434","","0.4","0.6","0.2","0.8","","","","","0.4294283137","0.1601549975","0.3318597218","0.2465356434","","","","","","","","","","76","L","3","","","74","main_expt","",""
"","bandit","158","711585","0.0-116.0-0.0","09623065","wem/bandit_party_1","AT3C00TKZK13L","either","3","128","","","","","","","0","0","1","0.1962365409","","0.4","0.6","0.2","0.8","","","","","0.4114775526","0.1962365409","0.3129946244","0.2780880013","","","","","","","","","","74","J","1","","","75","main_expt","",""
"","bandit","159","713286","0.0-117.0-0.0","09623065","wem/bandit_party_1","AT3C00TKZK13L","either","3","133","","","","","","","0","0","1","0.230570622","","0.4","0.6","0.2","0.8","","","","","0.4038916894","0.2315068675","0.3299880354","0.230570622","","","","","","","","","","76","L","3","","","76","main_expt","",""
"","bandit","160","714927","0.0-118.0-0.0","09623065","wem/bandit_party_1","AT3C00TKZK13L","either","3","101","","","","","","","0","0","1","","0.4028298088","0.4","0.6","0.2","0.8","0.4028298088","0.1749603823","0.2704336052","0.1747897532","","","","","","","","","","","","","","72","H","0","img/none_selected.jpg","","77","main_expt","",""
"","bandit","161","716978","0.0-119.0-0.0","09623065","wem/bandit_party_1","AT3C00TKZK13L","either","3","491","","","","","","","0","0","1","0.2091975686","","0.4","0.6","0.2","0.8","","","","","0.4004321452","0.2091975686","0.2489008917","0.2009150394","","","","","","","","","","74","J","1","","","78","main_expt","",""
"","bandit","162","718663","0.0-120.0-0.0","09623065","wem/bandit_party_1","AT3C00TKZK13L","either","3","158","","","","","","","1","0","0","0.2699334682","","0.4","0.6","0.2","0.8","","","","","0.3909827091","0.2699334682","0.2182462247","0.2090883318","","","","","","","","","","74","J","1","","","79","main_expt","",""
"","bandit","163","720330","0.0-121.0-0.0","09623065","wem/bandit_party_1","AT3C00TKZK13L","either","3","135","","","","","","","0","0","1","0.215522018","","0.4","0.6","0.2","0.8","","","","","0.4289339141","0.2712134299","0.1591694045","0.215522018","","","","","","","","","","76","L","3","","","80","main_expt","",""
"","bandit","164","721896","0.0-122.0-0.0","09623065","wem/bandit_party_1","AT3C00TKZK13L","either","3","10","","","","","","","0","0","1","","0.2655955182","0.4","0.6","0.2","0.8","0.4256341571","0.2563236188","0.1661146317","0.2655955182","","","","","","","","","","","","","","76","L","3","","","81","main_expt","",""
"","bandit","165","723627","0.0-123.0-0.0","09623065","wem/bandit_party_1","AT3C00TKZK13L","either","3","172","","","","","","","0","0","1","0.4153375647","","0.4","0.6","0.2","0.8","","","","","0.4153375647","0.2474856626","0.2249160828","0.2642342948","","","","","","","","","","72","H","0","img/none_selected.jpg","","82","main_expt","",""
"","bandit","166","725293","0.0-124.0-0.0","09623065","wem/bandit_party_1","AT3C00TKZK13L","either","3","126","","","","","","","0","0","1","0.2615040017","","0.4","0.6","0.2","0.8","","","","","0.4239102097","0.2338037125","0.2194800234","0.2615040017","","","","","","","","","","76","L","3","","","83","main_expt","",""
"","bandit","167","726895","0.0-125.0-0.0","09623065","wem/bandit_party_1","AT3C00TKZK13L","either","3","0","","","","","","","1","0","0","0.3136368113","","0.4","0.6","0.2","0.8","","","","","0.4021041833","0.2929655049","0.2020024956","0.3136368113","","","","","","","","","","76","L","3","","","84","main_expt","",""
"","bandit","168","728593","0.0-126.0-0.0","09623065","wem/bandit_party_1","AT3C00TKZK13L","either","3","171","","","","","","","0","1","0","","0.2755572306","0.4","0.6","0.2","0.8","0.4322374594","0.2755572306","0.1639230135","0.2433538552","","","","","","","","","","","","","","74","J","1","","","85","main_expt","",""
"","bandit","169","730278","0.0-127.0-0.0","09623065","wem/bandit_party_1","AT3C00TKZK13L","either","3","131","","","","","","","0","0","1","","0.2706615249","0.4","0.6","0.2","0.8","0.4247618508","0.2706615249","0.1423092638","0.2583740773","","","","","","","","","","","","","","74","J","1","","","86","main_expt","",""
"","bandit","170","731958","0.0-128.0-0.0","09623065","wem/bandit_party_1","AT3C00TKZK13L","either","3","114","","","","","","","0","0","1","0.2656778135","","0.4","0.6","0.2","0.8","","","","","0.4130492334","0.3259805539","0.1623313408","0.2656778135","","","","","","","","","","76","L","3","","","87","main_expt","",""
"","bandit","171","733544","0.0-129.0-0.0","09623065","wem/bandit_party_1","AT3C00TKZK13L","either","3","5","","","","","","","0","0","1","0.2565525481","","0.4","0.6","0.2","0.8","","","","","0.3883747858","0.3471137027","0.1459946163","0.2565525481","","","","","","","","","","76","L","3","","","88","main_expt","",""
"","bandit","172","735129","0.0-130.0-0.0","09623065","wem/bandit_party_1","AT3C00TKZK13L","either","3","3","","","","","","","0","0","1","0.2471999074","","0.4","0.6","0.2","0.8","","","","","0.3950807547","0.3715311126","0.1684807643","0.2471999074","","","","","","","","","","76","L","3","","","89","main_expt","",""
"","bandit","173","736910","0.0-131.0-0.0","09623065","wem/bandit_party_1","AT3C00TKZK13L","either","3","222","","","","","","","1","0","0","0.3571728809","","0.4","0.6","0.2","0.8","","","","","0.420982679","0.3571728809","0.1937692241","0.2204199549","","","","","","","","","","74","J","1","","","90","main_expt","",""
"","bandit","174","738577","0.0-132.0-0.0","09623065","wem/bandit_party_1","AT3C00TKZK13L","either","3","143","","","","","","","0","0","1","","0.3348642023","0.4","0.6","0.2","0.8","0.4012606491","0.3348642023","0.1670397906","0.2013548925","","","","","","","","","","","","","","74","J","1","","","91","main_expt","",""
"","bandit","175","740180","0.0-133.0-0.0","09623065","wem/bandit_party_1","AT3C00TKZK13L","either","3","66","","","","","","","0","0","1","0.3551195155","","0.4","0.6","0.2","0.8","","","","","0.3950870333","0.3551195155","0.1936095216","0.174921714","","","","","","","","","","74","J","1","","","92","main_expt","",""
"","bandit","176","742075","0.0-134.0-0.0","09623065","wem/bandit_party_1","AT3C00TKZK13L","either","3","356","","","","","","","0","0","1","","0.2399824117","0.4","0.6","0.2","0.8","0.3797372222","0.3494458231","0.2399824117","0.1972058505","","","","","","","","","","","","","","75","K","2","","","93","main_expt","",""
"","bandit","177","743692","0.0-135.0-0.0","09623065","wem/bandit_party_1","AT3C00TKZK13L","either","3","32","","","","","","","0","0","1","0.2144007407","","0.4","0.6","0.2","0.8","","","","","0.3346339076","0.3759818745","0.242536602","0.2144007407","","","","","","","","","","76","L","3","","","94","main_expt","",""
"","bandit","178","745260","0.0-136.0-0.0","09623065","wem/bandit_party_1","AT3C00TKZK13L","either","3","3","","","","","","","0","0","1","","0.3467088588","0.4","0.6","0.2","0.8","0.3433005441","0.3467088588","0.3081296623","0.2025691914","","","","","","","","","","","","","","74","J","1","","","95","main_expt","",""
"","bandit","179","746865","0.0-137.0-0.0","09623065","wem/bandit_party_1","AT3C00TKZK13L","either","3","59","","","","","","","1","0","0","0.2900415689","","0.4","0.6","0.2","0.8","","","","","0.2900415689","0.3520186383","0.371766452","0.1750118246","","","","","","","","","","72","H","0","img/none_selected.jpg","","96","main_expt","",""
"","bandit","180","748491","0.0-138.0-0.0","09623065","wem/bandit_party_1","AT3C00TKZK13L","either","3","83","","","","","","","0","0","1","0.2433812568","","0.4","0.6","0.2","0.8","","","","","0.3136050561","0.342216001","0.3737721809","0.2433812568","","","","","","","","","","76","L","3","","","97","main_expt","",""
"","bandit","181","750075","0.0-139.0-0.0","09623065","wem/bandit_party_1","AT3C00TKZK13L","either","3","14","","","","","","","0","0","1","0.1834100281","","0.4","0.6","0.2","0.8","","","","","0.3236610102","0.3775958225","0.3662625892","0.1834100281","","","","","","","","","","76","L","3","","","98","main_expt","",""
"","bandit","182","751800","0.0-140.0-0.0","09623065","wem/bandit_party_1","AT3C00TKZK13L","either","3","169","","","","","","","0","0","1","0.146161558","","0.4","0.6","0.2","0.8","","","","","0.3116662608","0.3490624926","0.3912879072","0.146161558","","","","","","","","","","76","L","3","","","99","main_expt","",""
"","bandit","183","753342","0.0-141.0-0.0","09623065","wem/bandit_party_1","AT3C00TKZK13L","either","3","0","","","","","","","0","1","0","","0.3806420769","0.4","0.6","0.2","0.8","0.3806420769","0.3418910903","0.3916888764","0.1186266926","","","","","","","","","","","","","","72","H","0","img/none_selected.jpg","","100","main_expt","",""
"","bandit","184","755094","0.0-142.0-0.0","09623065","wem/bandit_party_1","AT3C00TKZK13L","either","3","184","","","","","","","0","0","1","0.3544055354","","0.4","0.6","0.2","0.8","","","","","0.3825052475","0.3544055354","0.3803758031","0.1467879228","","","","","","","","","","74","J","1","","","101","main_expt","",""
"","bandit","185","756943","0.0-143.0-0.0","09623065","wem/bandit_party_1","AT3C00TKZK13L","either","3","311","","","","","","","0","0","1","","0.3685266224","0.4","0.6","0.2","0.8","0.3799327693","0.3580864163","0.3685266224","0.1336514036","","","","","","","","","","","","","","75","K","2","","","102","main_expt","",""
"","bandit","186","758691","0.0-144.0-0.0","09623065","wem/bandit_party_1","AT3C00TKZK13L","either","3","175","","","","","","","0","1","0","","0.336528594","0.4","0.6","0.2","0.8","0.3502018886","0.336528594","0.3754978655","0.1325092095","","","","","","","","","","","","","","74","J","1","","","103","main_expt","",""
"","bandit","187","760509","0.0-145.0-0.0","09623065","wem/bandit_party_1","AT3C00TKZK13L","either","3","255","","","","","","","0","0","1","0.1162839287","","0.4","0.6","0.2","0.8","","","","","0.3443431466","0.3190078166","0.4033056484","0.1162839287","","","","","","","","","","76","L","3","","","104","main_expt","",""
"","bandit","188","762525","0.0-146.0-0.0","09623065","wem/bandit_party_1","AT3C00TKZK13L","either","3","394","","","","","","","0","0","1","","0.3551378046","0.4","0.6","0.2","0.8","0.3551378046","0.3100940773","0.3617388181","0.115620258","","","","","","","","","","","","","","72","H","0","img/none_selected.jpg","","105","main_expt","",""
"","bandit","189","764108","0.0-147.0-0.0","09623065","wem/bandit_party_1","AT3C00TKZK13L","either","3","1","","","","","","","0","0","1","0.2964842485","","0.4","0.6","0.2","0.8","","","","","0.3177956882","0.2964842485","0.3656875331","0.1102569517","","","","","","","","","","74","J","1","","","106","main_expt","",""
"","bandit","190","765858","0.0-148.0-0.0","09623065","wem/bandit_party_1","AT3C00TKZK13L","either","3","191","","","","","","","0","0","1","0.110599846","","0.4","0.6","0.2","0.8","","","","","0.3463124521","0.3224579283","0.3478183852","0.110599846","","","","","","","","","","76","L","3","","","107","main_expt","",""
"","bandit","191","767658","0.0-149.0-0.0","09623065","wem/bandit_party_1","AT3C00TKZK13L","either","3","238","","","","","","","0","1","0","","0.330790185","0.4","0.6","0.2","0.8","0.330790185","0.3365568187","0.3715517583","0.1647947233","","","","","","","","","","","","","","72","H","0","img/none_selected.jpg","","108","main_expt","",""
"","bandit","192","769525","0.0-150.0-0.0","09623065","wem/bandit_party_1","AT3C00TKZK13L","either","3","316","","","","","","","0","0","1","","0.3200824859","0.4","0.6","0.2","0.8","0.3259779601","0.3200824859","0.3713851569","0.146095753","","","","","","","","","","","","","","74","J","1","","","109","main_expt","",""
"","bandit","193","771227","0.0-151.0-0.0","09623065","wem/bandit_party_1","AT3C00TKZK13L","either","3","138","","","","","","","0","1","0","","0.3401672382","0.4","0.6","0.2","0.8","0.3169053314","0.3179471713","0.3401672382","0.1691954855","","","","","","","","","","","","","","75","K","2","","","110","main_expt","",""
"","bandit","194","772876","0.0-152.0-0.0","09623065","wem/bandit_party_1","AT3C00TKZK13L","either","3","95","","","","","","","0","0","1","0.1690298198","","0.4","0.6","0.2","0.8","","","","","0.342138516","0.3168158386","0.3242328008","0.1690298198","","","","","","","","","","76","L","3","","","111","main_expt","",""
"","bandit","195","774563","0.0-153.0-0.0","09623065","wem/bandit_party_1","AT3C00TKZK13L","either","3","156","","","","","","","0","0","1","0.3597886873","","0.4","0.6","0.2","0.8","","","","","0.3597886873","0.3551606626","0.2991119965","0.2196992501","","","","","","","","","","72","H","0","img/none_selected.jpg","","112","main_expt","",""
"","bandit","196","776302","0.0-154.0-0.0","09623065","wem/bandit_party_1","AT3C00TKZK13L","either","3","143","","","","","","","1","0","0","0.3615444015","","0.4","0.6","0.2","0.8","","","","","0.3580549124","0.3615444015","0.3364281798","0.2723467559","","","","","","","","","","74","J","1","","","113","main_expt","",""
"","bandit","197","777954","0.0-155.0-0.0","09623065","wem/bandit_party_1","AT3C00TKZK13L","either","3","95","","","","","","","1","0","0","0.3556181037","","0.4","0.6","0.2","0.8","","","","","0.3556181037","0.4043222556","0.3495122724","0.2470985199","","","","","","","","","","72","H","0","img/none_selected.jpg","","114","main_expt","",""
"","bandit","198","779571","0.0-156.0-0.0","09623065","wem/bandit_party_1","AT3C00TKZK13L","either","3","50","","","","","","","1","0","0","0.3489042174","","0.4","0.6","0.2","0.8","","","","","0.3489042174","0.4179696435","0.324938203","0.2482590513","","","","","","","","","","72","H","0","img/none_selected.jpg","","115","main_expt","",""
"","bandit","199","781320","0.0-157.0-0.0","09623065","wem/bandit_party_1","AT3C00TKZK13L","either","3","183","","","","","","","0","0","1","0.1992012358","","0.4","0.6","0.2","0.8","","","","","0.3466245191","0.4324393975","0.3227512736","0.1992012358","","","","","","","","","","76","L","3","","","116","main_expt","",""
"","bandit","200","783156","0.0-158.0-0.0","09623065","wem/bandit_party_1","AT3C00TKZK13L","either","3","274","","","","","","","0","1","0","","0.3581754781","0.4","0.6","0.2","0.8","0.3581754781","0.4290779421","0.2585209305","0.216355905","","","","","","","","","","","","","","72","H","0","img/none_selected.jpg","","117","main_expt","",""
"","bandit","201","784789","0.0-159.0-0.0","09623065","wem/bandit_party_1","AT3C00TKZK13L","either","3","69","","","","","","","0","0","1","","0.283939031","0.4","0.6","0.2","0.8","0.283939031","0.4459264202","0.2817260076","0.1715453935","","","","","","","","","","","","","","72","H","0","img/none_selected.jpg","","118","main_expt","",""
"","bandit","202","786422","0.0-160.0-0.0","09623065","wem/bandit_party_1","AT3C00TKZK13L","either","3","78","","","","","","","1","0","0","0.2992634423","","0.4","0.6","0.2","0.8","","","","","0.2992634423","0.436995295","0.328214026","0.1843456939","","","","","","","","","","72","H","0","img/none_selected.jpg","","119","main_expt","",""
"","bandit","203","788039","0.0-161.0-0.0","09623065","wem/bandit_party_1","AT3C00TKZK13L","either","3","61","","","","","","","0","0","1","","0.1878150733","0.4","0.6","0.2","0.8","0.1878150733","0.4151314625","0.3355603121","0.1848061615","","","","","","","","","","","","","","72","H","0","img/none_selected.jpg","","120","main_expt","",""
"","bandit","204","789802","0.0-162.0-0.0","09623065","wem/bandit_party_1","AT3C00TKZK13L","either","3","197","","","","","","","0","0","1","0.1679578636","","0.4","0.6","0.2","0.8","","","","","0.1447458933","0.4384064527","0.3829587724","0.1679578636","","","","","","","","","","76","L","3","","","121","main_expt","",""
"","bandit","205","791401","0.0-163.0-0.0","09623065","wem/bandit_party_1","AT3C00TKZK13L","either","3","30","","","","","","","0","0","1","","0.3995678287","0.4","0.6","0.2","0.8","0.1176060398","0.4417589501","0.3995678287","0.197295971","","","","","","","","","","","","","","75","K","2","","","122","main_expt","",""
"","bandit","206","793172","0.0-164.0-0.0","09623065","wem/bandit_party_1","AT3C00TKZK13L","either","3","200","","","","","","","0","0","1","","0.1097677055","0.4","0.6","0.2","0.8","0.1097677055","0.4017154396","0.3656739583","0.2184653352","","","","","","","","","","","","","","72","H","0","img/none_selected.jpg","","123","main_expt","",""
"","bandit","207","794819","0.0-165.0-0.0","09623065","wem/bandit_party_1","AT3C00TKZK13L","either","3","90","","","","","","","0","1","0","","0.3862549257","0.4","0.6","0.2","0.8","0.08048168986","0.3619070526","0.3862549257","0.2147868977","","","","","","","","","","","","","","75","K","2","","","124","main_expt","",""
"","bandit","208","796585","0.0-166.0-0.0","09623065","wem/bandit_party_1","AT3C00TKZK13L","either","3","187","","","","","","","0","0","1","","0.3567490645","0.4","0.6","0.2","0.8","0.07842900555","0.3567490645","0.3593796239","0.1667936559","","","","","","","","","","","","","","74","J","1","","","125","main_expt","",""
"","bandit","209","798238","0.0-167.0-0.0","09623065","wem/bandit_party_1","AT3C00TKZK13L","either","3","80","","","","","","","0","0","1","0.1453295256","","0.4","0.6","0.2","0.8","","","","","0.08318363027","0.3558473019","0.3413194209","0.1453295256","","","","","","","","","","76","L","3","","","126","main_expt","",""
"","bandit","210","799869","0.0-168.0-0.0","09623065","wem/bandit_party_1","AT3C00TKZK13L","either","3","4","","","","","","","0","0","1","0.1635755653","","0.4","0.6","0.2","0.8","","","","","0.06812438963","0.3543069734","0.3369929262","0.1635755653","","","","","","","","","","76","L","3","","","127","main_expt","",""
"","bandit","211","801601","0.0-169.0-0.0","09623065","wem/bandit_party_1","AT3C00TKZK13L","either","3","154","","","","","","","0","0","1","0.3328374851","","0.4","0.6","0.2","0.8","","","","","0.08303766286","0.3328374851","0.2922989636","0.1872639566","","","","","","","","","","74","J","1","","","128","main_expt","",""
"","bandit","212","803286","0.0-170.0-0.0","09623065","wem/bandit_party_1","AT3C00TKZK13L","either","3","110","","","","","","","0","0","1","","0.09047360051","0.4","0.6","0.2","0.8","0.09047360051","0.3238683282","0.3095146075","0.2032718864","","","","","","","","","","","","","","72","H","0","img/none_selected.jpg","","129","main_expt","",""
"","bandit","213","805019","0.0-171.0-0.0","09623065","wem/bandit_party_1","AT3C00TKZK13L","either","3","140","","","","","","","0","0","1","","0.2750329062","0.4","0.6","0.2","0.8","0.131542256","0.2750329062","0.3068425872","0.2025864764","","","","","","","","","","","","","","74","J","1","","","130","main_expt","",""
"","bandit","214","806736","0.0-172.0-0.0","09623065","wem/bandit_party_1","AT3C00TKZK13L","either","3","154","","","","","","","0","0","1","0.2751886228","","0.4","0.6","0.2","0.8","","","","","0.1492019489","0.2751886228","0.3112504131","0.2158584071","","","","","","","","","","74","J","1","","","131","main_expt","",""
"","bandit","215","808463","0.0-173.0-0.0","09623065","wem/bandit_party_1","AT3C00TKZK13L","either","3","174","","","","","","","1","0","0","0.2729729886","","0.4","0.6","0.2","0.8","","","","","0.1571188116","0.2729729886","0.3595653039","0.2105840197","","","","","","","","","","74","J","1","","","132","main_expt","",""
"","bandit","216","810053","0.0-174.0-0.0","09623065","wem/bandit_party_1","AT3C00TKZK13L","either","3","31","","","","","","","0","0","1","","0.2328486735","0.4","0.6","0.2","0.8","0.2021073832","0.3248088544","0.3873527377","0.2328486735","","","","","","","","","","","","","","76","L","3","","","133","main_expt","",""
"","bandit","217","811753","0.0-175.0-0.0","09623065","wem/bandit_party_1","AT3C00TKZK13L","either","3","124","","","","","","","1","0","0","0.2589092944","","0.4","0.6","0.2","0.8","","","","","0.2693148074","0.3596446835","0.3973884711","0.2589092944","","","","","","","","","","76","L","3","","","134","main_expt","",""
"","bandit","218","813322","0.0-176.0-0.0","09623065","wem/bandit_party_1","AT3C00TKZK13L","either","3","3","","","","","","","0","0","1","0.318377279","","0.4","0.6","0.2","0.8","","","","","0.2625780805","0.318377279","0.4080523157","0.2637326353","","","","","","","","","","74","J","1","","","135","main_expt","",""
"","bandit","219","815050","0.0-177.0-0.0","09623065","wem/bandit_party_1","AT3C00TKZK13L","either","3","153","","","","","","","0","0","1","0.3160887017","","0.4","0.6","0.2","0.8","","","","","0.2981707722","0.3160887017","0.4176503084","0.2718680576","","","","","","","","","","74","J","1","","","136","main_expt","",""
"","bandit","220","816835","0.0-178.0-0.0","09623065","wem/bandit_party_1","AT3C00TKZK13L","either","3","203","","","","","","","1","0","0","0.2883225013","","0.4","0.6","0.2","0.8","","","","","0.3148158286","0.2883225013","0.3859803947","0.2919957672","","","","","","","","","","74","J","1","","","137","main_expt","",""
"","bandit","221","818572","0.0-179.0-0.0","09623065","wem/bandit_party_1","AT3C00TKZK13L","either","3","126","","","","","","","0","0","1","0.3193993407","","0.4","0.6","0.2","0.8","","","","","0.3111523267","0.3009152141","0.358492916","0.3193993407","","","","","","","","","","76","L","3","","","138","main_expt","",""
"","bandit","222","820138","0.0-180.0-0.0","09623065","wem/bandit_party_1","AT3C00TKZK13L","either","3","1","","","","","","","0","0","1","","0.3608756281","0.4","0.6","0.2","0.8","0.3034593298","0.293720077","0.3608756281","0.3404434035","","","","","","","","","","","","","","75","K","2","","","139","main_expt","",""
"","bandit","223","821967","0.0-181.0-0.0","09623065","wem/bandit_party_1","AT3C00TKZK13L","either","3","259","","","","","","","0","1","0","","0.286059761","0.4","0.6","0.2","0.8","0.2507495005","0.286059761","0.3421836092","0.3278052243","","","","","","","","","","","","","","74","J","1","","","140","main_expt","",""
"","bandit","224","823668","0.0-182.0-0.0","09623065","wem/bandit_party_1","AT3C00TKZK13L","either","3","143","","","","","","","0","0","1","0.2931724706","","0.4","0.6","0.2","0.8","","","","","0.2220694513","0.2931724706","0.3737340371","0.3038906839","","","","","","","","","","74","J","1","","","141","main_expt","",""
"","bandit","225","825251","0.0-183.0-0.0","09623065","wem/bandit_party_1","AT3C00TKZK13L","either","3","4","","","","","","","0","0","1","0.2924195757","","0.4","0.6","0.2","0.8","","","","","0.2119249064","0.2182180164","0.3461121542","0.2924195757","","","","","","","","","","76","L","3","","","142","main_expt","",""
"","bandit","226","827121","0.0-184.0-0.0","09623065","wem/bandit_party_1","AT3C00TKZK13L","either","3","311","","","","","","","0","0","1","","0.2816149275","0.4","0.6","0.2","0.8","0.2665135591","0.2015475508","0.3305931074","0.2816149275","","","","","","","","","","","","","","76","L","3","","","143","main_expt","",""
"","bandit","227","828802","0.0-185.0-0.0","09623065","wem/bandit_party_1","AT3C00TKZK13L","either","3","117","","","","","","","0","0","1","0.2355525614","","0.4","0.6","0.2","0.8","","","","","0.2854155153","0.2074070562","0.3561039987","0.2355525614","","","","","","","","","","76","L","3","","","144","main_expt","",""
"","bandit","228","830389","0.0-186.0-0.0","09623065","wem/bandit_party_1","AT3C00TKZK13L","either","3","46","","","","","","","0","0","1","","0.1415368311","0.4","0.6","0.2","0.8","0.2521048148","0.1415368311","0.3648023512","0.2185662272","","","","","","","","","","","","","","74","J","1","","","145","main_expt","",""
"","bandit","229","832053","0.0-187.0-0.0","09623065","wem/bandit_party_1","AT3C00TKZK13L","either","3","69","","","","","","","1","0","0","0.2321266643","","0.4","0.6","0.2","0.8","","","","","0.2321266643","0.1549520657","0.3450315","0.2209315791","","","","","","","","","","72","H","0","img/none_selected.jpg","","146","main_expt","",""
"","bandit","230","833700","0.0-188.0-0.0","09623065","wem/bandit_party_1","AT3C00TKZK13L","either","3","71","","","","","","","1","0","0","0.2889766311","","0.4","0.6","0.2","0.8","","","","","0.3159383216","0.1469310363","0.2720321141","0.2889766311","","","","","","","","","","76","L","3","","","147","main_expt","",""
"","bandit","231","835339","0.0-189.0-0.0","09623065","wem/bandit_party_1","AT3C00TKZK13L","either","3","60","","","","","","","0","0","1","0.1332828417","","0.4","0.6","0.2","0.8","","","","","0.2673485129","0.1332828417","0.2598972664","0.2859466156","","","","","","","","","","74","J","1","","","148","main_expt","",""
"","bandit","232","837005","0.0-190.0-0.0","09623065","wem/bandit_party_1","AT3C00TKZK13L","either","3","103","","","","","","","0","0","1","","0.2343157719","0.4","0.6","0.2","0.8","0.3348600541","0.1102010463","0.2343157719","0.2588478233","","","","","","","","","","","","","","75","K","2","","","149","main_expt","",""
"","bandit","233","838857","0.0-191.0-0.0","09623065","wem/bandit_party_1","AT3C00TKZK13L","either","3","278","","","","","","","0","0","1","0.3659656834","","0.4","0.6","0.2","0.8","","","","","0.3659656834","0.1356103494","0.2451363599","0.2224653457","","","","","","","","","","72","H","0","img/none_selected.jpg","","150","main_expt","",""
"","bandit","234","840657","0.0-192.0-0.0","09623065","wem/bandit_party_1","AT3C00TKZK13L","either","3","229","","","","","","","0","1","0","","0.36397653","0.4","0.6","0.2","0.8","0.36397653","0.1621229287","0.2053737132","0.2387237716","","","","","","","","","","","","","","72","H","0","img/none_selected.jpg","","151","main_expt","",""
"","bandit","235","842256","0.0-193.0-0.0","09623065","wem/bandit_party_1","AT3C00TKZK13L","either","3","3","","","","","","","0","0","1","0.2519133504","","0.4","0.6","0.2","0.8","","","","","0.3710672623","0.1412745606","0.2396242378","0.2519133504","","","","","","","","","","76","L","3","","","152","main_expt","",""
"","bandit","236","844056","0.0-194.0-0.0","09623065","wem/bandit_party_1","AT3C00TKZK13L","either","3","220","","","","","","","1","0","0","0.2923277395","","0.4","0.6","0.2","0.8","","","","","0.3828607765","0.1707580034","0.2923277395","0.3078499427","","","","","","","","","","75","K","2","","","153","main_expt","",""
"","bandit","237","845698","0.0-195.0-0.0","09623065","wem/bandit_party_1","AT3C00TKZK13L","either","3","72","","","","","","","0","0","1","0.3526468527","","0.4","0.6","0.2","0.8","","","","","0.3526468527","0.1717455462","0.3166515581","0.3283820497","","","","","","","","","","72","H","0","img/none_selected.jpg","","154","main_expt","",""
"","bandit","238","847522","0.0-196.0-0.0","09623065","wem/bandit_party_1","AT3C00TKZK13L","either","3","272","","","","","","","0","0","1","","0.1785539081","0.4","0.6","0.2","0.8","0.3865981945","0.1785539081","0.3194616596","0.3303057687","","","","","","","","","","","","","","74","J","1","","","155","main_expt","",""
"","bandit","239","849204","0.0-197.0-0.0","09623065","wem/bandit_party_1","AT3C00TKZK13L","either","3","105","","","","","","","1","0","0","0.4328422877","","0.4","0.6","0.2","0.8","","","","","0.4328422877","0.2175815231","0.3767011333","0.3178912443","","","","","","","","","","72","H","0","img/none_selected.jpg","","156","main_expt","",""
"","bandit","240","850889","0.0-198.0-0.0","09623065","wem/bandit_party_1","AT3C00TKZK13L","either","3","139","","","","","","","0","1","0","","0.216674397","0.4","0.6","0.2","0.8","0.4224906378","0.216674397","0.3853144204","0.3236874272","","","","","","","","","","","","","","74","J","1","","","157","main_expt","",""
"","bandit","241","852841","0.0-199.0-0.0","09623065","wem/bandit_party_1","AT3C00TKZK13L","either","3","372","","","","","","","0","1","0","","0.3731337511","0.4","0.6","0.2","0.8","0.4428847078","0.2184316938","0.3519128793","0.3731337511","","","","","","","","","","","","","","76","L","3","","","158","main_expt","",""
"","bandit","242","854839","0.0-200.0-0.0","09623065","wem/bandit_party_1","AT3C00TKZK13L","either","3","415","","","","","","","0","1","0","","0.3255157266","0.4","0.6","0.2","0.8","0.4498083842","0.2603966468","0.3255157266","0.3758107074","","","","","","","","","","","","","","75","K","2","","","159","main_expt","",""
"","bandit","243","856793","0.0-201.0-0.0","09623065","wem/bandit_party_1","AT3C00TKZK13L","either","3","375","","","","","","","0","0","1","0.4319550234","","0.4","0.6","0.2","0.8","","","","","0.4319550234","0.2242017374","0.379238532","0.3494215766","","","","","","","","","","72","H","0","img/none_selected.jpg","","160","main_expt","",""
"","bandit","244","858389","0.0-202.0-0.0","09623065","wem/bandit_party_1","AT3C00TKZK13L","either","3","15","","","","","","","0","1","0","","0.3776335756","0.4","0.6","0.2","0.8","0.4417514389","0.2014027125","0.3776335756","0.3327111917","","","","","","","","","","","","","","75","K","2","","","161","main_expt","",""
"","bandit","245","860188","0.0-203.0-0.0","09623065","wem/bandit_party_1","AT3C00TKZK13L","either","3","214","","","","","","","0","0","1","","0.2955751891","0.4","0.6","0.2","0.8","0.4081293495","0.2038621466","0.2955751891","0.3171011618","","","","","","","","","","","","","","75","K","2","","","162","main_expt","",""
"","bandit","246","861780","0.0-204.0-0.0","09623065","wem/bandit_party_1","AT3C00TKZK13L","either","3","30","","","","","","","0","0","1","","0.1238136799","0.4","0.6","0.2","0.8","0.4265776113","0.1238136799","0.30851492","0.364183239","","","","","","","","","","","","","","74","J","1","","","163","main_expt","",""
"","bandit","247","863592","0.0-205.0-0.0","09623065","wem/bandit_party_1","AT3C00TKZK13L","either","3","251","","","","","","","0","0","1","0.1104941302","","0.4","0.6","0.2","0.8","","","","","0.427472809","0.1104941302","0.3074756362","0.3917374524","","","","","","","","","","74","J","1","","","164","main_expt","",""
"","bandit","248","865268","0.0-206.0-0.0","09623065","wem/bandit_party_1","AT3C00TKZK13L","either","3","89","","","","","","","0","0","1","0.3629360172","","0.4","0.6","0.2","0.8","","","","","0.4016343469","0.1099358877","0.2743039079","0.3629360172","","","","","","","","","","76","L","3","","","165","main_expt","",""
"","bandit","249","866889","0.0-207.0-0.0","09623065","wem/bandit_party_1","AT3C00TKZK13L","either","3","61","","","","","","","0","0","1","","0.3697042915","0.4","0.6","0.2","0.8","0.3578169927","0.08082918558","0.2900226329","0.3697042915","","","","","","","","","","","","","","76","L","3","","","166","main_expt","",""
"","bandit","250","868587","0.0-208.0-0.0","09623065","wem/bandit_party_1","AT3C00TKZK13L","either","3","122","","","","","","","1","0","0","0.3626443337","","0.4","0.6","0.2","0.8","","","","","0.3346076013","0.08539074978","0.3444017494","0.3626443337","","","","","","","","","","76","L","3","","","167","main_expt","",""
"","bandit","251","870240","0.0-209.0-0.0","09623065","wem/bandit_party_1","AT3C00TKZK13L","either","3","89","","","","","","","0","0","1","0.3488380128","","0.4","0.6","0.2","0.8","","","","","0.36326211","0.1307687804","0.3934904689","0.3488380128","","","","","","","","","","76","L","3","","","168","main_expt","",""
"","bandit","252","871870","0.0-210.0-0.0","09623065","wem/bandit_party_1","AT3C00TKZK13L","either","3","70","","","","","","","0","1","0","","0.3389060657","0.4","0.6","0.2","0.8","0.3389060657","0.09435724838","0.3712778229","0.3338465455","","","","","","","","","","","","","","72","H","0","img/none_selected.jpg","","169","main_expt","",""
"","bandit","253","873772","0.0-211.0-0.0","09623065","wem/bandit_party_1","AT3C00TKZK13L","either","3","324","","","","","","","0","0","1","0.3675902536","","0.4","0.6","0.2","0.8","","","","","0.3820287301","0.09371103674","0.3348119161","0.3675902536","","","","","","","","","","76","L","3","","","170","main_expt","",""
"","bandit","254","875533","0.0-212.0-0.0","09623065","wem/bandit_party_1","AT3C00TKZK13L","either","3","194","","","","","","","0","0","1","","0.3663425941","0.4","0.6","0.2","0.8","0.3738350687","0.0912992704","0.3697689907","0.3663425941","","","","","","","","","","","","","","76","L","3","","","171","main_expt","",""
"","bandit","255","877105","0.0-213.0-0.0","09623065","wem/bandit_party_1","AT3C00TKZK13L","either","3","2","","","","","","","0","0","1","","0.3449486646","0.4","0.6","0.2","0.8","0.3449486646","0.1053216192","0.3438364448","0.3571019768","","","","","","","","","","","","","","72","H","0","img/none_selected.jpg","","172","main_expt","",""
"","bandit","256","878758","0.0-214.0-0.0","09623065","wem/bandit_party_1","AT3C00TKZK13L","either","3","89","","","","","","","0","1","0","","0.383943734","0.4","0.6","0.2","0.8","0.3754463001","0.1119971747","0.4064517123","0.383943734","","","","","","","","","","","","","","76","L","3","","","173","main_expt","",""
"","bandit","257","880705","0.0-215.0-0.0","09623065","wem/bandit_party_1","AT3C00TKZK13L","either","3","385","","","","","","","0","0","1","0.1049574405","","0.4","0.6","0.2","0.8","","","","","0.3983783957","0.1049574405","0.4266345201","0.378453819","","","","","","","","","","74","J","1","","","174","main_expt","",""
"","bandit","258","882539","0.0-216.0-0.0","09623065","wem/bandit_party_1","AT3C00TKZK13L","either","3","260","","","","","","","0","1","0","","0.4176958341","0.4","0.6","0.2","0.8","0.4176958341","0.07351671593","0.4413212306","0.3577460836","","","","","","","","","","","","","","72","H","0","img/none_selected.jpg","","175","main_expt","",""
"","bandit","259","884290","0.0-217.0-0.0","09623065","wem/bandit_party_1","AT3C00TKZK13L","either","3","131","","","","","","","1","0","0","0.3346789668","","0.4","0.6","0.2","0.8","","","","","0.4336280271","0.06097876817","0.438548454","0.3346789668","","","","","","","","","","76","L","3","","","176","main_expt","",""
"","bandit","260","885904","0.0-218.0-0.0","09623065","wem/bandit_party_1","AT3C00TKZK13L","either","3","25","","","","","","","0","0","1","0.05873143133","","0.4","0.6","0.2","0.8","","","","","0.3863917124","0.05873143133","0.4350726265","0.3720341948","","","","","","","","","","74","J","1","","","177","main_expt","",""
"","bandit","261","887477","0.0-219.0-0.0","09623065","wem/bandit_party_1","AT3C00TKZK13L","either","3","3","","","","","","","1","0","0","0.4243236705","","0.4","0.6","0.2","0.8","","","","","0.3826512014","0.07829718294","0.4029859975","0.4243236705","","","","","","","","","","76","L","3","","","178","main_expt","",""
"","bandit","262","889273","0.0-220.0-0.0","09623065","wem/bandit_party_1","AT3C00TKZK13L","either","3","225","","","","","","","0","0","1","","0.3738585124","0.4","0.6","0.2","0.8","0.3681046487","0.05868413977","0.3738585124","0.4396564102","","","","","","","","","","","","","","75","K","2","","","179","main_expt","",""
"","bandit","263","890869","0.0-221.0-0.0","09623065","wem/bandit_party_1","AT3C00TKZK13L","either","3","3","","","","","","","0","0","1","","0.04540529238","0.4","0.6","0.2","0.8","0.374340785","0.04540529238","0.3884150149","0.4501825932","","","","","","","","","","","","","","74","J","1","","","180","main_expt","",""
"","bandit","264","892654","0.0-222.0-0.0","09623065","wem/bandit_party_1","AT3C00TKZK13L","either","3","239","","","","","","","0","1","0","","0.04810206047","0.4","0.6","0.2","0.8","0.3844034803","0.04810206047","0.3977335033","0.4527537228","","","","","","","","","","","","","","74","J","1","","","181","main_expt","",""
"","bandit","265","894287","0.0-223.0-0.0","09623065","wem/bandit_party_1","AT3C00TKZK13L","either","3","26","","","","","","","1","0","0","0.4733821952","","0.4","0.6","0.2","0.8","","","","","0.3569363444","0.0564969073","0.4194204302","0.4733821952","","","","","","","","","","76","L","3","","","182","main_expt","",""
"","bandit","266","895854","0.0-224.0-0.0","09623065","wem/bandit_party_1","AT3C00TKZK13L","either","3","0","","","","","","","1","0","0","0.3930074682","","0.4","0.6","0.2","0.8","","","","","0.3930074682","0.06674959941","0.4050300101","0.4741352064","","","","","","","","","","72","H","0","img/none_selected.jpg","","183","main_expt","",""
"","bandit","267","897786","0.0-225.0-0.0","09623065","wem/bandit_party_1","AT3C00TKZK13L","either","3","369","","","","","","","0","0","1","","0.4835015011","0.4","0.6","0.2","0.8","0.4105724965","0.05730522946","0.4272992256","0.4835015011","","","","","","","","","","","","","","76","L","3","","","184","main_expt","",""
"","bandit","268","899401","0.0-226.0-0.0","09623065","wem/bandit_party_1","AT3C00TKZK13L","either","3","40","","","","","","","0","0","1","0.0759668512","","0.4","0.6","0.2","0.8","","","","","0.4230276401","0.0759668512","0.4213026748","0.4907566516","","","","","","","","","","74","J","1","","","185","main_expt","",""
"","bandit","269","901220","0.0-227.0-0.0","09623065","wem/bandit_party_1","AT3C00TKZK13L","either","3","252","","","","","","","0","0","1","","0.0736669194","0.4","0.6","0.2","0.8","0.4243078066","0.0736669194","0.3729626057","0.4777100538","","","","","","","","","","","","","","74","J","1","","","186","main_expt","",""
"","bandit","270","902842","0.0-228.0-0.0","09623065","wem/bandit_party_1","AT3C00TKZK13L","either","3","43","","","","","","","1","0","0","0.4751658893","","0.4","0.6","0.2","0.8","","","","","0.419104652","0.1020870739","0.4022080601","0.4751658893","","","","","","","","","","76","L","3","","","187","main_expt","",""
"","bandit","271","904617","0.0-229.0-0.0","09623065","wem/bandit_party_1","AT3C00TKZK13L","either","3","217","","","","","","","0","0","1","0.4711403756","","0.4","0.6","0.2","0.8","","","","","0.3917910895","0.110066606","0.4218987807","0.4711403756","","","","","","","","","","76","L","3","","","188","main_expt","",""
"","bandit","272","906382","0.0-230.0-0.0","09623065","wem/bandit_party_1","AT3C00TKZK13L","either","3","159","","","","","","","0","1","0","","0.4284519853","0.4","0.6","0.2","0.8","0.3696037293","0.1616324423","0.4284519853","0.4848283219","","","","","","","","","","","","","","75","K","2","","","189","main_expt","",""
"","bandit","273","908003","0.0-231.0-0.0","09623065","wem/bandit_party_1","AT3C00TKZK13L","either","3","51","","","","","","","1","0","0","0.1401199573","","0.4","0.6","0.2","0.8","","","","","0.3722688899","0.1401199573","0.4104863902","0.4906713727","","","","","","","","","","74","J","1","","","190","main_expt","",""
"","bandit","274","909586","0.0-232.0-0.0","09623065","wem/bandit_party_1","AT3C00TKZK13L","either","3","10","","","","","","","0","0","1","","0.4944082075","0.4","0.6","0.2","0.8","0.3956575009","0.1782786715","0.4071825693","0.4944082075","","","","","","","","","","","","","","76","L","3","","","191","main_expt","",""
"","bandit","275","911301","0.0-233.0-0.0","09623065","wem/bandit_party_1","AT3C00TKZK13L","either","3","148","","","","","","","1","0","0","0.203517815","","0.4","0.6","0.2","0.8","","","","","0.3843500594","0.203517815","0.4172763132","0.4922337742","","","","","","","","","","74","J","1","","","192","main_expt","",""
"","bandit","276","912918","0.0-234.0-0.0","09623065","wem/bandit_party_1","AT3C00TKZK13L","either","3","51","","","","","","","1","0","0","0.4887356563","","0.4","0.6","0.2","0.8","","","","","0.3801723293","0.172030281","0.3965334946","0.4887356563","","","","","","","","","","76","L","3","","","193","main_expt","",""
"","bandit","277","914652","0.0-235.0-0.0","09623065","wem/bandit_party_1","AT3C00TKZK13L","either","3","166","","","","","","","1","0","0","0.1813301739","","0.4","0.6","0.2","0.8","","","","","0.3871645121","0.1813301739","0.383316574","0.4850955297","","","","","","","","","","74","J","1","","","194","main_expt","",""
"","bandit","278","916401","0.0-236.0-0.0","09623065","wem/bandit_party_1","AT3C00TKZK13L","either","3","188","","","","","","","0","0","1","0.3633903175","","0.4","0.6","0.2","0.8","","","","","0.3633903175","0.2284295163","0.3965345796","0.4848341758","","","","","","","","","","72","H","0","img/none_selected.jpg","","195","main_expt","",""
"","bandit","279","918283","0.0-237.0-0.0","09623065","wem/bandit_party_1","AT3C00TKZK13L","either","3","306","","","","","","","0","0","1","0.490049139","","0.4","0.6","0.2","0.8","","","","","0.3811675741","0.2501246714","0.3978469093","0.490049139","","","","","","","","","","76","L","3","","","196","main_expt","",""
"","bandit","280","920211","0.0-238.0-0.0","09623065","wem/bandit_party_1","AT3C00TKZK13L","either","3","363","","","","","","","0","0","1","0.4912643012","","0.4","0.6","0.2","0.8","","","","","0.3487868089","0.3150809007","0.3172926233","0.4912643012","","","","","","","","","","76","L","3","","","197","main_expt","",""
"","bandit","281","922082","0.0-239.0-0.0","09623065","wem/bandit_party_1","AT3C00TKZK13L","either","3","271","","","","","","","0","0","1","0.4793615714","","0.4","0.6","0.2","0.8","","","","","0.2986771554","0.3442077965","0.3113170709","0.4793615714","","","","","","","","","","76","L","3","","","198","main_expt","",""
"","bandit","282","923849","0.0-240.0-0.0","09623065","wem/bandit_party_1","AT3C00TKZK13L","either","3","191","","","","","","","1","0","0","0.4661622676","","0.4","0.6","0.2","0.8","","","","","0.3481418533","0.3675051223","0.3066116159","0.4661622676","","","","","","","","","","76","L","3","","","199","main_expt","",""
"","bandit","283","925464","0.0-241.0-0.0","09623065","wem/bandit_party_1","AT3C00TKZK13L","either","3","3","","","","","","","1","0","0","0.4479238565","","0.4","0.6","0.2","0.8","","","","","0.353319573","0.3044821291","0.2521122026","0.4479238565","","","","","","","","","","76","L","3","","","200","main_expt","",""
"","bandit","284","927047","0.0-242.0-0.0","09623065","wem/bandit_party_1","AT3C00TKZK13L","either","3","3","","","","","","","0","0","1","0.4429166455","","0.4","0.6","0.2","0.8","","","","","0.3676338631","0.3013824411","0.2679963248","0.4429166455","","","","","","","","","","76","L","3","","","201","main_expt","",""
"","bandit","285","928734","0.0-243.0-0.0","09623065","wem/bandit_party_1","AT3C00TKZK13L","either","3","113","","","","","","","1","0","0","0.442820363","","0.4","0.6","0.2","0.8","","","","","0.311657493","0.3001954661","0.2076546236","0.442820363","","","","","","","","","","76","L","3","","","202","main_expt","",""
"","bandit","286","931199","0.0-244.0-0.0","09623065","wem/bandit_party_1","AT3C00TKZK13L","either","3","882","","","","","","","0","1","0","","0.4539008368","0.4","0.6","0.2","0.8","0.3364041998","0.3189156814","0.1881707852","0.4539008368","","","","","","","","","","","","","","76","L","3","","","203","main_expt","",""
"","bandit","287","932752","0.0-245.0-0.0","09623065","wem/bandit_party_1","AT3C00TKZK13L","either","3","15","","","","","","","0","0","1","0.3162062407","","0.4","0.6","0.2","0.8","","","","","0.3148670147","0.3162062407","0.2057853427","0.4163307037","","","","","","","","","","74","J","1","","","204","main_expt","",""
"","bandit","288","934550","0.0-246.0-0.0","09623065","wem/bandit_party_1","AT3C00TKZK13L","either","3","208","","","","","","","0","0","1","0.4045388199","","0.4","0.6","0.2","0.8","","","","","0.3293187519","0.347278619","0.2564451259","0.4045388199","","","","","","","","","","76","L","3","","","205","main_expt","",""
"","bandit","289","936241","0.0-247.0-0.0","09623065","wem/bandit_party_1","AT3C00TKZK13L","either","3","112","","","","","","","1","0","0","0.4083422121","","0.4","0.6","0.2","0.8","","","","","0.2705077244","0.2970129147","0.3082896296","0.4083422121","","","","","","","","","","76","L","3","","","206","main_expt","",""
"","bandit","290","937984","0.0-248.0-0.0","09623065","wem/bandit_party_1","AT3C00TKZK13L","either","3","138","","","","","","","1","0","0","0.3083591011","","0.4","0.6","0.2","0.8","","","","","0.3083591011","0.3331481178","0.3235103938","0.4033585138","","","","","","","","","","72","H","0","img/none_selected.jpg","","207","main_expt","",""
"","bandit","291","939649","0.0-249.0-0.0","09623065","wem/bandit_party_1","AT3C00TKZK13L","either","3","105","","","","","","","0","0","1","","0.3753320851","0.4","0.6","0.2","0.8","0.2489273718","0.3195917859","0.3563539536","0.3753320851","","","","","","","","","","","","","","76","L","3","","","208","main_expt","",""
"","bandit","292","941304","0.0-250.0-0.0","09623065","wem/bandit_party_1","AT3C00TKZK13L","either","3","84","","","","","","","0","1","0","","0.3821305916","0.4","0.6","0.2","0.8","0.2224321457","0.3642345195","0.3821305916","0.3864970555","","","","","","","","","","","","","","75","K","2","","","209","main_expt","",""
"","bandit","293","942869","0.0-251.0-0.0","09623065","wem/bandit_party_1","AT3C00TKZK13L","either","3","0","","","","","","","0","0","1","0.3518797164","","0.4","0.6","0.2","0.8","","","","","0.2184729634","0.3518797164","0.4067483812","0.3894881908","","","","","","","","","","74","J","1","","","210","main_expt","",""
"","bandit","294","944615","0.0-252.0-0.0","09623065","wem/bandit_party_1","AT3C00TKZK13L","either","3","162","","","","","","","1","0","0","0.4052823736","","0.4","0.6","0.2","0.8","","","","","0.2178464352","0.3781537602","0.376825818","0.4052823736","","","","","","","","","","76","L","3","","","211","main_expt","",""
"","bandit","295","946433","0.0-253.0-0.0","09623065","wem/bandit_party_1","AT3C00TKZK13L","either","3","281","","","","","","","0","0","1","0.3783189977","","0.4","0.6","0.2","0.8","","","","","0.1644702768","0.3773353051","0.3481764155","0.3783189977","","","","","","","","","","76","L","3","","","212","main_expt","",""
"","bandit","296","948153","0.0-254.0-0.0","09623065","wem/bandit_party_1","AT3C00TKZK13L","either","3","145","","","","","","","1","0","0","0.3239198888","","0.4","0.6","0.2","0.8","","","","","0.1271660564","0.3448860985","0.3239198888","0.3804187243","","","","","","","","","","75","K","2","","","213","main_expt","",""
"","bandit","297","949868","0.0-255.0-0.0","09623065","wem/bandit_party_1","AT3C00TKZK13L","either","3","147","","","","","","","0","0","1","0.3622000499","","0.4","0.6","0.2","0.8","","","","","0.1368129038","0.3622000499","0.3592643085","0.3964056757","","","","","","","","","","74","J","1","","","214","main_expt","",""
"","bandit","298","951487","0.0-256.0-0.0","09623065","wem/bandit_party_1","AT3C00TKZK13L","either","3","42","","","","","","","0","0","1","0.07615368859","","0.4","0.6","0.2","0.8","","","","","0.07615368859","0.3408682726","0.3482739819","0.3939862607","","","","","","","","","","72","H","0","img/none_selected.jpg","","215","main_expt","",""
"","bandit","299","953068","0.0-257.0-0.0","09623065","wem/bandit_party_1","AT3C00TKZK13L","either","3","31","","","","","","","0","0","1","0.4062496234","","0.4","0.6","0.2","0.8","","","","","0.07711559412","0.328819006","0.2972527025","0.4062496234","","","","","","","","","","76","L","3","","","216","main_expt","",""
"","bandit","300","954797","0.0-258.0-0.0","09623065","wem/bandit_party_1","AT3C00TKZK13L","either","3","173","","","","","","","0","1","0","","0.3229374792","0.4","0.6","0.2","0.8","0.07728173513","0.3229374792","0.2850944341","0.3440498305","","","","","","","","","","","","","","74","J","1","","","217","main_expt","",""
"","bandit","301","956551","0.0-259.0-0.0","09623065","wem/bandit_party_1","AT3C00TKZK13L","either","3","178","","","","","","","0","0","1","","0.3198020565","0.4","0.6","0.2","0.8","0.07919919155","0.3616220652","0.2483413171","0.3198020565","","","","","","","","","","","","","","76","L","3","","","218","main_expt","",""
"","bandit","302","958177","0.0-260.0-0.0","09623065","wem/bandit_party_1","AT3C00TKZK13L","either","3","44","","","","","","","0","0","1","","0.3591176528","0.4","0.6","0.2","0.8","0.1270410367","0.3591176528","0.2680513607","0.3078290176","","","","","","","","","","","","","","74","J","1","","","219","main_expt","",""
"","bandit","303","959826","0.0-261.0-0.0","09623065","wem/bandit_party_1","AT3C00TKZK13L","either","3","95","","","","","","","0","0","1","","0.2758994579","0.4","0.6","0.2","0.8","0.1117499599","0.2758994579","0.304668496","0.2961895162","","","","","","","","","","","","","","74","J","1","","","220","main_expt","",""
"","bandit","304","961680","0.0-262.0-0.0","09623065","wem/bandit_party_1","AT3C00TKZK13L","either","3","230","","","","","","","0","0","1","","0.2773284289","0.4","0.6","0.2","0.8","0.1186324211","0.3119987931","0.2773284289","0.2658603678","","","","","","","","","","","","","","75","K","2","","","221","main_expt","",""
"","bandit","305","963579","0.0-263.0-0.0","09623065","wem/bandit_party_1","AT3C00TKZK13L","either","3","323","","","","","","","1","0","0","0.1141050397","","0.4","0.6","0.2","0.8","","","","","0.1141050397","0.3106374463","0.2152506718","0.274695037","","","","","","","","","","72","H","0","img/none_selected.jpg","","222","main_expt","",""
"","bandit","306","965294","0.0-264.0-0.0","09623065","wem/bandit_party_1","AT3C00TKZK13L","either","3","144","","","","","","","0","0","1","0.2210940289","","0.4","0.6","0.2","0.8","","","","","0.1007228699","0.3131570504","0.2445797097","0.2210940289","","","","","","","","","","76","L","3","","","223","main_expt","",""
"","bandit","307","967008","0.0-265.0-0.0","09623065","wem/bandit_party_1","AT3C00TKZK13L","either","3","157","","","","","","","1","0","0","0.3025994915","","0.4","0.6","0.2","0.8","","","","","0.1380584308","0.3025994915","0.2559263424","0.1843933297","","","","","","","","","","74","J","1","","","224","main_expt","",""
"","bandit","308","968877","0.0-266.0-0.0","09623065","wem/bandit_party_1","AT3C00TKZK13L","either","3","289","","","","","","","0","0","1","0.212211923","","0.4","0.6","0.2","0.8","","","","","0.1393521225","0.2994132709","0.2702522324","0.212211923","","","","","","","","","","76","L","3","","","225","main_expt","",""
"","bandit","309","970674","0.0-267.0-0.0","09623065","wem/bandit_party_1","AT3C00TKZK13L","either","3","224","","","","","","","0","0","1","0.2646860425","","0.4","0.6","0.2","0.8","","","","","0.2094269877","0.2866794375","0.2646860425","0.2315036379","","","","","","","","","","75","K","2","","","226","main_expt","",""
"","bandit","310","972548","0.0-268.0-0.0","09623065","wem/bandit_party_1","AT3C00TKZK13L","either","3","305","","","","","","","0","1","0","","0.2959232149","0.4","0.6","0.2","0.8","0.2959232149","0.2299222882","0.269556559","0.2646353212","","","","","","","","","","","","","","72","H","0","img/none_selected.jpg","","227","main_expt","",""
"","bandit","311","974161","0.0-269.0-0.0","09623065","wem/bandit_party_1","AT3C00TKZK13L","either","3","41","","","","","","","0","0","1","0.2443517867","","0.4","0.6","0.2","0.8","","","","","0.374355758","0.2991813551","0.2498152532","0.2443517867","","","","","","","","","","76","L","3","","","228","main_expt","",""
"","bandit","312","975974","0.0-270.0-0.0","09623065","wem/bandit_party_1","AT3C00TKZK13L","either","3","239","","","","","","","1","0","0","0.3295538921","","0.4","0.6","0.2","0.8","","","","","0.3876740502","0.3295538921","0.2495566458","0.2569692975","","","","","","","","","","74","J","1","","","229","main_expt","",""
"","bandit","313","977564","0.0-271.0-0.0","09623065","wem/bandit_party_1","AT3C00TKZK13L","either","3","4","","","","","","","0","0","1","0.2490290172","","0.4","0.6","0.2","0.8","","","","","0.3341674595","0.2713593359","0.2134382902","0.2490290172","","","","","","","","","","76","L","3","","","230","main_expt","",""
"","bandit","314","979460","0.0-272.0-0.0","09623065","wem/bandit_party_1","AT3C00TKZK13L","either","3","295","","","","","","","0","0","1","0.2099205747","","0.4","0.6","0.2","0.8","","","","","0.3558281537","0.2746975787","0.2099205747","0.2368643707","","","","","","","","","","75","K","2","","","231","main_expt","",""
"","bandit","315","981174","0.0-273.0-0.0","09623065","wem/bandit_party_1","AT3C00TKZK13L","either","3","157","","","","","","","0","1","0","","0.2857324616","0.4","0.6","0.2","0.8","0.3293076861","0.2817934899","0.1598609145","0.2857324616","","","","","","","","","","","","","","76","L","3","","","232","main_expt","",""
"","bandit","316","982959","0.0-274.0-0.0","09623065","wem/bandit_party_1","AT3C00TKZK13L","either","3","213","","","","","","","0","0","1","","0.226619475","0.4","0.6","0.2","0.8","0.3271309306","0.3139736629","0.1472569172","0.226619475","","","","","","","","","","","","","","76","L","3","","","233","main_expt","",""
