"consent","trial_type","trial_index","time_elapsed","internal_node_id","subjID","study","MID","cond","drift","rt","responses","button_pressed","key_press","like","value","connected","gems","bombs","no_reward","GemPrChosen","BombPrChosen","GainOverPainPr_0","GainOverPainPr_1","GainOverPainPr_2","GainOverPainPr_3","LosePr_0","LosePr_1","LosePr_2","LosePr_3","WinPr_0","WinPr_1","WinPr_2","WinPr_3","Q0","Q1","Q2","gender","age","ethnicity","label","expt_phase","target","respCharCode","respKey","respChoiceNum","respChoice","practice","trial_counter","trial_label","Q0_index"
"GDM/GDM_behavioral_consent_30min_online.html","consent","0","44357","0.0-0.0","10925448","wem/bandit_party_1","A10O5YR01H865K","either","7","","","","","","","","","","","","","","","","","","","","","","","","","","","","","","","","","","","","","","","","",""
"","survey-text","1","49934","0.0-1.0","10925448","wem/bandit_party_1","A10O5YR01H865K","either","7","4571","{""Q0"":""A10O5YR01H865K""}","","","","","","","","","","","","","","","","","","","","","","","","","","","","","","","","","","","","","","",""
"","button-response","2","52685","0.0-2.0","10925448","wem/bandit_party_1","A10O5YR01H865K","either","7","1748","","1","","","","","","","","","","","","","","","","","","","","","","","","","","","","","","","","","","","","","",""
"","text-replacement","3","66380","0.0-3.0","10925448","wem/bandit_party_1","A10O5YR01H865K","either","7","12693","","","32","","","","","","","","","","","","","","","","","","","","","","","","","","","","","","","","","","","","",""
"","text-replacement","4","77203","0.0-4.0","10925448","wem/bandit_party_1","A10O5YR01H865K","either","7","10822","","","32","","","","","","","","","","","","","","","","","","","","","","","","","","","","","","","","","","","","",""
"","identification","5","86768","0.0-6.0-0.0","10925448","wem/bandit_party_1","A10O5YR01H865K","either","7","9555","","","","1","1","0","","","","","","","","","","","","","","","","","","","","","","","","pre","identification_pre","the Republican party","","","","","","","",""
"","identification","6","98632","0.0-6.0-1.0","10925448","wem/bandit_party_1","A10O5YR01H865K","either","7","10854","","","","4","4","2","","","","","","","","","","","","","","","","","","","","","","","","pre","identification_pre","the Democratic Party","","","","","","","",""
"","text-replacement","7","107100","0.0-7.0","10925448","wem/bandit_party_1","A10O5YR01H865K","either","7","7466","","","32","","","","","","","","","","","","","","","","","","","","","","","","","","","","","","","","","","","","",""
"","text-replacement","8","115667","0.0-8.0","10925448","wem/bandit_party_1","A10O5YR01H865K","either","7","8566","","","32","","","","","","","","","","","","","","","","","","","","","","","","","","","","","","","","","","","","",""
"","text-replacement","9","125412","0.0-9.0","10925448","wem/bandit_party_1","A10O5YR01H865K","either","7","9744","","","32","","","","","","","","","","","","","","","","","","","","","","","","","","","","","","","","","","","","",""
"","text-replacement","10","128892","0.0-10.0","10925448","wem/bandit_party_1","A10O5YR01H865K","either","7","3479","","","32","","","","","","","","","","","","","","","","","","","","","","","","","","","","","","","","","","","","",""
"","text-replacement","11","135131","0.0-11.0","10925448","wem/bandit_party_1","A10O5YR01H865K","either","7","6239","","","32","","","","","","","","","","","","","","","","","","","","","","","","","","","","","","","","","","","","",""
"","bandit","12","139563","0.0-12.0-0.0","10925448","wem/bandit_party_1","A10O5YR01H865K","either","7","2927","","","","","","","0","0","1","0","0","","","","","0","","","","0","","","","","","","","","","","","","74","J","0","img/none_selected_demo.jpg","true","0","",""
"","bandit","13","143458","0.0-13.0-0.0","10925448","wem/bandit_party_1","A10O5YR01H865K","either","7","2390","","","","","","","0","0","1","0","0","","","","","0","","","","0","","","","","","","","","","","","","75","K","0","img/none_selected_demo.jpg","true","0","",""
"","text-replacement","14","147899","0.0-14.0","10925448","wem/bandit_party_1","A10O5YR01H865K","either","7","4440","","","32","","","","","","","","","","","","","","","","","","","","","","","","","","","","","","","","","","","","",""
"","text-replacement","15","162084","0.0-15.0","10925448","wem/bandit_party_1","A10O5YR01H865K","either","7","14184","","","32","","","","","","","","","","","","","","","","","","","","","","","","","","","","","","","","","","","","",""
"","text-replacement","16","169531","0.0-16.0","10925448","wem/bandit_party_1","A10O5YR01H865K","either","7","7446","","","32","","","","","","","","","","","","","","","","","","","","","","","","","","","","","","","","","","","","",""
"","text-replacement","17","174933","0.0-17.0","10925448","wem/bandit_party_1","A10O5YR01H865K","either","7","5400","","","32","","","","","","","","","","","","","","","","","","","","","","","","","","","","","","","","","","","","",""
"","bandit","18","178602","0.0-18.0-0.0","10925448","wem/bandit_party_1","A10O5YR01H865K","either","7","2165","","","","","","","1","0","0","0.8","","0.5","0.5","","","","","","","0.8","0.2","","","","","","","","","","","","74","J","0","img/none_selected_demo.jpg","true","0","80_20_practice",""
"","bandit","19","180410","0.0-18.0-1.0","10925448","wem/bandit_party_1","A10O5YR01H865K","either","7","304","","","","","","","0","1","0","","0.8","0.5","0.5","","","0.8","0.2","","","","","","","","","","","","","","","","74","J","0","img/none_selected_demo.jpg","true","0","80_20_practice",""
"","bandit","20","182210","0.0-18.0-2.0","10925448","wem/bandit_party_1","A10O5YR01H865K","either","7","296","","","","","","","1","0","0","0.8","","0.5","0.5","","","","","","","0.8","0.2","","","","","","","","","","","","74","J","0","img/none_selected_demo.jpg","true","0","80_20_practice",""
"","bandit","21","183833","0.0-18.0-3.0","10925448","wem/bandit_party_1","A10O5YR01H865K","either","7","120","","","","","","","1","0","0","0.8","","0.5","0.5","","","","","","","0.8","0.2","","","","","","","","","","","","74","J","0","img/none_selected_demo.jpg","true","0","80_20_practice",""
"","bandit","22","185481","0.0-18.0-4.0","10925448","wem/bandit_party_1","A10O5YR01H865K","either","7","145","","","","","","","0","0","1","0.2","","0.5","0.5","","","","","","","0.8","0.2","","","","","","","","","","","","75","K","1","","true","0","80_20_practice",""
"","bandit","23","187258","0.0-18.0-5.0","10925448","wem/bandit_party_1","A10O5YR01H865K","either","7","273","","","","","","","0","0","1","","0.2","0.5","0.5","","","0.8","0.2","","","","","","","","","","","","","","","","75","K","1","","true","0","80_20_practice",""
"","bandit","24","188890","0.0-18.0-6.0","10925448","wem/bandit_party_1","A10O5YR01H865K","either","7","128","","","","","","","1","0","0","0.8","","0.5","0.5","","","","","","","0.8","0.2","","","","","","","","","","","","74","J","0","img/none_selected_demo.jpg","true","0","80_20_practice",""
"","bandit","25","190393","0.0-18.0-7.0","10925448","wem/bandit_party_1","A10O5YR01H865K","either","7","0","","","","","","","0","0","1","0.8","","0.5","0.5","","","","","","","0.8","0.2","","","","","","","","","","","","74","J","0","img/none_selected_demo.jpg","true","0","80_20_practice",""
"","bandit","26","191977","0.0-18.0-8.0","10925448","wem/bandit_party_1","A10O5YR01H865K","either","7","79","","","","","","","1","0","0","0.8","","0.5","0.5","","","","","","","0.8","0.2","","","","","","","","","","","","74","J","0","img/none_selected_demo.jpg","true","0","80_20_practice",""
"","bandit","27","193753","0.0-18.0-9.0","10925448","wem/bandit_party_1","A10O5YR01H865K","either","7","272","","","","","","","0","0","1","0.8","","0.5","0.5","","","","","","","0.8","0.2","","","","","","","","","","","","74","J","0","img/none_selected_demo.jpg","true","0","80_20_practice",""
"","bandit","28","195369","0.0-18.0-10.0","10925448","wem/bandit_party_1","A10O5YR01H865K","either","7","112","","","","","","","0","0","1","0.8","","0.5","0.5","","","","","","","0.8","0.2","","","","","","","","","","","","74","J","0","img/none_selected_demo.jpg","true","0","80_20_practice",""
"","bandit","29","196969","0.0-18.0-11.0","10925448","wem/bandit_party_1","A10O5YR01H865K","either","7","95","","","","","","","0","1","0","","0.8","0.5","0.5","","","0.8","0.2","","","","","","","","","","","","","","","","74","J","0","img/none_selected_demo.jpg","true","0","80_20_practice",""
"","bandit","30","198552","0.0-18.0-12.0","10925448","wem/bandit_party_1","A10O5YR01H865K","either","7","80","","","","","","","0","1","0","","0.8","0.5","0.5","","","0.8","0.2","","","","","","","","","","","","","","","","74","J","0","img/none_selected_demo.jpg","true","0","80_20_practice",""
"","bandit","31","200112","0.0-18.0-13.0","10925448","wem/bandit_party_1","A10O5YR01H865K","either","7","57","","","","","","","1","0","0","0.8","","0.5","0.5","","","","","","","0.8","0.2","","","","","","","","","","","","74","J","0","img/none_selected_demo.jpg","true","0","80_20_practice",""
"","bandit","32","201880","0.0-18.0-14.0","10925448","wem/bandit_party_1","A10O5YR01H865K","either","7","264","","","","","","","1","0","0","0.8","","0.5","0.5","","","","","","","0.8","0.2","","","","","","","","","","","","74","J","0","img/none_selected_demo.jpg","true","0","80_20_practice",""
"","bandit","33","203448","0.0-18.0-15.0","10925448","wem/bandit_party_1","A10O5YR01H865K","either","7","64","","","","","","","1","0","0","0.8","","0.5","0.5","","","","","","","0.8","0.2","","","","","","","","","","","","74","J","0","img/none_selected_demo.jpg","true","0","80_20_practice",""
"","bandit","34","205304","0.0-18.0-16.0","10925448","wem/bandit_party_1","A10O5YR01H865K","either","7","352","","","","","","","0","1","0","","0.8","0.5","0.5","","","0.8","0.2","","","","","","","","","","","","","","","","74","J","0","img/none_selected_demo.jpg","true","0","80_20_practice",""
"","bandit","35","207185","0.0-18.0-17.0","10925448","wem/bandit_party_1","A10O5YR01H865K","either","7","377","","","","","","","0","1","0","","0.8","0.5","0.5","","","0.8","0.2","","","","","","","","","","","","","","","","74","J","0","img/none_selected_demo.jpg","true","0","80_20_practice",""
"","bandit","36","208913","0.0-18.0-18.0","10925448","wem/bandit_party_1","A10O5YR01H865K","either","7","224","","","","","","","1","0","0","0.8","","0.5","0.5","","","","","","","0.8","0.2","","","","","","","","","","","","74","J","0","img/none_selected_demo.jpg","true","0","80_20_practice",""
"","bandit","37","210449","0.0-18.0-19.0","10925448","wem/bandit_party_1","A10O5YR01H865K","either","7","31","","","","","","","0","1","0","","0.8","0.5","0.5","","","0.8","0.2","","","","","","","","","","","","","","","","74","J","0","img/none_selected_demo.jpg","true","0","80_20_practice",""
"","text-replacement","38","269531","0.0-19.0","10925448","wem/bandit_party_1","A10O5YR01H865K","either","7","59081","","","32","","","","","","","","","","","","","","","","","","","","","","","","","","","","","","","","","","","","",""
"","bandit","39","272953","0.0-20.0-0.0","10925448","wem/bandit_party_1","A10O5YR01H865K","either","7","1917","","","","","","","1","0","0","1","0","","","","","0","1","","","1","0","","","","","","","","","","","","74","J","0","img/none_selected_demo.jpg","true","0","",""
"","text-replacement","40","280676","0.0-21.0","10925448","wem/bandit_party_1","A10O5YR01H865K","either","7","7722","","","74","","","","","","","","","","","","","","","","","","","","","","","","","","","","","","","","","","","","",""
"","text-replacement","41","303524","0.0-22.0","10925448","wem/bandit_party_1","A10O5YR01H865K","either","7","22847","","","32","","","","","","","","","","","","","","","","","","","","","","","","","","","","","","","","","","","","",""
"","text-replacement","42","306787","0.0-23.0","10925448","wem/bandit_party_1","A10O5YR01H865K","either","7","3262","","","32","","","","","","","","","","","","","","","","","","","","","","","","","","","","","","","","","","","","",""
"","text-replacement","43","311452","0.0-24.0","10925448","wem/bandit_party_1","A10O5YR01H865K","either","7","4664","","","32","","","","","","","","","","","","","","","","","","","","","","","","","","","","","","","","","","","","",""
"","text-replacement","44","317172","0.0-25.0","10925448","wem/bandit_party_1","A10O5YR01H865K","either","7","5719","","","32","","","","","","","","","","","","","","","","","","","","","","","","","","","","","","","","","","","","",""
"","text-replacement","45","319660","0.0-26.0","10925448","wem/bandit_party_1","A10O5YR01H865K","either","7","2487","","","32","","","","","","","","","","","","","","","","","","","","","","","","","","","","","","","","","","","","",""
"","text-replacement","46","321411","0.0-27.0","10925448","wem/bandit_party_1","A10O5YR01H865K","either","7","1750","","","32","","","","","","","","","","","","","","","","","","","","","","","","","","","","","","","","","","","","",""
"","text-replacement","47","331164","0.0-28.0","10925448","wem/bandit_party_1","A10O5YR01H865K","either","7","9751","","","32","","","","","","","","","","","","","","","","","","","","","","","","","","","","","","","","","","","","",""
"","text-replacement","48","348588","0.0-29.0","10925448","wem/bandit_party_1","A10O5YR01H865K","either","7","17423","","","32","","","","","","","","","","","","","","","","","","","","","","","","","","","","","","","","","","","","",""
"","text-replacement","49","351491","0.0-30.0","10925448","wem/bandit_party_1","A10O5YR01H865K","either","7","2902","","","32","","","","","","","","","","","","","","","","","","","","","","","","","","","","","","","","","","","","",""
"","text-replacement","50","355250","0.0-31.0","10925448","wem/bandit_party_1","A10O5YR01H865K","either","7","3759","","","32","","","","","","","","","","","","","","","","","","","","","","","","","","","","","","","","","","","","",""
"","bandit","51","357208","0.0-32.0-0.0","10925448","wem/bandit_party_1","A10O5YR01H865K","either","7","454","","","","","","","0","0","1","","0.8","0.5","0.5","0.5","0.5","0.8","0.2","0.6","0.2","","","","","","","","","","","","","","72","H","0","img/none_selected.jpg","true","0","full_practice",""
"","bandit","52","359112","0.0-32.0-1.0","10925448","wem/bandit_party_1","A10O5YR01H865K","either","7","400","","","","","","","0","0","1","0.8","","0.5","0.5","0.5","0.5","","","","","0.8","0.2","0.6","0.2","","","","","","","","","","72","H","0","img/none_selected.jpg","true","0","full_practice",""
"","bandit","53","360769","0.0-32.0-2.0","10925448","wem/bandit_party_1","A10O5YR01H865K","either","7","153","","","","","","","0","0","1","0.2","","0.5","0.5","0.5","0.5","","","","","0.8","0.2","0.6","0.2","","","","","","","","","","74","J","1","","true","0","full_practice",""
"","bandit","54","362472","0.0-32.0-3.0","10925448","wem/bandit_party_1","A10O5YR01H865K","either","7","199","","","","","","","0","0","1","0.2","","0.5","0.5","0.5","0.5","","","","","0.8","0.2","0.6","0.2","","","","","","","","","","74","J","1","","true","0","full_practice",""
"","bandit","55","364097","0.0-32.0-4.0","10925448","wem/bandit_party_1","A10O5YR01H865K","either","7","120","","","","","","","1","0","0","0.6","","0.5","0.5","0.5","0.5","","","","","0.8","0.2","0.6","0.2","","","","","","","","","","75","K","2","","true","0","full_practice",""
"","bandit","56","365857","0.0-32.0-5.0","10925448","wem/bandit_party_1","A10O5YR01H865K","either","7","256","","","","","","","0","0","1","0.6","","0.5","0.5","0.5","0.5","","","","","0.8","0.2","0.6","0.2","","","","","","","","","","75","K","2","","true","0","full_practice",""
"","bandit","57","367513","0.0-32.0-6.0","10925448","wem/bandit_party_1","A10O5YR01H865K","either","7","151","","","","","","","0","0","1","0.6","","0.5","0.5","0.5","0.5","","","","","0.8","0.2","0.6","0.2","","","","","","","","","","75","K","2","","true","0","full_practice",""
"","bandit","58","369097","0.0-32.0-7.0","10925448","wem/bandit_party_1","A10O5YR01H865K","either","7","79","","","","","","","0","0","1","0.2","","0.5","0.5","0.5","0.5","","","","","0.8","0.2","0.6","0.2","","","","","","","","","","76","L","3","","true","0","full_practice",""
"","bandit","59","370857","0.0-32.0-8.0","10925448","wem/bandit_party_1","A10O5YR01H865K","either","7","256","","","","","","","0","0","1","","0.2","0.5","0.5","0.5","0.5","0.8","0.2","0.6","0.2","","","","","","","","","","","","","","76","L","3","","true","0","full_practice",""
"","bandit","60","372440","0.0-32.0-9.0","10925448","wem/bandit_party_1","A10O5YR01H865K","either","7","79","","","","","","","0","0","1","0.6","","0.5","0.5","0.5","0.5","","","","","0.8","0.2","0.6","0.2","","","","","","","","","","75","K","2","","true","0","full_practice",""
"","bandit","61","374192","0.0-32.0-10.0","10925448","wem/bandit_party_1","A10O5YR01H865K","either","7","248","","","","","","","0","1","0","","0.6","0.5","0.5","0.5","0.5","0.8","0.2","0.6","0.2","","","","","","","","","","","","","","75","K","2","","true","0","full_practice",""
"","bandit","62","375856","0.0-32.0-11.0","10925448","wem/bandit_party_1","A10O5YR01H865K","either","7","160","","","","","","","1","0","0","0.6","","0.5","0.5","0.5","0.5","","","","","0.8","0.2","0.6","0.2","","","","","","","","","","75","K","2","","true","0","full_practice",""
"","bandit","63","377496","0.0-32.0-12.0","10925448","wem/bandit_party_1","A10O5YR01H865K","either","7","136","","","","","","","1","0","0","0.6","","0.5","0.5","0.5","0.5","","","","","0.8","0.2","0.6","0.2","","","","","","","","","","75","K","2","","true","0","full_practice",""
"","bandit","64","379152","0.0-32.0-13.0","10925448","wem/bandit_party_1","A10O5YR01H865K","either","7","152","","","","","","","0","1","0","","0.6","0.5","0.5","0.5","0.5","0.8","0.2","0.6","0.2","","","","","","","","","","","","","","75","K","2","","true","0","full_practice",""
"","bandit","65","380890","0.0-32.0-14.0","10925448","wem/bandit_party_1","A10O5YR01H865K","either","7","233","","","","","","","0","0","1","","0.6","0.5","0.5","0.5","0.5","0.8","0.2","0.6","0.2","","","","","","","","","","","","","","75","K","2","","true","0","full_practice",""
"","bandit","66","382489","0.0-32.0-15.0","10925448","wem/bandit_party_1","A10O5YR01H865K","either","7","95","","","","","","","0","0","1","","0.6","0.5","0.5","0.5","0.5","0.8","0.2","0.6","0.2","","","","","","","","","","","","","","75","K","2","","true","0","full_practice",""
"","bandit","67","384025","0.0-32.0-16.0","10925448","wem/bandit_party_1","A10O5YR01H865K","either","7","30","","","","","","","0","0","1","","0.2","0.5","0.5","0.5","0.5","0.8","0.2","0.6","0.2","","","","","","","","","","","","","","74","J","1","","true","0","full_practice",""
"","bandit","68","385721","0.0-32.0-17.0","10925448","wem/bandit_party_1","A10O5YR01H865K","either","7","191","","","","","","","1","0","0","0.2","","0.5","0.5","0.5","0.5","","","","","0.8","0.2","0.6","0.2","","","","","","","","","","74","J","1","","true","0","full_practice",""
"","bandit","69","387401","0.0-32.0-18.0","10925448","wem/bandit_party_1","A10O5YR01H865K","either","7","174","","","","","","","0","1","0","","0.2","0.5","0.5","0.5","0.5","0.8","0.2","0.6","0.2","","","","","","","","","","","","","","74","J","1","","true","0","full_practice",""
"","bandit","70","389041","0.0-32.0-19.0","10925448","wem/bandit_party_1","A10O5YR01H865K","either","7","135","","","","","","","0","0","1","0.2","","0.5","0.5","0.5","0.5","","","","","0.8","0.2","0.6","0.2","","","","","","","","","","74","J","1","","true","0","full_practice",""
"","text","71","396300","0.0-33.0","10925448","wem/bandit_party_1","A10O5YR01H865K","either","7","7252","","","32","","","","","","","","","","","","","","","","","","","","","","","","","","","","","","","","","","","","",""
"","text-replacement","72","413356","0.0-34.0","10925448","wem/bandit_party_1","A10O5YR01H865K","either","7","16053","","","32","","","","","","","","","","","","","","","","","","","","","","","","","","","","","","","","","","","","",""
"","text-replacement","73","425916","0.0-35.0","10925448","wem/bandit_party_1","A10O5YR01H865K","either","7","12559","","","32","","","","","","","","","","","","","","","","","","","","","","","","","","","","","","","","","","","","",""
"","text-replacement","74","430907","0.0-36.0","10925448","wem/bandit_party_1","A10O5YR01H865K","either","7","4990","","","32","","","","","","","","","","","","","","","","","","","","","","","","","","","","","","","","","","","","",""
"","text-replacement","75","444212","0.0-37.0","10925448","wem/bandit_party_1","A10O5YR01H865K","either","7","13303","","","32","","","","","","","","","","","","","","","","","","","","","","","","","","","","","","","","","","","","",""
"","text-replacement","76","447931","0.0-38.0","10925448","wem/bandit_party_1","A10O5YR01H865K","either","7","3718","","","32","","","","","","","","","","","","","","","","","","","","","","","","","","","","","","","","","","","","",""
"","survey-multi-choice-replacement","77","451940","0.0-39.0-0.0","10925448","wem/bandit_party_1","A10O5YR01H865K","either","7","4003","","","","","","","","","","","","","","","","","","","","","","","","Money will be added to the pool for <span style='color:blue;'>DEMOCRATS</span>","","","","","","","attn_check","","","","","","","","","0"
"","survey-multi-choice-replacement","78","457221","0.0-40.0-0.0","10925448","wem/bandit_party_1","A10O5YR01H865K","either","7","4274","","","","","","","","","","","","","","","","","","","","","","","","Equal amounts of money will be added to the pool for <span style='color:blue;'>DEMOCRATS</span> and subtracted from the pool for <span style='color:red;'>REPUBLICANS</span>","","","","","","","attn_check","","","","","","","","","2"
"","survey-multi-choice-replacement","79","460871","0.0-41.0-0.0","10925448","wem/bandit_party_1","A10O5YR01H865K","either","7","2644","","","","","","","","","","","","","","","","","","","","","","","","No money will be added to either pool","","","","","","","attn_check","","","","","","","","","3"
"","bandit","80","476401","0.0-42.0-0.0","10925448","wem/bandit_party_1","A10O5YR01H865K","either","7","13023","","","","","","","0","0","1","0.1952616071","","0.8","0.6","0.2","0.4","","","","","0.1952616071","0.06530018083","0.1480066451","0.01738065524","","","","","","","","","","72","H","0","img/none_selected.jpg","","1","main_expt",""
"","bandit","81","478617","0.0-43.0-0.0","10925448","wem/bandit_party_1","A10O5YR01H865K","either","7","711","","","","","","","1","0","0","0.1652234336","","0.8","0.6","0.2","0.4","","","","","0.1652234336","0.1011701763","0.1053714073","0.0196943787","","","","","","","","","","72","H","0","img/none_selected.jpg","","2","main_expt",""
"","bandit","82","481448","0.0-44.0-0.0","10925448","wem/bandit_party_1","A10O5YR01H865K","either","7","1327","","","","","","","1","0","0","0.1347382479","","0.8","0.6","0.2","0.4","","","","","0.1347382479","0.09486719381","0.1460078221","0.01678573497","","","","","","","","","","72","H","0","img/none_selected.jpg","","3","main_expt",""
"","bandit","83","483320","0.0-45.0-0.0","10925448","wem/bandit_party_1","A10O5YR01H865K","either","7","368","","","","","","","0","0","1","0.1684625442","","0.8","0.6","0.2","0.4","","","","","0.1684625442","0.06705802814","0.1866138214","0.02981965743","","","","","","","","","","72","H","0","img/none_selected.jpg","","4","main_expt",""
"","bandit","84","485128","0.0-46.0-0.0","10925448","wem/bandit_party_1","A10O5YR01H865K","either","7","304","","","","","","","0","0","1","0.0822298525","","0.8","0.6","0.2","0.4","","","","","0.1792029032","0.0822298525","0.2445348717","0.02600208211","","","","","","","","","","74","J","1","","","5","main_expt",""
"","bandit","85","487762","0.0-47.0-0.0","10925448","wem/bandit_party_1","A10O5YR01H865K","either","7","1129","","","","","","","0","0","1","","0.09162209411","0.8","0.6","0.2","0.4","0.2153873139","0.09162209411","0.2546962146","0.02332436933","","","","","","","","","","","","","","74","J","1","","","6","main_expt",""
"","bandit","86","490961","0.0-48.0-0.0","10925448","wem/bandit_party_1","A10O5YR01H865K","either","7","1694","","","","","","","0","0","1","0.1028820098","","0.8","0.6","0.2","0.4","","","","","0.1757762721","0.1028820098","0.2344841702","0.02864040813","","","","","","","","","","74","J","1","","","7","main_expt",""
"","bandit","87","493025","0.0-49.0-0.0","10925448","wem/bandit_party_1","A10O5YR01H865K","either","7","559","","","","","","","0","0","1","","0.2473344203","0.8","0.6","0.2","0.4","0.2241229746","0.1532270122","0.2473344203","0.02951264166","","","","","","","","","","","","","","75","K","2","","","8","main_expt",""
"","bandit","88","494881","0.0-50.0-0.0","10925448","wem/bandit_party_1","A10O5YR01H865K","either","7","351","","","","","","","0","0","1","","0.2642160399","0.8","0.6","0.2","0.4","0.2199426203","0.2131450397","0.2642160399","0.02997011939","","","","","","","","","","","","","","75","K","2","","","9","main_expt",""
"","bandit","89","497993","0.0-51.0-0.0","10925448","wem/bandit_party_1","A10O5YR01H865K","either","7","1606","","","","","","","0","0","1","","0.2104627424","0.8","0.6","0.2","0.4","0.1520686932","0.2985754635","0.2104627424","0.02489651457","","","","","","","","","","","","","","75","K","2","","","10","main_expt",""
"","bandit","90","500384","0.0-52.0-0.0","10925448","wem/bandit_party_1","A10O5YR01H865K","either","7","887","","","","","","","1","0","0","0.01651058827","","0.8","0.6","0.2","0.4","","","","","0.2013349999","0.2924640086","0.219372878","0.01651058827","","","","","","","","","","76","L","3","","","11","main_expt",""
"","bandit","91","502920","0.0-53.0-0.0","10925448","wem/bandit_party_1","A10O5YR01H865K","either","7","1032","","","","","","","0","0","1","","0.02341729431","0.8","0.6","0.2","0.4","0.2156800105","0.3264291113","0.2105839871","0.02341729431","","","","","","","","","","","","","","76","L","3","","","12","main_expt",""
"","bandit","92","505057","0.0-54.0-0.0","10925448","wem/bandit_party_1","A10O5YR01H865K","either","7","633","","","","","","","0","0","1","","0.0257410372","0.8","0.6","0.2","0.4","0.1833947696","0.3254913314","0.2511698571","0.0257410372","","","","","","","","","","","","","","76","L","3","","","13","main_expt",""
"","bandit","93","509785","0.0-55.0-0.0","10925448","wem/bandit_party_1","A10O5YR01H865K","either","7","3224","","","","","","","0","0","1","0.02570014082","","0.8","0.6","0.2","0.4","","","","","0.243643366","0.3428504842","0.2158977649","0.02570014082","","","","","","","","","","76","L","3","","","14","main_expt",""
"","bandit","94","511673","0.0-56.0-0.0","10925448","wem/bandit_party_1","A10O5YR01H865K","either","7","383","","","","","","","0","0","1","","0.04268316416","0.8","0.6","0.2","0.4","0.2265365198","0.3244047679","0.2762480727","0.04268316416","","","","","","","","","","","","","","76","L","3","","","15","main_expt",""
"","bandit","95","513560","0.0-57.0-0.0","10925448","wem/bandit_party_1","A10O5YR01H865K","either","7","383","","","","","","","0","0","1","0.2484951132","","0.8","0.6","0.2","0.4","","","","","0.2484951132","0.3025313629","0.3202890724","0.04667408308","","","","","","","","","","72","H","0","img/none_selected.jpg","","16","main_expt",""
"","bandit","96","515376","0.0-58.0-0.0","10925448","wem/bandit_party_1","A10O5YR01H865K","either","7","312","","","","","","","1","0","0","0.2570267238","","0.8","0.6","0.2","0.4","","","","","0.2570267238","0.3291216938","0.3680552247","0.0506688767","","","","","","","","","","72","H","0","img/none_selected.jpg","","17","main_expt",""
"","bandit","97","518529","0.0-59.0-0.0","10925448","wem/bandit_party_1","A10O5YR01H865K","either","7","1648","","","","","","","0","0","1","","0.287418789","0.8","0.6","0.2","0.4","0.287418789","0.2987881532","0.3968593921","0.02988526167","","","","","","","","","","","","","","72","H","0","img/none_selected.jpg","","18","main_expt",""
"","bandit","98","520370","0.0-60.0-0.0","10925448","wem/bandit_party_1","A10O5YR01H865K","either","7","336","","","","","","","0","0","1","0.2338710899","","0.8","0.6","0.2","0.4","","","","","0.2338710899","0.281207523","0.4192996399","0.03476350355","","","","","","","","","","72","H","0","img/none_selected.jpg","","19","main_expt",""
"","bandit","99","522778","0.0-61.0-0.0","10925448","wem/bandit_party_1","A10O5YR01H865K","either","7","904","","","","","","","1","0","0","0.2335293464","","0.8","0.6","0.2","0.4","","","","","0.2335293464","0.291129981","0.4362768361","0.0233687216","","","","","","","","","","72","H","0","img/none_selected.jpg","","20","main_expt",""
"","bandit","100","524778","0.0-62.0-0.0","10925448","wem/bandit_party_1","A10O5YR01H865K","either","7","495","","","","","","","0","0","1","0.2434826965","","0.8","0.6","0.2","0.4","","","","","0.2434826965","0.2729578326","0.4599691003","0.01272547494","","","","","","","","","","72","H","0","img/none_selected.jpg","","21","main_expt",""
"","bandit","101","527026","0.0-63.0-0.0","10925448","wem/bandit_party_1","A10O5YR01H865K","either","7","743","","","","","","","0","0","1","0.2702300591","","0.8","0.6","0.2","0.4","","","","","0.2702300591","0.2805141014","0.44353765","0.01739491555","","","","","","","","","","72","H","0","img/none_selected.jpg","","22","main_expt",""
"","bandit","102","528858","0.0-64.0-0.0","10925448","wem/bandit_party_1","A10O5YR01H865K","either","7","327","","","","","","","0","0","1","0.2424740502","","0.8","0.6","0.2","0.4","","","","","0.2424740502","0.3016389313","0.4105594395","0.006692102231","","","","","","","","","","72","H","0","img/none_selected.jpg","","23","main_expt",""
"","bandit","103","530794","0.0-65.0-0.0","10925448","wem/bandit_party_1","A10O5YR01H865K","either","7","432","","","","","","","0","0","1","0.1754503809","","0.8","0.6","0.2","0.4","","","","","0.1754503809","0.2475621169","0.4243351486","0.01209419849","","","","","","","","","","72","H","0","img/none_selected.jpg","","24","main_expt",""
"","bandit","104","533337","0.0-66.0-0.0","10925448","wem/bandit_party_1","A10O5YR01H865K","either","7","1039","","","","","","","0","0","1","0.2023019753","","0.8","0.6","0.2","0.4","","","","","0.2023019753","0.2607476102","0.4172780312","0.009734580702","","","","","","","","","","72","H","0","img/none_selected.jpg","","25","main_expt",""
"","bandit","105","535417","0.0-67.0-0.0","10925448","wem/bandit_party_1","A10O5YR01H865K","either","7","575","","","","","","","0","0","1","","0.1887270612","0.8","0.6","0.2","0.4","0.1887270612","0.292589008","0.3981062588","0.008596148908","","","","","","","","","","","","","","72","H","0","img/none_selected.jpg","","26","main_expt",""
"","bandit","106","537577","0.0-68.0-0.0","10925448","wem/bandit_party_1","A10O5YR01H865K","either","7","656","","","","","","","0","0","1","0.2526986378","","0.8","0.6","0.2","0.4","","","","","0.2526986378","0.2978950393","0.3889188119","0.01380650739","","","","","","","","","","72","H","0","img/none_selected.jpg","","27","main_expt",""
"","bandit","107","539770","0.0-69.0-0.0","10925448","wem/bandit_party_1","A10O5YR01H865K","either","7","689","","","","","","","1","0","0","0.01160852189","","0.8","0.6","0.2","0.4","","","","","0.2536033627","0.337392419","0.3699095679","0.01160852189","","","","","","","","","","76","L","3","","","28","main_expt",""
"","bandit","108","541627","0.0-70.0-0.0","10925448","wem/bandit_party_1","A10O5YR01H865K","either","7","352","","","","","","","0","0","1","0.02858314752","","0.8","0.6","0.2","0.4","","","","","0.258258936","0.3830759015","0.4087832773","0.02858314752","","","","","","","","","","76","L","3","","","29","main_expt",""
"","bandit","109","543442","0.0-71.0-0.0","10925448","wem/bandit_party_1","A10O5YR01H865K","either","7","310","","","","","","","0","0","1","0.0265596094","","0.8","0.6","0.2","0.4","","","","","0.3152574144","0.3778881599","0.4162513677","0.0265596094","","","","","","","","","","76","L","3","","","30","main_expt",""
"","bandit","110","545130","0.0-72.0-0.0","10925448","wem/bandit_party_1","A10O5YR01H865K","either","7","182","","","","","","","0","0","1","0.02828816112","","0.8","0.6","0.2","0.4","","","","","0.3508579725","0.3585458117","0.43337534","0.02828816112","","","","","","","","","","76","L","3","","","31","main_expt",""
"","bandit","111","546721","0.0-73.0-0.0","10925448","wem/bandit_party_1","A10O5YR01H865K","either","7","86","","","","","","","0","0","1","","0.4399105216","0.8","0.6","0.2","0.4","0.3902021543","0.3511664436","0.4399105216","0.03857304495","","","","","","","","","","","","","","75","K","2","","","32","main_expt",""
"","bandit","112","548385","0.0-74.0-0.0","10925448","wem/bandit_party_1","A10O5YR01H865K","either","7","159","","","","","","","0","1","0","","0.3859623535","0.8","0.6","0.2","0.4","0.4112626521","0.3924960189","0.3859623535","0.02642959278","","","","","","","","","","","","","","75","K","2","","","33","main_expt",""
"","bandit","113","550107","0.0-75.0-0.0","10925448","wem/bandit_party_1","A10O5YR01H865K","either","7","216","","","","","","","0","1","0","","0.4231921331","0.8","0.6","0.2","0.4","0.3912589523","0.3713907517","0.4231921331","0.06800028167","","","","","","","","","","","","","","75","K","2","","","34","main_expt",""
"","bandit","114","551859","0.0-76.0-0.0","10925448","wem/bandit_party_1","A10O5YR01H865K","either","7","247","","","","","","","0","0","1","0.3950458867","","0.8","0.6","0.2","0.4","","","","","0.3663646496","0.3929004689","0.3950458867","0.05710280771","","","","","","","","","","75","K","2","","","35","main_expt",""
"","bandit","115","553425","0.0-77.0-0.0","10925448","wem/bandit_party_1","A10O5YR01H865K","either","7","62","","","","","","","0","0","1","","0.4005306787","0.8","0.6","0.2","0.4","0.3045225128","0.3820467604","0.4005306787","0.07756943076","","","","","","","","","","","","","","75","K","2","","","36","main_expt",""
"","bandit","116","554993","0.0-78.0-0.0","10925448","wem/bandit_party_1","A10O5YR01H865K","either","7","64","","","","","","","0","1","0","","0.3972735937","0.8","0.6","0.2","0.4","0.2806474599","0.3948022939","0.3972735937","0.06074629621","","","","","","","","","","","","","","75","K","2","","","37","main_expt",""
"","bandit","117","556642","0.0-79.0-0.0","10925448","wem/bandit_party_1","A10O5YR01H865K","either","7","144","","","","","","","0","1","0","","0.38339591","0.8","0.6","0.2","0.4","0.3558759705","0.3769579019","0.38339591","0.07063042774","","","","","","","","","","","","","","75","K","2","","","38","main_expt",""
"","bandit","118","558770","0.0-80.0-0.0","10925448","wem/bandit_party_1","A10O5YR01H865K","either","7","624","","","","","","","0","0","1","0.3906354184","","0.8","0.6","0.2","0.4","","","","","0.3194138052","0.4030344636","0.3906354184","0.06209293178","","","","","","","","","","75","K","2","","","39","main_expt",""
"","bandit","119","560610","0.0-81.0-0.0","10925448","wem/bandit_party_1","A10O5YR01H865K","either","7","334","","","","","","","0","0","1","","0.3623676206","0.8","0.6","0.2","0.4","0.3549086085","0.3622335218","0.3623676206","0.06952578958","","","","","","","","","","","","","","75","K","2","","","40","main_expt",""
"","bandit","120","562298","0.0-82.0-0.0","10925448","wem/bandit_party_1","A10O5YR01H865K","either","7","183","","","","","","","0","0","1","","0.3911596719","0.8","0.6","0.2","0.4","0.3452113815","0.3911596719","0.3873704927","0.1291245709","","","","","","","","","","","","","","74","J","1","","","41","main_expt",""
"","bandit","121","564034","0.0-83.0-0.0","10925448","wem/bandit_party_1","A10O5YR01H865K","either","7","230","","","","","","","0","0","1","","0.3921858285","0.8","0.6","0.2","0.4","0.3522960267","0.3921858285","0.359823116","0.1174523948","","","","","","","","","","","","","","74","J","1","","","42","main_expt",""
"","bandit","122","565817","0.0-84.0-0.0","10925448","wem/bandit_party_1","A10O5YR01H865K","either","7","279","","","","","","","0","0","1","","0.3831213528","0.8","0.6","0.2","0.4","0.3093122096","0.3831213528","0.3710191411","0.1201484523","","","","","","","","","","","","","","74","J","1","","","43","main_expt",""
"","bandit","123","567441","0.0-85.0-0.0","10925448","wem/bandit_party_1","A10O5YR01H865K","either","7","119","","","","","","","0","1","0","","0.3874065465","0.8","0.6","0.2","0.4","0.3026159556","0.3518708159","0.3874065465","0.09958360536","","","","","","","","","","","","","","75","K","2","","","44","main_expt",""
"","bandit","124","569353","0.0-86.0-0.0","10925448","wem/bandit_party_1","A10O5YR01H865K","either","7","408","","","","","","","0","1","0","","0.3851533971","0.8","0.6","0.2","0.4","0.3336294247","0.3122870636","0.3851533971","0.05173655998","","","","","","","","","","","","","","75","K","2","","","45","main_expt",""
"","bandit","125","571009","0.0-87.0-0.0","10925448","wem/bandit_party_1","A10O5YR01H865K","either","7","151","","","","","","","0","1","0","","0.4055883719","0.8","0.6","0.2","0.4","0.3400222736","0.2635721956","0.4055883719","0.05945041096","","","","","","","","","","","","","","75","K","2","","","46","main_expt",""
"","bandit","126","572873","0.0-88.0-0.0","10925448","wem/bandit_party_1","A10O5YR01H865K","either","7","360","","","","","","","0","0","1","","0.3671593179","0.8","0.6","0.2","0.4","0.328707825","0.2856785865","0.3671593179","0.04375763727","","","","","","","","","","","","","","75","K","2","","","47","main_expt",""
"","bandit","127","574706","0.0-89.0-0.0","10925448","wem/bandit_party_1","A10O5YR01H865K","either","7","328","","","","","","","0","0","1","","0.3198203038","0.8","0.6","0.2","0.4","0.3307690822","0.2649087478","0.3198203038","0.0666370861","","","","","","","","","","","","","","75","K","2","","","48","main_expt",""
"","bandit","128","576890","0.0-90.0-0.0","10925448","wem/bandit_party_1","A10O5YR01H865K","either","7","679","","","","","","","0","0","1","0.3111357295","","0.8","0.6","0.2","0.4","","","","","0.3438067684","0.2462979357","0.3111357295","0.08266213623","","","","","","","","","","75","K","2","","","49","main_expt",""
"","bandit","129","579073","0.0-91.0-0.0","10925448","wem/bandit_party_1","A10O5YR01H865K","either","7","678","","","","","","","0","0","1","","0.3196682981","0.8","0.6","0.2","0.4","0.4037002216","0.2490076798","0.3196682981","0.08795051988","","","","","","","","","","","","","","75","K","2","","","50","main_expt",""
"","bandit","130","581073","0.0-92.0-0.0","10925448","wem/bandit_party_1","A10O5YR01H865K","either","7","495","","","","","","","0","0","1","","0.3088596379","0.8","0.6","0.2","0.4","0.3557518394","0.305209751","0.3088596379","0.07533366945","","","","","","","","","","","","","","75","K","2","","","51","main_expt",""
"","bandit","131","584416","0.0-93.0-0.0","10925448","wem/bandit_party_1","A10O5YR01H865K","either","7","1838","","","","","","","0","0","1","","0.3060924957","0.8","0.6","0.2","0.4","0.3254324358","0.3087204988","0.3060924957","0.06506638851","","","","","","","","","","","","","","75","K","2","","","52","main_expt",""
"","bandit","132","585944","0.0-94.0-0.0","10925448","wem/bandit_party_1","A10O5YR01H865K","either","7","23","","","","","","","0","1","0","","0.3229319808","0.8","0.6","0.2","0.4","0.2952150256","0.2984188648","0.3229319808","0.06562792832","","","","","","","","","","","","","","75","K","2","","","53","main_expt",""
"","bandit","133","587840","0.0-95.0-0.0","10925448","wem/bandit_party_1","A10O5YR01H865K","either","7","391","","","","","","","1","0","0","0.3280138586","","0.8","0.6","0.2","0.4","","","","","0.300320608","0.3353917468","0.3280138586","0.04630081711","","","","","","","","","","75","K","2","","","54","main_expt",""
"","bandit","134","590817","0.0-96.0-0.0","10925448","wem/bandit_party_1","A10O5YR01H865K","either","7","1472","","","","","","","0","0","1","0.2777260571","","0.8","0.6","0.2","0.4","","","","","0.2985084879","0.3259144651","0.2777260571","0.03868373719","","","","","","","","","","75","K","2","","","55","main_expt",""
"","bandit","135","593594","0.0-97.0-0.0","10925448","wem/bandit_party_1","A10O5YR01H865K","either","7","1271","","","","","","","0","0","1","","0.1791004868","0.8","0.6","0.2","0.4","0.2607009345","0.3259049121","0.1791004868","0.06235362297","","","","","","","","","","","","","","75","K","2","","","56","main_expt",""
"","bandit","136","595433","0.0-98.0-0.0","10925448","wem/bandit_party_1","A10O5YR01H865K","either","7","334","","","","","","","0","0","1","0.2182265394","","0.8","0.6","0.2","0.4","","","","","0.2565854794","0.3687904078","0.2182265394","0.04639461243","","","","","","","","","","75","K","2","","","57","main_expt",""
"","bandit","137","597345","0.0-99.0-0.0","10925448","wem/bandit_party_1","A10O5YR01H865K","either","7","406","","","","","","","0","1","0","","0.2970860181","0.8","0.6","0.2","0.4","0.319121847","0.3422038875","0.2970860181","0.08954448139","","","","","","","","","","","","","","75","K","2","","","58","main_expt",""
"","bandit","138","599433","0.0-100.0-0.0","10925448","wem/bandit_party_1","A10O5YR01H865K","either","7","582","","","","","","","0","1","0","","0.3249685468","0.8","0.6","0.2","0.4","0.3269923399","0.3771421139","0.3249685468","0.07390342289","","","","","","","","","","","","","","75","K","2","","","59","main_expt",""
"","bandit","139","601280","0.0-101.0-0.0","10925448","wem/bandit_party_1","A10O5YR01H865K","either","7","342","","","","","","","0","0","1","","0.2931470039","0.8","0.6","0.2","0.4","0.3150968823","0.3620124399","0.2931470039","0.05801548519","","","","","","","","","","","","","","75","K","2","","","60","main_expt",""
"","bandit","140","603320","0.0-102.0-0.0","10925448","wem/bandit_party_1","A10O5YR01H865K","either","7","535","","","","","","","0","0","1","","0.2646536279","0.8","0.6","0.2","0.4","0.324539239","0.3958116198","0.2646536279","0.07333263924","","","","","","","","","","","","","","75","K","2","","","61","main_expt",""
"","bandit","141","605569","0.0-103.0-0.0","10925448","wem/bandit_party_1","A10O5YR01H865K","either","7","745","","","","","","","0","0","1","","0.242461968","0.8","0.6","0.2","0.4","0.3066306166","0.3615218546","0.242461968","0.07563430262","","","","","","","","","","","","","","75","K","2","","","62","main_expt",""
"","bandit","142","607736","0.0-104.0-0.0","10925448","wem/bandit_party_1","A10O5YR01H865K","either","7","662","","","","","","","0","0","1","","0.2206683029","0.8","0.6","0.2","0.4","0.3068900116","0.3574266064","0.2206683029","0.06826526778","","","","","","","","","","","","","","75","K","2","","","63","main_expt",""
"","bandit","143","609553","0.0-105.0-0.0","10925448","wem/bandit_party_1","A10O5YR01H865K","either","7","312","","","","","","","0","0","1","","0.3541915859","0.8","0.6","0.2","0.4","0.2936494982","0.3541915859","0.2288959862","0.1175271989","","","","","","","","","","","","","","74","J","1","","","64","main_expt",""
"","bandit","144","611337","0.0-106.0-0.0","10925448","wem/bandit_party_1","A10O5YR01H865K","either","7","278","","","","","","","1","0","0","0.3339820985","","0.8","0.6","0.2","0.4","","","","","0.290236101","0.3339820985","0.2346523549","0.1273865191","","","","","","","","","","74","J","1","","","65","main_expt",""
"","bandit","145","613137","0.0-107.0-0.0","10925448","wem/bandit_party_1","A10O5YR01H865K","either","7","294","","","","","","","0","0","1","0.3195467083","","0.8","0.6","0.2","0.4","","","","","0.2512036594","0.3195467083","0.1881688105","0.09075088943","","","","","","","","","","74","J","1","","","66","main_expt",""
"","bandit","146","614905","0.0-108.0-0.0","10925448","wem/bandit_party_1","A10O5YR01H865K","either","7","262","","","","","","","0","0","1","0.3477383846","","0.8","0.6","0.2","0.4","","","","","0.263747572","0.3477383846","0.231043846","0.08077075725","","","","","","","","","","74","J","1","","","67","main_expt",""
"","bandit","147","616860","0.0-109.0-0.0","10925448","wem/bandit_party_1","A10O5YR01H865K","either","7","449","","","","","","","0","0","1","0.08810311296","","0.8","0.6","0.2","0.4","","","","","0.2892519303","0.3365352069","0.2576664243","0.08810311296","","","","","","","","","","76","L","3","","","68","main_expt",""
"","bandit","148","618672","0.0-110.0-0.0","10925448","wem/bandit_party_1","A10O5YR01H865K","either","7","307","","","","","","","0","0","1","0.1260156682","","0.8","0.6","0.2","0.4","","","","","0.2383664846","0.3148812039","0.2183283259","0.1260156682","","","","","","","","","","76","L","3","","","69","main_expt",""
"","bandit","149","620240","0.0-111.0-0.0","10925448","wem/bandit_party_1","A10O5YR01H865K","either","7","63","","","","","","","0","0","1","0.08773951932","","0.8","0.6","0.2","0.4","","","","","0.2497111545","0.3154014692","0.2260484764","0.08773951932","","","","","","","","","","76","L","3","","","70","main_expt",""
"","bandit","150","621896","0.0-112.0-0.0","10925448","wem/bandit_party_1","A10O5YR01H865K","either","7","151","","","","","","","0","0","1","0.2095843002","","0.8","0.6","0.2","0.4","","","","","0.2095843002","0.219815459","0.3196469567","0.1154304285","","","","","","","","","","72","H","0","img/none_selected.jpg","","71","main_expt",""
"","bandit","151","624984","0.0-113.0-0.0","10925448","wem/bandit_party_1","A10O5YR01H865K","either","7","1583","","","","","","","0","0","1","","0.1972488467","0.8","0.6","0.2","0.4","0.1972488467","0.2623730272","0.3644141189","0.10097247","","","","","","","","","","","","","","72","H","0","img/none_selected.jpg","","72","main_expt",""
"","bandit","152","627418","0.0-114.0-0.0","10925448","wem/bandit_party_1","A10O5YR01H865K","either","7","929","","","","","","","0","0","1","0.15494396","","0.8","0.6","0.2","0.4","","","","","0.15494396","0.2639805735","0.4081842109","0.0746930591","","","","","","","","","","72","H","0","img/none_selected.jpg","","73","main_expt",""
"","bandit","153","629097","0.0-115.0-0.0","10925448","wem/bandit_party_1","A10O5YR01H865K","either","7","173","","","","","","","0","0","1","0.2770925356","","0.8","0.6","0.2","0.4","","","","","0.1324790415","0.2770925356","0.4506698749","0.1124392477","","","","","","","","","","74","J","1","","","74","main_expt",""
"","bandit","154","630961","0.0-116.0-0.0","10925448","wem/bandit_party_1","A10O5YR01H865K","either","7","359","","","","","","","0","0","1","","0.113494578","0.8","0.6","0.2","0.4","0.179195356","0.2796652475","0.454520075","0.113494578","","","","","","","","","","","","","","76","L","3","","","75","main_expt",""
"","bandit","155","632561","0.0-117.0-0.0","10925448","wem/bandit_party_1","A10O5YR01H865K","either","7","94","","","","","","","1","0","0","0.3153427244","","0.8","0.6","0.2","0.4","","","","","0.215808919","0.3153427244","0.466199952","0.1469344428","","","","","","","","","","74","J","1","","","76","main_expt",""
"","bandit","156","634369","0.0-118.0-0.0","10925448","wem/bandit_party_1","A10O5YR01H865K","either","7","302","","","","","","","0","0","1","","0.3676911864","0.8","0.6","0.2","0.4","0.2312347408","0.3676911864","0.4402141775","0.2152215887","","","","","","","","","","","","","","74","J","1","","","77","main_expt",""
"","bandit","157","635968","0.0-119.0-0.0","10925448","wem/bandit_party_1","A10O5YR01H865K","either","7","94","","","","","","","0","1","0","","0.3434277392","0.8","0.6","0.2","0.4","0.2197025874","0.3434277392","0.4525957793","0.2055177618","","","","","","","","","","","","","","74","J","1","","","78","main_expt",""
"","bandit","158","637841","0.0-120.0-0.0","10925448","wem/bandit_party_1","A10O5YR01H865K","either","7","369","","","","","","","0","0","1","","0.3758616161","0.8","0.6","0.2","0.4","0.2227420924","0.3758616161","0.4630799716","0.222262525","","","","","","","","","","","","","","74","J","1","","","79","main_expt",""
"","bandit","159","639705","0.0-121.0-0.0","10925448","wem/bandit_party_1","A10O5YR01H865K","either","7","358","","","","","","","0","1","0","","0.3862393514","0.8","0.6","0.2","0.4","0.2283057493","0.3862393514","0.423693353","0.2700860438","","","","","","","","","","","","","","74","J","1","","","80","main_expt",""
"","bandit","160","641865","0.0-122.0-0.0","10925448","wem/bandit_party_1","A10O5YR01H865K","either","7","655","","","","","","","0","0","1","","0.3593770893","0.8","0.6","0.2","0.4","0.2721525977","0.3593770893","0.4319112677","0.2642688004","","","","","","","","","","","","","","74","J","1","","","81","main_expt",""
"","bandit","161","644770","0.0-123.0-0.0","10925448","wem/bandit_party_1","A10O5YR01H865K","either","7","1399","","","","","","","0","0","1","","0.4035110645","0.8","0.6","0.2","0.4","0.2850237184","0.4035110645","0.441827487","0.2824164754","","","","","","","","","","","","","","74","J","1","","","82","main_expt",""
"","bandit","162","646466","0.0-124.0-0.0","10925448","wem/bandit_party_1","A10O5YR01H865K","either","7","191","","","","","","","0","0","1","","0.3719627038","0.8","0.6","0.2","0.4","0.3236436683","0.3719627038","0.4288861504","0.2819095575","","","","","","","","","","","","","","74","J","1","","","83","main_expt",""
"","bandit","163","648154","0.0-125.0-0.0","10925448","wem/bandit_party_1","A10O5YR01H865K","either","7","183","","","","","","","0","0","1","","0.4350385517","0.8","0.6","0.2","0.4","0.3339638593","0.3349288927","0.4350385517","0.2589745902","","","","","","","","","","","","","","75","K","2","","","84","main_expt",""
"","bandit","164","649930","0.0-126.0-0.0","10925448","wem/bandit_party_1","A10O5YR01H865K","either","7","270","","","","","","","1","0","0","0.4255505645","","0.8","0.6","0.2","0.4","","","","","0.3795022601","0.3247899262","0.4255505645","0.3626504113","","","","","","","","","","75","K","2","","","85","main_expt",""
"","bandit","165","651721","0.0-127.0-0.0","10925448","wem/bandit_party_1","A10O5YR01H865K","either","7","285","","","","","","","0","1","0","","0.4330938692","0.8","0.6","0.2","0.4","0.3835523064","0.3443557019","0.4330938692","0.3598915268","","","","","","","","","","","","","","75","K","2","","","86","main_expt",""
"","bandit","166","653353","0.0-128.0-0.0","10925448","wem/bandit_party_1","A10O5YR01H865K","either","7","127","","","","","","","0","0","1","","0.4548398529","0.8","0.6","0.2","0.4","0.3772514457","0.3648776167","0.4548398529","0.3433052933","","","","","","","","","","","","","","75","K","2","","","87","main_expt",""
"","bandit","167","654937","0.0-129.0-0.0","10925448","wem/bandit_party_1","A10O5YR01H865K","either","7","79","","","","","","","0","1","0","","0.4493124031","0.8","0.6","0.2","0.4","0.3766830519","0.3609631839","0.4493124031","0.4022938878","","","","","","","","","","","","","","75","K","2","","","88","main_expt",""
"","bandit","168","656729","0.0-130.0-0.0","10925448","wem/bandit_party_1","A10O5YR01H865K","either","7","287","","","","","","","0","0","1","","0.4161110063","0.8","0.6","0.2","0.4","0.3537755119","0.3636167192","0.4161110063","0.4141493151","","","","","","","","","","","","","","75","K","2","","","89","main_expt",""
"","bandit","169","658426","0.0-131.0-0.0","10925448","wem/bandit_party_1","A10O5YR01H865K","either","7","191","","","","","","","0","1","0","","0.405260856","0.8","0.6","0.2","0.4","0.3014761449","0.3563441379","0.405260856","0.4136124289","","","","","","","","","","","","","","75","K","2","","","90","main_expt",""
"","bandit","170","660329","0.0-132.0-0.0","10925448","wem/bandit_party_1","A10O5YR01H865K","either","7","398","","","","","","","0","0","1","","0.3827048226","0.8","0.6","0.2","0.4","0.2694038268","0.3389138503","0.3827048226","0.4184852842","","","","","","","","","","","","","","75","K","2","","","91","main_expt",""
"","bandit","171","663362","0.0-133.0-0.0","10925448","wem/bandit_party_1","A10O5YR01H865K","either","7","1528","","","","","","","0","0","1","","0.3552182969","0.8","0.6","0.2","0.4","0.2651536323","0.3263360165","0.3552182969","0.4456808576","","","","","","","","","","","","","","75","K","2","","","92","main_expt",""
"","bandit","172","664994","0.0-134.0-0.0","10925448","wem/bandit_party_1","A10O5YR01H865K","either","7","126","","","","","","","0","0","1","","0.3286897504","0.8","0.6","0.2","0.4","0.1997208586","0.2844131911","0.3286897504","0.4355219805","","","","","","","","","","","","","","75","K","2","","","93","main_expt",""
"","bandit","173","666714","0.0-135.0-0.0","10925448","wem/bandit_party_1","A10O5YR01H865K","either","7","213","","","","","","","0","0","1","0.3422490236","","0.8","0.6","0.2","0.4","","","","","0.2442555344","0.2978465223","0.3422490236","0.4609821192","","","","","","","","","","75","K","2","","","94","main_expt",""
"","bandit","174","668459","0.0-136.0-0.0","10925448","wem/bandit_party_1","A10O5YR01H865K","either","7","239","","","","","","","0","0","1","","0.3160161054","0.8","0.6","0.2","0.4","0.2638839348","0.2638723705","0.3160161054","0.4419374505","","","","","","","","","","","","","","75","K","2","","","95","main_expt",""
"","bandit","175","670202","0.0-137.0-0.0","10925448","wem/bandit_party_1","A10O5YR01H865K","either","7","237","","","","","","","0","1","0","","0.2945538732","0.8","0.6","0.2","0.4","0.2265245807","0.2276010735","0.2945538732","0.39438674","","","","","","","","","","","","","","75","K","2","","","96","main_expt",""
"","bandit","176","671977","0.0-138.0-0.0","10925448","wem/bandit_party_1","A10O5YR01H865K","either","7","270","","","","","","","0","0","1","","0.393563827","0.8","0.6","0.2","0.4","0.1969189177","0.2045446072","0.393563827","0.3617668419","","","","","","","","","","","","","","75","K","2","","","97","main_expt",""
"","bandit","177","673633","0.0-139.0-0.0","10925448","wem/bandit_party_1","A10O5YR01H865K","either","7","150","","","","","","","0","0","1","","0.2436418828","0.8","0.6","0.2","0.4","0.1761144245","0.2436418828","0.4046254927","0.3737913853","","","","","","","","","","","","","","74","J","1","","","98","main_expt",""
"","bandit","178","675233","0.0-140.0-0.0","10925448","wem/bandit_party_1","A10O5YR01H865K","either","7","95","","","","","","","0","0","1","","0.2473144087","0.8","0.6","0.2","0.4","0.1211630765","0.2473144087","0.3659012549","0.4221129479","","","","","","","","","","","","","","74","J","1","","","99","main_expt",""
"","bandit","179","676849","0.0-141.0-0.0","10925448","wem/bandit_party_1","A10O5YR01H865K","either","7","111","","","","","","","0","0","1","0.1257326749","","0.8","0.6","0.2","0.4","","","","","0.1257326749","0.2707360286","0.400368336","0.3857893684","","","","","","","","","","72","H","0","img/none_selected.jpg","","100","main_expt",""
"","bandit","180","678539","0.0-142.0-0.0","10925448","wem/bandit_party_1","A10O5YR01H865K","either","7","183","","","","","","","0","0","1","0.09975532208","","0.8","0.6","0.2","0.4","","","","","0.09975532208","0.3250409822","0.4367931528","0.3635527264","","","","","","","","","","72","H","0","img/none_selected.jpg","","101","main_expt",""
"","bandit","181","680178","0.0-143.0-0.0","10925448","wem/bandit_party_1","A10O5YR01H865K","either","7","134","","","","","","","0","0","1","","0.1127414424","0.8","0.6","0.2","0.4","0.1127414424","0.3088580598","0.4371155326","0.3738375489","","","","","","","","","","","","","","72","H","0","img/none_selected.jpg","","102","main_expt",""
"","bandit","182","681714","0.0-144.0-0.0","10925448","wem/bandit_party_1","A10O5YR01H865K","either","7","30","","","","","","","0","1","0","","0.3860163181","0.8","0.6","0.2","0.4","0.1232600734","0.2901001995","0.388648264","0.3860163181","","","","","","","","","","","","","","76","L","3","","","103","main_expt",""
"","bandit","183","683482","0.0-145.0-0.0","10925448","wem/bandit_party_1","A10O5YR01H865K","either","7","262","","","","","","","0","0","1","0.390692362","","0.8","0.6","0.2","0.4","","","","","0.08156843846","0.309645936","0.3718469433","0.390692362","","","","","","","","","","76","L","3","","","104","main_expt",""
"","bandit","184","685138","0.0-146.0-0.0","10925448","wem/bandit_party_1","A10O5YR01H865K","either","7","150","","","","","","","1","0","0","0.4139082553","","0.8","0.6","0.2","0.4","","","","","0.08245659199","0.3386062745","0.3920304628","0.4139082553","","","","","","","","","","76","L","3","","","105","main_expt",""
"","bandit","185","686770","0.0-147.0-0.0","10925448","wem/bandit_party_1","A10O5YR01H865K","either","7","126","","","","","","","1","0","0","0.3295275825","","0.8","0.6","0.2","0.4","","","","","0.1276639339","0.3827539061","0.3733497125","0.3295275825","","","","","","","","","","76","L","3","","","106","main_expt",""
"","bandit","186","688457","0.0-148.0-0.0","10925448","wem/bandit_party_1","A10O5YR01H865K","either","7","182","","","","","","","0","1","0","","0.3499712774","0.8","0.6","0.2","0.4","0.1812689745","0.3401355396","0.3878439861","0.3499712774","","","","","","","","","","","","","","76","L","3","","","107","main_expt",""
"","bandit","187","690098","0.0-149.0-0.0","10925448","wem/bandit_party_1","A10O5YR01H865K","either","7","136","","","","","","","0","1","0","","0.2666891207","0.8","0.6","0.2","0.4","0.2187982558","0.3258039352","0.3529013302","0.2666891207","","","","","","","","","","","","","","76","L","3","","","108","main_expt",""
"","bandit","188","691801","0.0-150.0-0.0","10925448","wem/bandit_party_1","A10O5YR01H865K","either","7","197","","","","","","","0","0","1","","0.2575067634","0.8","0.6","0.2","0.4","0.2201216928","0.374919859","0.3457683734","0.2575067634","","","","","","","","","","","","","","76","L","3","","","109","main_expt",""
"","bandit","189","693433","0.0-151.0-0.0","10925448","wem/bandit_party_1","A10O5YR01H865K","either","7","127","","","","","","","0","0","1","0.2664913793","","0.8","0.6","0.2","0.4","","","","","0.1789817232","0.3656186065","0.3316873257","0.2664913793","","","","","","","","","","76","L","3","","","110","main_expt",""
"","bandit","190","695097","0.0-152.0-0.0","10925448","wem/bandit_party_1","A10O5YR01H865K","either","7","158","","","","","","","0","0","1","0.2233446911","","0.8","0.6","0.2","0.4","","","","","0.2404947452","0.3649701027","0.3434945318","0.2233446911","","","","","","","","","","76","L","3","","","111","main_expt",""
"","bandit","191","696850","0.0-153.0-0.0","10925448","wem/bandit_party_1","A10O5YR01H865K","either","7","248","","","","","","","1","0","0","0.2170082082","","0.8","0.6","0.2","0.4","","","","","0.2959558532","0.3371716456","0.2729480053","0.2170082082","","","","","","","","","","76","L","3","","","112","main_expt",""
"","bandit","192","698522","0.0-154.0-0.0","10925448","wem/bandit_party_1","A10O5YR01H865K","either","7","167","","","","","","","0","0","1","0.1912277411","","0.8","0.6","0.2","0.4","","","","","0.2966985553","0.2587224119","0.2579672073","0.1912277411","","","","","","","","","","76","L","3","","","113","main_expt",""
"","bandit","193","700097","0.0-155.0-0.0","10925448","wem/bandit_party_1","A10O5YR01H865K","either","7","70","","","","","","","0","0","1","","0.1691995451","0.8","0.6","0.2","0.4","0.3289730608","0.2384324947","0.24654084","0.1691995451","","","","","","","","","","","","","","76","L","3","","","114","main_expt",""
"","bandit","194","701761","0.0-156.0-0.0","10925448","wem/bandit_party_1","A10O5YR01H865K","either","7","158","","","","","","","0","0","1","","0.246649757","0.8","0.6","0.2","0.4","0.2783705844","0.2705755989","0.246649757","0.1263730162","","","","","","","","","","","","","","75","K","2","","","115","main_expt",""
"","bandit","195","703313","0.0-157.0-0.0","10925448","wem/bandit_party_1","A10O5YR01H865K","either","7","45","","","","","","","0","0","1","","0.2190482835","0.8","0.6","0.2","0.4","0.2990421824","0.2666822","0.2190482835","0.1130092975","","","","","","","","","","","","","","75","K","2","","","116","main_expt",""
"","bandit","196","704865","0.0-158.0-0.0","10925448","wem/bandit_party_1","A10O5YR01H865K","either","7","45","","","","","","","1","0","0","0.2664749026","","0.8","0.6","0.2","0.4","","","","","0.3214730448","0.2664749026","0.1860086181","0.1317362661","","","","","","","","","","74","J","1","","","117","main_expt",""
"","bandit","197","706608","0.0-159.0-0.0","10925448","wem/bandit_party_1","A10O5YR01H865K","either","7","238","","","","","","","0","0","1","","0.285497096","0.8","0.6","0.2","0.4","0.3996160597","0.285497096","0.1765749983","0.08460291254","","","","","","","","","","","","","","74","J","1","","","118","main_expt",""
"","bandit","198","708240","0.0-160.0-0.0","10925448","wem/bandit_party_1","A10O5YR01H865K","either","7","126","","","","","","","0","0","1","0.3004427434","","0.8","0.6","0.2","0.4","","","","","0.4143362638","0.3004427434","0.1840588368","0.09168363065","","","","","","","","","","74","J","1","","","119","main_expt",""
"","bandit","199","709993","0.0-161.0-0.0","10925448","wem/bandit_party_1","A10O5YR01H865K","either","7","247","","","","","","","0","0","1","","0.2419855731","0.8","0.6","0.2","0.4","0.372340151","0.2419855731","0.1988357929","0.06729372802","","","","","","","","","","","","","","74","J","1","","","120","main_expt",""
"","bandit","200","711697","0.0-162.0-0.0","10925448","wem/bandit_party_1","A10O5YR01H865K","either","7","198","","","","","","","0","0","1","0.08346408207","","0.8","0.6","0.2","0.4","","","","","0.3910424524","0.3054132847","0.2315674","0.08346408207","","","","","","","","","","76","L","3","","","121","main_expt",""
"","bandit","201","713289","0.0-163.0-0.0","10925448","wem/bandit_party_1","A10O5YR01H865K","either","7","86","","","","","","","0","0","1","","0.05632743158","0.8","0.6","0.2","0.4","0.3813410711","0.2473202095","0.2041322171","0.05632743158","","","","","","","","","","","","","","76","L","3","","","122","main_expt",""
"","bandit","202","715129","0.0-164.0-0.0","10925448","wem/bandit_party_1","A10O5YR01H865K","either","7","334","","","","","","","1","0","0","0.4247291795","","0.8","0.6","0.2","0.4","","","","","0.4247291795","0.2909195989","0.1945268209","0.05516745574","","","","","","","","","","72","H","0","img/none_selected.jpg","","123","main_expt",""
"","bandit","203","716673","0.0-165.0-0.0","10925448","wem/bandit_party_1","A10O5YR01H865K","either","7","37","","","","","","","1","0","0","0.4311179713","","0.8","0.6","0.2","0.4","","","","","0.4311179713","0.3493750294","0.2206749142","0.05528311039","","","","","","","","","","72","H","0","img/none_selected.jpg","","124","main_expt",""
"","bandit","204","718473","0.0-166.0-0.0","10925448","wem/bandit_party_1","A10O5YR01H865K","either","7","294","","","","","","","0","0","1","0.4085782939","","0.8","0.6","0.2","0.4","","","","","0.4085782939","0.3883668019","0.212012295","0.07149807259","","","","","","","","","","72","H","0","img/none_selected.jpg","","125","main_expt",""
"","bandit","205","720016","0.0-167.0-0.0","10925448","wem/bandit_party_1","A10O5YR01H865K","either","7","37","","","","","","","1","0","0","0.4110861309","","0.8","0.6","0.2","0.4","","","","","0.4110861309","0.3888129637","0.1656684785","0.1137803622","","","","","","","","","","72","H","0","img/none_selected.jpg","","126","main_expt",""
"","bandit","206","722729","0.0-168.0-0.0","10925448","wem/bandit_party_1","A10O5YR01H865K","either","7","1207","","","","","","","0","0","1","0.4214671818","","0.8","0.6","0.2","0.4","","","","","0.4214671818","0.3659195129","0.1685301808","0.1003054442","","","","","","","","","","72","H","0","img/none_selected.jpg","","127","main_expt",""
"","bandit","207","725560","0.0-169.0-0.0","10925448","wem/bandit_party_1","A10O5YR01H865K","either","7","1326","","","","","","","0","0","1","","0.36889317","0.8","0.6","0.2","0.4","0.36889317","0.3689954399","0.1703551811","0.1378169536","","","","","","","","","","","","","","72","H","0","img/none_selected.jpg","","128","main_expt",""
"","bandit","208","727336","0.0-170.0-0.0","10925448","wem/bandit_party_1","A10O5YR01H865K","either","7","270","","","","","","","0","0","1","0.3840267129","","0.8","0.6","0.2","0.4","","","","","0.3840267129","0.3600340942","0.1624753709","0.1333081235","","","","","","","","","","72","H","0","img/none_selected.jpg","","129","main_expt",""
"","bandit","209","729440","0.0-171.0-0.0","10925448","wem/bandit_party_1","A10O5YR01H865K","either","7","599","","","","","","","0","0","1","","0.3580797835","0.8","0.6","0.2","0.4","0.3809677701","0.3580797835","0.2335662737","0.1682212827","","","","","","","","","","","","","","74","J","1","","","130","main_expt",""
"","bandit","210","730948","0.0-172.0-0.0","10925448","wem/bandit_party_1","A10O5YR01H865K","either","7","1","","","","","","","0","0","1","","0.3785893338","0.8","0.6","0.2","0.4","0.3681933818","0.3785893338","0.240441026","0.2193829955","","","","","","","","","","","","","","74","J","1","","","131","main_expt",""
"","bandit","211","732874","0.0-173.0-0.0","10925448","wem/bandit_party_1","A10O5YR01H865K","either","7","421","","","","","","","0","1","0","","0.2266699971","0.8","0.6","0.2","0.4","0.3664045944","0.3764735404","0.2266699971","0.2693349046","","","","","","","","","","","","","","75","K","2","","","132","main_expt",""
"","bandit","212","734641","0.0-174.0-0.0","10925448","wem/bandit_party_1","A10O5YR01H865K","either","7","260","","","","","","","0","0","1","","0.1994193025","0.8","0.6","0.2","0.4","0.4046437197","0.3433534211","0.1994193025","0.2576546077","","","","","","","","","","","","","","75","K","2","","","133","main_expt",""
"","bandit","213","736337","0.0-175.0-0.0","10925448","wem/bandit_party_1","A10O5YR01H865K","either","7","190","","","","","","","0","0","1","","0.1891464922","0.8","0.6","0.2","0.4","0.364490756","0.3606247271","0.1891464922","0.2412372273","","","","","","","","","","","","","","75","K","2","","","134","main_expt",""
"","bandit","214","737929","0.0-176.0-0.0","10925448","wem/bandit_party_1","A10O5YR01H865K","either","7","85","","","","","","","0","1","0","","0.1614798668","0.8","0.6","0.2","0.4","0.311914316","0.3268624306","0.1614798668","0.2198641054","","","","","","","","","","","","","","75","K","2","","","135","main_expt",""
"","bandit","215","739873","0.0-177.0-0.0","10925448","wem/bandit_party_1","A10O5YR01H865K","either","7","437","","","","","","","0","1","0","","0.1880386222","0.8","0.6","0.2","0.4","0.2653901568","0.2854606769","0.1880386222","0.2504132697","","","","","","","","","","","","","","75","K","2","","","136","main_expt",""
"","bandit","216","741440","0.0-178.0-0.0","10925448","wem/bandit_party_1","A10O5YR01H865K","either","7","61","","","","","","","0","0","1","0.1961818793","","0.8","0.6","0.2","0.4","","","","","0.2413295316","0.3311747399","0.1961818793","0.1912230989","","","","","","","","","","75","K","2","","","137","main_expt",""
"","bandit","217","743033","0.0-179.0-0.0","10925448","wem/bandit_party_1","A10O5YR01H865K","either","7","88","","","","","","","0","0","1","","0.2857678963","0.8","0.6","0.2","0.4","0.2060295423","0.2570785188","0.2857678963","0.1576256809","","","","","","","","","","","","","","75","K","2","","","138","main_expt",""
"","bandit","218","745944","0.0-180.0-0.0","10925448","wem/bandit_party_1","A10O5YR01H865K","either","7","1405","","","","","","","0","0","1","","0.3449131854","0.8","0.6","0.2","0.4","0.1809645164","0.2858060749","0.3449131854","0.1019788138","","","","","","","","","","","","","","75","K","2","","","139","main_expt",""
"","bandit","219","748529","0.0-181.0-0.0","10925448","wem/bandit_party_1","A10O5YR01H865K","either","7","1078","","","","","","","0","0","1","0.07754087054","","0.8","0.6","0.2","0.4","","","","","0.1843216893","0.2975559752","0.2537716732","0.07754087054","","","","","","","","","","76","L","3","","","140","main_expt",""
"","bandit","220","751033","0.0-182.0-0.0","10925448","wem/bandit_party_1","A10O5YR01H865K","either","7","998","","","","","","","0","0","1","","0.2858111263","0.8","0.6","0.2","0.4","0.1651876155","0.2802168405","0.2858111263","0.09489610577","","","","","","","","","","","","","","75","K","2","","","141","main_expt",""
"","bandit","221","753081","0.0-183.0-0.0","10925448","wem/bandit_party_1","A10O5YR01H865K","either","7","542","","","","","","","1","0","0","0.303049367","","0.8","0.6","0.2","0.4","","","","","0.1536427928","0.2231986748","0.303049367","0.09601428546","","","","","","","","","","75","K","2","","","142","main_expt",""
"","bandit","222","754801","0.0-184.0-0.0","10925448","wem/bandit_party_1","A10O5YR01H865K","either","7","213","","","","","","","0","0","1","","0.2969419413","0.8","0.6","0.2","0.4","0.1546140226","0.2032880393","0.2969419413","0.08301142993","","","","","","","","","","","","","","75","K","2","","","143","main_expt",""
"","bandit","223","756376","0.0-185.0-0.0","10925448","wem/bandit_party_1","A10O5YR01H865K","either","7","70","","","","","","","0","1","0","","0.3128690494","0.8","0.6","0.2","0.4","0.1746031107","0.1967741464","0.3128690494","0.09599686985","","","","","","","","","","","","","","75","K","2","","","144","main_expt",""
"","bandit","224","758144","0.0-186.0-0.0","10925448","wem/bandit_party_1","A10O5YR01H865K","either","7","262","","","","","","","1","0","0","0.2991796355","","0.8","0.6","0.2","0.4","","","","","0.2021387556","0.2283154954","0.2991796355","0.07499383622","","","","","","","","","","75","K","2","","","145","main_expt",""
"","bandit","225","759792","0.0-187.0-0.0","10925448","wem/bandit_party_1","A10O5YR01H865K","either","7","143","","","","","","","0","1","0","","0.3163763193","0.8","0.6","0.2","0.4","0.2504344391","0.2118700154","0.3163763193","0.09566861","","","","","","","","","","","","","","75","K","2","","","146","main_expt",""
"","bandit","226","761457","0.0-188.0-0.0","10925448","wem/bandit_party_1","A10O5YR01H865K","either","7","158","","","","","","","0","1","0","","0.3198025905","0.8","0.6","0.2","0.4","0.2437718569","0.210437557","0.3198025905","0.08578591382","","","","","","","","","","","","","","75","K","2","","","147","main_expt",""
"","bandit","227","763186","0.0-189.0-0.0","10925448","wem/bandit_party_1","A10O5YR01H865K","either","7","223","","","","","","","0","0","1","","0.2588245921","0.8","0.6","0.2","0.4","0.2446677265","0.2370661354","0.2588245921","0.1147887709","","","","","","","","","","","","","","75","K","2","","","148","main_expt",""
"","bandit","228","764897","0.0-190.0-0.0","10925448","wem/bandit_party_1","A10O5YR01H865K","either","7","205","","","","","","","0","0","1","0.248712437","","0.8","0.6","0.2","0.4","","","","","0.2911002833","0.2430363771","0.248712437","0.1378203382","","","","","","","","","","75","K","2","","","149","main_expt",""
"","bandit","229","766674","0.0-191.0-0.0","10925448","wem/bandit_party_1","A10O5YR01H865K","either","7","270","","","","","","","0","1","0","","0.179144869","0.8","0.6","0.2","0.4","0.3529655025","0.2242182381","0.179144869","0.1414499273","","","","","","","","","","","","","","75","K","2","","","150","main_expt",""
"","bandit","230","768418","0.0-192.0-0.0","10925448","wem/bandit_party_1","A10O5YR01H865K","either","7","238","","","","","","","0","0","1","","0.1545669956","0.8","0.6","0.2","0.4","0.3885741111","0.1997145133","0.1545669956","0.07852348772","","","","","","","","","","","","","","75","K","2","","","151","main_expt",""
"","bandit","231","770210","0.0-193.0-0.0","10925448","wem/bandit_party_1","A10O5YR01H865K","either","7","285","","","","","","","0","0","1","","0.1651714415","0.8","0.6","0.2","0.4","0.3690499696","0.2195927633","0.1651714415","0.08485793113","","","","","","","","","","","","","","75","K","2","","","152","main_expt",""
"","bandit","232","771978","0.0-194.0-0.0","10925448","wem/bandit_party_1","A10O5YR01H865K","either","7","261","","","","","","","0","0","1","","0.2396245514","0.8","0.6","0.2","0.4","0.3710492515","0.2121816628","0.2396245514","0.1083789561","","","","","","","","","","","","","","75","K","2","","","153","main_expt",""
"","bandit","233","773682","0.0-195.0-0.0","10925448","wem/bandit_party_1","A10O5YR01H865K","either","7","198","","","","","","","0","0","1","","0.2085838567","0.8","0.6","0.2","0.4","0.3483335413","0.1830588608","0.2085838567","0.109098481","","","","","","","","","","","","","","75","K","2","","","154","main_expt",""
"","bandit","234","775474","0.0-196.0-0.0","10925448","wem/bandit_party_1","A10O5YR01H865K","either","7","285","","","","","","","0","0","1","","0.1864274254","0.8","0.6","0.2","0.4","0.3343760247","0.2031423662","0.1864274254","0.1758262092","","","","","","","","","","","","","","75","K","2","","","155","main_expt",""
"","bandit","235","777073","0.0-197.0-0.0","10925448","wem/bandit_party_1","A10O5YR01H865K","either","7","93","","","","","","","0","0","1","","0.1750870897","0.8","0.6","0.2","0.4","0.3742013553","0.2022731065","0.1750870897","0.2046597001","","","","","","","","","","","","","","75","K","2","","","156","main_expt",""
"","bandit","236","778649","0.0-198.0-0.0","10925448","wem/bandit_party_1","A10O5YR01H865K","either","7","70","","","","","","","0","0","1","","0.1321985386","0.8","0.6","0.2","0.4","0.3620366094","0.1826661219","0.1321985386","0.1774751899","","","","","","","","","","","","","","75","K","2","","","157","main_expt",""
"","bandit","237","780385","0.0-199.0-0.0","10925448","wem/bandit_party_1","A10O5YR01H865K","either","7","231","","","","","","","0","0","1","0.1658993888","","0.8","0.6","0.2","0.4","","","","","0.3671714071","0.1658993888","0.1341899746","0.1612033886","","","","","","","","","","74","J","1","","","158","main_expt",""
"","bandit","238","781937","0.0-200.0-0.0","10925448","wem/bandit_party_1","A10O5YR01H865K","either","7","46","","","","","","","0","0","1","0.1620079643","","0.8","0.6","0.2","0.4","","","","","0.4015988616","0.1620079643","0.1567784951","0.1586838935","","","","","","","","","","74","J","1","","","159","main_expt",""
"","bandit","239","783546","0.0-201.0-0.0","10925448","wem/bandit_party_1","A10O5YR01H865K","either","7","103","","","","","","","1","0","0","0.4004877553","","0.8","0.6","0.2","0.4","","","","","0.4004877553","0.2453635642","0.1615549635","0.2159944071","","","","","","","","","","72","H","0","img/none_selected.jpg","","160","main_expt",""
"","bandit","240","785251","0.0-202.0-0.0","10925448","wem/bandit_party_1","A10O5YR01H865K","either","7","197","","","","","","","1","0","0","0.4095849454","","0.8","0.6","0.2","0.4","","","","","0.4095849454","0.2456373749","0.1854631015","0.2105769377","","","","","","","","","","72","H","0","img/none_selected.jpg","","161","main_expt",""
"","bandit","241","786954","0.0-203.0-0.0","10925448","wem/bandit_party_1","A10O5YR01H865K","either","7","196","","","","","","","0","0","1","","0.3978002783","0.8","0.6","0.2","0.4","0.3978002783","0.2460125232","0.21229469","0.2006925765","","","","","","","","","","","","","","72","H","0","img/none_selected.jpg","","162","main_expt",""
"","bandit","242","788602","0.0-204.0-0.0","10925448","wem/bandit_party_1","A10O5YR01H865K","either","7","141","","","","","","","1","0","0","0.4180552148","","0.8","0.6","0.2","0.4","","","","","0.4180552148","0.2013568893","0.162194177","0.2365124807","","","","","","","","","","72","H","0","img/none_selected.jpg","","163","main_expt",""
"","bandit","243","790314","0.0-205.0-0.0","10925448","wem/bandit_party_1","A10O5YR01H865K","either","7","205","","","","","","","0","0","1","0.4407560021","","0.8","0.6","0.2","0.4","","","","","0.4407560021","0.1933595846","0.1535707797","0.2157370886","","","","","","","","","","72","H","0","img/none_selected.jpg","","164","main_expt",""
"","bandit","244","791922","0.0-206.0-0.0","10925448","wem/bandit_party_1","A10O5YR01H865K","either","7","101","","","","","","","0","0","1","0.4582960521","","0.8","0.6","0.2","0.4","","","","","0.4582960521","0.167552211","0.2315934193","0.2166787898","","","","","","","","","","72","H","0","img/none_selected.jpg","","165","main_expt",""
"","bandit","245","793545","0.0-207.0-0.0","10925448","wem/bandit_party_1","A10O5YR01H865K","either","7","115","","","","","","","0","0","1","0.4337500892","","0.8","0.6","0.2","0.4","","","","","0.4337500892","0.1311237951","0.2579087381","0.1846262972","","","","","","","","","","72","H","0","img/none_selected.jpg","","166","main_expt",""
"","bandit","246","795201","0.0-208.0-0.0","10925448","wem/bandit_party_1","A10O5YR01H865K","either","7","150","","","","","","","0","0","1","0.4537582576","","0.8","0.6","0.2","0.4","","","","","0.4537582576","0.1714029316","0.2496457694","0.1888750078","","","","","","","","","","72","H","0","img/none_selected.jpg","","167","main_expt",""
"","bandit","247","796930","0.0-209.0-0.0","10925448","wem/bandit_party_1","A10O5YR01H865K","either","7","224","","","","","","","0","0","1","","0.2315683769","0.8","0.6","0.2","0.4","0.4473485534","0.1494402723","0.234558796","0.2315683769","","","","","","","","","","","","","","76","L","3","","","168","main_expt",""
"","bandit","248","798633","0.0-210.0-0.0","10925448","wem/bandit_party_1","A10O5YR01H865K","either","7","197","","","","","","","1","0","0","0.2018123945","","0.8","0.6","0.2","0.4","","","","","0.4471591033","0.1819888556","0.2458600006","0.2018123945","","","","","","","","","","76","L","3","","","169","main_expt",""
"","bandit","249","800282","0.0-211.0-0.0","10925448","wem/bandit_party_1","A10O5YR01H865K","either","7","142","","","","","","","1","0","0","0.139238222","","0.8","0.6","0.2","0.4","","","","","0.4581839475","0.2329206984","0.2214583157","0.139238222","","","","","","","","","","76","L","3","","","170","main_expt",""
"","bandit","250","801890","0.0-212.0-0.0","10925448","wem/bandit_party_1","A10O5YR01H865K","either","7","102","","","","","","","0","0","1","","0.1466511374","0.8","0.6","0.2","0.4","0.4674995421","0.2000607923","0.296208115","0.1466511374","","","","","","","","","","","","","","76","L","3","","","171","main_expt",""
"","bandit","251","803418","0.0-213.0-0.0","10925448","wem/bandit_party_1","A10O5YR01H865K","either","7","22","","","","","","","0","0","1","","0.1348290388","0.8","0.6","0.2","0.4","0.4455620345","0.2342957318","0.3062379281","0.1348290388","","","","","","","","","","","","","","76","L","3","","","172","main_expt",""
"","bandit","252","806242","0.0-214.0-0.0","10925448","wem/bandit_party_1","A10O5YR01H865K","either","7","1317","","","","","","","0","0","1","","0.1521691919","0.8","0.6","0.2","0.4","0.4471610379","0.2189308077","0.2498067723","0.1521691919","","","","","","","","","","","","","","76","L","3","","","173","main_expt",""
"","bandit","253","807779","0.0-215.0-0.0","10925448","wem/bandit_party_1","A10O5YR01H865K","either","7","30","","","","","","","0","0","1","0.2191935525","","0.8","0.6","0.2","0.4","","","","","0.4496576915","0.2373932689","0.1803522277","0.2191935525","","","","","","","","","","76","L","3","","","174","main_expt",""
"","bandit","254","809625","0.0-216.0-0.0","10925448","wem/bandit_party_1","A10O5YR01H865K","either","7","340","","","","","","","0","0","1","","0.219961305","0.8","0.6","0.2","0.4","0.4715297358","0.2160264752","0.2014319342","0.219961305","","","","","","","","","","","","","","76","L","3","","","175","main_expt",""
"","bandit","255","811185","0.0-217.0-0.0","10925448","wem/bandit_party_1","A10O5YR01H865K","either","7","53","","","","","","","0","0","1","","0.2122003168","0.8","0.6","0.2","0.4","0.477956151","0.1990604306","0.2122003168","0.1882485239","","","","","","","","","","","","","","75","K","2","","","176","main_expt",""
"","bandit","256","812817","0.0-218.0-0.0","10925448","wem/bandit_party_1","A10O5YR01H865K","either","7","125","","","","","","","0","0","1","","0.2629069455","0.8","0.6","0.2","0.4","0.4563721206","0.1729978196","0.2629069455","0.1644902553","","","","","","","","","","","","","","75","K","2","","","177","main_expt",""
"","bandit","257","814370","0.0-219.0-0.0","10925448","wem/bandit_party_1","A10O5YR01H865K","either","7","47","","","","","","","0","0","1","0.1633080779","","0.8","0.6","0.2","0.4","","","","","0.4409869931","0.1633080779","0.2336104206","0.1713669852","","","","","","","","","","74","J","1","","","178","main_expt",""
"","bandit","258","815969","0.0-220.0-0.0","10925448","wem/bandit_party_1","A10O5YR01H865K","either","7","93","","","","","","","0","0","1","","0.1243251356","0.8","0.6","0.2","0.4","0.4243126063","0.1243251356","0.1887504226","0.2263400462","","","","","","","","","","","","","","74","J","1","","","179","main_expt",""
"","bandit","259","817601","0.0-221.0-0.0","10925448","wem/bandit_party_1","A10O5YR01H865K","either","7","125","","","","","","","1","0","0","0.4312830743","","0.8","0.6","0.2","0.4","","","","","0.4312830743","0.1150149055","0.138376641","0.2036870175","","","","","","","","","","72","H","0","img/none_selected.jpg","","180","main_expt",""
"","bandit","260","819379","0.0-222.0-0.0","10925448","wem/bandit_party_1","A10O5YR01H865K","either","7","271","","","","","","","0","0","1","0.4433127893","","0.8","0.6","0.2","0.4","","","","","0.4433127893","0.1407924877","0.1883992559","0.1934599198","","","","","","","","","","72","H","0","img/none_selected.jpg","","181","main_expt",""
"","bandit","261","821058","0.0-223.0-0.0","10925448","wem/bandit_party_1","A10O5YR01H865K","either","7","172","","","","","","","1","0","0","0.440136403","","0.8","0.6","0.2","0.4","","","","","0.440136403","0.09672650852","0.128889003","0.2424515525","","","","","","","","","","72","H","0","img/none_selected.jpg","","182","main_expt",""
"","bandit","262","822713","0.0-224.0-0.0","10925448","wem/bandit_party_1","A10O5YR01H865K","either","7","149","","","","","","","0","0","1","0.4347693449","","0.8","0.6","0.2","0.4","","","","","0.4347693449","0.09888002855","0.1748769843","0.1961777535","","","","","","","","","","72","H","0","img/none_selected.jpg","","183","main_expt",""
"","bandit","263","824457","0.0-225.0-0.0","10925448","wem/bandit_party_1","A10O5YR01H865K","either","7","237","","","","","","","0","0","1","0.4277130926","","0.8","0.6","0.2","0.4","","","","","0.4277130926","0.07200145298","0.1945994373","0.1489283113","","","","","","","","","","72","H","0","img/none_selected.jpg","","184","main_expt",""
"","bandit","264","826241","0.0-226.0-0.0","10925448","wem/bandit_party_1","A10O5YR01H865K","either","7","277","","","","","","","0","0","1","0.3956248437","","0.8","0.6","0.2","0.4","","","","","0.3956248437","0.09476413333","0.1644748654","0.1499965078","","","","","","","","","","72","H","0","img/none_selected.jpg","","185","main_expt",""
"","bandit","265","827824","0.0-227.0-0.0","10925448","wem/bandit_party_1","A10O5YR01H865K","either","7","77","","","","","","","0","0","1","0.3748928266","","0.8","0.6","0.2","0.4","","","","","0.3748928266","0.06556422103","0.1504635592","0.2169832988","","","","","","","","","","72","H","0","img/none_selected.jpg","","186","main_expt",""
"","bandit","266","829344","0.0-228.0-0.0","10925448","wem/bandit_party_1","A10O5YR01H865K","either","7","14","","","","","","","0","0","1","","0.3848139325","0.8","0.6","0.2","0.4","0.3848139325","0.08901149072","0.1760039214","0.2655186329","","","","","","","","","","","","","","72","H","0","img/none_selected.jpg","","187","main_expt",""
"","bandit","267","831096","0.0-229.0-0.0","10925448","wem/bandit_party_1","A10O5YR01H865K","either","7","245","","","","","","","0","0","1","0.09471428588","","0.8","0.6","0.2","0.4","","","","","0.3990176401","0.09471428588","0.1203267588","0.2738785118","","","","","","","","","","74","J","1","","","188","main_expt",""
"","bandit","268","832744","0.0-230.0-0.0","10925448","wem/bandit_party_1","A10O5YR01H865K","either","7","141","","","","","","","0","0","1","","0.05118235823","0.8","0.6","0.2","0.4","0.3581396838","0.05118235823","0.1171540391","0.3041874674","","","","","","","","","","","","","","74","J","1","","","189","main_expt",""
"","bandit","269","835641","0.0-231.0-0.0","10925448","wem/bandit_party_1","A10O5YR01H865K","either","7","1389","","","","","","","0","0","1","","0.1535230761","0.8","0.6","0.2","0.4","0.2882972244","0.05788318751","0.1535230761","0.3229453735","","","","","","","","","","","","","","75","K","2","","","190","main_expt",""
"","bandit","270","837593","0.0-232.0-0.0","10925448","wem/bandit_party_1","A10O5YR01H865K","either","7","445","","","","","","","0","0","1","","0.1372750947","0.8","0.6","0.2","0.4","0.3145326233","0.08736915481","0.1372750947","0.3818249757","","","","","","","","","","","","","","75","K","2","","","191","main_expt",""
"","bandit","271","839145","0.0-233.0-0.0","10925448","wem/bandit_party_1","A10O5YR01H865K","either","7","44","","","","","","","0","0","1","","0.4157726243","0.8","0.6","0.2","0.4","0.3270603702","0.08251019118","0.1047771501","0.4157726243","","","","","","","","","","","","","","76","L","3","","","192","main_expt",""
"","bandit","272","840921","0.0-234.0-0.0","10925448","wem/bandit_party_1","A10O5YR01H865K","either","7","270","","","","","","","0","0","1","","0.4611608212","0.8","0.6","0.2","0.4","0.3604030797","0.06897628064","0.1100845432","0.4611608212","","","","","","","","","","","","","","76","L","3","","","193","main_expt",""
"","bandit","273","842601","0.0-235.0-0.0","10925448","wem/bandit_party_1","A10O5YR01H865K","either","7","172","","","","","","","0","0","1","0.1468163818","","0.8","0.6","0.2","0.4","","","","","0.357423186","0.06801266305","0.1468163818","0.4508818777","","","","","","","","","","75","K","2","","","194","main_expt",""
"","bandit","274","844112","0.0-236.0-0.0","10925448","wem/bandit_party_1","A10O5YR01H865K","either","7","4","","","","","","","0","0","1","0.09923709358","","0.8","0.6","0.2","0.4","","","","","0.3697779856","0.09923709358","0.1495594621","0.4278921451","","","","","","","","","","74","J","1","","","195","main_expt",""
"","bandit","275","845619","0.0-237.0-0.0","10925448","wem/bandit_party_1","A10O5YR01H865K","either","7","0","","","","","","","0","0","1","0.3617177512","","0.8","0.6","0.2","0.4","","","","","0.3617177512","0.1103063831","0.2263220537","0.4256293003","","","","","","","","","","72","H","0","img/none_selected.jpg","","196","main_expt",""
"","bandit","276","847384","0.0-238.0-0.0","10925448","wem/bandit_party_1","A10O5YR01H865K","either","7","258","","","","","","","1","0","0","0.3775990084","","0.8","0.6","0.2","0.4","","","","","0.3775990084","0.07377144043","0.2204718804","0.4476975038","","","","","","","","","","72","H","0","img/none_selected.jpg","","197","main_expt",""
"","bandit","277","849096","0.0-239.0-0.0","10925448","wem/bandit_party_1","A10O5YR01H865K","either","7","206","","","","","","","1","0","0","0.4144042571","","0.8","0.6","0.2","0.4","","","","","0.4144042571","0.08863448313","0.2401118457","0.4434357272","","","","","","","","","","72","H","0","img/none_selected.jpg","","198","main_expt",""
"","bandit","278","850704","0.0-240.0-0.0","10925448","wem/bandit_party_1","A10O5YR01H865K","either","7","101","","","","","","","0","1","0","","0.4081775392","0.8","0.6","0.2","0.4","0.4081775392","0.1082179128","0.2673724497","0.4245114622","","","","","","","","","","","","","","72","H","0","img/none_selected.jpg","","199","main_expt",""
"","bandit","279","852417","0.0-241.0-0.0","10925448","wem/bandit_party_1","A10O5YR01H865K","either","7","205","","","","","","","1","0","0","0.4166156547","","0.8","0.6","0.2","0.4","","","","","0.4166156547","0.09350688576","0.3125307902","0.4087100315","","","","","","","","","","72","H","0","img/none_selected.jpg","","200","main_expt",""
"","bandit","280","854233","0.0-242.0-0.0","10925448","wem/bandit_party_1","A10O5YR01H865K","either","7","310","","","","","","","0","0","1","0.4306537176","","0.8","0.6","0.2","0.4","","","","","0.4306537176","0.1036625099","0.2914574258","0.4361521275","","","","","","","","","","72","H","0","img/none_selected.jpg","","201","main_expt",""
"","bandit","281","856009","0.0-243.0-0.0","10925448","wem/bandit_party_1","A10O5YR01H865K","either","7","269","","","","","","","0","0","1","0.449382563","","0.8","0.6","0.2","0.4","","","","","0.449382563","0.1216733889","0.2550600684","0.3332596158","","","","","","","","","","72","H","0","img/none_selected.jpg","","202","main_expt",""
"","bandit","282","857769","0.0-244.0-0.0","10925448","wem/bandit_party_1","A10O5YR01H865K","either","7","252","","","","","","","1","0","0","0.4506576586","","0.8","0.6","0.2","0.4","","","","","0.4506576586","0.120655788","0.2769745997","0.3581848779","","","","","","","","","","72","H","0","img/none_selected.jpg","","203","main_expt",""
"","bandit","283","859529","0.0-245.0-0.0","10925448","wem/bandit_party_1","A10O5YR01H865K","either","7","252","","","","","","","0","0","1","0.454839243","","0.8","0.6","0.2","0.4","","","","","0.454839243","0.1082970726","0.2752990059","0.3597133043","","","","","","","","","","72","H","0","img/none_selected.jpg","","204","main_expt",""
"","bandit","284","861088","0.0-246.0-0.0","10925448","wem/bandit_party_1","A10O5YR01H865K","either","7","52","","","","","","","0","0","1","0.4512889682","","0.8","0.6","0.2","0.4","","","","","0.4512889682","0.09143681274","0.2901512169","0.3630183988","","","","","","","","","","72","H","0","img/none_selected.jpg","","205","main_expt",""
"","bandit","285","862849","0.0-247.0-0.0","10925448","wem/bandit_party_1","A10O5YR01H865K","either","7","254","","","","","","","0","0","1","0.4591490044","","0.8","0.6","0.2","0.4","","","","","0.4591490044","0.08377413986","0.2823763913","0.3737494834","","","","","","","","","","72","H","0","img/none_selected.jpg","","206","main_expt",""
"","bandit","286","865904","0.0-248.0-0.0","10925448","wem/bandit_party_1","A10O5YR01H865K","either","7","1548","","","","","","","0","0","1","0.4650593633","","0.8","0.6","0.2","0.4","","","","","0.4650593633","0.1585073664","0.2708062506","0.3668784438","","","","","","","","","","72","H","0","img/none_selected.jpg","","207","main_expt",""
"","bandit","287","867504","0.0-249.0-0.0","10925448","wem/bandit_party_1","A10O5YR01H865K","either","7","93","","","","","","","0","0","1","0.4641513068","","0.8","0.6","0.2","0.4","","","","","0.4641513068","0.162299901","0.2641553663","0.4045351895","","","","","","","","","","72","H","0","img/none_selected.jpg","","208","main_expt",""
"","bandit","288","869200","0.0-250.0-0.0","10925448","wem/bandit_party_1","A10O5YR01H865K","either","7","189","","","","","","","1","0","0","0.1542266077","","0.8","0.6","0.2","0.4","","","","","0.4567807332","0.1542266077","0.2704675845","0.4402386934","","","","","","","","","","74","J","1","","","209","main_expt",""
"","bandit","289","870897","0.0-251.0-0.0","10925448","wem/bandit_party_1","A10O5YR01H865K","either","7","190","","","","","","","0","0","1","","0.1890415559","0.8","0.6","0.2","0.4","0.428253188","0.1890415559","0.3420868926","0.4483623408","","","","","","","","","","","","","","74","J","1","","","210","main_expt",""
"","bandit","290","872481","0.0-252.0-0.0","10925448","wem/bandit_party_1","A10O5YR01H865K","either","7","77","","","","","","","0","0","1","","0.1818133019","0.8","0.6","0.2","0.4","0.410271385","0.1818133019","0.3069688952","0.4471415093","","","","","","","","","","","","","","74","J","1","","","211","main_expt",""
"","bandit","291","874170","0.0-253.0-0.0","10925448","wem/bandit_party_1","A10O5YR01H865K","either","7","181","","","","","","","1","0","0","0.1782747956","","0.8","0.6","0.2","0.4","","","","","0.4065587724","0.1782747956","0.3005379093","0.4374655127","","","","","","","","","","74","J","1","","","212","main_expt",""
"","bandit","292","875873","0.0-254.0-0.0","10925448","wem/bandit_party_1","A10O5YR01H865K","either","7","195","","","","","","","0","0","1","0.1935195711","","0.8","0.6","0.2","0.4","","","","","0.4007116542","0.1935195711","0.213882915","0.4381457257","","","","","","","","","","74","J","1","","","213","main_expt",""
"","bandit","293","877625","0.0-255.0-0.0","10925448","wem/bandit_party_1","A10O5YR01H865K","either","7","244","","","","","","","0","0","1","","0.2421176173","0.8","0.6","0.2","0.4","0.4246209323","0.2421176173","0.2138557204","0.4643769008","","","","","","","","","","","","","","74","J","1","","","214","main_expt",""
"","bandit","294","879329","0.0-256.0-0.0","10925448","wem/bandit_party_1","A10O5YR01H865K","either","7","195","","","","","","","0","0","1","","0.2629876012","0.8","0.6","0.2","0.4","0.3993057066","0.2629876012","0.2142566612","0.4328812357","","","","","","","","","","","","","","74","J","1","","","215","main_expt",""
"","bandit","295","880960","0.0-257.0-0.0","10925448","wem/bandit_party_1","A10O5YR01H865K","either","7","124","","","","","","","0","0","1","0.2977714141","","0.8","0.6","0.2","0.4","","","","","0.3987772474","0.2977714141","0.1900351118","0.4064507999","","","","","","","","","","74","J","1","","","216","main_expt",""
"","bandit","296","882664","0.0-258.0-0.0","10925448","wem/bandit_party_1","A10O5YR01H865K","either","7","197","","","","","","","0","1","0","","0.3017601552","0.8","0.6","0.2","0.4","0.4101433534","0.3017601552","0.2185169477","0.4197961641","","","","","","","","","","","","","","74","J","1","","","217","main_expt",""
"","bandit","297","884538","0.0-259.0-0.0","10925448","wem/bandit_party_1","A10O5YR01H865K","either","7","367","","","","","","","0","0","1","0.2888566207","","0.8","0.6","0.2","0.4","","","","","0.4448029092","0.2888566207","0.2240895604","0.4167397569","","","","","","","","","","74","J","1","","","218","main_expt",""
"","bandit","298","886297","0.0-260.0-0.0","10925448","wem/bandit_party_1","A10O5YR01H865K","either","7","251","","","","","","","0","0","1","0.2844008008","","0.8","0.6","0.2","0.4","","","","","0.4454766299","0.2844008008","0.1990808675","0.4250944588","","","","","","","","","","74","J","1","","","219","main_expt",""
"","bandit","299","888082","0.0-261.0-0.0","10925448","wem/bandit_party_1","A10O5YR01H865K","either","7","277","","","","","","","0","0","1","","0.2225062479","0.8","0.6","0.2","0.4","0.4610997771","0.2225062479","0.266602996","0.4173336587","","","","","","","","","","","","","","74","J","1","","","220","main_expt",""
"","bandit","300","890042","0.0-262.0-0.0","10925448","wem/bandit_party_1","A10O5YR01H865K","either","7","453","","","","","","","0","0","1","","0.2409900116","0.8","0.6","0.2","0.4","0.4642289789","0.2409900116","0.2443661227","0.3944711005","","","","","","","","","","","","","","74","J","1","","","221","main_expt",""
"","bandit","301","891602","0.0-263.0-0.0","10925448","wem/bandit_party_1","A10O5YR01H865K","either","7","52","","","","","","","0","0","1","","0.1989678636","0.8","0.6","0.2","0.4","0.4641270597","0.1989678636","0.2205922116","0.3619306912","","","","","","","","","","","","","","74","J","1","","","222","main_expt",""
"","bandit","302","893170","0.0-264.0-0.0","10925448","wem/bandit_party_1","A10O5YR01H865K","either","7","60","","","","","","","0","1","0","","0.1861223506","0.8","0.6","0.2","0.4","0.4697433819","0.1902867071","0.1861223506","0.4117842179","","","","","","","","","","","","","","75","K","2","","","223","main_expt",""
"","bandit","303","894986","0.0-265.0-0.0","10925448","wem/bandit_party_1","A10O5YR01H865K","either","7","308","","","","","","","0","0","1","","0.1668884863","0.8","0.6","0.2","0.4","0.460898083","0.2076415522","0.1668884863","0.3965092367","","","","","","","","","","","","","","75","K","2","","","224","main_expt",""
"","bandit","304","896514","0.0-266.0-0.0","10925448","wem/bandit_party_1","A10O5YR01H865K","either","7","19","","","","","","","0","0","1","","0.1481472712","0.8","0.6","0.2","0.4","0.4394890665","0.2393469174","0.1481472712","0.4084477862","","","","","","","","","","","","","","75","K","2","","","225","main_expt",""
"","bandit","305","898073","0.0-267.0-0.0","10925448","wem/bandit_party_1","A10O5YR01H865K","either","7","52","","","","","","","0","0","1","","0.1140846591","0.8","0.6","0.2","0.4","0.4520955237","0.2425440376","0.1140846591","0.4104601526","","","","","","","","","","","","","","75","K","2","","","226","main_expt",""
"","bandit","306","899833","0.0-268.0-0.0","10925448","wem/bandit_party_1","A10O5YR01H865K","either","7","252","","","","","","","0","0","1","","0.1074218354","0.8","0.6","0.2","0.4","0.4324220164","0.2365603363","0.1074218354","0.3899733519","","","","","","","","","","","","","","75","K","2","","","227","main_expt",""
"","bandit","307","901393","0.0-269.0-0.0","10925448","wem/bandit_party_1","A10O5YR01H865K","either","7","52","","","","","","","1","0","0","0.3796730737","","0.8","0.6","0.2","0.4","","","","","0.4220482421","0.2127958296","0.08065165665","0.3796730737","","","","","","","","","","76","L","3","","","228","main_expt",""
"","bandit","308","903153","0.0-270.0-0.0","10925448","wem/bandit_party_1","A10O5YR01H865K","either","7","253","","","","","","","0","0","1","","0.4046866514","0.8","0.6","0.2","0.4","0.3885749154","0.2207861463","0.07774059362","0.4046866514","","","","","","","","","","","","","","76","L","3","","","229","main_expt",""
"","bandit","309","904705","0.0-271.0-0.0","10925448","wem/bandit_party_1","A10O5YR01H865K","either","7","45","","","","","","","1","0","0","0.3988793555","","0.8","0.6","0.2","0.4","","","","","0.4023755806","0.2589226453","0.1109483114","0.3988793555","","","","","","","","","","76","L","3","","","230","main_expt",""
"","bandit","310","906443","0.0-272.0-0.0","10925448","wem/bandit_party_1","A10O5YR01H865K","either","7","228","","","","","","","0","1","0","","0.3981898202","0.8","0.6","0.2","0.4","0.3768725222","0.2956158432","0.05902300203","0.3981898202","","","","","","","","","","","","","","76","L","3","","","231","main_expt",""
"","bandit","311","907978","0.0-273.0-0.0","10925448","wem/bandit_party_1","A10O5YR01H865K","either","7","27","","","","","","","0","0","1","","0.4411941832","0.8","0.6","0.2","0.4","0.3619917427","0.3202484073","0.06675855664","0.4411941832","","","","","","","","","","","","","","76","L","3","","","232","main_expt",""
"","bandit","312","909570","0.0-274.0-0.0","10925448","wem/bandit_party_1","A10O5YR01H865K","either","7","84","","","","","","","0","1","0","","0.42967461","0.8","0.6","0.2","0.4","0.3833578816","0.2933644042","0.06703699679","0.42967461","","","","","","","","","","","","","","76","L","3","","","233","main_expt",""
"","bandit","313","911234","0.0-275.0-0.0","10925448","wem/bandit_party_1","A10O5YR01H865K","either","7","156","","","","","","","1","0","0","0.4242798354","","0.8","0.6","0.2","0.4","","","","","0.3552131768","0.3106154811","0.05331023031","0.4242798354","","","","","","","","","","76","L","3","","","234","main_expt",""
"","bandit","314","912866","0.0-276.0-0.0","10925448","wem/bandit_party_1","A10O5YR01H865K","either","7","123","","","","","","","0","0","1","0.4617388459","","0.8","0.6","0.2","0.4","","","","","0.3135084543","0.3158990995","0.05187545802","0.4617388459","","","","","","","","","","76","L","3","","","235","main_expt",""
"","bandit","315","914442","0.0-277.0-0.0","10925448","wem/bandit_party_1","A10O5YR01H865K","either","7","68","","","","","","","0","0","1","","0.4619510484","0.8","0.6","0.2","0.4","0.244945467","0.3036927748","0.06939909985","0.4619510484","","","","","","","","","","","","","","76","L","3","","","236","main_expt",""
"","bandit","316","915977","0.0-278.0-0.0","10925448","wem/bandit_party_1","A10O5YR01H865K","either","7","28","","","","","","","0","0","1","","0.4482398789","0.8","0.6","0.2","0.4","0.1823839079","0.3491021326","0.1210409879","0.4482398789","","","","","","","","","","","","","","76","L","3","","","237","main_expt",""
