"consent","trial_type","trial_index","time_elapsed","internal_node_id","subjID","study","MID","cond","drift","rt","responses","button_pressed","key_press","like","value","connected","gems","bombs","no_reward","GemPrChosen","BombPrChosen","GainOverPainPr_0","GainOverPainPr_1","GainOverPainPr_2","GainOverPainPr_3","LosePr_0","LosePr_1","LosePr_2","LosePr_3","WinPr_0","WinPr_1","WinPr_2","WinPr_3","Q0","Q1","Q2","gender","age","ethnicity","label","expt_phase","target","respCharCode","respKey","respChoiceNum","respChoice","practice","trial_counter","trial_label","Q0_index","view_history"
"GDM/GDM_behavioral_consent_30min_online.html","consent","0","7695","0.0-0.0","11075109","wem/bandit_party_1","AADDOP3FHMAV1","either","2","","","","","","","","","","","","","","","","","","","","","","","","","","","","","","","","","","","","","","","","","",""
"","survey-text","1","13928","0.0-1.0","11075109","wem/bandit_party_1","AADDOP3FHMAV1","either","2","5228","{""Q0"":""AADDOP3FHMAV1""}","","","","","","","","","","","","","","","","","","","","","","","","","","","","","","","","","","","","","","","",""
"","button-response","2","16181","0.0-2.0","11075109","wem/bandit_party_1","AADDOP3FHMAV1","either","2","1250","","1","","","","","","","","","","","","","","","","","","","","","","","","","","","","","","","","","","","","","","",""
"","text-replacement","3","28015","0.0-3.0","11075109","wem/bandit_party_1","AADDOP3FHMAV1","either","2","10831","","","32","","","","","","","","","","","","","","","","","","","","","","","","","","","","","","","","","","","","","",""
"","text-replacement","4","30619","0.0-4.0","11075109","wem/bandit_party_1","AADDOP3FHMAV1","either","2","2603","","","32","","","","","","","","","","","","","","","","","","","","","","","","","","","","","","","","","","","","","",""
"","identification","5","35084","0.0-6.0-0.0","11075109","wem/bandit_party_1","AADDOP3FHMAV1","either","2","4456","","","","2","3","3","","","","","","","","","","","","","","","","","","","","","","","","pre","identification_pre","the Democratic Party","","","","","","","","",""
"","identification","6","38959","0.0-6.0-1.0","11075109","wem/bandit_party_1","AADDOP3FHMAV1","either","2","2868","","","","1","1","1","","","","","","","","","","","","","","","","","","","","","","","","pre","identification_pre","the Republican party","","","","","","","","",""
"","text-replacement","7","42898","0.0-7.0","11075109","wem/bandit_party_1","AADDOP3FHMAV1","either","2","2938","","","32","","","","","","","","","","","","","","","","","","","","","","","","","","","","","","","","","","","","","",""
"","text-replacement","8","46537","0.0-8.0","11075109","wem/bandit_party_1","AADDOP3FHMAV1","either","2","3637","","","32","","","","","","","","","","","","","","","","","","","","","","","","","","","","","","","","","","","","","",""
"","text-replacement","9","57584","0.0-9.0","11075109","wem/bandit_party_1","AADDOP3FHMAV1","either","2","11046","","","32","","","","","","","","","","","","","","","","","","","","","","","","","","","","","","","","","","","","","",""
"","text-replacement","10","59746","0.0-10.0","11075109","wem/bandit_party_1","AADDOP3FHMAV1","either","2","2160","","","32","","","","","","","","","","","","","","","","","","","","","","","","","","","","","","","","","","","","","",""
"","text-replacement","11","81921","0.0-11.0","11075109","wem/bandit_party_1","AADDOP3FHMAV1","either","2","22175","","","32","","","","","","","","","","","","","","","","","","","","","","","","","","","","","","","","","","","","","",""
"","bandit","12","87002","0.0-12.0-0.0","11075109","wem/bandit_party_1","AADDOP3FHMAV1","either","2","3576","","","","","","","0","0","1","0","0","","","","","0","","","","0","","","","","","","","","","","","","74","J","0","img/none_selected_demo.jpg","true","0","","",""
"","bandit","13","89342","0.0-13.0-0.0","11075109","wem/bandit_party_1","AADDOP3FHMAV1","either","2","836","","","","","","","0","0","1","0","0","","","","","0","","","","0","","","","","","","","","","","","","75","K","0","img/none_selected_demo.jpg","true","0","","",""
"","text-replacement","14","92120","0.0-14.0","11075109","wem/bandit_party_1","AADDOP3FHMAV1","either","2","2777","","","32","","","","","","","","","","","","","","","","","","","","","","","","","","","","","","","","","","","","","",""
"","text-replacement","15","97308","0.0-15.0","11075109","wem/bandit_party_1","AADDOP3FHMAV1","either","2","5187","","","32","","","","","","","","","","","","","","","","","","","","","","","","","","","","","","","","","","","","","",""
"","text-replacement","16","102885","0.0-16.0","11075109","wem/bandit_party_1","AADDOP3FHMAV1","either","2","5574","","","32","","","","","","","","","","","","","","","","","","","","","","","","","","","","","","","","","","","","","",""
"","text-replacement","17","104379","0.0-17.0","11075109","wem/bandit_party_1","AADDOP3FHMAV1","either","2","1493","","","32","","","","","","","","","","","","","","","","","","","","","","","","","","","","","","","","","","","","","",""
"","bandit","18","106443","0.0-18.0-0.0","11075109","wem/bandit_party_1","AADDOP3FHMAV1","either","2","560","","","","","","","0","0","1","","0.8","0.5","0.5","","","0.8","0.2","","","","","","","","","","","","","","","","74","J","0","img/none_selected_demo.jpg","true","0","80_20_practice","",""
"","bandit","19","108944","0.0-18.0-1.0","11075109","wem/bandit_party_1","AADDOP3FHMAV1","either","2","997","","","","","","","0","1","0","","0.8","0.5","0.5","","","0.8","0.2","","","","","","","","","","","","","","","","74","J","0","img/none_selected_demo.jpg","true","0","80_20_practice","",""
"","bandit","20","110742","0.0-18.0-2.0","11075109","wem/bandit_party_1","AADDOP3FHMAV1","either","2","295","","","","","","","0","0","1","0.8","","0.5","0.5","","","","","","","0.8","0.2","","","","","","","","","","","","74","J","0","img/none_selected_demo.jpg","true","0","80_20_practice","",""
"","bandit","21","112492","0.0-18.0-3.0","11075109","wem/bandit_party_1","AADDOP3FHMAV1","either","2","245","","","","","","","0","0","1","","0.8","0.5","0.5","","","0.8","0.2","","","","","","","","","","","","","","","","74","J","0","img/none_selected_demo.jpg","true","0","80_20_practice","",""
"","bandit","22","114471","0.0-18.0-4.0","11075109","wem/bandit_party_1","AADDOP3FHMAV1","either","2","476","","","","","","","0","0","1","0.2","","0.5","0.5","","","","","","","0.8","0.2","","","","","","","","","","","","75","K","1","","true","0","80_20_practice","",""
"","bandit","23","116255","0.0-18.0-5.0","11075109","wem/bandit_party_1","AADDOP3FHMAV1","either","2","281","","","","","","","0","0","1","","0.2","0.5","0.5","","","0.8","0.2","","","","","","","","","","","","","","","","75","K","1","","true","0","80_20_practice","",""
"","bandit","24","118025","0.0-18.0-6.0","11075109","wem/bandit_party_1","AADDOP3FHMAV1","either","2","266","","","","","","","0","1","0","","0.2","0.5","0.5","","","0.8","0.2","","","","","","","","","","","","","","","","75","K","1","","true","0","80_20_practice","",""
"","bandit","25","121579","0.0-18.0-7.0","11075109","wem/bandit_party_1","AADDOP3FHMAV1","either","2","2050","","","","","","","0","0","1","","0.2","0.5","0.5","","","0.8","0.2","","","","","","","","","","","","","","","","75","K","1","","true","0","80_20_practice","",""
"","bandit","26","124340","0.0-18.0-8.0","11075109","wem/bandit_party_1","AADDOP3FHMAV1","either","2","1258","","","","","","","0","0","1","","0.2","0.5","0.5","","","0.8","0.2","","","","","","","","","","","","","","","","75","K","1","","true","0","80_20_practice","",""
"","bandit","27","127302","0.0-18.0-9.0","11075109","wem/bandit_party_1","AADDOP3FHMAV1","either","2","1459","","","","","","","0","0","1","","0.2","0.5","0.5","","","0.8","0.2","","","","","","","","","","","","","","","","75","K","1","","true","0","80_20_practice","",""
"","bandit","28","129208","0.0-18.0-10.0","11075109","wem/bandit_party_1","AADDOP3FHMAV1","either","2","400","","","","","","","0","0","1","0.2","","0.5","0.5","","","","","","","0.8","0.2","","","","","","","","","","","","75","K","1","","true","0","80_20_practice","",""
"","bandit","29","138203","0.0-18.0-11.0","11075109","wem/bandit_party_1","AADDOP3FHMAV1","either","2","7491","","","","","","","0","0","1","","0.2","0.5","0.5","","","0.8","0.2","","","","","","","","","","","","","","","","75","K","1","","true","0","80_20_practice","",""
"","bandit","30","140294","0.0-18.0-12.0","11075109","wem/bandit_party_1","AADDOP3FHMAV1","either","2","585","","","","","","","1","0","0","0.8","","0.5","0.5","","","","","","","0.8","0.2","","","","","","","","","","","","74","J","0","img/none_selected_demo.jpg","true","0","80_20_practice","",""
"","bandit","31","142359","0.0-18.0-13.0","11075109","wem/bandit_party_1","AADDOP3FHMAV1","either","2","561","","","","","","","0","1","0","","0.8","0.5","0.5","","","0.8","0.2","","","","","","","","","","","","","","","","74","J","0","img/none_selected_demo.jpg","true","0","80_20_practice","",""
"","bandit","32","144474","0.0-18.0-14.0","11075109","wem/bandit_party_1","AADDOP3FHMAV1","either","2","611","","","","","","","1","0","0","0.8","","0.5","0.5","","","","","","","0.8","0.2","","","","","","","","","","","","74","J","0","img/none_selected_demo.jpg","true","0","80_20_practice","",""
"","bandit","33","146227","0.0-18.0-15.0","11075109","wem/bandit_party_1","AADDOP3FHMAV1","either","2","249","","","","","","","1","0","0","0.8","","0.5","0.5","","","","","","","0.8","0.2","","","","","","","","","","","","74","J","0","img/none_selected_demo.jpg","true","0","80_20_practice","",""
"","bandit","34","147972","0.0-18.0-16.0","11075109","wem/bandit_party_1","AADDOP3FHMAV1","either","2","242","","","","","","","1","0","0","0.8","","0.5","0.5","","","","","","","0.8","0.2","","","","","","","","","","","","74","J","0","img/none_selected_demo.jpg","true","0","80_20_practice","",""
"","bandit","35","150026","0.0-18.0-17.0","11075109","wem/bandit_party_1","AADDOP3FHMAV1","either","2","548","","","","","","","0","1","0","","0.8","0.5","0.5","","","0.8","0.2","","","","","","","","","","","","","","","","74","J","0","img/none_selected_demo.jpg","true","0","80_20_practice","",""
"","bandit","36","152001","0.0-18.0-18.0","11075109","wem/bandit_party_1","AADDOP3FHMAV1","either","2","472","","","","","","","0","1","0","","0.8","0.5","0.5","","","0.8","0.2","","","","","","","","","","","","","","","","74","J","0","img/none_selected_demo.jpg","true","0","80_20_practice","",""
"","bandit","37","154286","0.0-18.0-19.0","11075109","wem/bandit_party_1","AADDOP3FHMAV1","either","2","781","","","","","","","0","1","0","","0.8","0.5","0.5","","","0.8","0.2","","","","","","","","","","","","","","","","74","J","0","img/none_selected_demo.jpg","true","0","80_20_practice","",""
"","text-replacement","38","165516","0.0-19.0","11075109","wem/bandit_party_1","AADDOP3FHMAV1","either","2","11229","","","32","","","","","","","","","","","","","","","","","","","","","","","","","","","","","","","","","","","","","",""
"","bandit","39","170114","0.0-20.0-0.0","11075109","wem/bandit_party_1","AADDOP3FHMAV1","either","2","3094","","","","","","","1","0","0","1","0","","","","","0","1","","","1","0","","","","","","","","","","","","74","J","0","img/none_selected_demo.jpg","true","0","","",""
"","text-replacement","40","173629","0.0-21.0","11075109","wem/bandit_party_1","AADDOP3FHMAV1","either","2","3513","","","32","","","","","","","","","","","","","","","","","","","","","","","","","","","","","","","","","","","","","",""
"","text-replacement","41","175224","0.0-22.0","11075109","wem/bandit_party_1","AADDOP3FHMAV1","either","2","1593","","","32","","","","","","","","","","","","","","","","","","","","","","","","","","","","","","","","","","","","","",""
"","text-replacement","42","176732","0.0-23.0","11075109","wem/bandit_party_1","AADDOP3FHMAV1","either","2","1508","","","32","","","","","","","","","","","","","","","","","","","","","","","","","","","","","","","","","","","","","",""
"","text-replacement","43","179593","0.0-24.0","11075109","wem/bandit_party_1","AADDOP3FHMAV1","either","2","2860","","","32","","","","","","","","","","","","","","","","","","","","","","","","","","","","","","","","","","","","","",""
"","text-replacement","44","180640","0.0-25.0","11075109","wem/bandit_party_1","AADDOP3FHMAV1","either","2","1046","","","32","","","","","","","","","","","","","","","","","","","","","","","","","","","","","","","","","","","","","",""
"","text-replacement","45","181292","0.0-26.0","11075109","wem/bandit_party_1","AADDOP3FHMAV1","either","2","651","","","32","","","","","","","","","","","","","","","","","","","","","","","","","","","","","","","","","","","","","",""
"","text-replacement","46","181978","0.0-27.0","11075109","wem/bandit_party_1","AADDOP3FHMAV1","either","2","685","","","32","","","","","","","","","","","","","","","","","","","","","","","","","","","","","","","","","","","","","",""
"","text-replacement","47","183511","0.0-28.0","11075109","wem/bandit_party_1","AADDOP3FHMAV1","either","2","1532","","","32","","","","","","","","","","","","","","","","","","","","","","","","","","","","","","","","","","","","","",""
"","text-replacement","48","186815","0.0-29.0","11075109","wem/bandit_party_1","AADDOP3FHMAV1","either","2","3302","","","32","","","","","","","","","","","","","","","","","","","","","","","","","","","","","","","","","","","","","",""
"","text-replacement","49","187602","0.0-30.0","11075109","wem/bandit_party_1","AADDOP3FHMAV1","either","2","785","","","32","","","","","","","","","","","","","","","","","","","","","","","","","","","","","","","","","","","","","",""
"","text-replacement","50","188162","0.0-31.0","11075109","wem/bandit_party_1","AADDOP3FHMAV1","either","2","559","","","32","","","","","","","","","","","","","","","","","","","","","","","","","","","","","","","","","","","","","",""
"","bandit","51","191027","0.0-32.0-0.0","11075109","wem/bandit_party_1","AADDOP3FHMAV1","either","2","1361","","","","","","","1","0","0","0.8","","0.5","0.5","0.5","0.5","","","","","0.8","0.2","0.6","0.2","","","","","","","","","","72","H","0","img/none_selected.jpg","true","0","full_practice","",""
"","bandit","52","192910","0.0-32.0-1.0","11075109","wem/bandit_party_1","AADDOP3FHMAV1","either","2","375","","","","","","","0","0","1","","0.8","0.5","0.5","0.5","0.5","0.8","0.2","0.6","0.2","","","","","","","","","","","","","","72","H","0","img/none_selected.jpg","true","0","full_practice","",""
"","bandit","53","194707","0.0-32.0-2.0","11075109","wem/bandit_party_1","AADDOP3FHMAV1","either","2","292","","","","","","","1","0","0","0.8","","0.5","0.5","0.5","0.5","","","","","0.8","0.2","0.6","0.2","","","","","","","","","","72","H","0","img/none_selected.jpg","true","0","full_practice","",""
"","bandit","54","196505","0.0-32.0-3.0","11075109","wem/bandit_party_1","AADDOP3FHMAV1","either","2","294","","","","","","","0","1","0","","0.8","0.5","0.5","0.5","0.5","0.8","0.2","0.6","0.2","","","","","","","","","","","","","","72","H","0","img/none_selected.jpg","true","0","full_practice","",""
"","bandit","55","198329","0.0-32.0-4.0","11075109","wem/bandit_party_1","AADDOP3FHMAV1","either","2","296","","","","","","","1","0","0","0.8","","0.5","0.5","0.5","0.5","","","","","0.8","0.2","0.6","0.2","","","","","","","","","","72","H","0","img/none_selected.jpg","true","0","full_practice","",""
"","bandit","56","200065","0.0-32.0-5.0","11075109","wem/bandit_party_1","AADDOP3FHMAV1","either","2","233","","","","","","","0","0","1","0.2","","0.5","0.5","0.5","0.5","","","","","0.8","0.2","0.6","0.2","","","","","","","","","","74","J","1","","true","0","full_practice","",""
"","bandit","57","201673","0.0-32.0-6.0","11075109","wem/bandit_party_1","AADDOP3FHMAV1","either","2","104","","","","","","","0","0","1","","0.2","0.5","0.5","0.5","0.5","0.8","0.2","0.6","0.2","","","","","","","","","","","","","","74","J","1","","true","0","full_practice","",""
"","bandit","58","203423","0.0-32.0-7.0","11075109","wem/bandit_party_1","AADDOP3FHMAV1","either","2","245","","","","","","","0","0","1","","0.2","0.5","0.5","0.5","0.5","0.8","0.2","0.6","0.2","","","","","","","","","","","","","","74","J","1","","true","0","full_practice","",""
"","bandit","59","205151","0.0-32.0-8.0","11075109","wem/bandit_party_1","AADDOP3FHMAV1","either","2","225","","","","","","","1","0","0","0.6","","0.5","0.5","0.5","0.5","","","","","0.8","0.2","0.6","0.2","","","","","","","","","","75","K","2","","true","0","full_practice","",""
"","bandit","60","206875","0.0-32.0-9.0","11075109","wem/bandit_party_1","AADDOP3FHMAV1","either","2","219","","","","","","","1","0","0","0.6","","0.5","0.5","0.5","0.5","","","","","0.8","0.2","0.6","0.2","","","","","","","","","","75","K","2","","true","0","full_practice","",""
"","bandit","61","208619","0.0-32.0-10.0","11075109","wem/bandit_party_1","AADDOP3FHMAV1","either","2","239","","","","","","","0","1","0","","0.6","0.5","0.5","0.5","0.5","0.8","0.2","0.6","0.2","","","","","","","","","","","","","","75","K","2","","true","0","full_practice","",""
"","bandit","62","210317","0.0-32.0-11.0","11075109","wem/bandit_party_1","AADDOP3FHMAV1","either","2","192","","","","","","","0","0","1","","0.6","0.5","0.5","0.5","0.5","0.8","0.2","0.6","0.2","","","","","","","","","","","","","","75","K","2","","true","0","full_practice","",""
"","bandit","63","211878","0.0-32.0-12.0","11075109","wem/bandit_party_1","AADDOP3FHMAV1","either","2","55","","","","","","","1","0","0","0.6","","0.5","0.5","0.5","0.5","","","","","0.8","0.2","0.6","0.2","","","","","","","","","","75","K","2","","true","0","full_practice","",""
"","bandit","64","213612","0.0-32.0-13.0","11075109","wem/bandit_party_1","AADDOP3FHMAV1","either","2","229","","","","","","","0","0","1","","0.6","0.5","0.5","0.5","0.5","0.8","0.2","0.6","0.2","","","","","","","","","","","","","","75","K","2","","true","0","full_practice","",""
"","bandit","65","215376","0.0-32.0-14.0","11075109","wem/bandit_party_1","AADDOP3FHMAV1","either","2","259","","","","","","","0","0","1","0.2","","0.5","0.5","0.5","0.5","","","","","0.8","0.2","0.6","0.2","","","","","","","","","","76","L","3","","true","0","full_practice","",""
"","bandit","66","217194","0.0-32.0-15.0","11075109","wem/bandit_party_1","AADDOP3FHMAV1","either","2","315","","","","","","","0","0","1","0.2","","0.5","0.5","0.5","0.5","","","","","0.8","0.2","0.6","0.2","","","","","","","","","","76","L","3","","true","0","full_practice","",""
"","bandit","67","218918","0.0-32.0-16.0","11075109","wem/bandit_party_1","AADDOP3FHMAV1","either","2","220","","","","","","","0","0","1","","0.2","0.5","0.5","0.5","0.5","0.8","0.2","0.6","0.2","","","","","","","","","","","","","","76","L","3","","true","0","full_practice","",""
"","bandit","68","220654","0.0-32.0-17.0","11075109","wem/bandit_party_1","AADDOP3FHMAV1","either","2","232","","","","","","","1","0","0","0.8","","0.5","0.5","0.5","0.5","","","","","0.8","0.2","0.6","0.2","","","","","","","","","","72","H","0","img/none_selected.jpg","true","0","full_practice","",""
"","bandit","69","222407","0.0-32.0-18.0","11075109","wem/bandit_party_1","AADDOP3FHMAV1","either","2","248","","","","","","","1","0","0","0.8","","0.5","0.5","0.5","0.5","","","","","0.8","0.2","0.6","0.2","","","","","","","","","","72","H","0","img/none_selected.jpg","true","0","full_practice","",""
"","bandit","70","224116","0.0-32.0-19.0","11075109","wem/bandit_party_1","AADDOP3FHMAV1","either","2","205","","","","","","","0","0","1","0.8","","0.5","0.5","0.5","0.5","","","","","0.8","0.2","0.6","0.2","","","","","","","","","","72","H","0","img/none_selected.jpg","true","0","full_practice","",""
"","text","71","226152","0.0-33.0","11075109","wem/bandit_party_1","AADDOP3FHMAV1","either","2","2029","","","32","","","","","","","","","","","","","","","","","","","","","","","","","","","","","","","","","","","","","",""
"","text-replacement","72","232804","0.0-34.0","11075109","wem/bandit_party_1","AADDOP3FHMAV1","either","2","5649","","","32","","","","","","","","","","","","","","","","","","","","","","","","","","","","","","","","","","","","","",""
"","text-replacement","73","235725","0.0-35.0","11075109","wem/bandit_party_1","AADDOP3FHMAV1","either","2","2919","","","32","","","","","","","","","","","","","","","","","","","","","","","","","","","","","","","","","","","","","",""
"","text-replacement","74","237098","0.0-36.0","11075109","wem/bandit_party_1","AADDOP3FHMAV1","either","2","1371","","","32","","","","","","","","","","","","","","","","","","","","","","","","","","","","","","","","","","","","","",""
"","text-replacement","75","238667","0.0-37.0","11075109","wem/bandit_party_1","AADDOP3FHMAV1","either","2","1568","","","32","","","","","","","","","","","","","","","","","","","","","","","","","","","","","","","","","","","","","",""
"","text-replacement","76","241584","0.0-38.0","11075109","wem/bandit_party_1","AADDOP3FHMAV1","either","2","2915","","","32","","","","","","","","","","","","","","","","","","","","","","","","","","","","","","","","","","","","","",""
"","survey-multi-choice-replacement","77","247690","0.0-39.0-0.0","11075109","wem/bandit_party_1","AADDOP3FHMAV1","either","2","6100","","","","","","","","","","","","","","","","","","","","","","","","Money will be added to the pool for <span style='color:blue;'>DEMOCRATS</span>","","","","","","","attn_check","","","","","","","","","0",""
"","survey-multi-choice-replacement","78","251158","0.0-40.0-0.0","11075109","wem/bandit_party_1","AADDOP3FHMAV1","either","2","2459","","","","","","","","","","","","","","","","","","","","","","","","Money will be subtracted from the pool for <span style='color:red;'>REPUBLICANS</span>","","","","","","","attn_check","","","","","","","","","1",""
"","instructions","79","253347","0.0-40.0-1.0-0.0","11075109","wem/bandit_party_1","AADDOP3FHMAV1","either","2","1186","","","","","","","","","","","","","","","","","","","","","","","","","","","","","","","","","","","","","","","","","[{""page_index"":0,""viewing_time"":1185}]"
"","survey-multi-choice-replacement","80","256884","0.0-40.1-0.1","11075109","wem/bandit_party_1","AADDOP3FHMAV1","either","2","2531","","","","","","","","","","","","","","","","","","","","","","","","Equal amounts of money will be added to the pool for <span style='color:blue;'>DEMOCRATS</span> and subtracted from the pool for <span style='color:red;'>REPUBLICANS</span>","","","","","","","attn_check","","","","","","","","","2",""
"","survey-multi-choice-replacement","81","259985","0.0-41.0-0.0","11075109","wem/bandit_party_1","AADDOP3FHMAV1","either","2","2093","","","","","","","","","","","","","","","","","","","","","","","","No money will be added to either pool","","","","","","","attn_check","","","","","","","","","3",""
"","bandit","82","267399","0.0-42.0-0.0","11075109","wem/bandit_party_1","AADDOP3FHMAV1","either","2","4907","","","","","","","0","1","0","","0.362799796","0.8","0.4","0.6","0.2","0.4781977867","0.362799796","0.326135308","0.3653736811","","","","","","","","","","","","","","74","J","1","","","1","main_expt","",""
"","bandit","83","269309","0.0-43.0-0.0","11075109","wem/bandit_party_1","AADDOP3FHMAV1","either","2","405","","","","","","","1","0","0","0.4765481994","","0.8","0.4","0.6","0.2","","","","","0.4765481994","0.3891507205","0.3564958201","0.3999069229","","","","","","","","","","72","H","0","img/none_selected.jpg","","2","main_expt","",""
"","bandit","84","271253","0.0-44.0-0.0","11075109","wem/bandit_party_1","AADDOP3FHMAV1","either","2","440","","","","","","","0","0","1","0.4722158263","","0.8","0.4","0.6","0.2","","","","","0.4722158263","0.3151339382","0.3309056029","0.4363582421","","","","","","","","","","72","H","0","img/none_selected.jpg","","3","main_expt","",""
"","bandit","85","272987","0.0-45.0-0.0","11075109","wem/bandit_party_1","AADDOP3FHMAV1","either","2","229","","","","","","","1","0","0","0.4609570051","","0.8","0.4","0.6","0.2","","","","","0.4609570051","0.250648122","0.308467875","0.4300921111","","","","","","","","","","72","H","0","img/none_selected.jpg","","4","main_expt","",""
"","bandit","86","274731","0.0-46.0-0.0","11075109","wem/bandit_party_1","AADDOP3FHMAV1","either","2","239","","","","","","","1","0","0","0.4707799186","","0.8","0.4","0.6","0.2","","","","","0.4707799186","0.2382585344","0.3349995635","0.3863220662","","","","","","","","","","72","H","0","img/none_selected.jpg","","5","main_expt","",""
"","bandit","87","276550","0.0-47.0-0.0","11075109","wem/bandit_party_1","AADDOP3FHMAV1","either","2","315","","","","","","","0","0","1","0.4676743975","","0.8","0.4","0.6","0.2","","","","","0.4676743975","0.2088101903","0.3743101545","0.4192648028","","","","","","","","","","72","H","0","img/none_selected.jpg","","6","main_expt","",""
"","bandit","88","278274","0.0-48.0-0.0","11075109","wem/bandit_party_1","AADDOP3FHMAV1","either","2","219","","","","","","","0","0","1","0.1884279889","","0.8","0.4","0.6","0.2","","","","","0.4767364015","0.1884279889","0.377506125","0.4218548145","","","","","","","","","","74","J","1","","","7","main_expt","",""
"","bandit","89","280034","0.0-49.0-0.0","11075109","wem/bandit_party_1","AADDOP3FHMAV1","either","2","254","","","","","","","0","0","1","","0.3452849142","0.8","0.4","0.6","0.2","0.4837409877","0.2297930851","0.3452849142","0.4298914749","","","","","","","","","","","","","","75","K","2","","","8","main_expt","",""
"","bandit","90","281789","0.0-50.0-0.0","11075109","wem/bandit_party_1","AADDOP3FHMAV1","either","2","250","","","","","","","0","0","1","0.4215440671","","0.8","0.4","0.6","0.2","","","","","0.4825212187","0.2219539873","0.2713567333","0.4215440671","","","","","","","","","","76","L","3","","","9","main_expt","",""
"","bandit","91","283534","0.0-51.0-0.0","11075109","wem/bandit_party_1","AADDOP3FHMAV1","either","2","239","","","","","","","1","0","0","0.2712708503","","0.8","0.4","0.6","0.2","","","","","0.4791264729","0.2398128751","0.2712708503","0.3991616263","","","","","","","","","","75","K","2","","","10","main_expt","",""
"","bandit","92","285226","0.0-52.0-0.0","11075109","wem/bandit_party_1","AADDOP3FHMAV1","either","2","188","","","","","","","0","0","1","0.2635531688","","0.8","0.4","0.6","0.2","","","","","0.4762013833","0.2551733424","0.2635531688","0.4002673883","","","","","","","","","","75","K","2","","","11","main_expt","",""
"","bandit","93","286921","0.0-53.0-0.0","11075109","wem/bandit_party_1","AADDOP3FHMAV1","either","2","189","","","","","","","0","0","1","","0.2593424883","0.8","0.4","0.6","0.2","0.4729837645","0.2593424883","0.2669056975","0.368629831","","","","","","","","","","","","","","74","J","1","","","12","main_expt","",""
"","bandit","94","288640","0.0-54.0-0.0","11075109","wem/bandit_party_1","AADDOP3FHMAV1","either","2","214","","","","","","","0","0","1","","0.2493591627","0.8","0.4","0.6","0.2","0.4749786695","0.2493591627","0.3204456557","0.4189726289","","","","","","","","","","","","","","74","J","1","","","13","main_expt","",""
"","bandit","95","290403","0.0-55.0-0.0","11075109","wem/bandit_party_1","AADDOP3FHMAV1","either","2","258","","","","","","","1","0","0","0.4810115094","","0.8","0.4","0.6","0.2","","","","","0.4810115094","0.2686446846","0.3466526728","0.4352425359","","","","","","","","","","72","H","0","img/none_selected.jpg","","14","main_expt","",""
"","bandit","96","292163","0.0-56.0-0.0","11075109","wem/bandit_party_1","AADDOP3FHMAV1","either","2","256","","","","","","","0","0","1","0.4705329286","","0.8","0.4","0.6","0.2","","","","","0.4705329286","0.2690169042","0.3736671224","0.3819090161","","","","","","","","","","72","H","0","img/none_selected.jpg","","15","main_expt","",""
"","bandit","97","294067","0.0-57.0-0.0","11075109","wem/bandit_party_1","AADDOP3FHMAV1","either","2","400","","","","","","","1","0","0","0.4687419894","","0.8","0.4","0.6","0.2","","","","","0.4687419894","0.2518303543","0.3778143907","0.3737760256","","","","","","","","","","72","H","0","img/none_selected.jpg","","16","main_expt","",""
"","bandit","98","296121","0.0-58.0-0.0","11075109","wem/bandit_party_1","AADDOP3FHMAV1","either","2","549","","","","","","","0","0","1","0.4594180265","","0.8","0.4","0.6","0.2","","","","","0.4594180265","0.2406549936","0.3845750066","0.4151791473","","","","","","","","","","72","H","0","img/none_selected.jpg","","17","main_expt","",""
"","bandit","99","297957","0.0-59.0-0.0","11075109","wem/bandit_party_1","AADDOP3FHMAV1","either","2","329","","","","","","","0","0","1","0.425397146","","0.8","0.4","0.6","0.2","","","","","0.425397146","0.2670149403","0.4041286345","0.4137363134","","","","","","","","","","72","H","0","img/none_selected.jpg","","18","main_expt","",""
"","bandit","100","301153","0.0-60.0-0.0","11075109","wem/bandit_party_1","AADDOP3FHMAV1","either","2","1692","","","","","","","1","0","0","0.4201246927","","0.8","0.4","0.6","0.2","","","","","0.4201246927","0.2658482338","0.4127350431","0.4084056464","","","","","","","","","","72","H","0","img/none_selected.jpg","","19","main_expt","",""
"","bandit","101","304527","0.0-61.0-0.0","11075109","wem/bandit_party_1","AADDOP3FHMAV1","either","2","1870","","","","","","","0","0","1","0.3954271328","","0.8","0.4","0.6","0.2","","","","","0.3954271328","0.2452433766","0.4107359536","0.4129175496","","","","","","","","","","72","H","0","img/none_selected.jpg","","20","main_expt","",""
"","bandit","102","306471","0.0-62.0-0.0","11075109","wem/bandit_party_1","AADDOP3FHMAV1","either","2","440","","","","","","","0","1","0","","0.3888488162","0.8","0.4","0.6","0.2","0.4196431029","0.2298761452","0.3954861765","0.3888488162","","","","","","","","","","","","","","76","L","3","","","21","main_expt","",""
"","bandit","103","308260","0.0-63.0-0.0","11075109","wem/bandit_party_1","AADDOP3FHMAV1","either","2","283","","","","","","","0","1","0","","0.3873149631","0.8","0.4","0.6","0.2","0.3843335182","0.266827693","0.3805979297","0.3873149631","","","","","","","","","","","","","","76","L","3","","","22","main_expt","",""
"","bandit","104","310145","0.0-64.0-0.0","11075109","wem/bandit_party_1","AADDOP3FHMAV1","either","2","381","","","","","","","1","0","0","0.3659772031","","0.8","0.4","0.6","0.2","","","","","0.3839977458","0.2519769849","0.425451992","0.3659772031","","","","","","","","","","76","L","3","","","23","main_expt","",""
"","bandit","105","312184","0.0-65.0-0.0","11075109","wem/bandit_party_1","AADDOP3FHMAV1","either","2","535","","","","","","","0","0","1","","0.3594327093","0.8","0.4","0.6","0.2","0.3338939571","0.2447613107","0.4699447661","0.3594327093","","","","","","","","","","","","","","76","L","3","","","24","main_expt","",""
"","bandit","106","315730","0.0-66.0-0.0","11075109","wem/bandit_party_1","AADDOP3FHMAV1","either","2","2039","","","","","","","0","1","0","","0.3719143394","0.8","0.4","0.6","0.2","0.324486952","0.2350413847","0.4484050393","0.3719143394","","","","","","","","","","","","","","76","L","3","","","25","main_expt","",""
"","bandit","107","317688","0.0-67.0-0.0","11075109","wem/bandit_party_1","AADDOP3FHMAV1","either","2","452","","","","","","","0","1","0","","0.3690014044","0.8","0.4","0.6","0.2","0.3095710384","0.207774486","0.4190234423","0.3690014044","","","","","","","","","","","","","","76","L","3","","","26","main_expt","",""
"","bandit","108","319543","0.0-68.0-0.0","11075109","wem/bandit_party_1","AADDOP3FHMAV1","either","2","350","","","","","","","0","0","1","0.3940030818","","0.8","0.4","0.6","0.2","","","","","0.3355629191","0.2164182795","0.4251478254","0.3940030818","","","","","","","","","","76","L","3","","","27","main_expt","",""
"","bandit","109","321276","0.0-69.0-0.0","11075109","wem/bandit_party_1","AADDOP3FHMAV1","either","2","228","","","","","","","1","0","0","0.3668681485","","0.8","0.4","0.6","0.2","","","","","0.3668681485","0.2164031865","0.4287328697","0.4111080327","","","","","","","","","","72","H","0","img/none_selected.jpg","","28","main_expt","",""
"","bandit","110","323120","0.0-70.0-0.0","11075109","wem/bandit_party_1","AADDOP3FHMAV1","either","2","337","","","","","","","0","0","1","0.343198694","","0.8","0.4","0.6","0.2","","","","","0.343198694","0.2770000278","0.4106025245","0.41290056","","","","","","","","","","72","H","0","img/none_selected.jpg","","29","main_expt","",""
"","bandit","111","324910","0.0-71.0-0.0","11075109","wem/bandit_party_1","AADDOP3FHMAV1","either","2","286","","","","","","","1","0","0","0.326069126","","0.8","0.4","0.6","0.2","","","","","0.326069126","0.2354797847","0.3942494676","0.3937480262","","","","","","","","","","72","H","0","img/none_selected.jpg","","30","main_expt","",""
"","bandit","112","327091","0.0-72.0-0.0","11075109","wem/bandit_party_1","AADDOP3FHMAV1","either","2","676","","","","","","","0","1","0","","0.2692030882","0.8","0.4","0.6","0.2","0.3390127419","0.2692030882","0.4285056211","0.3997016236","","","","","","","","","","","","","","74","J","1","","","31","main_expt","",""
"","bandit","113","328879","0.0-73.0-0.0","11075109","wem/bandit_party_1","AADDOP3FHMAV1","either","2","283","","","","","","","0","0","1","","0.2471118655","0.8","0.4","0.6","0.2","0.3360649894","0.2471118655","0.4249454459","0.3574295763","","","","","","","","","","","","","","74","J","1","","","32","main_expt","",""
"","bandit","114","330718","0.0-74.0-0.0","11075109","wem/bandit_party_1","AADDOP3FHMAV1","either","2","334","","","","","","","0","0","1","","0.3052602024","0.8","0.4","0.6","0.2","0.3052602024","0.2879199001","0.416417765","0.3877818659","","","","","","","","","","","","","","72","H","0","img/none_selected.jpg","","33","main_expt","",""
"","bandit","115","332589","0.0-75.0-0.0","11075109","wem/bandit_party_1","AADDOP3FHMAV1","either","2","365","","","","","","","0","1","0","","0.4623714429","0.8","0.4","0.6","0.2","0.3594788954","0.3180115212","0.4623714429","0.3799496232","","","","","","","","","","","","","","75","K","2","","","34","main_expt","",""
"","bandit","116","334383","0.0-76.0-0.0","11075109","wem/bandit_party_1","AADDOP3FHMAV1","either","2","288","","","","","","","0","0","1","0.4591977302","","0.8","0.4","0.6","0.2","","","","","0.380235832","0.2524306687","0.4591977302","0.3577573403","","","","","","","","","","75","K","2","","","35","main_expt","",""
"","bandit","117","336171","0.0-77.0-0.0","11075109","wem/bandit_party_1","AADDOP3FHMAV1","either","2","284","","","","","","","0","0","1","","0.4686235256","0.8","0.4","0.6","0.2","0.3459989602","0.2351869563","0.4686235256","0.3895375856","","","","","","","","","","","","","","75","K","2","","","36","main_expt","",""
"","bandit","118","338013","0.0-78.0-0.0","11075109","wem/bandit_party_1","AADDOP3FHMAV1","either","2","337","","","","","","","0","0","1","0.3320905149","","0.8","0.4","0.6","0.2","","","","","0.3320905149","0.2629170466","0.4571547709","0.3783527007","","","","","","","","","","72","H","0","img/none_selected.jpg","","37","main_expt","",""
"","bandit","119","339880","0.0-79.0-0.0","11075109","wem/bandit_party_1","AADDOP3FHMAV1","either","2","361","","","","","","","0","0","1","0.3090194305","","0.8","0.4","0.6","0.2","","","","","0.3471020919","0.3090194305","0.4688430709","0.284076782","","","","","","","","","","74","J","1","","","38","main_expt","",""
"","bandit","120","341805","0.0-80.0-0.0","11075109","wem/bandit_party_1","AADDOP3FHMAV1","either","2","421","","","","","","","0","0","1","","0.2845371228","0.8","0.4","0.6","0.2","0.3401763967","0.2845371228","0.4612923778","0.3388972186","","","","","","","","","","","","","","74","J","1","","","39","main_expt","",""
"","bandit","121","343609","0.0-81.0-0.0","11075109","wem/bandit_party_1","AADDOP3FHMAV1","either","2","300","","","","","","","1","0","0","0.3260487483","","0.8","0.4","0.6","0.2","","","","","0.3260487483","0.3076259244","0.4576194683","0.2663655232","","","","","","","","","","72","H","0","img/none_selected.jpg","","40","main_expt","",""
"","bandit","122","345363","0.0-82.0-0.0","11075109","wem/bandit_party_1","AADDOP3FHMAV1","either","2","250","","","","","","","0","0","1","","0.3390218734","0.8","0.4","0.6","0.2","0.3390218734","0.2888769276","0.4473921051","0.2608266697","","","","","","","","","","","","","","72","H","0","img/none_selected.jpg","","41","main_expt","",""
"","bandit","123","351328","0.0-83.0-0.0","11075109","wem/bandit_party_1","AADDOP3FHMAV1","either","2","4459","","","","","","","0","0","1","0.2639198141","","0.8","0.4","0.6","0.2","","","","","0.2889680017","0.2639198141","0.425470286","0.2287676803","","","","","","","","","","74","J","1","","","42","main_expt","",""
"","bandit","124","353168","0.0-84.0-0.0","11075109","wem/bandit_party_1","AADDOP3FHMAV1","either","2","335","","","","","","","1","0","0","0.4030522017","","0.8","0.4","0.6","0.2","","","","","0.2784828801","0.2255441472","0.4030522017","0.2043112358","","","","","","","","","","75","K","2","","","43","main_expt","",""
"","bandit","125","354917","0.0-85.0-0.0","11075109","wem/bandit_party_1","AADDOP3FHMAV1","either","2","245","","","","","","","0","0","1","","0.4106315797","0.8","0.4","0.6","0.2","0.2805729819","0.2050272072","0.4106315797","0.1957049551","","","","","","","","","","","","","","75","K","2","","","44","main_expt","",""
"","bandit","126","356800","0.0-86.0-0.0","11075109","wem/bandit_party_1","AADDOP3FHMAV1","either","2","378","","","","","","","0","0","1","","0.2207366272","0.8","0.4","0.6","0.2","0.2195119073","0.239455925","0.4258527362","0.2207366272","","","","","","","","","","","","","","76","L","3","","","45","main_expt","",""
"","bandit","127","358539","0.0-87.0-0.0","11075109","wem/bandit_party_1","AADDOP3FHMAV1","either","2","235","","","","","","","0","0","1","0.2657932304","","0.8","0.4","0.6","0.2","","","","","0.2657932304","0.2414778298","0.4425966235","0.1727988076","","","","","","","","","","72","H","0","img/none_selected.jpg","","46","main_expt","",""
"","bandit","128","360659","0.0-88.0-0.0","11075109","wem/bandit_party_1","AADDOP3FHMAV1","either","2","615","","","","","","","0","0","1","0.2678398397","","0.8","0.4","0.6","0.2","","","","","0.2678398397","0.1884211613","0.4428977597","0.1446735631","","","","","","","","","","72","H","0","img/none_selected.jpg","","47","main_expt","",""
"","bandit","129","362465","0.0-89.0-0.0","11075109","wem/bandit_party_1","AADDOP3FHMAV1","either","2","285","","","","","","","0","0","1","0.1755274282","","0.8","0.4","0.6","0.2","","","","","0.2866904938","0.1755274282","0.4479964269","0.1681765936","","","","","","","","","","74","J","1","","","48","main_expt","",""
"","bandit","130","367528","0.0-90.0-0.0","11075109","wem/bandit_party_1","AADDOP3FHMAV1","either","2","3557","","","","","","","0","1","0","","0.1646396384","0.8","0.4","0.6","0.2","0.2803848884","0.1646396384","0.4660387519","0.1473883531","","","","","","","","","","","","","","74","J","1","","","49","main_expt","",""
"","bandit","131","370271","0.0-91.0-0.0","11075109","wem/bandit_party_1","AADDOP3FHMAV1","either","2","1235","","","","","","","0","0","1","","0.2024226619","0.8","0.4","0.6","0.2","0.2587411269","0.2024226619","0.4345757832","0.1378170987","","","","","","","","","","","","","","74","J","1","","","50","main_expt","",""
"","bandit","132","372127","0.0-92.0-0.0","11075109","wem/bandit_party_1","AADDOP3FHMAV1","either","2","351","","","","","","","0","0","1","","0.4450950844","0.8","0.4","0.6","0.2","0.2212901065","0.1976760068","0.4450950844","0.1430360168","","","","","","","","","","","","","","75","K","2","","","51","main_expt","",""
"","bandit","133","374365","0.0-93.0-0.0","11075109","wem/bandit_party_1","AADDOP3FHMAV1","either","2","733","","","","","","","0","0","1","","0.4475354499","0.8","0.4","0.6","0.2","0.236006857","0.1796352224","0.4475354499","0.1731798725","","","","","","","","","","","","","","75","K","2","","","52","main_expt","",""
"","bandit","134","376709","0.0-94.0-0.0","11075109","wem/bandit_party_1","AADDOP3FHMAV1","either","2","837","","","","","","","0","0","1","0.2660825342","","0.8","0.4","0.6","0.2","","","","","0.2660825342","0.2451732725","0.4627294295","0.1312409056","","","","","","","","","","72","H","0","img/none_selected.jpg","","53","main_expt","",""
"","bandit","135","381309","0.0-95.0-0.0","11075109","wem/bandit_party_1","AADDOP3FHMAV1","either","2","3093","","","","","","","0","0","1","0.2458345041","","0.8","0.4","0.6","0.2","","","","","0.2458345041","0.2621482643","0.44829207","0.1862053218","","","","","","","","","","72","H","0","img/none_selected.jpg","","54","main_expt","",""
"","bandit","136","383238","0.0-96.0-0.0","11075109","wem/bandit_party_1","AADDOP3FHMAV1","either","2","424","","","","","","","0","0","1","0.2265690781","","0.8","0.4","0.6","0.2","","","","","0.2265690781","0.2441780383","0.4505537928","0.1733563037","","","","","","","","","","72","H","0","img/none_selected.jpg","","55","main_expt","",""
"","bandit","137","386402","0.0-97.0-0.0","11075109","wem/bandit_party_1","AADDOP3FHMAV1","either","2","1657","","","","","","","0","0","1","0.199729785","","0.8","0.4","0.6","0.2","","","","","0.2741820357","0.199729785","0.4686400132","0.1728369204","","","","","","","","","","74","J","1","","","56","main_expt","",""
"","bandit","138","388356","0.0-98.0-0.0","11075109","wem/bandit_party_1","AADDOP3FHMAV1","either","2","448","","","","","","","0","1","0","","0.4572679106","0.8","0.4","0.6","0.2","0.2937641054","0.1945085845","0.4572679106","0.09176359954","","","","","","","","","","","","","","75","K","2","","","57","main_expt","",""
"","bandit","139","390201","0.0-99.0-0.0","11075109","wem/bandit_party_1","AADDOP3FHMAV1","either","2","341","","","","","","","0","1","0","","0.4300169527","0.8","0.4","0.6","0.2","0.2949827607","0.2614759052","0.4300169527","0.04991422033","","","","","","","","","","","","","","75","K","2","","","58","main_expt","",""
"","bandit","140","392256","0.0-100.0-0.0","11075109","wem/bandit_party_1","AADDOP3FHMAV1","either","2","549","","","","","","","1","0","0","0.4050829606","","0.8","0.4","0.6","0.2","","","","","0.2710075273","0.2426118991","0.4050829606","0.053239915","","","","","","","","","","75","K","2","","","59","main_expt","",""
"","bandit","141","686587","0.0-101.0-0.0","11075109","wem/bandit_party_1","AADDOP3FHMAV1","either","2","292826","","","","","","","0","0","1","0.2623750897","","0.8","0.4","0.6","0.2","","","","","0.2766623035","0.2623750897","0.4070720156","0.06994226662","","","","","","","","","","74","J","1","","","60","main_expt","",""
"","bandit","142","688372","0.0-102.0-0.0","11075109","wem/bandit_party_1","AADDOP3FHMAV1","either","2","277","","","","","","","1","0","0","0.3895400789","","0.8","0.4","0.6","0.2","","","","","0.2574592035","0.2139103784","0.3895400789","0.07064832373","","","","","","","","","","75","K","2","","","61","main_expt","",""
"","bandit","143","690287","0.0-103.0-0.0","11075109","wem/bandit_party_1","AADDOP3FHMAV1","either","2","410","","","","","","","0","0","1","","0.4050708951","0.8","0.4","0.6","0.2","0.2425209234","0.2566580444","0.4050708951","0.08925217872","","","","","","","","","","","","","","75","K","2","","","62","main_expt","",""
"","bandit","144","692161","0.0-104.0-0.0","11075109","wem/bandit_party_1","AADDOP3FHMAV1","either","2","369","","","","","","","0","0","1","0.2294211584","","0.8","0.4","0.6","0.2","","","","","0.2294211584","0.2393402704","0.3765761212","0.08505035955","","","","","","","","","","72","H","0","img/none_selected.jpg","","63","main_expt","",""
"","bandit","145","693693","0.0-105.0-0.0","11075109","wem/bandit_party_1","AADDOP3FHMAV1","either","2","27","","","","","","","0","0","1","","0.2350173232","0.8","0.4","0.6","0.2","0.2350173232","0.300105392","0.3859881554","0.09892528285","","","","","","","","","","","","","","72","H","0","img/none_selected.jpg","","64","main_expt","",""
"","bandit","146","696284","0.0-106.0-0.0","11075109","wem/bandit_party_1","AADDOP3FHMAV1","either","2","1085","","","","","","","0","0","1","0.2775473173","","0.8","0.4","0.6","0.2","","","","","0.2775473173","0.2584268813","0.3817039273","0.1428545766","","","","","","","","","","72","H","0","img/none_selected.jpg","","65","main_expt","",""
"","bandit","147","698495","0.0-107.0-0.0","11075109","wem/bandit_party_1","AADDOP3FHMAV1","either","2","706","","","","","","","0","0","1","","0.2536378703","0.8","0.4","0.6","0.2","0.298861572","0.2536378703","0.3622232449","0.120440259","","","","","","","","","","","","","","74","J","1","","","66","main_expt","",""
"","bandit","148","700074","0.0-108.0-0.0","11075109","wem/bandit_party_1","AADDOP3FHMAV1","either","2","72","","","","","","","0","0","1","0.3043747659","","0.8","0.4","0.6","0.2","","","","","0.3043747659","0.2548884231","0.3768721334","0.2019700983","","","","","","","","","","72","H","0","img/none_selected.jpg","","67","main_expt","",""
"","bandit","149","701669","0.0-109.0-0.0","11075109","wem/bandit_party_1","AADDOP3FHMAV1","either","2","90","","","","","","","0","0","1","0.3826604183","","0.8","0.4","0.6","0.2","","","","","0.2533072519","0.2105458193","0.3826604183","0.1467862533","","","","","","","","","","75","K","2","","","68","main_expt","",""
"","bandit","150","703312","0.0-110.0-0.0","11075109","wem/bandit_party_1","AADDOP3FHMAV1","either","2","137","","","","","","","0","0","1","","0.09022805221","0.8","0.4","0.6","0.2","0.2451677402","0.2901666962","0.3981811202","0.09022805221","","","","","","","","","","","","","","76","L","3","","","69","main_expt","",""
"","bandit","151","705056","0.0-111.0-0.0","11075109","wem/bandit_party_1","AADDOP3FHMAV1","either","2","238","","","","","","","0","0","1","","0.1128827508","0.8","0.4","0.6","0.2","0.2403061491","0.2973761433","0.3936557204","0.1128827508","","","","","","","","","","","","","","76","L","3","","","70","main_expt","",""
"","bandit","152","706696","0.0-112.0-0.0","11075109","wem/bandit_party_1","AADDOP3FHMAV1","either","2","134","","","","","","","0","0","1","","0.3949471057","0.8","0.4","0.6","0.2","0.1917576795","0.2737706179","0.3949471057","0.1184182172","","","","","","","","","","","","","","75","K","2","","","71","main_expt","",""
"","bandit","153","708394","0.0-113.0-0.0","11075109","wem/bandit_party_1","AADDOP3FHMAV1","either","2","192","","","","","","","0","1","0","","0.3888869603","0.8","0.4","0.6","0.2","0.1894079546","0.3005227265","0.3888869603","0.1038133506","","","","","","","","","","","","","","75","K","2","","","72","main_expt","",""
"","bandit","154","710127","0.0-114.0-0.0","11075109","wem/bandit_party_1","AADDOP3FHMAV1","either","2","228","","","","","","","0","1","0","","0.4015056825","0.8","0.4","0.6","0.2","0.235909594","0.3205676235","0.4015056825","0.07830871569","","","","","","","","","","","","","","75","K","2","","","73","main_expt","",""
"","bandit","155","711942","0.0-115.0-0.0","11075109","wem/bandit_party_1","AADDOP3FHMAV1","either","2","309","","","","","","","0","1","0","","0.4200542591","0.8","0.4","0.6","0.2","0.2772030277","0.3040473008","0.4200542591","0.09226686474","","","","","","","","","","","","","","75","K","2","","","74","main_expt","",""
"","bandit","156","713681","0.0-116.0-0.0","11075109","wem/bandit_party_1","AADDOP3FHMAV1","either","2","233","","","","","","","0","0","1","","0.4353174817","0.8","0.4","0.6","0.2","0.2237268092","0.2686744794","0.4353174817","0.07948082514","","","","","","","","","","","","","","75","K","2","","","75","main_expt","",""
"","bandit","157","715445","0.0-117.0-0.0","11075109","wem/bandit_party_1","AADDOP3FHMAV1","either","2","260","","","","","","","1","0","0","0.4196821318","","0.8","0.4","0.6","0.2","","","","","0.1739375455","0.258707356","0.4196821318","0.1279570505","","","","","","","","","","75","K","2","","","76","main_expt","",""
"","bandit","158","717190","0.0-118.0-0.0","11075109","wem/bandit_party_1","AADDOP3FHMAV1","either","2","239","","","","","","","0","0","1","","0.3787369199","0.8","0.4","0.6","0.2","0.1648796623","0.3010070056","0.3787369199","0.1202820049","","","","","","","","","","","","","","75","K","2","","","77","main_expt","",""
"","bandit","159","718890","0.0-119.0-0.0","11075109","wem/bandit_party_1","AADDOP3FHMAV1","either","2","190","","","","","","","1","0","0","0.2648586626","","0.8","0.4","0.6","0.2","","","","","0.1637798684","0.2648586626","0.4314930014","0.1054071572","","","","","","","","","","74","J","1","","","78","main_expt","",""
"","bandit","160","720608","0.0-120.0-0.0","11075109","wem/bandit_party_1","AADDOP3FHMAV1","either","2","212","","","","","","","0","0","1","","0.1984114041","0.8","0.4","0.6","0.2","0.1490076182","0.1984114041","0.4155078174","0.1403095361","","","","","","","","","","","","","","74","J","1","","","79","main_expt","",""
"","bandit","161","722433","0.0-121.0-0.0","11075109","wem/bandit_party_1","AADDOP3FHMAV1","either","2","320","","","","","","","0","0","1","0.1093198388","","0.8","0.4","0.6","0.2","","","","","0.1093198388","0.180325551","0.4226243671","0.1891235553","","","","","","","","","","72","H","0","img/none_selected.jpg","","80","main_expt","",""
"","bandit","162","724689","0.0-122.0-0.0","11075109","wem/bandit_party_1","AADDOP3FHMAV1","either","2","750","","","","","","","1","0","0","0.08868186825","","0.8","0.4","0.6","0.2","","","","","0.08868186825","0.224531153","0.4474166549","0.1858030354","","","","","","","","","","72","H","0","img/none_selected.jpg","","81","main_expt","",""
"","bandit","163","726432","0.0-123.0-0.0","11075109","wem/bandit_party_1","AADDOP3FHMAV1","either","2","237","","","","","","","0","0","1","0.1073880826","","0.8","0.4","0.6","0.2","","","","","0.1073880826","0.221125015","0.4636297045","0.2476542501","","","","","","","","","","72","H","0","img/none_selected.jpg","","82","main_expt","",""
"","bandit","164","728492","0.0-124.0-0.0","11075109","wem/bandit_party_1","AADDOP3FHMAV1","either","2","554","","","","","","","0","0","1","0.1022587498","","0.8","0.4","0.6","0.2","","","","","0.1022587498","0.2143237207","0.467509749","0.2188241074","","","","","","","","","","72","H","0","img/none_selected.jpg","","83","main_expt","",""
"","bandit","165","730321","0.0-125.0-0.0","11075109","wem/bandit_party_1","AADDOP3FHMAV1","either","2","323","","","","","","","0","0","1","0.1085807699","","0.8","0.4","0.6","0.2","","","","","0.1085807699","0.2097367537","0.4551111531","0.2754771977","","","","","","","","","","72","H","0","img/none_selected.jpg","","84","main_expt","",""
"","bandit","166","732234","0.0-126.0-0.0","11075109","wem/bandit_party_1","AADDOP3FHMAV1","either","2","408","","","","","","","0","0","1","","0.1263918358","0.8","0.4","0.6","0.2","0.1263918358","0.1661536269","0.4621419017","0.2965575968","","","","","","","","","","","","","","72","H","0","img/none_selected.jpg","","85","main_expt","",""
"","bandit","167","733960","0.0-127.0-0.0","11075109","wem/bandit_party_1","AADDOP3FHMAV1","either","2","220","","","","","","","0","1","0","","0.1364458955","0.8","0.4","0.6","0.2","0.1481941301","0.1364458955","0.4612050897","0.257129161","","","","","","","","","","","","","","74","J","1","","","86","main_expt","",""
"","bandit","168","735649","0.0-128.0-0.0","11075109","wem/bandit_party_1","AADDOP3FHMAV1","either","2","183","","","","","","","0","0","1","","0.08235553135","0.8","0.4","0.6","0.2","0.1447872846","0.08235553135","0.4334675206","0.2338967043","","","","","","","","","","","","","","74","J","1","","","87","main_expt","",""
"","bandit","169","737344","0.0-129.0-0.0","11075109","wem/bandit_party_1","AADDOP3FHMAV1","either","2","189","","","","","","","1","0","0","0.4397617206","","0.8","0.4","0.6","0.2","","","","","0.1391637727","0.0754832669","0.4397617206","0.2161535794","","","","","","","","","","75","K","2","","","88","main_expt","",""
"","bandit","170","738886","0.0-130.0-0.0","11075109","wem/bandit_party_1","AADDOP3FHMAV1","either","2","36","","","","","","","0","0","1","0.4635478967","","0.8","0.4","0.6","0.2","","","","","0.1476089376","0.109361408","0.4635478967","0.2043146745","","","","","","","","","","75","K","2","","","89","main_expt","",""
"","bandit","171","740575","0.0-131.0-0.0","11075109","wem/bandit_party_1","AADDOP3FHMAV1","either","2","183","","","","","","","1","0","0","0.4234969579","","0.8","0.4","0.6","0.2","","","","","0.2081489191","0.07391079866","0.4234969579","0.2346009907","","","","","","","","","","75","K","2","","","90","main_expt","",""
"","bandit","172","742109","0.0-132.0-0.0","11075109","wem/bandit_party_1","AADDOP3FHMAV1","either","2","27","","","","","","","0","1","0","","0.4267507071","0.8","0.4","0.6","0.2","0.1834039029","0.1164594673","0.4267507071","0.2333967219","","","","","","","","","","","","","","75","K","2","","","91","main_expt","",""
"","bandit","173","743803","0.0-133.0-0.0","11075109","wem/bandit_party_1","AADDOP3FHMAV1","either","2","188","","","","","","","0","0","1","","0.2150480475","0.8","0.4","0.6","0.2","0.2027314649","0.113043345","0.4089505196","0.2150480475","","","","","","","","","","","","","","76","L","3","","","92","main_expt","",""
"","bandit","174","745350","0.0-134.0-0.0","11075109","wem/bandit_party_1","AADDOP3FHMAV1","either","2","41","","","","","","","0","1","0","","0.2588080464","0.8","0.4","0.6","0.2","0.1738894496","0.1714352716","0.4112501448","0.2588080464","","","","","","","","","","","","","","76","L","3","","","93","main_expt","",""
"","bandit","175","747145","0.0-135.0-0.0","11075109","wem/bandit_party_1","AADDOP3FHMAV1","either","2","290","","","","","","","0","0","1","","0.2748849181","0.8","0.4","0.6","0.2","0.2484708832","0.1253024032","0.452415855","0.2748849181","","","","","","","","","","","","","","76","L","3","","","94","main_expt","",""
"","bandit","176","748894","0.0-136.0-0.0","11075109","wem/bandit_party_1","AADDOP3FHMAV1","either","2","245","","","","","","","0","1","0","","0.4589197587","0.8","0.4","0.6","0.2","0.2914685715","0.1401284447","0.4589197587","0.2791739054","","","","","","","","","","","","","","75","K","2","","","95","main_expt","",""
"","bandit","177","750608","0.0-137.0-0.0","11075109","wem/bandit_party_1","AADDOP3FHMAV1","either","2","208","","","","","","","0","1","0","","0.4481870348","0.8","0.4","0.6","0.2","0.2417524935","0.1320491369","0.4481870348","0.3149564315","","","","","","","","","","","","","","75","K","2","","","96","main_expt","",""
"","bandit","178","752423","0.0-138.0-0.0","11075109","wem/bandit_party_1","AADDOP3FHMAV1","either","2","309","","","","","","","0","0","1","0.4597072186","","0.8","0.4","0.6","0.2","","","","","0.2492821404","0.1518453759","0.4597072186","0.372564007","","","","","","","","","","75","K","2","","","97","main_expt","",""
"","bandit","179","756218","0.0-139.0-0.0","11075109","wem/bandit_party_1","AADDOP3FHMAV1","either","2","2289","","","","","","","0","1","0","","0.3002958449","0.8","0.4","0.6","0.2","0.3002958449","0.2173959583","0.4705619112","0.393328365","","","","","","","","","","","","","","72","H","0","img/none_selected.jpg","","98","main_expt","",""
"","bandit","180","758202","0.0-140.0-0.0","11075109","wem/bandit_party_1","AADDOP3FHMAV1","either","2","478","","","","","","","0","0","1","0.2618725657","","0.8","0.4","0.6","0.2","","","","","0.3544832656","0.2618725657","0.4800968761","0.421239771","","","","","","","","","","74","J","1","","","99","main_expt","",""
"","bandit","181","759956","0.0-141.0-0.0","11075109","wem/bandit_party_1","AADDOP3FHMAV1","either","2","247","","","","","","","0","1","0","","0.2487788848","0.8","0.4","0.6","0.2","0.3810954338","0.2487788848","0.4780143146","0.4130759476","","","","","","","","","","","","","","74","J","1","","","100","main_expt","",""
"","bandit","182","761710","0.0-142.0-0.0","11075109","wem/bandit_party_1","AADDOP3FHMAV1","either","2","247","","","","","","","0","1","0","","0.4849002763","0.8","0.4","0.6","0.2","0.4042362267","0.2890792313","0.4849002763","0.4089462913","","","","","","","","","","","","","","75","K","2","","","101","main_expt","",""
"","bandit","183","763413","0.0-143.0-0.0","11075109","wem/bandit_party_1","AADDOP3FHMAV1","either","2","197","","","","","","","0","0","1","","0.4886078379","0.8","0.4","0.6","0.2","0.4594696392","0.3136369757","0.4886078379","0.370330464","","","","","","","","","","","","","","75","K","2","","","102","main_expt","",""
"","bandit","184","765067","0.0-144.0-0.0","11075109","wem/bandit_party_1","AADDOP3FHMAV1","either","2","149","","","","","","","0","0","1","","0.4588766667","0.8","0.4","0.6","0.2","0.4588766667","0.2364671533","0.47121906","0.3306315663","","","","","","","","","","","","","","72","H","0","img/none_selected.jpg","","103","main_expt","",""
"","bandit","185","766792","0.0-145.0-0.0","11075109","wem/bandit_party_1","AADDOP3FHMAV1","either","2","220","","","","","","","1","0","0","0.4372785745","","0.8","0.4","0.6","0.2","","","","","0.4372785745","0.2202486688","0.4760763377","0.354634178","","","","","","","","","","72","H","0","img/none_selected.jpg","","104","main_expt","",""
"","bandit","186","771478","0.0-146.0-0.0","11075109","wem/bandit_party_1","AADDOP3FHMAV1","either","2","3180","","","","","","","0","0","1","","0.3896605338","0.8","0.4","0.6","0.2","0.4063887309","0.1854418088","0.4701389446","0.3896605338","","","","","","","","","","","","","","76","L","3","","","105","main_expt","",""
"","bandit","187","784108","0.0-147.0-0.0","11075109","wem/bandit_party_1","AADDOP3FHMAV1","either","2","11124","","","","","","","0","0","1","","0.414339711","0.8","0.4","0.6","0.2","0.3778019321","0.1596754559","0.471324938","0.414339711","","","","","","","","","","","","","","76","L","3","","","106","main_expt","",""
"","bandit","188","785711","0.0-148.0-0.0","11075109","wem/bandit_party_1","AADDOP3FHMAV1","either","2","96","","","","","","","0","0","1","","0.4786694594","0.8","0.4","0.6","0.2","0.3614143111","0.137099288","0.4786694594","0.4164239898","","","","","","","","","","","","","","75","K","2","","","107","main_expt","",""
"","bandit","189","787311","0.0-149.0-0.0","11075109","wem/bandit_party_1","AADDOP3FHMAV1","either","2","94","","","","","","","1","0","0","0.4810065258","","0.8","0.4","0.6","0.2","","","","","0.3681250399","0.1443984823","0.4810065258","0.3836571442","","","","","","","","","","75","K","2","","","108","main_expt","",""
"","bandit","190","789060","0.0-150.0-0.0","11075109","wem/bandit_party_1","AADDOP3FHMAV1","either","2","243","","","","","","","0","0","1","","0.1409511773","0.8","0.4","0.6","0.2","0.3446081275","0.1409511773","0.4816764674","0.3881214568","","","","","","","","","","","","","","74","J","1","","","109","main_expt","",""
"","bandit","191","790645","0.0-151.0-0.0","11075109","wem/bandit_party_1","AADDOP3FHMAV1","either","2","79","","","","","","","0","0","1","0.4882082215","","0.8","0.4","0.6","0.2","","","","","0.3681270965","0.1787750665","0.4882082215","0.4266873791","","","","","","","","","","75","K","2","","","110","main_expt","",""
"","bandit","192","792193","0.0-152.0-0.0","11075109","wem/bandit_party_1","AADDOP3FHMAV1","either","2","42","","","","","","","0","0","1","0.478642168","","0.8","0.4","0.6","0.2","","","","","0.391379093","0.1862786225","0.478642168","0.4475699482","","","","","","","","","","75","K","2","","","111","main_expt","",""
"","bandit","193","793752","0.0-153.0-0.0","11075109","wem/bandit_party_1","AADDOP3FHMAV1","either","2","51","","","","","","","0","0","1","","0.4190314983","0.8","0.4","0.6","0.2","0.4131544452","0.1654620982","0.4841415165","0.4190314983","","","","","","","","","","","","","","76","L","3","","","112","main_expt","",""
"","bandit","194","795426","0.0-154.0-0.0","11075109","wem/bandit_party_1","AADDOP3FHMAV1","either","2","167","","","","","","","0","0","1","","0.4883212127","0.8","0.4","0.6","0.2","0.3963985948","0.1582981878","0.4883212127","0.3666128881","","","","","","","","","","","","","","75","K","2","","","113","main_expt","",""
"","bandit","195","797335","0.0-155.0-0.0","11075109","wem/bandit_party_1","AADDOP3FHMAV1","either","2","402","","","","","","","0","1","0","","0.4883790739","0.8","0.4","0.6","0.2","0.4117985871","0.1922757069","0.4883790739","0.3866259854","","","","","","","","","","","","","","75","K","2","","","114","main_expt","",""
"","bandit","196","799138","0.0-156.0-0.0","11075109","wem/bandit_party_1","AADDOP3FHMAV1","either","2","297","","","","","","","0","0","1","","0.185618385","0.8","0.4","0.6","0.2","0.394381103","0.185618385","0.4902011966","0.354161152","","","","","","","","","","","","","","74","J","1","","","115","main_expt","",""
"","bandit","197","800913","0.0-157.0-0.0","11075109","wem/bandit_party_1","AADDOP3FHMAV1","either","2","268","","","","","","","0","0","1","0.3762408663","","0.8","0.4","0.6","0.2","","","","","0.3762408663","0.2057277395","0.4844723045","0.3170745426","","","","","","","","","","72","H","0","img/none_selected.jpg","","116","main_expt","",""
"","bandit","198","802682","0.0-158.0-0.0","11075109","wem/bandit_party_1","AADDOP3FHMAV1","either","2","262","","","","","","","1","0","0","0.3823674378","","0.8","0.4","0.6","0.2","","","","","0.3823674378","0.2288411079","0.4895589844","0.304536318","","","","","","","","","","72","H","0","img/none_selected.jpg","","117","main_expt","",""
"","bandit","199","804391","0.0-159.0-0.0","11075109","wem/bandit_party_1","AADDOP3FHMAV1","either","2","202","","","","","","","1","0","0","0.4050195855","","0.8","0.4","0.6","0.2","","","","","0.4050195855","0.2207517482","0.4899729034","0.3411026949","","","","","","","","","","72","H","0","img/none_selected.jpg","","118","main_expt","",""
"","bandit","200","806046","0.0-160.0-0.0","11075109","wem/bandit_party_1","AADDOP3FHMAV1","either","2","149","","","","","","","1","0","0","0.4227562767","","0.8","0.4","0.6","0.2","","","","","0.4227562767","0.1955286499","0.4947041593","0.3447942488","","","","","","","","","","72","H","0","img/none_selected.jpg","","119","main_expt","",""
"","bandit","201","807729","0.0-161.0-0.0","11075109","wem/bandit_party_1","AADDOP3FHMAV1","either","2","176","","","","","","","0","0","1","","0.2427950695","0.8","0.4","0.6","0.2","0.4163810796","0.2427950695","0.4916865355","0.3686185352","","","","","","","","","","","","","","74","J","1","","","120","main_expt","",""
"","bandit","202","809530","0.0-162.0-0.0","11075109","wem/bandit_party_1","AADDOP3FHMAV1","either","2","294","","","","","","","0","0","1","0.406821829","","0.8","0.4","0.6","0.2","","","","","0.406821829","0.2479682904","0.4860386064","0.3547669752","","","","","","","","","","72","H","0","img/none_selected.jpg","","121","main_expt","",""
"","bandit","203","811162","0.0-163.0-0.0","11075109","wem/bandit_party_1","AADDOP3FHMAV1","either","2","125","","","","","","","0","0","1","0.3999449125","","0.8","0.4","0.6","0.2","","","","","0.3999449125","0.3081985406","0.483083859","0.365994073","","","","","","","","","","72","H","0","img/none_selected.jpg","","122","main_expt","",""
"","bandit","204","812716","0.0-164.0-0.0","11075109","wem/bandit_party_1","AADDOP3FHMAV1","either","2","47","","","","","","","0","0","1","0.4791491275","","0.8","0.4","0.6","0.2","","","","","0.366626489","0.3089359708","0.4791491275","0.3120596142","","","","","","","","","","75","K","2","","","123","main_expt","",""
"","bandit","205","814682","0.0-165.0-0.0","11075109","wem/bandit_party_1","AADDOP3FHMAV1","either","2","458","","","","","","","0","1","0","","0.4776777384","0.8","0.4","0.6","0.2","0.3706278578","0.3298338218","0.4776777384","0.302161917","","","","","","","","","","","","","","75","K","2","","","124","main_expt","",""
"","bandit","206","816272","0.0-166.0-0.0","11075109","wem/bandit_party_1","AADDOP3FHMAV1","either","2","83","","","","","","","0","1","0","","0.478983255","0.8","0.4","0.6","0.2","0.3545504723","0.2795250441","0.478983255","0.2794370347","","","","","","","","","","","","","","75","K","2","","","125","main_expt","",""
"","bandit","207","817883","0.0-167.0-0.0","11075109","wem/bandit_party_1","AADDOP3FHMAV1","either","2","104","","","","","","","0","0","1","0.2184127205","","0.8","0.4","0.6","0.2","","","","","0.3106298006","0.2184127205","0.4724726719","0.2466154908","","","","","","","","","","74","J","1","","","126","main_expt","",""
"","bandit","208","819406","0.0-168.0-0.0","11075109","wem/bandit_party_1","AADDOP3FHMAV1","either","2","16","","","","","","","0","0","1","","0.2712823261","0.8","0.4","0.6","0.2","0.3351405197","0.2488858907","0.4796244369","0.2712823261","","","","","","","","","","","","","","76","L","3","","","127","main_expt","",""
"","bandit","209","820950","0.0-169.0-0.0","11075109","wem/bandit_party_1","AADDOP3FHMAV1","either","2","38","","","","","","","0","0","1","","0.4825212971","0.8","0.4","0.6","0.2","0.2984422464","0.2850827173","0.4825212971","0.2095517986","","","","","","","","","","","","","","75","K","2","","","128","main_expt","",""
"","bandit","210","822464","0.0-170.0-0.0","11075109","wem/bandit_party_1","AADDOP3FHMAV1","either","2","7","","","","","","","0","0","1","0.1986866195","","0.8","0.4","0.6","0.2","","","","","0.2027892291","0.2867242009","0.4877535013","0.1986866195","","","","","","","","","","76","L","3","","","129","main_expt","",""
"","bandit","211","824008","0.0-171.0-0.0","11075109","wem/bandit_party_1","AADDOP3FHMAV1","either","2","38","","","","","","","0","0","1","","0.172959111","0.8","0.4","0.6","0.2","0.13768179","0.2509552002","0.4833646461","0.172959111","","","","","","","","","","","","","","76","L","3","","","130","main_expt","",""
"","bandit","212","825597","0.0-172.0-0.0","11075109","wem/bandit_party_1","AADDOP3FHMAV1","either","2","83","","","","","","","0","1","0","","0.163172462","0.8","0.4","0.6","0.2","0.1352832961","0.2172434631","0.4790990265","0.163172462","","","","","","","","","","","","","","76","L","3","","","131","main_expt","",""
"","bandit","213","827216","0.0-173.0-0.0","11075109","wem/bandit_party_1","AADDOP3FHMAV1","either","2","113","","","","","","","0","0","1","","0.161148659","0.8","0.4","0.6","0.2","0.08660982753","0.158295755","0.4882311922","0.161148659","","","","","","","","","","","","","","76","L","3","","","132","main_expt","",""
"","bandit","214","828754","0.0-174.0-0.0","11075109","wem/bandit_party_1","AADDOP3FHMAV1","either","2","32","","","","","","","0","0","1","0.4889625365","","0.8","0.4","0.6","0.2","","","","","0.1020907376","0.185310911","0.4889625365","0.1735641072","","","","","","","","","","75","K","2","","","133","main_expt","",""
"","bandit","215","830368","0.0-175.0-0.0","11075109","wem/bandit_party_1","AADDOP3FHMAV1","either","2","107","","","","","","","0","0","1","","0.4916783795","0.8","0.4","0.6","0.2","0.1231499397","0.1966535246","0.4916783795","0.1597390633","","","","","","","","","","","","","","75","K","2","","","134","main_expt","",""
"","bandit","216","832033","0.0-176.0-0.0","11075109","wem/bandit_party_1","AADDOP3FHMAV1","either","2","157","","","","","","","0","1","0","","0.2290191974","0.8","0.4","0.6","0.2","0.1524236556","0.2290191974","0.4904315354","0.1460070414","","","","","","","","","","","","","","74","J","1","","","135","main_expt","",""
"","bandit","217","833771","0.0-177.0-0.0","11075109","wem/bandit_party_1","AADDOP3FHMAV1","either","2","229","","","","","","","0","0","1","","0.2929229053","0.8","0.4","0.6","0.2","0.1954247664","0.2929229053","0.491666595","0.105474526","","","","","","","","","","","","","","74","J","1","","","136","main_expt","",""
"","bandit","218","835329","0.0-178.0-0.0","11075109","wem/bandit_party_1","AADDOP3FHMAV1","either","2","52","","","","","","","0","1","0","","0.2780805385","0.8","0.4","0.6","0.2","0.1833989084","0.2780805385","0.4917142499","0.08835118593","","","","","","","","","","","","","","74","J","1","","","137","main_expt","",""
"","bandit","219","836998","0.0-179.0-0.0","11075109","wem/bandit_party_1","AADDOP3FHMAV1","either","2","164","","","","","","","0","1","0","","0.217224157","0.8","0.4","0.6","0.2","0.1490533902","0.217224157","0.4870170403","0.06418360449","","","","","","","","","","","","","","74","J","1","","","138","main_expt","",""
"","bandit","220","838678","0.0-180.0-0.0","11075109","wem/bandit_party_1","AADDOP3FHMAV1","either","2","175","","","","","","","0","1","0","","0.2323391466","0.8","0.4","0.6","0.2","0.1318817547","0.2323391466","0.4834992155","0.03554325754","","","","","","","","","","","","","","74","J","1","","","139","main_expt","",""
"","bandit","221","840443","0.0-181.0-0.0","11075109","wem/bandit_party_1","AADDOP3FHMAV1","either","2","257","","","","","","","0","0","1","","0.244475209","0.8","0.4","0.6","0.2","0.1877412345","0.244475209","0.4927392517","0.04477370895","","","","","","","","","","","","","","74","J","1","","","140","main_expt","",""
"","bandit","222","842176","0.0-182.0-0.0","11075109","wem/bandit_party_1","AADDOP3FHMAV1","either","2","228","","","","","","","0","0","1","0.2363671377","","0.8","0.4","0.6","0.2","","","","","0.2363671377","0.232604034","0.4872377518","0.03780119019","","","","","","","","","","72","H","0","img/none_selected.jpg","","141","main_expt","",""
"","bandit","223","843715","0.0-183.0-0.0","11075109","wem/bandit_party_1","AADDOP3FHMAV1","either","2","33","","","","","","","0","0","1","0.2546402356","","0.8","0.4","0.6","0.2","","","","","0.2546402356","0.2447345556","0.4846254936","0.03149913875","","","","","","","","","","72","H","0","img/none_selected.jpg","","142","main_expt","",""
"","bandit","224","845510","0.0-184.0-0.0","11075109","wem/bandit_party_1","AADDOP3FHMAV1","either","2","288","","","","","","","0","0","1","0.2825544685","","0.8","0.4","0.6","0.2","","","","","0.2825544685","0.26413271","0.4815328815","0.04191513266","","","","","","","","","","72","H","0","img/none_selected.jpg","","143","main_expt","",""
"","bandit","225","847323","0.0-185.0-0.0","11075109","wem/bandit_party_1","AADDOP3FHMAV1","either","2","305","","","","","","","0","1","0","","0.1988203511","0.8","0.4","0.6","0.2","0.2731230023","0.1988203511","0.4854048375","0.05613120157","","","","","","","","","","","","","","74","J","1","","","144","main_expt","",""
"","bandit","226","849063","0.0-186.0-0.0","11075109","wem/bandit_party_1","AADDOP3FHMAV1","either","2","234","","","","","","","0","0","1","","0.217822638","0.8","0.4","0.6","0.2","0.2943814715","0.217822638","0.4813029389","0.03827589539","","","","","","","","","","","","","","74","J","1","","","145","main_expt","",""
"","bandit","227","850801","0.0-187.0-0.0","11075109","wem/bandit_party_1","AADDOP3FHMAV1","either","2","231","","","","","","","0","0","1","0.2009042904","","0.8","0.4","0.6","0.2","","","","","0.328634005","0.2009042904","0.4884824202","0.02861175853","","","","","","","","","","74","J","1","","","146","main_expt","",""
"","bandit","228","852576","0.0-188.0-0.0","11075109","wem/bandit_party_1","AADDOP3FHMAV1","either","2","269","","","","","","","0","0","1","","0.2080446297","0.8","0.4","0.6","0.2","0.3511209141","0.2080446297","0.4835291327","0.02140640811","","","","","","","","","","","","","","74","J","1","","","147","main_expt","",""
"","bandit","229","854234","0.0-189.0-0.0","11075109","wem/bandit_party_1","AADDOP3FHMAV1","either","2","152","","","","","","","0","0","1","","0.1536700415","0.8","0.4","0.6","0.2","0.3874996206","0.1536700415","0.4716003481","0.0202041473","","","","","","","","","","","","","","74","J","1","","","148","main_expt","",""
"","bandit","230","856013","0.0-190.0-0.0","11075109","wem/bandit_party_1","AADDOP3FHMAV1","either","2","273","","","","","","","1","0","0","0.1593661633","","0.8","0.4","0.6","0.2","","","","","0.3476646045","0.1593661633","0.4341886607","0.01154190459","","","","","","","","","","74","J","1","","","149","main_expt","",""
"","bandit","231","857828","0.0-191.0-0.0","11075109","wem/bandit_party_1","AADDOP3FHMAV1","either","2","308","","","","","","","1","0","0","0.4014438172","","0.8","0.4","0.6","0.2","","","","","0.3323010919","0.144955896","0.4014438172","0.01291237021","","","","","","","","","","75","K","2","","","150","main_expt","",""
"","bandit","232","859618","0.0-192.0-0.0","11075109","wem/bandit_party_1","AADDOP3FHMAV1","either","2","285","","","","","","","0","0","1","0.3980713407","","0.8","0.4","0.6","0.2","","","","","0.3954477196","0.2123564028","0.3980713407","0.0137789916","","","","","","","","","","75","K","2","","","151","main_expt","",""
"","bandit","233","861296","0.0-193.0-0.0","11075109","wem/bandit_party_1","AADDOP3FHMAV1","either","2","171","","","","","","","0","0","1","","0.01985271471","0.8","0.4","0.6","0.2","0.4186327087","0.2301890466","0.4002357887","0.01985271471","","","","","","","","","","","","","","76","L","3","","","152","main_expt","",""
"","bandit","234","863010","0.0-194.0-0.0","11075109","wem/bandit_party_1","AADDOP3FHMAV1","either","2","208","","","","","","","0","0","1","0.02951100453","","0.8","0.4","0.6","0.2","","","","","0.4029566754","0.2295153641","0.388677987","0.02951100453","","","","","","","","","","76","L","3","","","153","main_expt","",""
"","bandit","235","864825","0.0-195.0-0.0","11075109","wem/bandit_party_1","AADDOP3FHMAV1","either","2","308","","","","","","","0","0","1","","0.02325572033","0.8","0.4","0.6","0.2","0.4037751878","0.2163321136","0.3817747688","0.02325572033","","","","","","","","","","","","","","76","L","3","","","154","main_expt","",""
"","bandit","236","866519","0.0-196.0-0.0","11075109","wem/bandit_party_1","AADDOP3FHMAV1","either","2","187","","","","","","","1","0","0","0.327727533","","0.8","0.4","0.6","0.2","","","","","0.4078727314","0.2257858177","0.327727533","0.03925092562","","","","","","","","","","75","K","2","","","155","main_expt","",""
"","bandit","237","868067","0.0-197.0-0.0","11075109","wem/bandit_party_1","AADDOP3FHMAV1","either","2","41","","","","","","","0","0","1","0.2821504166","","0.8","0.4","0.6","0.2","","","","","0.3941681487","0.2077891775","0.2821504166","0.05532081832","","","","","","","","","","75","K","2","","","156","main_expt","",""
"","bandit","238","869831","0.0-198.0-0.0","11075109","wem/bandit_party_1","AADDOP3FHMAV1","either","2","259","","","","","","","0","0","1","0.05983660039","","0.8","0.4","0.6","0.2","","","","","0.3417147062","0.1742908387","0.2784527126","0.05983660039","","","","","","","","","","76","L","3","","","157","main_expt","",""
"","bandit","239","871419","0.0-199.0-0.0","11075109","wem/bandit_party_1","AADDOP3FHMAV1","either","2","82","","","","","","","0","0","1","","0.09347744845","0.8","0.4","0.6","0.2","0.2963220618","0.162057643","0.2857058734","0.09347744845","","","","","","","","","","","","","","76","L","3","","","158","main_expt","",""
"","bandit","240","872963","0.0-200.0-0.0","11075109","wem/bandit_party_1","AADDOP3FHMAV1","either","2","38","","","","","","","0","0","1","","0.09649648717","0.8","0.4","0.6","0.2","0.2961528309","0.1805514511","0.2349295223","0.09649648717","","","","","","","","","","","","","","76","L","3","","","159","main_expt","",""
"","bandit","241","874681","0.0-201.0-0.0","11075109","wem/bandit_party_1","AADDOP3FHMAV1","either","2","211","","","","","","","0","0","1","","0.1724629995","0.8","0.4","0.6","0.2","0.2842772575","0.1724629995","0.2275717407","0.08382429791","","","","","","","","","","","","","","74","J","1","","","160","main_expt","",""
"","bandit","242","876302","0.0-202.0-0.0","11075109","wem/bandit_party_1","AADDOP3FHMAV1","either","2","115","","","","","","","0","0","1","","0.1660992999","0.8","0.4","0.6","0.2","0.2747674873","0.1660992999","0.2559884592","0.1466352983","","","","","","","","","","","","","","74","J","1","","","161","main_expt","",""
"","bandit","243","877948","0.0-203.0-0.0","11075109","wem/bandit_party_1","AADDOP3FHMAV1","either","2","138","","","","","","","1","0","0","0.2993190406","","0.8","0.4","0.6","0.2","","","","","0.2993190406","0.2281832109","0.2670526618","0.1569467617","","","","","","","","","","72","H","0","img/none_selected.jpg","","162","main_expt","",""
"","bandit","244","879590","0.0-204.0-0.0","11075109","wem/bandit_party_1","AADDOP3FHMAV1","either","2","136","","","","","","","0","0","1","0.2618894379","","0.8","0.4","0.6","0.2","","","","","0.3102408377","0.2144285545","0.2618894379","0.1437935099","","","","","","","","","","75","K","2","","","163","main_expt","",""
"","bandit","245","881194","0.0-205.0-0.0","11075109","wem/bandit_party_1","AADDOP3FHMAV1","either","2","97","","","","","","","0","0","1","0.2977476978","","0.8","0.4","0.6","0.2","","","","","0.2607878409","0.2131293933","0.2977476978","0.1503677763","","","","","","","","","","75","K","2","","","164","main_expt","",""
"","bandit","246","882762","0.0-206.0-0.0","11075109","wem/bandit_party_1","AADDOP3FHMAV1","either","2","61","","","","","","","0","0","1","","0.1574825995","0.8","0.4","0.6","0.2","0.2470054868","0.251698227","0.3138636066","0.1574825995","","","","","","","","","","","","","","76","L","3","","","165","main_expt","",""
"","bandit","247","884496","0.0-207.0-0.0","11075109","wem/bandit_party_1","AADDOP3FHMAV1","either","2","227","","","","","","","1","0","0","0.2831539445","","0.8","0.4","0.6","0.2","","","","","0.2629624785","0.2831539445","0.3204338644","0.1500633275","","","","","","","","","","74","J","1","","","166","main_expt","",""
"","bandit","248","886391","0.0-208.0-0.0","11075109","wem/bandit_party_1","AADDOP3FHMAV1","either","2","388","","","","","","","0","0","1","","0.2496169508","0.8","0.4","0.6","0.2","0.2745713682","0.2496169508","0.3600517585","0.1137242654","","","","","","","","","","","","","","74","J","1","","","167","main_expt","",""
"","bandit","249","888095","0.0-209.0-0.0","11075109","wem/bandit_party_1","AADDOP3FHMAV1","either","2","198","","","","","","","0","0","1","0.2557249153","","0.8","0.4","0.6","0.2","","","","","0.2557249153","0.2315540067","0.3678373827","0.145192941","","","","","","","","","","72","H","0","img/none_selected.jpg","","168","main_expt","",""
"","bandit","250","889658","0.0-210.0-0.0","11075109","wem/bandit_party_1","AADDOP3FHMAV1","either","2","56","","","","","","","0","0","1","0.1825517174","","0.8","0.4","0.6","0.2","","","","","0.2016321063","0.1825517174","0.3421512568","0.1863479632","","","","","","","","","","74","J","1","","","169","main_expt","",""
"","bandit","251","891252","0.0-211.0-0.0","11075109","wem/bandit_party_1","AADDOP3FHMAV1","either","2","88","","","","","","","1","0","0","0.2535959064","","0.8","0.4","0.6","0.2","","","","","0.2210696627","0.2535959064","0.3917895485","0.142304713","","","","","","","","","","74","J","1","","","170","main_expt","",""
"","bandit","252","892971","0.0-212.0-0.0","11075109","wem/bandit_party_1","AADDOP3FHMAV1","either","2","212","","","","","","","0","0","1","","0.3004284576","0.8","0.4","0.6","0.2","0.1627904758","0.3004284576","0.3206692194","0.1739768979","","","","","","","","","","","","","","74","J","1","","","171","main_expt","",""
"","bandit","253","894670","0.0-213.0-0.0","11075109","wem/bandit_party_1","AADDOP3FHMAV1","either","2","193","","","","","","","1","0","0","0.2716191145","","0.8","0.4","0.6","0.2","","","","","0.1421076649","0.2716191145","0.3198600846","0.2172659048","","","","","","","","","","74","J","1","","","172","main_expt","",""
"","bandit","254","896379","0.0-214.0-0.0","11075109","wem/bandit_party_1","AADDOP3FHMAV1","either","2","202","","","","","","","0","0","1","","0.3253138029","0.8","0.4","0.6","0.2","0.165050165","0.3253138029","0.2641483633","0.2419731025","","","","","","","","","","","","","","74","J","1","","","173","main_expt","",""
"","bandit","255","898093","0.0-215.0-0.0","11075109","wem/bandit_party_1","AADDOP3FHMAV1","either","2","202","","","","","","","0","1","0","","0.3419591401","0.8","0.4","0.6","0.2","0.1406738207","0.3419591401","0.2248062597","0.2239571331","","","","","","","","","","","","","","74","J","1","","","174","main_expt","",""
"","bandit","256","899797","0.0-216.0-0.0","11075109","wem/bandit_party_1","AADDOP3FHMAV1","either","2","197","","","","","","","0","1","0","","0.3442692367","0.8","0.4","0.6","0.2","0.138310495","0.3442692367","0.2370379408","0.2311410243","","","","","","","","","","","","","","74","J","1","","","175","main_expt","",""
"","bandit","257","901496","0.0-217.0-0.0","11075109","wem/bandit_party_1","AADDOP3FHMAV1","either","2","191","","","","","","","0","0","1","0.3397266539","","0.8","0.4","0.6","0.2","","","","","0.1675243642","0.3397266539","0.2157433706","0.2610077479","","","","","","","","","","74","J","1","","","176","main_expt","",""
"","bandit","258","903206","0.0-218.0-0.0","11075109","wem/bandit_party_1","AADDOP3FHMAV1","either","2","203","","","","","","","0","0","1","0.2014791824","","0.8","0.4","0.6","0.2","","","","","0.1919885971","0.2997078274","0.2014791824","0.2780938204","","","","","","","","","","75","K","2","","","177","main_expt","",""
"","bandit","259","904828","0.0-219.0-0.0","11075109","wem/bandit_party_1","AADDOP3FHMAV1","either","2","115","","","","","","","0","0","1","","0.3151752793","0.8","0.4","0.6","0.2","0.2365392944","0.3064007527","0.1913564418","0.3151752793","","","","","","","","","","","","","","76","L","3","","","178","main_expt","",""
"","bandit","260","906472","0.0-220.0-0.0","11075109","wem/bandit_party_1","AADDOP3FHMAV1","either","2","138","","","","","","","0","0","1","0.2799621139","","0.8","0.4","0.6","0.2","","","","","0.2509455726","0.3533432679","0.1980728016","0.2799621139","","","","","","","","","","76","L","3","","","179","main_expt","",""
"","bandit","261","908111","0.0-221.0-0.0","11075109","wem/bandit_party_1","AADDOP3FHMAV1","either","2","133","","","","","","","0","0","1","0.3652522579","","0.8","0.4","0.6","0.2","","","","","0.2767223981","0.3652522579","0.1833491223","0.3170936092","","","","","","","","","","74","J","1","","","180","main_expt","",""
"","bandit","262","909706","0.0-222.0-0.0","11075109","wem/bandit_party_1","AADDOP3FHMAV1","either","2","87","","","","","","","0","0","1","","0.3383156657","0.8","0.4","0.6","0.2","0.314600373","0.3383156657","0.1342686697","0.28101752","","","","","","","","","","","","","","74","J","1","","","181","main_expt","",""
"","bandit","263","911230","0.0-223.0-0.0","11075109","wem/bandit_party_1","AADDOP3FHMAV1","either","2","16","","","","","","","0","0","1","","0.2902116232","0.8","0.4","0.6","0.2","0.3943610609","0.2902116232","0.1636660304","0.3043342224","","","","","","","","","","","","","","74","J","1","","","182","main_expt","",""
"","bandit","264","912868","0.0-224.0-0.0","11075109","wem/bandit_party_1","AADDOP3FHMAV1","either","2","131","","","","","","","1","0","0","0.3586422101","","0.8","0.4","0.6","0.2","","","","","0.3586422101","0.3026157476","0.136761637","0.3192524042","","","","","","","","","","72","H","0","img/none_selected.jpg","","183","main_expt","",""
"","bandit","265","914507","0.0-225.0-0.0","11075109","wem/bandit_party_1","AADDOP3FHMAV1","either","2","132","","","","","","","1","0","0","0.3879999062","","0.8","0.4","0.6","0.2","","","","","0.3879999062","0.3360229169","0.1685989701","0.3332516821","","","","","","","","","","72","H","0","img/none_selected.jpg","","184","main_expt","",""
"","bandit","266","916186","0.0-226.0-0.0","11075109","wem/bandit_party_1","AADDOP3FHMAV1","either","2","172","","","","","","","0","0","1","0.3831340227","","0.8","0.4","0.6","0.2","","","","","0.3831340227","0.3336456265","0.1663529744","0.3228184693","","","","","","","","","","72","H","0","img/none_selected.jpg","","185","main_expt","",""
"","bandit","267","917795","0.0-227.0-0.0","11075109","wem/bandit_party_1","AADDOP3FHMAV1","either","2","101","","","","","","","0","0","1","0.3999004662","","0.8","0.4","0.6","0.2","","","","","0.3999004662","0.3308881938","0.1916836285","0.3111703144","","","","","","","","","","72","H","0","img/none_selected.jpg","","186","main_expt","",""
"","bandit","268","919359","0.0-228.0-0.0","11075109","wem/bandit_party_1","AADDOP3FHMAV1","either","2","56","","","","","","","1","0","0","0.3875363153","","0.8","0.4","0.6","0.2","","","","","0.3875363153","0.325530054","0.1686829448","0.3353611299","","","","","","","","","","72","H","0","img/none_selected.jpg","","187","main_expt","",""
"","bandit","269","921128","0.0-229.0-0.0","11075109","wem/bandit_party_1","AADDOP3FHMAV1","either","2","261","","","","","","","1","0","0","0.3875691392","","0.8","0.4","0.6","0.2","","","","","0.3875691392","0.3055482451","0.1461675531","0.3646937268","","","","","","","","","","72","H","0","img/none_selected.jpg","","188","main_expt","",""
"","bandit","270","922812","0.0-230.0-0.0","11075109","wem/bandit_party_1","AADDOP3FHMAV1","either","2","177","","","","","","","0","0","1","0.4166866882","","0.8","0.4","0.6","0.2","","","","","0.4166866882","0.3002345065","0.1382971047","0.3891323825","","","","","","","","","","72","H","0","img/none_selected.jpg","","189","main_expt","",""
"","bandit","271","924495","0.0-231.0-0.0","11075109","wem/bandit_party_1","AADDOP3FHMAV1","either","2","176","","","","","","","0","0","1","0.1898135375","","0.8","0.4","0.6","0.2","","","","","0.4124474499","0.2693931213","0.1898135375","0.3860741766","","","","","","","","","","75","K","2","","","190","main_expt","",""
"","bandit","272","926004","0.0-232.0-0.0","11075109","wem/bandit_party_1","AADDOP3FHMAV1","either","2","3","","","","","","","0","0","1","0.1264917812","","0.8","0.4","0.6","0.2","","","","","0.3638199534","0.3009284261","0.1264917812","0.3864243721","","","","","","","","","","75","K","2","","","191","main_expt","",""
"","bandit","273","927613","0.0-233.0-0.0","11075109","wem/bandit_party_1","AADDOP3FHMAV1","either","2","101","","","","","","","0","0","1","0.1185409567","","0.8","0.4","0.6","0.2","","","","","0.3711146034","0.3157917784","0.1185409567","0.400448014","","","","","","","","","","75","K","2","","","192","main_expt","",""
"","bandit","274","929217","0.0-234.0-0.0","11075109","wem/bandit_party_1","AADDOP3FHMAV1","either","2","97","","","","","","","0","0","1","","0.3895367297","0.8","0.4","0.6","0.2","0.3654165885","0.2999212614","0.09837948322","0.3895367297","","","","","","","","","","","","","","76","L","3","","","193","main_expt","",""
"","bandit","275","931031","0.0-235.0-0.0","11075109","wem/bandit_party_1","AADDOP3FHMAV1","either","2","307","","","","","","","0","0","1","0.4032313792","","0.8","0.4","0.6","0.2","","","","","0.3537818584","0.3287494418","0.137690802","0.4032313792","","","","","","","","","","76","L","3","","","194","main_expt","",""
"","bandit","276","932566","0.0-236.0-0.0","11075109","wem/bandit_party_1","AADDOP3FHMAV1","either","2","27","","","","","","","0","0","1","0.337234763","","0.8","0.4","0.6","0.2","","","","","0.3597494918","0.3031978913","0.1683354775","0.337234763","","","","","","","","","","76","L","3","","","195","main_expt","",""
"","bandit","277","934295","0.0-237.0-0.0","11075109","wem/bandit_party_1","AADDOP3FHMAV1","either","2","220","","","","","","","0","0","1","0.3479121901","","0.8","0.4","0.6","0.2","","","","","0.3479121901","0.2901303692","0.1561951964","0.3950764453","","","","","","","","","","72","H","0","img/none_selected.jpg","","196","main_expt","",""
"","bandit","278","935843","0.0-238.0-0.0","11075109","wem/bandit_party_1","AADDOP3FHMAV1","either","2","40","","","","","","","0","0","1","0.3596292454","","0.8","0.4","0.6","0.2","","","","","0.3596292454","0.2444781728","0.1329868482","0.4193743727","","","","","","","","","","72","H","0","img/none_selected.jpg","","197","main_expt","",""
"","bandit","279","937532","0.0-239.0-0.0","11075109","wem/bandit_party_1","AADDOP3FHMAV1","either","2","182","","","","","","","0","0","1","0.2140047665","","0.8","0.4","0.6","0.2","","","","","0.3555371828","0.2140047665","0.1730826789","0.4375347816","","","","","","","","","","74","J","1","","","198","main_expt","",""
"","bandit","280","939096","0.0-240.0-0.0","11075109","wem/bandit_party_1","AADDOP3FHMAV1","either","2","55","","","","","","","0","0","1","","0.2077842613","0.8","0.4","0.6","0.2","0.4016486285","0.2077842613","0.1385649096","0.4315030007","","","","","","","","","","","","","","74","J","1","","","199","main_expt","",""
"","bandit","281","940748","0.0-241.0-0.0","11075109","wem/bandit_party_1","AADDOP3FHMAV1","either","2","145","","","","","","","0","0","1","0.180488049","","0.8","0.4","0.6","0.2","","","","","0.3871107612","0.180488049","0.1941139053","0.4340108373","","","","","","","","","","74","J","1","","","200","main_expt","",""
"","bandit","282","942439","0.0-242.0-0.0","11075109","wem/bandit_party_1","AADDOP3FHMAV1","either","2","182","","","","","","","1","0","0","0.1825013029","","0.8","0.4","0.6","0.2","","","","","0.3856539452","0.2084987087","0.1825013029","0.441078118","","","","","","","","","","75","K","2","","","201","main_expt","",""
"","bandit","283","944159","0.0-243.0-0.0","11075109","wem/bandit_party_1","AADDOP3FHMAV1","either","2","211","","","","","","","0","0","1","","0.162440572","0.8","0.4","0.6","0.2","0.358588673","0.1869669721","0.162440572","0.4143682719","","","","","","","","","","","","","","75","K","2","","","202","main_expt","",""
"","bandit","284","945858","0.0-244.0-0.0","11075109","wem/bandit_party_1","AADDOP3FHMAV1","either","2","193","","","","","","","0","0","1","0.1914238456","","0.8","0.4","0.6","0.2","","","","","0.3460881607","0.1383076553","0.1914238456","0.4280720422","","","","","","","","","","75","K","2","","","203","main_expt","",""
"","bandit","285","947510","0.0-245.0-0.0","11075109","wem/bandit_party_1","AADDOP3FHMAV1","either","2","145","","","","","","","0","0","1","0.1849793247","","0.8","0.4","0.6","0.2","","","","","0.3091432968","0.1656187697","0.1849793247","0.4113524858","","","","","","","","","","75","K","2","","","204","main_expt","",""
"","bandit","286","949160","0.0-246.0-0.0","11075109","wem/bandit_party_1","AADDOP3FHMAV1","either","2","142","","","","","","","1","0","0","0.3016396897","","0.8","0.4","0.6","0.2","","","","","0.3016396897","0.1699285253","0.1722293799","0.4151465815","","","","","","","","","","72","H","0","img/none_selected.jpg","","205","main_expt","",""
"","bandit","287","950823","0.0-247.0-0.0","11075109","wem/bandit_party_1","AADDOP3FHMAV1","either","2","157","","","","","","","1","0","0","0.3300702997","","0.8","0.4","0.6","0.2","","","","","0.3300702997","0.161732949","0.1625694713","0.4002359997","","","","","","","","","","72","H","0","img/none_selected.jpg","","206","main_expt","",""
"","bandit","288","952487","0.0-248.0-0.0","11075109","wem/bandit_party_1","AADDOP3FHMAV1","either","2","157","","","","","","","0","0","1","0.2648848683","","0.8","0.4","0.6","0.2","","","","","0.2648848683","0.1699017951","0.1079769143","0.3692387261","","","","","","","","","","72","H","0","img/none_selected.jpg","","207","main_expt","",""
"","bandit","289","954149","0.0-249.0-0.0","11075109","wem/bandit_party_1","AADDOP3FHMAV1","either","2","155","","","","","","","0","0","1","0.2502792914","","0.8","0.4","0.6","0.2","","","","","0.2502792914","0.1592107695","0.1380178959","0.3283471685","","","","","","","","","","72","H","0","img/none_selected.jpg","","208","main_expt","",""
"","bandit","290","955850","0.0-250.0-0.0","11075109","wem/bandit_party_1","AADDOP3FHMAV1","either","2","192","","","","","","","0","0","1","0.2770073026","","0.8","0.4","0.6","0.2","","","","","0.2770073026","0.1659907122","0.1538506734","0.2924758898","","","","","","","","","","72","H","0","img/none_selected.jpg","","209","main_expt","",""
"","bandit","291","957609","0.0-251.0-0.0","11075109","wem/bandit_party_1","AADDOP3FHMAV1","either","2","252","","","","","","","1","0","0","0.3451435735","","0.8","0.4","0.6","0.2","","","","","0.3451435735","0.229525517","0.1406222791","0.2279470939","","","","","","","","","","72","H","0","img/none_selected.jpg","","210","main_expt","",""
"","bandit","292","959307","0.0-252.0-0.0","11075109","wem/bandit_party_1","AADDOP3FHMAV1","either","2","190","","","","","","","1","0","0","0.3514478275","","0.8","0.4","0.6","0.2","","","","","0.3514478275","0.2434605193","0.08987887408","0.2131844406","","","","","","","","","","72","H","0","img/none_selected.jpg","","211","main_expt","",""
"","bandit","293","960892","0.0-253.0-0.0","11075109","wem/bandit_party_1","AADDOP3FHMAV1","either","2","78","","","","","","","1","0","0","0.3579324364","","0.8","0.4","0.6","0.2","","","","","0.3579324364","0.1633214123","0.1277875359","0.1601793481","","","","","","","","","","72","H","0","img/none_selected.jpg","","212","main_expt","",""
"","bandit","294","962571","0.0-254.0-0.0","11075109","wem/bandit_party_1","AADDOP3FHMAV1","either","2","171","","","","","","","0","0","1","0.3231243524","","0.8","0.4","0.6","0.2","","","","","0.3231243524","0.1014835246","0.134271297","0.1354109392","","","","","","","","","","72","H","0","img/none_selected.jpg","","213","main_expt","",""
"","bandit","295","964200","0.0-255.0-0.0","11075109","wem/bandit_party_1","AADDOP3FHMAV1","either","2","122","","","","","","","1","0","0","0.09587264096","","0.8","0.4","0.6","0.2","","","","","0.2798540136","0.09587264096","0.1385204111","0.1142105534","","","","","","","","","","74","J","1","","","214","main_expt","",""
"","bandit","296","965719","0.0-256.0-0.0","11075109","wem/bandit_party_1","AADDOP3FHMAV1","either","2","12","","","","","","","0","0","1","","0.08342689115","0.8","0.4","0.6","0.2","0.2469391402","0.08342689115","0.1089132689","0.1031311673","","","","","","","","","","","","","","74","J","1","","","215","main_expt","",""
"","bandit","297","967408","0.0-257.0-0.0","11075109","wem/bandit_party_1","AADDOP3FHMAV1","either","2","182","","","","","","","0","0","1","","0.05361264496","0.8","0.4","0.6","0.2","0.3211823944","0.05361264496","0.1299508563","0.1031732366","","","","","","","","","","","","","","74","J","1","","","216","main_expt","",""
"","bandit","298","969073","0.0-258.0-0.0","11075109","wem/bandit_party_1","AADDOP3FHMAV1","either","2","157","","","","","","","0","0","1","","0.3545519007","0.8","0.4","0.6","0.2","0.3545519007","0.09912420903","0.131109262","0.1188097379","","","","","","","","","","","","","","72","H","0","img/none_selected.jpg","","217","main_expt","",""
"","bandit","299","970610","0.0-259.0-0.0","11075109","wem/bandit_party_1","AADDOP3FHMAV1","either","2","29","","","","","","","0","1","0","","0.3781539282","0.8","0.4","0.6","0.2","0.3781539282","0.1021137889","0.1039495344","0.1096623481","","","","","","","","","","","","","","72","H","0","img/none_selected.jpg","","218","main_expt","",""
"","bandit","300","972365","0.0-260.0-0.0","11075109","wem/bandit_party_1","AADDOP3FHMAV1","either","2","245","","","","","","","1","0","0","0.3674409598","","0.8","0.4","0.6","0.2","","","","","0.3674409598","0.1025207236","0.09488552944","0.08679630722","","","","","","","","","","72","H","0","img/none_selected.jpg","","219","main_expt","",""
"","bandit","301","974013","0.0-261.0-0.0","11075109","wem/bandit_party_1","AADDOP3FHMAV1","either","2","140","","","","","","","0","0","1","0.315237632","","0.8","0.4","0.6","0.2","","","","","0.315237632","0.1049734862","0.1311925698","0.1482089448","","","","","","","","","","72","H","0","img/none_selected.jpg","","220","main_expt","",""
"","bandit","302","975661","0.0-262.0-0.0","11075109","wem/bandit_party_1","AADDOP3FHMAV1","either","2","141","","","","","","","0","0","1","","0.08224132258","0.8","0.4","0.6","0.2","0.3572442142","0.08244295151","0.08224132258","0.217172314","","","","","","","","","","","","","","75","K","2","","","221","main_expt","",""
"","bandit","303","977245","0.0-263.0-0.0","11075109","wem/bandit_party_1","AADDOP3FHMAV1","either","2","77","","","","","","","0","0","1","","0.06870998364","0.8","0.4","0.6","0.2","0.2796125419","0.09815111748","0.06870998364","0.2227738938","","","","","","","","","","","","","","75","K","2","","","222","main_expt","",""
"","bandit","304","978910","0.0-264.0-0.0","11075109","wem/bandit_party_1","AADDOP3FHMAV1","either","2","157","","","","","","","0","0","1","","0.09925351505","0.8","0.4","0.6","0.2","0.2265565182","0.09925351505","0.111762886","0.2768694491","","","","","","","","","","","","","","74","J","1","","","223","main_expt","",""
"","bandit","305","980516","0.0-265.0-0.0","11075109","wem/bandit_party_1","AADDOP3FHMAV1","either","2","94","","","","","","","0","0","1","","0.07842644678","0.8","0.4","0.6","0.2","0.1727872262","0.07842644678","0.09652303785","0.2895694018","","","","","","","","","","","","","","74","J","1","","","224","main_expt","",""
"","bandit","306","982293","0.0-266.0-0.0","11075109","wem/bandit_party_1","AADDOP3FHMAV1","either","2","269","","","","","","","0","0","1","0.05284632075","","0.8","0.4","0.6","0.2","","","","","0.1580797834","0.05284632075","0.09424892582","0.3515154126","","","","","","","","","","74","J","1","","","225","main_expt","",""
"","bandit","307","983842","0.0-267.0-0.0","11075109","wem/bandit_party_1","AADDOP3FHMAV1","either","2","42","","","","","","","1","0","0","0.1206031336","","0.8","0.4","0.6","0.2","","","","","0.1206031336","0.06788221328","0.1094697254","0.3960872924","","","","","","","","","","72","H","0","img/none_selected.jpg","","226","main_expt","",""
"","bandit","308","985661","0.0-268.0-0.0","11075109","wem/bandit_party_1","AADDOP3FHMAV1","either","2","312","","","","","","","0","0","1","0.1218099769","","0.8","0.4","0.6","0.2","","","","","0.1218099769","0.04226868229","0.1055794081","0.3301105445","","","","","","","","","","72","H","0","img/none_selected.jpg","","227","main_expt","",""
"","bandit","309","987340","0.0-269.0-0.0","11075109","wem/bandit_party_1","AADDOP3FHMAV1","either","2","171","","","","","","","0","0","1","","0.08458740206","0.8","0.4","0.6","0.2","0.08458740206","0.06174471126","0.1210232629","0.3679650562","","","","","","","","","","","","","","72","H","0","img/none_selected.jpg","","228","main_expt","",""
"","bandit","310","989044","0.0-270.0-0.0","11075109","wem/bandit_party_1","AADDOP3FHMAV1","either","2","196","","","","","","","0","0","1","0.06122033102","","0.8","0.4","0.6","0.2","","","","","0.06311990622","0.06122033102","0.1249199002","0.3413725311","","","","","","","","","","74","J","1","","","229","main_expt","",""
"","bandit","311","990703","0.0-271.0-0.0","11075109","wem/bandit_party_1","AADDOP3FHMAV1","either","2","151","","","","","","","1","0","0","0.09369367087","","0.8","0.4","0.6","0.2","","","","","0.04674316758","0.09369367087","0.1423167866","0.3652503211","","","","","","","","","","74","J","1","","","230","main_expt","",""
"","bandit","312","992562","0.0-272.0-0.0","11075109","wem/bandit_party_1","AADDOP3FHMAV1","either","2","351","","","","","","","0","0","1","","0.1378364932","0.8","0.4","0.6","0.2","0.06697327866","0.1378364932","0.1441411413","0.3774172636","","","","","","","","","","","","","","74","J","1","","","231","main_expt","",""
"","bandit","313","994240","0.0-273.0-0.0","11075109","wem/bandit_party_1","AADDOP3FHMAV1","either","2","171","","","","","","","0","0","1","","0.1138343256","0.8","0.4","0.6","0.2","0.08617656909","0.1138343256","0.1132866493","0.3507397895","","","","","","","","","","","","","","74","J","1","","","232","main_expt","",""
