"consent","trial_type","trial_index","time_elapsed","internal_node_id","subjID","study","MID","cond","drift","rt","responses","button_pressed","key_press","like","value","connected","gems","bombs","no_reward","GemPrChosen","BombPrChosen","GainOverPainPr_0","GainOverPainPr_1","GainOverPainPr_2","GainOverPainPr_3","LosePr_0","LosePr_1","LosePr_2","LosePr_3","WinPr_0","WinPr_1","WinPr_2","WinPr_3","Q0","Q1","Q2","gender","age","ethnicity","label","expt_phase","target","respCharCode","respKey","respChoiceNum","respChoice","practice","trial_counter","trial_label","Q0_index","view_history"
"GDM/GDM_behavioral_consent_30min_online.html","consent","0","7492","0.0-0.0","14105934","wem/bandit_party_1","A27ZE20JZ3VDUP","either","5","","","","","","","","","","","","","","","","","","","","","","","","","","","","","","","","","","","","","","","","","",""
"","survey-text","1","40210","0.0-1.0","14105934","wem/bandit_party_1","A27ZE20JZ3VDUP","either","5","31699","{""Q0"":""A27ZE20JZ3VDUP""}","","","","","","","","","","","","","","","","","","","","","","","","","","","","","","","","","","","","","","","",""
"","button-response","2","42305","0.0-2.0","14105934","wem/bandit_party_1","A27ZE20JZ3VDUP","either","5","1083","","1","","","","","","","","","","","","","","","","","","","","","","","","","","","","","","","","","","","","","","",""
"","text-replacement","3","51225","0.0-3.0","14105934","wem/bandit_party_1","A27ZE20JZ3VDUP","either","5","7911","","","32","","","","","","","","","","","","","","","","","","","","","","","","","","","","","","","","","","","","","",""
"","text-replacement","4","62426","0.0-4.0","14105934","wem/bandit_party_1","A27ZE20JZ3VDUP","either","5","11195","","","32","","","","","","","","","","","","","","","","","","","","","","","","","","","","","","","","","","","","","",""
"","identification","5","68059","0.0-6.0-0.0","14105934","wem/bandit_party_1","A27ZE20JZ3VDUP","either","5","5590","","","","6","6","6","","","","","","","","","","","","","","","","","","","","","","","","pre","identification_pre","the Democratic Party","","","","","","","","",""
"","identification","6","72712","0.0-6.0-1.0","14105934","wem/bandit_party_1","A27ZE20JZ3VDUP","either","5","3600","","","","3","2","4","","","","","","","","","","","","","","","","","","","","","","","","pre","identification_pre","the Republican party","","","","","","","","",""
"","text-replacement","7","76201","0.0-7.0","14105934","wem/bandit_party_1","A27ZE20JZ3VDUP","either","5","2483","","","32","","","","","","","","","","","","","","","","","","","","","","","","","","","","","","","","","","","","","",""
"","text-replacement","8","81153","0.0-8.0","14105934","wem/bandit_party_1","A27ZE20JZ3VDUP","either","5","4948","","","32","","","","","","","","","","","","","","","","","","","","","","","","","","","","","","","","","","","","","",""
"","text-replacement","9","87130","0.0-9.0","14105934","wem/bandit_party_1","A27ZE20JZ3VDUP","either","5","5972","","","32","","","","","","","","","","","","","","","","","","","","","","","","","","","","","","","","","","","","","",""
"","text-replacement","10","90353","0.0-10.0","14105934","wem/bandit_party_1","A27ZE20JZ3VDUP","either","5","3214","","","32","","","","","","","","","","","","","","","","","","","","","","","","","","","","","","","","","","","","","",""
"","text-replacement","11","92601","0.0-11.0","14105934","wem/bandit_party_1","A27ZE20JZ3VDUP","either","5","2244","","","32","","","","","","","","","","","","","","","","","","","","","","","","","","","","","","","","","","","","","",""
"","bandit","12","95720","0.0-12.0-0.0","14105934","wem/bandit_party_1","A27ZE20JZ3VDUP","either","5","1596","","","","","","","0","0","1","0","0","","","","","0","","","","0","","","","","","","","","","","","","74","J","0","img/none_selected_demo.jpg","true","0","","",""
"","bandit","13","98276","0.0-13.0-0.0","14105934","wem/bandit_party_1","A27ZE20JZ3VDUP","either","5","1040","","","","","","","0","0","1","0","0","","","","","0","","","","0","","","","","","","","","","","","","75","K","0","img/none_selected_demo.jpg","true","0","","",""
"","text-replacement","14","100546","0.0-14.0","14105934","wem/bandit_party_1","A27ZE20JZ3VDUP","either","5","2264","","","32","","","","","","","","","","","","","","","","","","","","","","","","","","","","","","","","","","","","","",""
"","text-replacement","15","111707","0.0-15.0","14105934","wem/bandit_party_1","A27ZE20JZ3VDUP","either","5","11155","","","32","","","","","","","","","","","","","","","","","","","","","","","","","","","","","","","","","","","","","",""
"","text-replacement","16","118069","0.0-16.0","14105934","wem/bandit_party_1","A27ZE20JZ3VDUP","either","5","6356","","","32","","","","","","","","","","","","","","","","","","","","","","","","","","","","","","","","","","","","","",""
"","text-replacement","17","120818","0.0-17.0","14105934","wem/bandit_party_1","A27ZE20JZ3VDUP","either","5","2744","","","32","","","","","","","","","","","","","","","","","","","","","","","","","","","","","","","","","","","","","",""
"","bandit","18","123950","0.0-18.0-0.0","14105934","wem/bandit_party_1","A27ZE20JZ3VDUP","either","5","1617","","","","","","","0","0","1","","0.2","0.5","0.5","","","0.8","0.2","","","","","","","","","","","","","","","","75","K","1","","true","0","80_20_practice","",""
"","bandit","19","126789","0.0-18.0-1.0","14105934","wem/bandit_party_1","A27ZE20JZ3VDUP","either","5","1324","","","","","","","1","0","0","0.8","","0.5","0.5","","","","","","","0.8","0.2","","","","","","","","","","","","74","J","0","img/none_selected_demo.jpg","true","0","80_20_practice","",""
"","bandit","20","128611","0.0-18.0-2.0","14105934","wem/bandit_party_1","A27ZE20JZ3VDUP","either","5","308","","","","","","","0","0","1","","0.8","0.5","0.5","","","0.8","0.2","","","","","","","","","","","","","","","","74","J","0","img/none_selected_demo.jpg","true","0","80_20_practice","",""
"","bandit","21","130484","0.0-18.0-3.0","14105934","wem/bandit_party_1","A27ZE20JZ3VDUP","either","5","361","","","","","","","1","0","0","0.8","","0.5","0.5","","","","","","","0.8","0.2","","","","","","","","","","","","74","J","0","img/none_selected_demo.jpg","true","0","80_20_practice","",""
"","bandit","22","132396","0.0-18.0-4.0","14105934","wem/bandit_party_1","A27ZE20JZ3VDUP","either","5","401","","","","","","","0","0","1","0.2","","0.5","0.5","","","","","","","0.8","0.2","","","","","","","","","","","","75","K","1","","true","0","80_20_practice","",""
"","bandit","23","134132","0.0-18.0-5.0","14105934","wem/bandit_party_1","A27ZE20JZ3VDUP","either","5","223","","","","","","","0","0","1","0.2","","0.5","0.5","","","","","","","0.8","0.2","","","","","","","","","","","","75","K","1","","true","0","80_20_practice","",""
"","bandit","24","135894","0.0-18.0-6.0","14105934","wem/bandit_party_1","A27ZE20JZ3VDUP","either","5","247","","","","","","","0","0","1","","0.2","0.5","0.5","","","0.8","0.2","","","","","","","","","","","","","","","","75","K","1","","true","0","80_20_practice","",""
"","bandit","25","137677","0.0-18.0-7.0","14105934","wem/bandit_party_1","A27ZE20JZ3VDUP","either","5","268","","","","","","","1","0","0","0.8","","0.5","0.5","","","","","","","0.8","0.2","","","","","","","","","","","","74","J","0","img/none_selected_demo.jpg","true","0","80_20_practice","",""
"","bandit","26","139417","0.0-18.0-8.0","14105934","wem/bandit_party_1","A27ZE20JZ3VDUP","either","5","230","","","","","","","1","0","0","0.8","","0.5","0.5","","","","","","","0.8","0.2","","","","","","","","","","","","74","J","0","img/none_selected_demo.jpg","true","0","80_20_practice","",""
"","bandit","27","141196","0.0-18.0-9.0","14105934","wem/bandit_party_1","A27ZE20JZ3VDUP","either","5","267","","","","","","","0","0","1","0.8","","0.5","0.5","","","","","","","0.8","0.2","","","","","","","","","","","","74","J","0","img/none_selected_demo.jpg","true","0","80_20_practice","",""
"","bandit","28","142893","0.0-18.0-10.0","14105934","wem/bandit_party_1","A27ZE20JZ3VDUP","either","5","183","","","","","","","0","1","0","","0.8","0.5","0.5","","","0.8","0.2","","","","","","","","","","","","","","","","74","J","0","img/none_selected_demo.jpg","true","0","80_20_practice","",""
"","bandit","29","144653","0.0-18.0-11.0","14105934","wem/bandit_party_1","A27ZE20JZ3VDUP","either","5","247","","","","","","","0","0","1","0.8","","0.5","0.5","","","","","","","0.8","0.2","","","","","","","","","","","","74","J","0","img/none_selected_demo.jpg","true","0","80_20_practice","",""
"","bandit","30","146181","0.0-18.0-12.0","14105934","wem/bandit_party_1","A27ZE20JZ3VDUP","either","5","15","","","","","","","1","0","0","0.8","","0.5","0.5","","","","","","","0.8","0.2","","","","","","","","","","","","74","J","0","img/none_selected_demo.jpg","true","0","80_20_practice","",""
"","bandit","31","147996","0.0-18.0-13.0","14105934","wem/bandit_party_1","A27ZE20JZ3VDUP","either","5","302","","","","","","","0","0","1","","0.2","0.5","0.5","","","0.8","0.2","","","","","","","","","","","","","","","","75","K","1","","true","0","80_20_practice","",""
"","bandit","32","149661","0.0-18.0-14.0","14105934","wem/bandit_party_1","A27ZE20JZ3VDUP","either","5","150","","","","","","","0","0","1","","0.2","0.5","0.5","","","0.8","0.2","","","","","","","","","","","","","","","","75","K","1","","true","0","80_20_practice","",""
"","bandit","33","151267","0.0-18.0-15.0","14105934","wem/bandit_party_1","A27ZE20JZ3VDUP","either","5","93","","","","","","","0","0","1","0.2","","0.5","0.5","","","","","","","0.8","0.2","","","","","","","","","","","","75","K","1","","true","0","80_20_practice","",""
"","bandit","34","154186","0.0-18.0-16.0","14105934","wem/bandit_party_1","A27ZE20JZ3VDUP","either","5","1405","","","","","","","1","0","0","0.2","","0.5","0.5","","","","","","","0.8","0.2","","","","","","","","","","","","75","K","1","","true","0","80_20_practice","",""
"","bandit","35","155869","0.0-18.0-17.0","14105934","wem/bandit_party_1","A27ZE20JZ3VDUP","either","5","170","","","","","","","0","0","1","0.2","","0.5","0.5","","","","","","","0.8","0.2","","","","","","","","","","","","75","K","1","","true","0","80_20_practice","",""
"","bandit","36","157395","0.0-18.0-18.0","14105934","wem/bandit_party_1","A27ZE20JZ3VDUP","either","5","13","","","","","","","0","0","1","0.2","","0.5","0.5","","","","","","","0.8","0.2","","","","","","","","","","","","75","K","1","","true","0","80_20_practice","",""
"","bandit","37","159173","0.0-18.0-19.0","14105934","wem/bandit_party_1","A27ZE20JZ3VDUP","either","5","263","","","","","","","1","0","0","0.8","","0.5","0.5","","","","","","","0.8","0.2","","","","","","","","","","","","74","J","0","img/none_selected_demo.jpg","true","0","80_20_practice","",""
"","text-replacement","38","161338","0.0-19.0","14105934","wem/bandit_party_1","A27ZE20JZ3VDUP","either","5","2159","","","32","","","","","","","","","","","","","","","","","","","","","","","","","","","","","","","","","","","","","",""
"","bandit","39","164078","0.0-20.0-0.0","14105934","wem/bandit_party_1","A27ZE20JZ3VDUP","either","5","1227","","","","","","","1","0","0","1","0","","","","","0","1","","","1","0","","","","","","","","","","","","74","J","0","img/none_selected_demo.jpg","true","0","","",""
"","text-replacement","40","167891","0.0-21.0","14105934","wem/bandit_party_1","A27ZE20JZ3VDUP","either","5","3806","","","32","","","","","","","","","","","","","","","","","","","","","","","","","","","","","","","","","","","","","",""
"","text-replacement","41","170522","0.0-22.0","14105934","wem/bandit_party_1","A27ZE20JZ3VDUP","either","5","2625","","","32","","","","","","","","","","","","","","","","","","","","","","","","","","","","","","","","","","","","","",""
"","text-replacement","42","172851","0.0-23.0","14105934","wem/bandit_party_1","A27ZE20JZ3VDUP","either","5","2322","","","32","","","","","","","","","","","","","","","","","","","","","","","","","","","","","","","","","","","","","",""
"","text-replacement","43","174994","0.0-24.0","14105934","wem/bandit_party_1","A27ZE20JZ3VDUP","either","5","2137","","","32","","","","","","","","","","","","","","","","","","","","","","","","","","","","","","","","","","","","","",""
"","text-replacement","44","176066","0.0-25.0","14105934","wem/bandit_party_1","A27ZE20JZ3VDUP","either","5","1066","","","32","","","","","","","","","","","","","","","","","","","","","","","","","","","","","","","","","","","","","",""
"","text-replacement","45","176466","0.0-26.0","14105934","wem/bandit_party_1","A27ZE20JZ3VDUP","either","5","395","","","32","","","","","","","","","","","","","","","","","","","","","","","","","","","","","","","","","","","","","",""
"","text-replacement","46","176843","0.0-27.0","14105934","wem/bandit_party_1","A27ZE20JZ3VDUP","either","5","372","","","32","","","","","","","","","","","","","","","","","","","","","","","","","","","","","","","","","","","","","",""
"","text-replacement","47","179740","0.0-28.0","14105934","wem/bandit_party_1","A27ZE20JZ3VDUP","either","5","2892","","","32","","","","","","","","","","","","","","","","","","","","","","","","","","","","","","","","","","","","","",""
"","text-replacement","48","180395","0.0-29.0","14105934","wem/bandit_party_1","A27ZE20JZ3VDUP","either","5","649","","","32","","","","","","","","","","","","","","","","","","","","","","","","","","","","","","","","","","","","","",""
"","text-replacement","49","180939","0.0-30.0","14105934","wem/bandit_party_1","A27ZE20JZ3VDUP","either","5","539","","","32","","","","","","","","","","","","","","","","","","","","","","","","","","","","","","","","","","","","","",""
"","text-replacement","50","182119","0.0-31.0","14105934","wem/bandit_party_1","A27ZE20JZ3VDUP","either","5","1175","","","32","","","","","","","","","","","","","","","","","","","","","","","","","","","","","","","","","","","","","",""
"","bandit","51","184531","0.0-32.0-0.0","14105934","wem/bandit_party_1","A27ZE20JZ3VDUP","either","5","896","","","","","","","0","1","0","","0.8","0.5","0.5","0.5","0.5","0.8","0.2","0.6","0.2","","","","","","","","","","","","","","72","H","0","img/none_selected.jpg","true","0","full_practice","",""
"","bandit","52","186414","0.0-32.0-1.0","14105934","wem/bandit_party_1","A27ZE20JZ3VDUP","either","5","368","","","","","","","0","1","0","","0.8","0.5","0.5","0.5","0.5","0.8","0.2","0.6","0.2","","","","","","","","","","","","","","72","H","0","img/none_selected.jpg","true","0","full_practice","",""
"","bandit","53","188246","0.0-32.0-2.0","14105934","wem/bandit_party_1","A27ZE20JZ3VDUP","either","5","318","","","","","","","0","0","1","0.8","","0.5","0.5","0.5","0.5","","","","","0.8","0.2","0.6","0.2","","","","","","","","","","72","H","0","img/none_selected.jpg","true","0","full_practice","",""
"","bandit","54","190269","0.0-32.0-3.0","14105934","wem/bandit_party_1","A27ZE20JZ3VDUP","either","5","505","","","","","","","0","0","1","","0.2","0.5","0.5","0.5","0.5","0.8","0.2","0.6","0.2","","","","","","","","","","","","","","76","L","3","","true","0","full_practice","",""
"","bandit","55","192072","0.0-32.0-4.0","14105934","wem/bandit_party_1","A27ZE20JZ3VDUP","either","5","263","","","","","","","0","0","1","","0.2","0.5","0.5","0.5","0.5","0.8","0.2","0.6","0.2","","","","","","","","","","","","","","76","L","3","","true","0","full_practice","",""
"","bandit","56","194220","0.0-32.0-5.0","14105934","wem/bandit_party_1","A27ZE20JZ3VDUP","either","5","637","","","","","","","0","0","1","","0.2","0.5","0.5","0.5","0.5","0.8","0.2","0.6","0.2","","","","","","","","","","","","","","76","L","3","","true","0","full_practice","",""
"","bandit","57","196029","0.0-32.0-6.0","14105934","wem/bandit_party_1","A27ZE20JZ3VDUP","either","5","295","","","","","","","1","0","0","0.6","","0.5","0.5","0.5","0.5","","","","","0.8","0.2","0.6","0.2","","","","","","","","","","75","K","2","","true","0","full_practice","",""
"","bandit","58","197782","0.0-32.0-7.0","14105934","wem/bandit_party_1","A27ZE20JZ3VDUP","either","5","238","","","","","","","1","0","0","0.6","","0.5","0.5","0.5","0.5","","","","","0.8","0.2","0.6","0.2","","","","","","","","","","75","K","2","","true","0","full_practice","",""
"","bandit","59","199557","0.0-32.0-8.0","14105934","wem/bandit_party_1","A27ZE20JZ3VDUP","either","5","261","","","","","","","0","1","0","","0.6","0.5","0.5","0.5","0.5","0.8","0.2","0.6","0.2","","","","","","","","","","","","","","75","K","2","","true","0","full_practice","",""
"","bandit","60","201333","0.0-32.0-9.0","14105934","wem/bandit_party_1","A27ZE20JZ3VDUP","either","5","261","","","","","","","1","0","0","0.6","","0.5","0.5","0.5","0.5","","","","","0.8","0.2","0.6","0.2","","","","","","","","","","75","K","2","","true","0","full_practice","",""
"","bandit","61","203093","0.0-32.0-10.0","14105934","wem/bandit_party_1","A27ZE20JZ3VDUP","either","5","223","","","","","","","0","1","0","","0.2","0.5","0.5","0.5","0.5","0.8","0.2","0.6","0.2","","","","","","","","","","","","","","74","J","1","","true","0","full_practice","",""
"","bandit","62","204828","0.0-32.0-11.0","14105934","wem/bandit_party_1","A27ZE20JZ3VDUP","either","5","222","","","","","","","0","0","1","0.2","","0.5","0.5","0.5","0.5","","","","","0.8","0.2","0.6","0.2","","","","","","","","","","74","J","1","","true","0","full_practice","",""
"","bandit","63","206630","0.0-32.0-12.0","14105934","wem/bandit_party_1","A27ZE20JZ3VDUP","either","5","286","","","","","","","0","0","1","0.2","","0.5","0.5","0.5","0.5","","","","","0.8","0.2","0.6","0.2","","","","","","","","","","74","J","1","","true","0","full_practice","",""
"","bandit","64","208246","0.0-32.0-13.0","14105934","wem/bandit_party_1","A27ZE20JZ3VDUP","either","5","101","","","","","","","0","0","1","0.2","","0.5","0.5","0.5","0.5","","","","","0.8","0.2","0.6","0.2","","","","","","","","","","74","J","1","","true","0","full_practice","",""
"","bandit","65","209813","0.0-32.0-14.0","14105934","wem/bandit_party_1","A27ZE20JZ3VDUP","either","5","54","","","","","","","0","1","0","","0.6","0.5","0.5","0.5","0.5","0.8","0.2","0.6","0.2","","","","","","","","","","","","","","75","K","2","","true","0","full_practice","",""
"","bandit","66","211558","0.0-32.0-15.0","14105934","wem/bandit_party_1","A27ZE20JZ3VDUP","either","5","232","","","","","","","0","1","0","","0.6","0.5","0.5","0.5","0.5","0.8","0.2","0.6","0.2","","","","","","","","","","","","","","75","K","2","","true","0","full_practice","",""
"","bandit","67","213086","0.0-32.0-16.0","14105934","wem/bandit_party_1","A27ZE20JZ3VDUP","either","5","14","","","","","","","1","0","0","0.6","","0.5","0.5","0.5","0.5","","","","","0.8","0.2","0.6","0.2","","","","","","","","","","75","K","2","","true","0","full_practice","",""
"","bandit","68","214781","0.0-32.0-17.0","14105934","wem/bandit_party_1","A27ZE20JZ3VDUP","either","5","180","","","","","","","0","0","1","0.8","","0.5","0.5","0.5","0.5","","","","","0.8","0.2","0.6","0.2","","","","","","","","","","72","H","0","img/none_selected.jpg","true","0","full_practice","",""
"","bandit","69","216415","0.0-32.0-18.0","14105934","wem/bandit_party_1","A27ZE20JZ3VDUP","either","5","119","","","","","","","1","0","0","0.6","","0.5","0.5","0.5","0.5","","","","","0.8","0.2","0.6","0.2","","","","","","","","","","75","K","2","","true","0","full_practice","",""
"","bandit","70","218085","0.0-32.0-19.0","14105934","wem/bandit_party_1","A27ZE20JZ3VDUP","either","5","157","","","","","","","0","1","0","","0.6","0.5","0.5","0.5","0.5","0.8","0.2","0.6","0.2","","","","","","","","","","","","","","75","K","2","","true","0","full_practice","",""
"","text","71","220260","0.0-33.0","14105934","wem/bandit_party_1","A27ZE20JZ3VDUP","either","5","2157","","","32","","","","","","","","","","","","","","","","","","","","","","","","","","","","","","","","","","","","","",""
"","text-replacement","72","228398","0.0-34.0","14105934","wem/bandit_party_1","A27ZE20JZ3VDUP","either","5","7130","","","32","","","","","","","","","","","","","","","","","","","","","","","","","","","","","","","","","","","","","",""
"","text-replacement","73","237854","0.0-35.0","14105934","wem/bandit_party_1","A27ZE20JZ3VDUP","either","5","9448","","","32","","","","","","","","","","","","","","","","","","","","","","","","","","","","","","","","","","","","","",""
"","text-replacement","74","238885","0.0-36.0","14105934","wem/bandit_party_1","A27ZE20JZ3VDUP","either","5","1024","","","32","","","","","","","","","","","","","","","","","","","","","","","","","","","","","","","","","","","","","",""
"","text-replacement","75","239428","0.0-37.0","14105934","wem/bandit_party_1","A27ZE20JZ3VDUP","either","5","537","","","32","","","","","","","","","","","","","","","","","","","","","","","","","","","","","","","","","","","","","",""
"","text-replacement","76","240188","0.0-38.0","14105934","wem/bandit_party_1","A27ZE20JZ3VDUP","either","5","754","","","32","","","","","","","","","","","","","","","","","","","","","","","","","","","","","","","","","","","","","",""
"","survey-multi-choice-replacement","77","245821","0.0-39.0-0.0","14105934","wem/bandit_party_1","A27ZE20JZ3VDUP","either","5","5604","","","","","","","","","","","","","","","","","","","","","","","","Money will be added to the pool for <span style='color:blue;'>DEMOCRATS</span>","","","","","","","attn_check","","","","","","","","","0",""
"","survey-multi-choice-replacement","78","252223","0.0-40.0-0.0","14105934","wem/bandit_party_1","A27ZE20JZ3VDUP","either","5","5379","","","","","","","","","","","","","","","","","","","","","","","","Money will be subtracted from the pool for <span style='color:red;'>REPUBLICANS</span>","","","","","","","attn_check","","","","","","","","","1",""
"","instructions","79","254725","0.0-40.0-1.0-0.0","14105934","wem/bandit_party_1","A27ZE20JZ3VDUP","either","5","1493","","","","","","","","","","","","","","","","","","","","","","","","","","","","","","","","","","","","","","","","","[{""page_index"":0,""viewing_time"":1492}]"
"","survey-multi-choice-replacement","80","257142","0.0-40.1-0.1","14105934","wem/bandit_party_1","A27ZE20JZ3VDUP","either","5","1395","","","","","","","","","","","","","","","","","","","","","","","","Equal amounts of money will be added to the pool for <span style='color:blue;'>DEMOCRATS</span> and subtracted from the pool for <span style='color:red;'>REPUBLICANS</span>","","","","","","","attn_check","","","","","","","","","2",""
"","survey-multi-choice-replacement","81","259700","0.0-41.0-0.0","14105934","wem/bandit_party_1","A27ZE20JZ3VDUP","either","5","1538","","","","","","","","","","","","","","","","","","","","","","","","No money will be added to either pool","","","","","","","attn_check","","","","","","","","","3",""
"","bandit","82","263449","0.0-42.0-0.0","14105934","wem/bandit_party_1","A27ZE20JZ3VDUP","either","5","1223","","","","","","","1","0","0","0.3340388524","","0.4","0.6","0.8","0.2","","","","","0.4265570961","0.3340388524","0.3897275569","0.1165465043","","","","","","","","","","74","J","1","","","1","main_expt","",""
"","bandit","83","265239","0.0-43.0-0.0","14105934","wem/bandit_party_1","A27ZE20JZ3VDUP","either","5","274","","","","","","","0","0","1","0.3223834482","","0.4","0.6","0.8","0.2","","","","","0.4177099958","0.3223834482","0.3911966266","0.08371899021","","","","","","","","","","74","J","1","","","2","main_expt","",""
"","bandit","84","266978","0.0-44.0-0.0","14105934","wem/bandit_party_1","A27ZE20JZ3VDUP","either","5","220","","","","","","","0","0","1","0.3585509001","","0.4","0.6","0.8","0.2","","","","","0.4192185534","0.3585509001","0.4074861021","0.04339790364","","","","","","","","","","74","J","1","","","3","main_expt","",""
"","bandit","85","268871","0.0-45.0-0.0","14105934","wem/bandit_party_1","A27ZE20JZ3VDUP","either","5","380","","","","","","","0","0","1","0.4241610434","","0.4","0.6","0.8","0.2","","","","","0.4241610434","0.3416436242","0.3965638453","0.04073472785","","","","","","","","","","72","H","0","img/none_selected.jpg","","4","main_expt","",""
"","bandit","86","270697","0.0-46.0-0.0","14105934","wem/bandit_party_1","A27ZE20JZ3VDUP","either","5","312","","","","","","","0","0","1","0.3688269119","","0.4","0.6","0.8","0.2","","","","","0.4284837315","0.3444758892","0.3688269119","0.04731773769","","","","","","","","","","75","K","2","","","5","main_expt","",""
"","bandit","87","272521","0.0-47.0-0.0","14105934","wem/bandit_party_1","A27ZE20JZ3VDUP","either","5","309","","","","","","","0","0","1","0.3574177426","","0.4","0.6","0.8","0.2","","","","","0.4328708062","0.3574177426","0.3865867917","0.05617088868","","","","","","","","","","74","J","1","","","6","main_expt","",""
"","bandit","88","274062","0.0-48.0-0.0","14105934","wem/bandit_party_1","A27ZE20JZ3VDUP","either","5","2","","","","","","","0","0","1","","0.05606577856","0.4","0.6","0.8","0.2","0.4176545671","0.3634052143","0.4294719924","0.05606577856","","","","","","","","","","","","","","76","L","3","","","7","main_expt","",""
"","bandit","89","275944","0.0-49.0-0.0","14105934","wem/bandit_party_1","A27ZE20JZ3VDUP","either","5","367","","","","","","","0","0","1","","0.3675420607","0.4","0.6","0.8","0.2","0.4022395488","0.3675420607","0.4210378118","0.09244853328","","","","","","","","","","","","","","74","J","1","","","8","main_expt","",""
"","bandit","90","277584","0.0-50.0-0.0","14105934","wem/bandit_party_1","A27ZE20JZ3VDUP","either","5","116","","","","","","","1","0","0","0.4502112583","","0.4","0.6","0.8","0.2","","","","","0.3929004949","0.3921196104","0.4502112583","0.1271341085","","","","","","","","","","75","K","2","","","9","main_expt","",""
"","bandit","91","279129","0.0-51.0-0.0","14105934","wem/bandit_party_1","A27ZE20JZ3VDUP","either","5","30","","","","","","","0","0","1","0.4452653155","","0.4","0.6","0.8","0.2","","","","","0.3863711448","0.4026182126","0.4452653155","0.1370717255","","","","","","","","","","75","K","2","","","10","main_expt","",""
"","bandit","92","280890","0.0-52.0-0.0","14105934","wem/bandit_party_1","A27ZE20JZ3VDUP","either","5","245","","","","","","","0","1","0","","0.3543069494","0.4","0.6","0.8","0.2","0.4205849279","0.3543069494","0.4352349267","0.1275050207","","","","","","","","","","","","","","74","J","1","","","11","main_expt","",""
"","bandit","93","282586","0.0-53.0-0.0","14105934","wem/bandit_party_1","A27ZE20JZ3VDUP","either","5","180","","","","","","","0","0","1","0.3504097904","","0.4","0.6","0.8","0.2","","","","","0.4525069231","0.3504097904","0.4029030639","0.122317004","","","","","","","","","","74","J","1","","","12","main_expt","",""
"","bandit","94","284249","0.0-54.0-0.0","14105934","wem/bandit_party_1","A27ZE20JZ3VDUP","either","5","145","","","","","","","0","0","1","0.2787441393","","0.4","0.6","0.8","0.2","","","","","0.4485799753","0.2787441393","0.4198147105","0.1251711411","","","","","","","","","","74","J","1","","","13","main_expt","",""
"","bandit","95","285856","0.0-55.0-0.0","14105934","wem/bandit_party_1","A27ZE20JZ3VDUP","either","5","92","","","","","","","1","0","0","0.4504049656","","0.4","0.6","0.8","0.2","","","","","0.4504049656","0.2723245106","0.3761312174","0.1380641988","","","","","","","","","","72","H","0","img/none_selected.jpg","","14","main_expt","",""
"","bandit","96","287703","0.0-56.0-0.0","14105934","wem/bandit_party_1","A27ZE20JZ3VDUP","either","5","331","","","","","","","0","0","1","","0.4017507227","0.4","0.6","0.8","0.2","0.4281165459","0.3687644442","0.4017507227","0.2010812313","","","","","","","","","","","","","","75","K","2","","","15","main_expt","",""
"","bandit","97","289290","0.0-57.0-0.0","14105934","wem/bandit_party_1","A27ZE20JZ3VDUP","either","5","71","","","","","","","0","0","1","","0.1747275657","0.4","0.6","0.8","0.2","0.4035101098","0.3992289848","0.3859888637","0.1747275657","","","","","","","","","","","","","","76","L","3","","","16","main_expt","",""
"","bandit","98","290955","0.0-58.0-0.0","14105934","wem/bandit_party_1","A27ZE20JZ3VDUP","either","5","147","","","","","","","0","1","0","","0.4063691663","0.4","0.6","0.8","0.2","0.4063691663","0.4067061876","0.3706978481","0.1816524112","","","","","","","","","","","","","","72","H","0","img/none_selected.jpg","","17","main_expt","",""
"","bandit","99","292623","0.0-59.0-0.0","14105934","wem/bandit_party_1","A27ZE20JZ3VDUP","either","5","147","","","","","","","1","0","0","0.4201618032","","0.4","0.6","0.8","0.2","","","","","0.4201618032","0.3969002131","0.3323991027","0.1700798448","","","","","","","","","","72","H","0","img/none_selected.jpg","","18","main_expt","",""
"","bandit","100","294249","0.0-60.0-0.0","14105934","wem/bandit_party_1","A27ZE20JZ3VDUP","either","5","108","","","","","","","0","0","1","0.3868389751","","0.4","0.6","0.8","0.2","","","","","0.3868389751","0.3930099592","0.3301718366","0.1998500639","","","","","","","","","","72","H","0","img/none_selected.jpg","","19","main_expt","",""
"","bandit","101","296097","0.0-61.0-0.0","14105934","wem/bandit_party_1","A27ZE20JZ3VDUP","either","5","293","","","","","","","0","0","1","","0.3714618997","0.4","0.6","0.8","0.2","0.3868875991","0.3791602553","0.3714618997","0.2418808817","","","","","","","","","","","","","","75","K","2","","","20","main_expt","",""
"","bandit","102","297721","0.0-62.0-0.0","14105934","wem/bandit_party_1","A27ZE20JZ3VDUP","either","5","109","","","","","","","0","0","1","0.4127515201","","0.4","0.6","0.8","0.2","","","","","0.4253770554","0.4127515201","0.3621694591","0.2293341009","","","","","","","","","","74","J","1","","","21","main_expt","",""
"","bandit","103","299303","0.0-63.0-0.0","14105934","wem/bandit_party_1","A27ZE20JZ3VDUP","either","5","69","","","","","","","0","0","1","","0.4164833055","0.4","0.6","0.8","0.2","0.4285762007","0.4164833055","0.3648829928","0.2074184163","","","","","","","","","","","","","","74","J","1","","","22","main_expt","",""
"","bandit","104","300825","0.0-64.0-0.0","14105934","wem/bandit_party_1","A27ZE20JZ3VDUP","either","5","6","","","","","","","0","0","1","0.1832507358","","0.4","0.6","0.8","0.2","","","","","0.4082522222","0.4143027846","0.2856994719","0.1832507358","","","","","","","","","","76","L","3","","","23","main_expt","",""
"","bandit","105","302367","0.0-65.0-0.0","14105934","wem/bandit_party_1","A27ZE20JZ3VDUP","either","5","27","","","","","","","0","0","1","","0.1469425149","0.4","0.6","0.8","0.2","0.4027270218","0.3649270698","0.3152516524","0.1469425149","","","","","","","","","","","","","","76","L","3","","","24","main_expt","",""
"","bandit","106","303953","0.0-66.0-0.0","14105934","wem/bandit_party_1","A27ZE20JZ3VDUP","either","5","72","","","","","","","0","0","1","","0.102794739","0.4","0.6","0.8","0.2","0.4100212433","0.392676409","0.2778145345","0.102794739","","","","","","","","","","","","","","76","L","3","","","25","main_expt","",""
"","bandit","107","305722","0.0-67.0-0.0","14105934","wem/bandit_party_1","A27ZE20JZ3VDUP","either","5","253","","","","","","","0","0","1","0.3170506137","","0.4","0.6","0.8","0.2","","","","","0.4190791169","0.4031565401","0.3170506137","0.1173732637","","","","","","","","","","75","K","2","","","26","main_expt","",""
"","bandit","108","307610","0.0-68.0-0.0","14105934","wem/bandit_party_1","A27ZE20JZ3VDUP","either","5","372","","","","","","","1","0","0","0.3223143746","","0.4","0.6","0.8","0.2","","","","","0.4527212376","0.4245959001","0.3223143746","0.08835016803","","","","","","","","","","75","K","2","","","27","main_expt","",""
"","bandit","109","309321","0.0-69.0-0.0","14105934","wem/bandit_party_1","A27ZE20JZ3VDUP","either","5","196","","","","","","","0","0","1","0.3234472479","","0.4","0.6","0.8","0.2","","","","","0.4480998813","0.4232885055","0.3234472479","0.1134440288","","","","","","","","","","75","K","2","","","28","main_expt","",""
"","bandit","110","311057","0.0-70.0-0.0","14105934","wem/bandit_party_1","A27ZE20JZ3VDUP","either","5","221","","","","","","","0","0","1","0.2881425904","","0.4","0.6","0.8","0.2","","","","","0.4628669208","0.4495512981","0.2881425904","0.1982905849","","","","","","","","","","75","K","2","","","29","main_expt","",""
"","bandit","111","312603","0.0-71.0-0.0","14105934","wem/bandit_party_1","A27ZE20JZ3VDUP","either","5","29","","","","","","","0","0","1","","0.4565655028","0.4","0.6","0.8","0.2","0.4565655028","0.4485299892","0.2326555855","0.2366655967","","","","","","","","","","","","","","72","H","0","img/none_selected.jpg","","30","main_expt","",""
"","bandit","112","314573","0.0-72.0-0.0","14105934","wem/bandit_party_1","A27ZE20JZ3VDUP","either","5","454","","","","","","","1","0","0","0.4599237238","","0.4","0.6","0.8","0.2","","","","","0.4686031056","0.4599237238","0.2364604256","0.1622470467","","","","","","","","","","74","J","1","","","31","main_expt","",""
"","bandit","113","316325","0.0-73.0-0.0","14105934","wem/bandit_party_1","A27ZE20JZ3VDUP","either","5","234","","","","","","","0","0","1","","0.1771911602","0.4","0.6","0.8","0.2","0.4659582456","0.4508116693","0.2451982598","0.1771911602","","","","","","","","","","","","","","76","L","3","","","32","main_expt","",""
"","bandit","114","318089","0.0-74.0-0.0","14105934","wem/bandit_party_1","A27ZE20JZ3VDUP","either","5","242","","","","","","","1","0","0","0.2360369815","","0.4","0.6","0.8","0.2","","","","","0.4810757035","0.45101727","0.2360369815","0.1622836308","","","","","","","","","","75","K","2","","","33","main_expt","",""
"","bandit","115","319835","0.0-75.0-0.0","14105934","wem/bandit_party_1","A27ZE20JZ3VDUP","either","5","228","","","","","","","0","0","1","0.2317763892","","0.4","0.6","0.8","0.2","","","","","0.4842727378","0.4340174653","0.2317763892","0.1655985557","","","","","","","","","","75","K","2","","","34","main_expt","",""
"","bandit","116","321601","0.0-76.0-0.0","14105934","wem/bandit_party_1","A27ZE20JZ3VDUP","either","5","248","","","","","","","0","1","0","","0.4745470136","0.4","0.6","0.8","0.2","0.4745470136","0.4040147441","0.2527891731","0.1492797185","","","","","","","","","","","","","","72","H","0","img/none_selected.jpg","","35","main_expt","",""
"","bandit","117","323369","0.0-77.0-0.0","14105934","wem/bandit_party_1","A27ZE20JZ3VDUP","either","5","254","","","","","","","0","0","1","0.4440965139","","0.4","0.6","0.8","0.2","","","","","0.4440965139","0.4268829696","0.2641283143","0.1504543003","","","","","","","","","","72","H","0","img/none_selected.jpg","","36","main_expt","",""
"","bandit","118","325055","0.0-78.0-0.0","14105934","wem/bandit_party_1","A27ZE20JZ3VDUP","either","5","68","","","","","","","1","0","0","0.4562327564","","0.4","0.6","0.8","0.2","","","","","0.4544425755","0.4562327564","0.2309310423","0.1064249526","","","","","","","","","","74","J","1","","","37","main_expt","",""
"","bandit","119","326721","0.0-79.0-0.0","14105934","wem/bandit_party_1","A27ZE20JZ3VDUP","either","5","142","","","","","","","0","0","1","0.4481627861","","0.4","0.6","0.8","0.2","","","","","0.4700138218","0.4481627861","0.2093170459","0.1346530267","","","","","","","","","","74","J","1","","","38","main_expt","",""
"","bandit","120","328339","0.0-80.0-0.0","14105934","wem/bandit_party_1","A27ZE20JZ3VDUP","either","5","99","","","","","","","0","1","0","","0.1398625959","0.4","0.6","0.8","0.2","0.466948448","0.4475890948","0.1398625959","0.1303494481","","","","","","","","","","","","","","75","K","2","","","39","main_expt","",""
"","bandit","121","330128","0.0-81.0-0.0","14105934","wem/bandit_party_1","A27ZE20JZ3VDUP","either","5","272","","","","","","","0","0","1","0.09690087606","","0.4","0.6","0.8","0.2","","","","","0.4679256248","0.4501575696","0.09690087606","0.1492074344","","","","","","","","","","75","K","2","","","40","main_expt","",""
"","bandit","122","331664","0.0-82.0-0.0","14105934","wem/bandit_party_1","A27ZE20JZ3VDUP","either","5","21","","","","","","","1","0","0","0.445537573","","0.4","0.6","0.8","0.2","","","","","0.445537573","0.4121884666","0.1129569356","0.1370672299","","","","","","","","","","72","H","0","img/none_selected.jpg","","41","main_expt","",""
"","bandit","123","333295","0.0-83.0-0.0","14105934","wem/bandit_party_1","A27ZE20JZ3VDUP","either","5","118","","","","","","","1","0","0","0.4379939247","","0.4","0.6","0.8","0.2","","","","","0.4521531226","0.4379939247","0.1227033228","0.08144147181","","","","","","","","","","74","J","1","","","42","main_expt","",""
"","bandit","124","335140","0.0-84.0-0.0","14105934","wem/bandit_party_1","A27ZE20JZ3VDUP","either","5","325","","","","","","","0","0","1","0.4271747655","","0.4","0.6","0.8","0.2","","","","","0.4695072217","0.4271747655","0.08393287497","0.06793865388","","","","","","","","","","74","J","1","","","43","main_expt","",""
"","bandit","125","337249","0.0-85.0-0.0","14105934","wem/bandit_party_1","A27ZE20JZ3VDUP","either","5","595","","","","","","","0","0","1","","0.4807409838","0.4","0.6","0.8","0.2","0.4807409838","0.4480494518","0.06260074275","0.05295344446","","","","","","","","","","","","","","72","H","0","img/none_selected.jpg","","44","main_expt","",""
"","bandit","126","338850","0.0-86.0-0.0","14105934","wem/bandit_party_1","A27ZE20JZ3VDUP","either","5","85","","","","","","","0","0","1","","0.08062123592","0.4","0.6","0.8","0.2","0.4507048108","0.4269729589","0.08062123592","0.02744239742","","","","","","","","","","","","","","75","K","2","","","45","main_expt","",""
"","bandit","127","340369","0.0-87.0-0.0","14105934","wem/bandit_party_1","A27ZE20JZ3VDUP","either","5","3","","","","","","","0","0","1","0.02347437243","","0.4","0.6","0.8","0.2","","","","","0.4382321206","0.4475746277","0.1110847749","0.02347437243","","","","","","","","","","76","L","3","","","46","main_expt","",""
"","bandit","128","341930","0.0-88.0-0.0","14105934","wem/bandit_party_1","A27ZE20JZ3VDUP","either","5","44","","","","","","","0","0","1","","0.02418160198","0.4","0.6","0.8","0.2","0.4393937913","0.4295618238","0.05346849493","0.02418160198","","","","","","","","","","","","","","76","L","3","","","47","main_expt","",""
"","bandit","129","343473","0.0-89.0-0.0","14105934","wem/bandit_party_1","A27ZE20JZ3VDUP","either","5","18","","","","","","","0","0","1","0.04499733497","","0.4","0.6","0.8","0.2","","","","","0.440318131","0.4431907244","0.04499733497","0.01182676654","","","","","","","","","","75","K","2","","","48","main_expt","",""
"","bandit","130","345112","0.0-90.0-0.0","14105934","wem/bandit_party_1","A27ZE20JZ3VDUP","either","5","125","","","","","","","0","0","1","","0.07378534534","0.4","0.6","0.8","0.2","0.4362102412","0.4187732916","0.07378534534","0.0186287842","","","","","","","","","","","","","","75","K","2","","","49","main_expt","",""
"","bandit","131","346657","0.0-91.0-0.0","14105934","wem/bandit_party_1","A27ZE20JZ3VDUP","either","5","29","","","","","","","0","0","1","0.02550629551","","0.4","0.6","0.8","0.2","","","","","0.44488671","0.356579213","0.06168845619","0.02550629551","","","","","","","","","","76","L","3","","","50","main_expt","",""
"","bandit","132","348337","0.0-92.0-0.0","14105934","wem/bandit_party_1","A27ZE20JZ3VDUP","either","5","165","","","","","","","1","0","0","0.4633405548","","0.4","0.6","0.8","0.2","","","","","0.4633405548","0.2629404955","0.1062028567","0.04366809707","","","","","","","","","","72","H","0","img/none_selected.jpg","","51","main_expt","",""
"","bandit","133","349885","0.0-93.0-0.0","14105934","wem/bandit_party_1","A27ZE20JZ3VDUP","either","5","29","","","","","","","0","0","1","","0.4528043762","0.4","0.6","0.8","0.2","0.4528043762","0.2919747068","0.1379608546","0.04357168116","","","","","","","","","","","","","","72","H","0","img/none_selected.jpg","","52","main_expt","",""
"","bandit","134","351568","0.0-94.0-0.0","14105934","wem/bandit_party_1","A27ZE20JZ3VDUP","either","5","165","","","","","","","0","0","1","","0.03899227154","0.4","0.6","0.8","0.2","0.4390431751","0.3809901122","0.1356826849","0.03899227154","","","","","","","","","","","","","","76","L","3","","","53","main_expt","",""
"","bandit","135","353112","0.0-95.0-0.0","14105934","wem/bandit_party_1","A27ZE20JZ3VDUP","either","5","29","","","","","","","0","0","1","","0.04009146386","0.4","0.6","0.8","0.2","0.4549270822","0.3452518694","0.1038772241","0.04009146386","","","","","","","","","","","","","","76","L","3","","","54","main_expt","",""
"","bandit","136","354712","0.0-96.0-0.0","14105934","wem/bandit_party_1","A27ZE20JZ3VDUP","either","5","86","","","","","","","0","0","1","","0.0155768565","0.4","0.6","0.8","0.2","0.4710341864","0.3263112327","0.1689791829","0.0155768565","","","","","","","","","","","","","","76","L","3","","","55","main_expt","",""
"","bandit","137","356234","0.0-97.0-0.0","14105934","wem/bandit_party_1","A27ZE20JZ3VDUP","either","5","6","","","","","","","0","0","1","","0.02112461672","0.4","0.6","0.8","0.2","0.4745834276","0.3308963945","0.1108888145","0.02112461672","","","","","","","","","","","","","","76","L","3","","","56","main_expt","",""
"","bandit","138","357810","0.0-98.0-0.0","14105934","wem/bandit_party_1","A27ZE20JZ3VDUP","either","5","57","","","","","","","0","0","1","","0.0126553198","0.4","0.6","0.8","0.2","0.489318572","0.3150326571","0.1206542402","0.0126553198","","","","","","","","","","","","","","76","L","3","","","57","main_expt","",""
"","bandit","139","359379","0.0-99.0-0.0","14105934","wem/bandit_party_1","A27ZE20JZ3VDUP","either","5","52","","","","","","","0","0","1","0.3049116772","","0.4","0.6","0.8","0.2","","","","","0.480037986","0.3049116772","0.09707343937","0.01131359515","","","","","","","","","","74","J","1","","","58","main_expt","",""
"","bandit","140","361002","0.0-100.0-0.0","14105934","wem/bandit_party_1","A27ZE20JZ3VDUP","either","5","106","","","","","","","0","0","1","0.1044384952","","0.4","0.6","0.8","0.2","","","","","0.4593461039","0.3050987947","0.1044384952","0.01030075821","","","","","","","","","","75","K","2","","","59","main_expt","",""
"","bandit","141","362618","0.0-101.0-0.0","14105934","wem/bandit_party_1","A27ZE20JZ3VDUP","either","5","99","","","","","","","0","0","1","0.446051488","","0.4","0.6","0.8","0.2","","","","","0.446051488","0.3274009355","0.08890369623","0.005868957973","","","","","","","","","","72","H","0","img/none_selected.jpg","","60","main_expt","",""
"","bandit","142","364593","0.0-102.0-0.0","14105934","wem/bandit_party_1","A27ZE20JZ3VDUP","either","5","459","","","","","","","0","0","1","0.08921221942","","0.4","0.6","0.8","0.2","","","","","0.4391285327","0.3428943983","0.08921221942","0.004361943215","","","","","","","","","","75","K","2","","","61","main_expt","",""
"","bandit","143","366184","0.0-103.0-0.0","14105934","wem/bandit_party_1","A27ZE20JZ3VDUP","either","5","76","","","","","","","0","0","1","","0.3549763931","0.4","0.6","0.8","0.2","0.4063883723","0.3549763931","0.09812025034","0.005208412743","","","","","","","","","","","","","","74","J","1","","","62","main_expt","",""
"","bandit","144","368064","0.0-104.0-0.0","14105934","wem/bandit_party_1","A27ZE20JZ3VDUP","either","5","365","","","","","","","0","0","1","","0.006461011255","0.4","0.6","0.8","0.2","0.4330387396","0.3496678451","0.09006279409","0.006461011255","","","","","","","","","","","","","","76","L","3","","","63","main_expt","",""
"","bandit","145","369842","0.0-105.0-0.0","14105934","wem/bandit_party_1","A27ZE20JZ3VDUP","either","5","255","","","","","","","0","0","1","","0.1118976224","0.4","0.6","0.8","0.2","0.4207902426","0.3188537263","0.1118976224","0.01267926231","","","","","","","","","","","","","","75","K","2","","","64","main_expt","",""
"","bandit","146","371395","0.0-106.0-0.0","14105934","wem/bandit_party_1","A27ZE20JZ3VDUP","either","5","36","","","","","","","0","0","1","","0.1053817613","0.4","0.6","0.8","0.2","0.3719582347","0.3191795336","0.1053817613","0.009732787917","","","","","","","","","","","","","","75","K","2","","","65","main_expt","",""
"","bandit","147","372956","0.0-107.0-0.0","14105934","wem/bandit_party_1","A27ZE20JZ3VDUP","either","5","43","","","","","","","0","0","1","0.1307356695","","0.4","0.6","0.8","0.2","","","","","0.3748569955","0.268616347","0.1307356695","0.01092542651","","","","","","","","","","75","K","2","","","66","main_expt","",""
"","bandit","148","374809","0.0-108.0-0.0","14105934","wem/bandit_party_1","A27ZE20JZ3VDUP","either","5","337","","","","","","","0","0","1","","0.335252031","0.4","0.6","0.8","0.2","0.335252031","0.259194563","0.1418436428","0.02125534741","","","","","","","","","","","","","","72","H","0","img/none_selected.jpg","","67","main_expt","",""
"","bandit","149","376480","0.0-109.0-0.0","14105934","wem/bandit_party_1","A27ZE20JZ3VDUP","either","5","125","","","","","","","0","0","1","0.2281204868","","0.4","0.6","0.8","0.2","","","","","0.3199157278","0.2281204868","0.1459089566","0.02360283027","","","","","","","","","","74","J","1","","","68","main_expt","",""
"","bandit","150","378212","0.0-110.0-0.0","14105934","wem/bandit_party_1","A27ZE20JZ3VDUP","either","5","212","","","","","","","0","0","1","0.2195844169","","0.4","0.6","0.8","0.2","","","","","0.3068525281","0.2195844169","0.1809721424","0.02539305756","","","","","","","","","","74","J","1","","","69","main_expt","",""
"","bandit","151","379862","0.0-111.0-0.0","14105934","wem/bandit_party_1","A27ZE20JZ3VDUP","either","5","129","","","","","","","0","0","1","","0.1883338509","0.4","0.6","0.8","0.2","0.3181076016","0.1883338509","0.1784068974","0.05014388586","","","","","","","","","","","","","","74","J","1","","","70","main_expt","",""
"","bandit","152","381594","0.0-112.0-0.0","14105934","wem/bandit_party_1","A27ZE20JZ3VDUP","either","5","213","","","","","","","0","0","1","0.1639708178","","0.4","0.6","0.8","0.2","","","","","0.2926426422","0.1639708178","0.1973023396","0.04209054697","","","","","","","","","","74","J","1","","","71","main_expt","",""
"","bandit","153","383409","0.0-113.0-0.0","14105934","wem/bandit_party_1","A27ZE20JZ3VDUP","either","5","300","","","","","","","1","0","0","0.05611199342","","0.4","0.6","0.8","0.2","","","","","0.2380263643","0.1312842785","0.2436342847","0.05611199342","","","","","","","","","","76","L","3","","","72","main_expt","",""
"","bandit","154","385093","0.0-114.0-0.0","14105934","wem/bandit_party_1","A27ZE20JZ3VDUP","either","5","109","","","","","","","0","0","1","","0.05293238473","0.4","0.6","0.8","0.2","0.2407197948","0.1805041857","0.1992173182","0.05293238473","","","","","","","","","","","","","","76","L","3","","","73","main_expt","",""
"","bandit","155","386892","0.0-115.0-0.0","14105934","wem/bandit_party_1","A27ZE20JZ3VDUP","either","5","280","","","","","","","0","0","1","0.2347098304","","0.4","0.6","0.8","0.2","","","","","0.2317468449","0.1739557812","0.2347098304","0.0318456884","","","","","","","","","","75","K","2","","","74","main_expt","",""
"","bandit","156","388590","0.0-116.0-0.0","14105934","wem/bandit_party_1","A27ZE20JZ3VDUP","either","5","181","","","","","","","0","0","1","","0.2545997551","0.4","0.6","0.8","0.2","0.2545997551","0.2434916027","0.2641442137","0.03873230677","","","","","","","","","","","","","","72","H","0","img/none_selected.jpg","","75","main_expt","",""
"","bandit","157","390188","0.0-117.0-0.0","14105934","wem/bandit_party_1","A27ZE20JZ3VDUP","either","5","78","","","","","","","0","1","0","","0.2438468568","0.4","0.6","0.8","0.2","0.2890845388","0.2438468568","0.3192644053","0.03304947682","","","","","","","","","","","","","","74","J","1","","","76","main_expt","",""
"","bandit","158","391820","0.0-118.0-0.0","14105934","wem/bandit_party_1","A27ZE20JZ3VDUP","either","5","115","","","","","","","0","0","1","0.2386362654","","0.4","0.6","0.8","0.2","","","","","0.2386362654","0.2425324642","0.3351132613","0.02607887458","","","","","","","","","","72","H","0","img/none_selected.jpg","","77","main_expt","",""
"","bandit","159","393462","0.0-119.0-0.0","14105934","wem/bandit_party_1","A27ZE20JZ3VDUP","either","5","118","","","","","","","0","0","1","0.3086784207","","0.4","0.6","0.8","0.2","","","","","0.2673679704","0.205588479","0.3086784207","0.02492981692","","","","","","","","","","75","K","2","","","78","main_expt","",""
"","bandit","160","395091","0.0-120.0-0.0","14105934","wem/bandit_party_1","A27ZE20JZ3VDUP","either","5","105","","","","","","","0","0","1","","0.01824110002","0.4","0.6","0.8","0.2","0.2813811921","0.213062191","0.3076482073","0.01824110002","","","","","","","","","","","","","","76","L","3","","","79","main_expt","",""
"","bandit","161","396698","0.0-121.0-0.0","14105934","wem/bandit_party_1","A27ZE20JZ3VDUP","either","5","92","","","","","","","0","0","1","","0.0202176162","0.4","0.6","0.8","0.2","0.2419447949","0.1852926048","0.3605025214","0.0202176162","","","","","","","","","","","","","","76","L","3","","","80","main_expt","",""
"","bandit","162","398264","0.0-122.0-0.0","14105934","wem/bandit_party_1","A27ZE20JZ3VDUP","either","5","21","","","","","","","0","0","1","","0.0252752587","0.4","0.6","0.8","0.2","0.323481111","0.2332942271","0.3286166321","0.0252752587","","","","","","","","","","","","","","76","L","3","","","81","main_expt","",""
"","bandit","163","399899","0.0-123.0-0.0","14105934","wem/bandit_party_1","A27ZE20JZ3VDUP","either","5","118","","","","","","","0","0","1","0.3459677762","","0.4","0.6","0.8","0.2","","","","","0.3097244961","0.2087797338","0.3459677762","0.05668457717","","","","","","","","","","75","K","2","","","82","main_expt","",""
"","bandit","164","401548","0.0-124.0-0.0","14105934","wem/bandit_party_1","A27ZE20JZ3VDUP","either","5","132","","","","","","","0","0","1","0.3092751195","","0.4","0.6","0.8","0.2","","","","","0.2787498647","0.2049979043","0.3092751195","0.07760530004","","","","","","","","","","75","K","2","","","83","main_expt","",""
"","bandit","165","403164","0.0-125.0-0.0","14105934","wem/bandit_party_1","A27ZE20JZ3VDUP","either","5","99","","","","","","","1","0","0","0.3044630387","","0.4","0.6","0.8","0.2","","","","","0.2589524449","0.2151780091","0.3044630387","0.03696005566","","","","","","","","","","75","K","2","","","84","main_expt","",""
"","bandit","166","404925","0.0-126.0-0.0","14105934","wem/bandit_party_1","A27ZE20JZ3VDUP","either","5","238","","","","","","","0","0","1","0.2812480587","","0.4","0.6","0.8","0.2","","","","","0.2769318636","0.1497615914","0.2812480587","0.04177257934","","","","","","","","","","75","K","2","","","85","main_expt","",""
"","bandit","167","406634","0.0-127.0-0.0","14105934","wem/bandit_party_1","A27ZE20JZ3VDUP","either","5","188","","","","","","","0","0","1","0.1223687677","","0.4","0.6","0.8","0.2","","","","","0.2849222391","0.1223687677","0.2506532223","0.0385770192","","","","","","","","","","74","J","1","","","86","main_expt","",""
"","bandit","168","408197","0.0-128.0-0.0","14105934","wem/bandit_party_1","A27ZE20JZ3VDUP","either","5","40","","","","","","","0","0","1","0.2269900387","","0.4","0.6","0.8","0.2","","","","","0.3131087309","0.1472857413","0.2269900387","0.03720252147","","","","","","","","","","75","K","2","","","87","main_expt","",""
"","bandit","169","409748","0.0-129.0-0.0","14105934","wem/bandit_party_1","A27ZE20JZ3VDUP","either","5","33","","","","","","","0","1","0","","0.3038587512","0.4","0.6","0.8","0.2","0.3038587512","0.1252586248","0.1504729919","0.06746059371","","","","","","","","","","","","","","72","H","0","img/none_selected.jpg","","88","main_expt","",""
"","bandit","170","411492","0.0-130.0-0.0","14105934","wem/bandit_party_1","A27ZE20JZ3VDUP","either","5","178","","","","","","","0","0","1","0.3308022157","","0.4","0.6","0.8","0.2","","","","","0.3308022157","0.1194927994","0.1382070302","0.04069757945","","","","","","","","","","72","H","0","img/none_selected.jpg","","89","main_expt","",""
"","bandit","171","413031","0.0-131.0-0.0","14105934","wem/bandit_party_1","A27ZE20JZ3VDUP","either","5","5","","","","","","","0","0","1","0.1589750007","","0.4","0.6","0.8","0.2","","","","","0.3574922351","0.1589750007","0.1364765349","0.07325379503","","","","","","","","","","74","J","1","","","90","main_expt","",""
"","bandit","172","414888","0.0-132.0-0.0","14105934","wem/bandit_party_1","A27ZE20JZ3VDUP","either","5","331","","","","","","","0","0","1","0.09318196272","","0.4","0.6","0.8","0.2","","","","","0.3729517688","0.1859960426","0.09318196272","0.06877471811","","","","","","","","","","75","K","2","","","91","main_expt","",""
"","bandit","173","416528","0.0-133.0-0.0","14105934","wem/bandit_party_1","A27ZE20JZ3VDUP","either","5","118","","","","","","","0","0","1","","0.192419488","0.4","0.6","0.8","0.2","0.398352994","0.192419488","0.06946097624","0.04115987362","","","","","","","","","","","","","","74","J","1","","","92","main_expt","",""
"","bandit","174","418092","0.0-134.0-0.0","14105934","wem/bandit_party_1","A27ZE20JZ3VDUP","either","5","46","","","","","","","0","1","0","","0.1716033463","0.4","0.6","0.8","0.2","0.4135860398","0.1716033463","0.08102832817","0.07078892783","","","","","","","","","","","","","","74","J","1","","","93","main_expt","",""
"","bandit","175","419895","0.0-135.0-0.0","14105934","wem/bandit_party_1","A27ZE20JZ3VDUP","either","5","285","","","","","","","1","0","0","0.05572868433","","0.4","0.6","0.8","0.2","","","","","0.3786880174","0.1935897604","0.1271360848","0.05572868433","","","","","","","","","","76","L","3","","","94","main_expt","",""
"","bandit","176","421605","0.0-136.0-0.0","14105934","wem/bandit_party_1","A27ZE20JZ3VDUP","either","5","192","","","","","","","0","0","1","","0.05056929995","0.4","0.6","0.8","0.2","0.3823424718","0.2193228015","0.1097592989","0.05056929995","","","","","","","","","","","","","","76","L","3","","","95","main_expt","",""
"","bandit","177","423286","0.0-137.0-0.0","14105934","wem/bandit_party_1","A27ZE20JZ3VDUP","either","5","163","","","","","","","0","0","1","0.3262643469","","0.4","0.6","0.8","0.2","","","","","0.3642725552","0.3262643469","0.1085490834","0.04159874267","","","","","","","","","","74","J","1","","","96","main_expt","",""
"","bandit","178","425102","0.0-138.0-0.0","14105934","wem/bandit_party_1","A27ZE20JZ3VDUP","either","5","296","","","","","","","0","0","1","0.1049812554","","0.4","0.6","0.8","0.2","","","","","0.3197717944","0.3207405496","0.1049812554","0.03654451862","","","","","","","","","","75","K","2","","","97","main_expt","",""
"","bandit","179","426749","0.0-139.0-0.0","14105934","wem/bandit_party_1","A27ZE20JZ3VDUP","either","5","130","","","","","","","0","0","1","0.08177978443","","0.4","0.6","0.8","0.2","","","","","0.2514424369","0.3712856991","0.08177978443","0.04190300095","","","","","","","","","","75","K","2","","","98","main_expt","",""
"","bandit","180","428477","0.0-140.0-0.0","14105934","wem/bandit_party_1","A27ZE20JZ3VDUP","either","5","204","","","","","","","0","0","1","","0.07574087804","0.4","0.6","0.8","0.2","0.2926772137","0.3740145378","0.07574087804","0.08742990617","","","","","","","","","","","","","","75","K","2","","","99","main_expt","",""
"","bandit","181","430125","0.0-141.0-0.0","14105934","wem/bandit_party_1","A27ZE20JZ3VDUP","either","5","129","","","","","","","0","0","1","0.07829319678","","0.4","0.6","0.8","0.2","","","","","0.234485335","0.3776295542","0.07829319678","0.08966523481","","","","","","","","","","75","K","2","","","100","main_expt","",""
"","bandit","182","431757","0.0-142.0-0.0","14105934","wem/bandit_party_1","A27ZE20JZ3VDUP","either","5","114","","","","","","","0","0","1","0.07919243683","","0.4","0.6","0.8","0.2","","","","","0.250352175","0.3592666398","0.07919243683","0.07849065771","","","","","","","","","","75","K","2","","","101","main_expt","",""
"","bandit","183","433456","0.0-143.0-0.0","14105934","wem/bandit_party_1","A27ZE20JZ3VDUP","either","5","176","","","","","","","0","0","1","","0.2139972863","0.4","0.6","0.8","0.2","0.2139972863","0.3412191773","0.1052753188","0.1054267613","","","","","","","","","","","","","","72","H","0","img/none_selected.jpg","","102","main_expt","",""
"","bandit","184","435083","0.0-144.0-0.0","14105934","wem/bandit_party_1","A27ZE20JZ3VDUP","either","5","69","","","","","","","0","1","0","","0.20092706","0.4","0.6","0.8","0.2","0.20092706","0.3133100433","0.1248526142","0.1120981937","","","","","","","","","","","","","","72","H","0","img/none_selected.jpg","","103","main_expt","",""
"","bandit","185","436749","0.0-145.0-0.0","14105934","wem/bandit_party_1","A27ZE20JZ3VDUP","either","5","149","","","","","","","0","0","1","0.2305366804","","0.4","0.6","0.8","0.2","","","","","0.2305366804","0.3219148419","0.142969925","0.1034740879","","","","","","","","","","72","H","0","img/none_selected.jpg","","104","main_expt","",""
"","bandit","186","438411","0.0-146.0-0.0","14105934","wem/bandit_party_1","A27ZE20JZ3VDUP","either","5","145","","","","","","","0","0","1","","0.2102135581","0.4","0.6","0.8","0.2","0.2102135581","0.3300892518","0.13947254","0.07597240327","","","","","","","","","","","","","","72","H","0","img/none_selected.jpg","","105","main_expt","",""
"","bandit","187","440071","0.0-147.0-0.0","14105934","wem/bandit_party_1","A27ZE20JZ3VDUP","either","5","116","","","","","","","0","0","1","0.2219457329","","0.4","0.6","0.8","0.2","","","","","0.2219457329","0.3401839058","0.1329526997","0.1124257427","","","","","","","","","","72","H","0","img/none_selected.jpg","","106","main_expt","",""
"","bandit","188","441591","0.0-148.0-0.0","14105934","wem/bandit_party_1","A27ZE20JZ3VDUP","either","5","1","","","","","","","0","0","1","","0.3784706915","0.4","0.6","0.8","0.2","0.3048423019","0.3784706915","0.1727290233","0.1133168519","","","","","","","","","","","","","","74","J","1","","","107","main_expt","",""
"","bandit","189","443222","0.0-149.0-0.0","14105934","wem/bandit_party_1","A27ZE20JZ3VDUP","either","5","113","","","","","","","0","0","1","0.3945753887","","0.4","0.6","0.8","0.2","","","","","0.258150515","0.3945753887","0.1864487031","0.1752395656","","","","","","","","","","74","J","1","","","108","main_expt","",""
"","bandit","190","444871","0.0-150.0-0.0","14105934","wem/bandit_party_1","A27ZE20JZ3VDUP","either","5","131","","","","","","","0","0","1","0.356827327","","0.4","0.6","0.8","0.2","","","","","0.1859129148","0.356827327","0.2463216238","0.1862973424","","","","","","","","","","74","J","1","","","109","main_expt","",""
"","bandit","191","446527","0.0-151.0-0.0","14105934","wem/bandit_party_1","A27ZE20JZ3VDUP","either","5","134","","","","","","","1","0","0","0.2344179837","","0.4","0.6","0.8","0.2","","","","","0.1371624404","0.2344179837","0.2431522628","0.2015845776","","","","","","","","","","74","J","1","","","110","main_expt","",""
"","bandit","192","448287","0.0-152.0-0.0","14105934","wem/bandit_party_1","A27ZE20JZ3VDUP","either","5","232","","","","","","","1","0","0","0.2644823096","","0.4","0.6","0.8","0.2","","","","","0.1258232978","0.2644823096","0.1757476643","0.2003651753","","","","","","","","","","74","J","1","","","111","main_expt","",""
"","bandit","193","450076","0.0-153.0-0.0","14105934","wem/bandit_party_1","A27ZE20JZ3VDUP","either","5","241","","","","","","","0","0","1","","0.21392293","0.4","0.6","0.8","0.2","0.1529967373","0.28311182","0.2451518953","0.21392293","","","","","","","","","","","","","","76","L","3","","","112","main_expt","",""
"","bandit","194","451709","0.0-154.0-0.0","14105934","wem/bandit_party_1","A27ZE20JZ3VDUP","either","5","117","","","","","","","0","0","1","0.1606798039","","0.4","0.6","0.8","0.2","","","","","0.148248117","0.2413269532","0.2407836715","0.1606798039","","","","","","","","","","76","L","3","","","113","main_expt","",""
"","bandit","195","453332","0.0-155.0-0.0","14105934","wem/bandit_party_1","A27ZE20JZ3VDUP","either","5","108","","","","","","","0","0","1","","0.2095980235","0.4","0.6","0.8","0.2","0.1562208239","0.3100969134","0.3099317417","0.2095980235","","","","","","","","","","","","","","76","L","3","","","114","main_expt","",""
"","bandit","196","455071","0.0-156.0-0.0","14105934","wem/bandit_party_1","A27ZE20JZ3VDUP","either","5","220","","","","","","","0","0","1","0.2550279667","","0.4","0.6","0.8","0.2","","","","","0.2138032898","0.329842252","0.3180754701","0.2550279667","","","","","","","","","","76","L","3","","","115","main_expt","",""
"","bandit","197","456872","0.0-157.0-0.0","14105934","wem/bandit_party_1","A27ZE20JZ3VDUP","either","5","281","","","","","","","0","0","1","","0.2471764387","0.4","0.6","0.8","0.2","0.2331260325","0.3223706096","0.2919742107","0.2471764387","","","","","","","","","","","","","","76","L","3","","","116","main_expt","",""
"","bandit","198","458766","0.0-158.0-0.0","14105934","wem/bandit_party_1","A27ZE20JZ3VDUP","either","5","377","","","","","","","0","0","1","0.1826309729","","0.4","0.6","0.8","0.2","","","","","0.1826309729","0.3098408215","0.2799774295","0.2730878341","","","","","","","","","","72","H","0","img/none_selected.jpg","","117","main_expt","",""
"","bandit","199","460736","0.0-159.0-0.0","14105934","wem/bandit_party_1","A27ZE20JZ3VDUP","either","5","449","","","","","","","0","1","0","","0.1511269107","0.4","0.6","0.8","0.2","0.1511269107","0.2974554567","0.2646714695","0.2071462199","","","","","","","","","","","","","","72","H","0","img/none_selected.jpg","","118","main_expt","",""
"","bandit","200","462550","0.0-160.0-0.0","14105934","wem/bandit_party_1","A27ZE20JZ3VDUP","either","5","294","","","","","","","0","0","1","0.1559979654","","0.4","0.6","0.8","0.2","","","","","0.1559979654","0.3598468986","0.3179839519","0.2275232499","","","","","","","","","","72","H","0","img/none_selected.jpg","","119","main_expt","",""
"","bandit","201","464118","0.0-161.0-0.0","14105934","wem/bandit_party_1","A27ZE20JZ3VDUP","either","5","50","","","","","","","0","0","1","","0.1463004055","0.4","0.6","0.8","0.2","0.1463004055","0.2984373086","0.3302262658","0.2767559596","","","","","","","","","","","","","","72","H","0","img/none_selected.jpg","","120","main_expt","",""
"","bandit","202","465837","0.0-162.0-0.0","14105934","wem/bandit_party_1","A27ZE20JZ3VDUP","either","5","203","","","","","","","0","0","1","","0.1418195479","0.4","0.6","0.8","0.2","0.1418195479","0.2973090059","0.3500549905","0.3448590315","","","","","","","","","","","","","","72","H","0","img/none_selected.jpg","","121","main_expt","",""
"","bandit","203","467711","0.0-163.0-0.0","14105934","wem/bandit_party_1","A27ZE20JZ3VDUP","either","5","346","","","","","","","0","0","1","0.3382791822","","0.4","0.6","0.8","0.2","","","","","0.1270782113","0.3382791822","0.2686616284","0.3593301016","","","","","","","","","","74","J","1","","","122","main_expt","",""
"","bandit","204","469487","0.0-164.0-0.0","14105934","wem/bandit_party_1","A27ZE20JZ3VDUP","either","5","257","","","","","","","1","0","0","0.3154347028","","0.4","0.6","0.8","0.2","","","","","0.1207154071","0.3154347028","0.2277230314","0.3680529171","","","","","","","","","","74","J","1","","","123","main_expt","",""
"","bandit","205","471447","0.0-165.0-0.0","14105934","wem/bandit_party_1","A27ZE20JZ3VDUP","either","5","440","","","","","","","0","1","0","","0.2966737815","0.4","0.6","0.8","0.2","0.1229329119","0.2966737815","0.3287090939","0.3476523483","","","","","","","","","","","","","","74","J","1","","","124","main_expt","",""
"","bandit","206","473200","0.0-166.0-0.0","14105934","wem/bandit_party_1","A27ZE20JZ3VDUP","either","5","228","","","","","","","1","0","0","0.3094831126","","0.4","0.6","0.8","0.2","","","","","0.09241122996","0.3094831126","0.3687339586","0.3564603465","","","","","","","","","","74","J","1","","","125","main_expt","",""
"","bandit","207","475028","0.0-167.0-0.0","14105934","wem/bandit_party_1","A27ZE20JZ3VDUP","either","5","236","","","","","","","0","0","1","","0.2488993205","0.4","0.6","0.8","0.2","0.08418962236","0.2488993205","0.3836195774","0.3550684458","","","","","","","","","","","","","","74","J","1","","","126","main_expt","",""
"","bandit","208","477213","0.0-168.0-0.0","14105934","wem/bandit_party_1","A27ZE20JZ3VDUP","either","5","667","","","","","","","0","0","1","0.3617365958","","0.4","0.6","0.8","0.2","","","","","0.154715772","0.1953487027","0.3617365958","0.3235559827","","","","","","","","","","75","K","2","","","127","main_expt","",""
"","bandit","209","478949","0.0-169.0-0.0","14105934","wem/bandit_party_1","A27ZE20JZ3VDUP","either","5","219","","","","","","","0","0","1","0.3235283493","","0.4","0.6","0.8","0.2","","","","","0.1556709078","0.2171889907","0.3235283493","0.312087491","","","","","","","","","","75","K","2","","","128","main_expt","",""
"","bandit","210","480607","0.0-170.0-0.0","14105934","wem/bandit_party_1","A27ZE20JZ3VDUP","either","5","135","","","","","","","0","0","1","0.3453830546","","0.4","0.6","0.8","0.2","","","","","0.1214200615","0.2467699801","0.3453830546","0.2843272188","","","","","","","","","","75","K","2","","","129","main_expt","",""
"","bandit","211","482326","0.0-171.0-0.0","14105934","wem/bandit_party_1","A27ZE20JZ3VDUP","either","5","197","","","","","","","0","0","1","0.3242747857","","0.4","0.6","0.8","0.2","","","","","0.1377283829","0.2814443482","0.3242747857","0.2128416856","","","","","","","","","","75","K","2","","","130","main_expt","",""
"","bandit","212","484104","0.0-172.0-0.0","14105934","wem/bandit_party_1","A27ZE20JZ3VDUP","either","5","256","","","","","","","0","0","1","","0.3417201858","0.4","0.6","0.8","0.2","0.1397421628","0.2834176508","0.3417201858","0.2403879813","","","","","","","","","","","","","","75","K","2","","","131","main_expt","",""
"","bandit","213","485711","0.0-173.0-0.0","14105934","wem/bandit_party_1","A27ZE20JZ3VDUP","either","5","88","","","","","","","0","0","1","","0.2811421594","0.4","0.6","0.8","0.2","0.1061875113","0.2429908031","0.3498614837","0.2811421594","","","","","","","","","","","","","","76","L","3","","","132","main_expt","",""
"","bandit","214","487472","0.0-174.0-0.0","14105934","wem/bandit_party_1","A27ZE20JZ3VDUP","either","5","242","","","","","","","0","0","1","","0.3002858371","0.4","0.6","0.8","0.2","0.07774811701","0.3053559495","0.3134828643","0.3002858371","","","","","","","","","","","","","","76","L","3","","","133","main_expt","",""
"","bandit","215","489231","0.0-175.0-0.0","14105934","wem/bandit_party_1","A27ZE20JZ3VDUP","either","5","241","","","","","","","0","1","0","","0.277406375","0.4","0.6","0.8","0.2","0.08211281178","0.2693478067","0.3554593188","0.277406375","","","","","","","","","","","","","","76","L","3","","","134","main_expt","",""
"","bandit","216","491048","0.0-176.0-0.0","14105934","wem/bandit_party_1","A27ZE20JZ3VDUP","either","5","255","","","","","","","0","1","0","","0.2897147582","0.4","0.6","0.8","0.2","0.1123817552","0.3369166079","0.3150900126","0.2897147582","","","","","","","","","","","","","","76","L","3","","","135","main_expt","",""
"","bandit","217","492759","0.0-177.0-0.0","14105934","wem/bandit_party_1","A27ZE20JZ3VDUP","either","5","191","","","","","","","0","1","0","","0.3590576628","0.4","0.6","0.8","0.2","0.1478339482","0.268603144","0.3199395785","0.3590576628","","","","","","","","","","","","","","76","L","3","","","136","main_expt","",""
"","bandit","218","494422","0.0-178.0-0.0","14105934","wem/bandit_party_1","A27ZE20JZ3VDUP","either","5","147","","","","","","","0","0","1","","0.1374936615","0.4","0.6","0.8","0.2","0.1374936615","0.2373427956","0.33362357","0.3822427384","","","","","","","","","","","","","","72","H","0","img/none_selected.jpg","","137","main_expt","",""
"","bandit","219","496153","0.0-179.0-0.0","14105934","wem/bandit_party_1","A27ZE20JZ3VDUP","either","5","209","","","","","","","0","0","1","","0.159761955","0.4","0.6","0.8","0.2","0.159761955","0.2206869265","0.3611324022","0.3410071165","","","","","","","","","","","","","","72","H","0","img/none_selected.jpg","","138","main_expt","",""
"","bandit","220","497967","0.0-180.0-0.0","14105934","wem/bandit_party_1","A27ZE20JZ3VDUP","either","5","294","","","","","","","0","0","1","","0.1363721132","0.4","0.6","0.8","0.2","0.1363721132","0.2177966349","0.3504145086","0.3738014659","","","","","","","","","","","","","","72","H","0","img/none_selected.jpg","","139","main_expt","",""
"","bandit","221","499652","0.0-181.0-0.0","14105934","wem/bandit_party_1","A27ZE20JZ3VDUP","either","5","159","","","","","","","0","0","1","","0.1031445192","0.4","0.6","0.8","0.2","0.1031445192","0.2387685432","0.309774603","0.422575493","","","","","","","","","","","","","","72","H","0","img/none_selected.jpg","","140","main_expt","",""
"","bandit","222","501548","0.0-182.0-0.0","14105934","wem/bandit_party_1","A27ZE20JZ3VDUP","either","5","375","","","","","","","0","0","1","","0.09805286369","0.4","0.6","0.8","0.2","0.09805286369","0.2575087366","0.3506531288","0.4439129864","","","","","","","","","","","","","","72","H","0","img/none_selected.jpg","","141","main_expt","",""
"","bandit","223","503221","0.0-183.0-0.0","14105934","wem/bandit_party_1","A27ZE20JZ3VDUP","either","5","84","","","","","","","1","0","0","0.2392038972","","0.4","0.6","0.8","0.2","","","","","0.1149002948","0.2392038972","0.2965027242","0.4323802182","","","","","","","","","","74","J","1","","","142","main_expt","",""
"","bandit","224","504816","0.0-184.0-0.0","14105934","wem/bandit_party_1","A27ZE20JZ3VDUP","either","5","75","","","","","","","0","0","1","0.2216470548","","0.4","0.6","0.8","0.2","","","","","0.1209542099","0.2216470548","0.2087517366","0.4358412593","","","","","","","","","","74","J","1","","","143","main_expt","",""
"","bandit","225","506447","0.0-185.0-0.0","14105934","wem/bandit_party_1","A27ZE20JZ3VDUP","either","5","112","","","","","","","0","1","0","","0.2224896139","0.4","0.6","0.8","0.2","0.1202521083","0.2224896139","0.2313605626","0.4407373256","","","","","","","","","","","","","","74","J","1","","","144","main_expt","",""
"","bandit","226","508246","0.0-186.0-0.0","14105934","wem/bandit_party_1","A27ZE20JZ3VDUP","either","5","281","","","","","","","0","0","1","0.1925605464","","0.4","0.6","0.8","0.2","","","","","0.1619743669","0.1925605464","0.1785565547","0.4661091035","","","","","","","","","","74","J","1","","","145","main_expt","",""
"","bandit","227","509854","0.0-187.0-0.0","14105934","wem/bandit_party_1","A27ZE20JZ3VDUP","either","5","91","","","","","","","0","0","1","0.2069800611","","0.4","0.6","0.8","0.2","","","","","0.1664631043","0.2069800611","0.1770660648","0.4637097668","","","","","","","","","","74","J","1","","","146","main_expt","",""
"","bandit","228","511463","0.0-188.0-0.0","14105934","wem/bandit_party_1","A27ZE20JZ3VDUP","either","5","88","","","","","","","0","0","1","0.1063371611","","0.4","0.6","0.8","0.2","","","","","0.1669241763","0.2489662189","0.1063371611","0.4700491642","","","","","","","","","","75","K","2","","","147","main_expt","",""
"","bandit","229","513455","0.0-189.0-0.0","14105934","wem/bandit_party_1","A27ZE20JZ3VDUP","either","5","474","","","","","","","0","0","1","0.1216370817","","0.4","0.6","0.8","0.2","","","","","0.1581456949","0.1946464158","0.1216370817","0.4648109734","","","","","","","","","","75","K","2","","","148","main_expt","",""
"","bandit","230","515210","0.0-190.0-0.0","14105934","wem/bandit_party_1","A27ZE20JZ3VDUP","either","5","234","","","","","","","0","0","1","","0.1024256959","0.4","0.6","0.8","0.2","0.1698392466","0.1826562491","0.1024256959","0.4635511513","","","","","","","","","","","","","","75","K","2","","","149","main_expt","",""
"","bandit","231","516832","0.0-191.0-0.0","14105934","wem/bandit_party_1","A27ZE20JZ3VDUP","either","5","94","","","","","","","0","0","1","0.1371094633","","0.4","0.6","0.8","0.2","","","","","0.2140114634","0.1750473563","0.1371094633","0.4445017148","","","","","","","","","","75","K","2","","","150","main_expt","",""
"","bandit","232","518568","0.0-192.0-0.0","14105934","wem/bandit_party_1","A27ZE20JZ3VDUP","either","5","217","","","","","","","0","0","1","0.1702433702","","0.4","0.6","0.8","0.2","","","","","0.2392960001","0.1109536645","0.1702433702","0.4434799742","","","","","","","","","","75","K","2","","","151","main_expt","",""
"","bandit","233","520303","0.0-193.0-0.0","14105934","wem/bandit_party_1","A27ZE20JZ3VDUP","either","5","215","","","","","","","0","1","0","","0.4451665291","0.4","0.6","0.8","0.2","0.2095863317","0.1143086707","0.1860489046","0.4451665291","","","","","","","","","","","","","","76","L","3","","","152","main_expt","",""
"","bandit","234","522055","0.0-194.0-0.0","14105934","wem/bandit_party_1","A27ZE20JZ3VDUP","either","5","208","","","","","","","0","0","1","","0.4401532833","0.4","0.6","0.8","0.2","0.2543258611","0.1236290712","0.2117094388","0.4401532833","","","","","","","","","","","","","","76","L","3","","","153","main_expt","",""
"","bandit","235","523722","0.0-195.0-0.0","14105934","wem/bandit_party_1","A27ZE20JZ3VDUP","either","5","131","","","","","","","1","0","0","0.4516855879","","0.4","0.6","0.8","0.2","","","","","0.2602259906","0.1600695342","0.2072389033","0.4516855879","","","","","","","","","","76","L","3","","","154","main_expt","",""
"","bandit","236","525554","0.0-196.0-0.0","14105934","wem/bandit_party_1","A27ZE20JZ3VDUP","either","5","311","","","","","","","0","0","1","","0.4480264808","0.4","0.6","0.8","0.2","0.2750581274","0.1770288166","0.1986333914","0.4480264808","","","","","","","","","","","","","","76","L","3","","","155","main_expt","",""
"","bandit","237","527191","0.0-197.0-0.0","14105934","wem/bandit_party_1","A27ZE20JZ3VDUP","either","5","116","","","","","","","1","0","0","0.4260414265","","0.4","0.6","0.8","0.2","","","","","0.2438045727","0.1761817894","0.2054640346","0.4260414265","","","","","","","","","","76","L","3","","","156","main_expt","",""
"","bandit","238","528921","0.0-198.0-0.0","14105934","wem/bandit_party_1","A27ZE20JZ3VDUP","either","5","210","","","","","","","0","0","1","0.2857025143","","0.4","0.6","0.8","0.2","","","","","0.2857025143","0.1998830888","0.1810715383","0.4365201507","","","","","","","","","","72","H","0","img/none_selected.jpg","","157","main_expt","",""
"","bandit","239","530577","0.0-199.0-0.0","14105934","wem/bandit_party_1","A27ZE20JZ3VDUP","either","5","135","","","","","","","0","0","1","","0.2887719476","0.4","0.6","0.8","0.2","0.2887719476","0.2150354531","0.2118906364","0.4076244479","","","","","","","","","","","","","","72","H","0","img/none_selected.jpg","","158","main_expt","",""
"","bandit","240","532287","0.0-200.0-0.0","14105934","wem/bandit_party_1","A27ZE20JZ3VDUP","either","5","193","","","","","","","0","1","0","","0.2859462397","0.4","0.6","0.8","0.2","0.2859462397","0.2221069796","0.2293976715","0.403953851","","","","","","","","","","","","","","72","H","0","img/none_selected.jpg","","159","main_expt","",""
"","bandit","241","534050","0.0-201.0-0.0","14105934","wem/bandit_party_1","A27ZE20JZ3VDUP","either","5","235","","","","","","","0","0","1","0.207432816","","0.4","0.6","0.8","0.2","","","","","0.207432816","0.2627335039","0.2186051381","0.4282135537","","","","","","","","","","72","H","0","img/none_selected.jpg","","160","main_expt","",""
"","bandit","242","535585","0.0-202.0-0.0","14105934","wem/bandit_party_1","A27ZE20JZ3VDUP","either","5","4","","","","","","","1","0","0","0.1611694724","","0.4","0.6","0.8","0.2","","","","","0.1611694724","0.2922457848","0.2175927206","0.4479073124","","","","","","","","","","72","H","0","img/none_selected.jpg","","161","main_expt","",""
"","bandit","243","537544","0.0-203.0-0.0","14105934","wem/bandit_party_1","A27ZE20JZ3VDUP","either","5","437","","","","","","","1","0","0","0.3040212123","","0.4","0.6","0.8","0.2","","","","","0.14378348","0.3040212123","0.2370404117","0.4456201243","","","","","","","","","","74","J","1","","","162","main_expt","",""
"","bandit","244","539352","0.0-204.0-0.0","14105934","wem/bandit_party_1","A27ZE20JZ3VDUP","either","5","290","","","","","","","0","0","1","0.2933359027","","0.4","0.6","0.8","0.2","","","","","0.1707099899","0.2933359027","0.2778780432","0.4384930657","","","","","","","","","","74","J","1","","","163","main_expt","",""
"","bandit","245","541154","0.0-205.0-0.0","14105934","wem/bandit_party_1","A27ZE20JZ3VDUP","either","5","280","","","","","","","0","0","1","","0.2388203062","0.4","0.6","0.8","0.2","0.1933693166","0.2388203062","0.2643388611","0.4231568034","","","","","","","","","","","","","","74","J","1","","","164","main_expt","",""
"","bandit","246","542889","0.0-206.0-0.0","14105934","wem/bandit_party_1","A27ZE20JZ3VDUP","either","5","214","","","","","","","0","0","1","","0.2646204916","0.4","0.6","0.8","0.2","0.2406324952","0.2646204916","0.1967204453","0.4412535734","","","","","","","","","","","","","","74","J","1","","","165","main_expt","",""
"","bandit","247","544673","0.0-207.0-0.0","14105934","wem/bandit_party_1","A27ZE20JZ3VDUP","either","5","264","","","","","","","0","1","0","","0.2591758032","0.4","0.6","0.8","0.2","0.2650462377","0.2591758032","0.1567937345","0.438364003","","","","","","","","","","","","","","74","J","1","","","166","main_expt","",""
"","bandit","248","546376","0.0-208.0-0.0","14105934","wem/bandit_party_1","A27ZE20JZ3VDUP","either","5","184","","","","","","","0","0","1","0.1201482918","","0.4","0.6","0.8","0.2","","","","","0.245875583","0.1955934818","0.1201482918","0.4290991351","","","","","","","","","","75","K","2","","","167","main_expt","",""
"","bandit","249","548080","0.0-209.0-0.0","14105934","wem/bandit_party_1","A27ZE20JZ3VDUP","either","5","182","","","","","","","0","0","1","0.0936051119","","0.4","0.6","0.8","0.2","","","","","0.257303599","0.2090603634","0.0936051119","0.4510860662","","","","","","","","","","75","K","2","","","168","main_expt","",""
"","bandit","250","550082","0.0-210.0-0.0","14105934","wem/bandit_party_1","A27ZE20JZ3VDUP","either","5","480","","","","","","","0","0","1","0.08775096918","","0.4","0.6","0.8","0.2","","","","","0.2993732043","0.2678479696","0.08775096918","0.4491424364","","","","","","","","","","75","K","2","","","169","main_expt","",""
"","bandit","251","552113","0.0-211.0-0.0","14105934","wem/bandit_party_1","A27ZE20JZ3VDUP","either","5","512","","","","","","","0","0","1","0.06743429675","","0.4","0.6","0.8","0.2","","","","","0.3388977639","0.2532125956","0.06743429675","0.4332244901","","","","","","","","","","75","K","2","","","170","main_expt","",""
"","bandit","252","553858","0.0-212.0-0.0","14105934","wem/bandit_party_1","A27ZE20JZ3VDUP","either","5","225","","","","","","","0","0","1","0.05979118822","","0.4","0.6","0.8","0.2","","","","","0.2947926635","0.2568627054","0.05979118822","0.4405036994","","","","","","","","","","75","K","2","","","171","main_expt","",""
"","bandit","253","555514","0.0-213.0-0.0","14105934","wem/bandit_party_1","A27ZE20JZ3VDUP","either","5","135","","","","","","","1","0","0","0.4358521759","","0.4","0.6","0.8","0.2","","","","","0.2892529657","0.2451563353","0.03200499914","0.4358521759","","","","","","","","","","76","L","3","","","172","main_expt","",""
"","bandit","254","557257","0.0-214.0-0.0","14105934","wem/bandit_party_1","A27ZE20JZ3VDUP","either","5","224","","","","","","","0","0","1","","0.4471617722","0.4","0.6","0.8","0.2","0.2571917514","0.3003395367","0.04613358223","0.4471617722","","","","","","","","","","","","","","76","L","3","","","173","main_expt","",""
"","bandit","255","558913","0.0-215.0-0.0","14105934","wem/bandit_party_1","A27ZE20JZ3VDUP","either","5","136","","","","","","","0","0","1","0.4560251174","","0.4","0.6","0.8","0.2","","","","","0.244173221","0.2545998681","0.05969677181","0.4560251174","","","","","","","","","","76","L","3","","","174","main_expt","",""
"","bandit","256","561090","0.0-216.0-0.0","14105934","wem/bandit_party_1","A27ZE20JZ3VDUP","either","5","657","","","","","","","0","0","1","","0.4379349024","0.4","0.6","0.8","0.2","0.2038098688","0.3383135611","0.05930066603","0.4379349024","","","","","","","","","","","","","","76","L","3","","","175","main_expt","",""
"","bandit","257","562865","0.0-217.0-0.0","14105934","wem/bandit_party_1","A27ZE20JZ3VDUP","either","5","254","","","","","","","0","0","1","0.4328841116","","0.4","0.6","0.8","0.2","","","","","0.2053823003","0.3880627729","0.08110879181","0.4328841116","","","","","","","","","","76","L","3","","","176","main_expt","",""
"","bandit","258","565065","0.0-218.0-0.0","14105934","wem/bandit_party_1","A27ZE20JZ3VDUP","either","5","679","","","","","","","0","0","1","","0.2193083282","0.4","0.6","0.8","0.2","0.2193083282","0.3920994557","0.07611568943","0.3965365967","","","","","","","","","","","","","","72","H","0","img/none_selected.jpg","","177","main_expt","",""
"","bandit","259","566634","0.0-219.0-0.0","14105934","wem/bandit_party_1","A27ZE20JZ3VDUP","either","5","37","","","","","","","1","0","0","0.1904263594","","0.4","0.6","0.8","0.2","","","","","0.1904263594","0.3882277994","0.1220467165","0.3899234309","","","","","","","","","","72","H","0","img/none_selected.jpg","","178","main_expt","",""
"","bandit","260","568298","0.0-220.0-0.0","14105934","wem/bandit_party_1","A27ZE20JZ3VDUP","either","5","142","","","","","","","0","0","1","","0.2212788648","0.4","0.6","0.8","0.2","0.2212788648","0.3939691408","0.1698853315","0.4238443777","","","","","","","","","","","","","","72","H","0","img/none_selected.jpg","","179","main_expt","",""
"","bandit","261","569921","0.0-221.0-0.0","14105934","wem/bandit_party_1","A27ZE20JZ3VDUP","either","5","104","","","","","","","0","0","1","","0.2640717145","0.4","0.6","0.8","0.2","0.2640717145","0.4074656662","0.1374762061","0.4487400994","","","","","","","","","","","","","","72","H","0","img/none_selected.jpg","","180","main_expt","",""
"","bandit","262","571489","0.0-222.0-0.0","14105934","wem/bandit_party_1","A27ZE20JZ3VDUP","either","5","51","","","","","","","0","0","1","0.2426483564","","0.4","0.6","0.8","0.2","","","","","0.2426483564","0.3724421945","0.09961924189","0.4314573438","","","","","","","","","","72","H","0","img/none_selected.jpg","","181","main_expt","",""
"","bandit","263","573065","0.0-223.0-0.0","14105934","wem/bandit_party_1","A27ZE20JZ3VDUP","either","5","56","","","","","","","0","1","0","","0.2998177931","0.4","0.6","0.8","0.2","0.2001563476","0.2998177931","0.1391043194","0.4458059303","","","","","","","","","","","","","","74","J","1","","","182","main_expt","",""
"","bandit","264","574797","0.0-224.0-0.0","14105934","wem/bandit_party_1","A27ZE20JZ3VDUP","either","5","208","","","","","","","0","0","1","0.3629728763","","0.4","0.6","0.8","0.2","","","","","0.2167094124","0.3629728763","0.1336424596","0.4485460149","","","","","","","","","","74","J","1","","","183","main_expt","",""
"","bandit","265","576425","0.0-225.0-0.0","14105934","wem/bandit_party_1","A27ZE20JZ3VDUP","either","5","106","","","","","","","0","0","1","","0.3763603645","0.4","0.6","0.8","0.2","0.2402813617","0.3763603645","0.115911235","0.4078350507","","","","","","","","","","","","","","74","J","1","","","184","main_expt","",""
"","bandit","266","578116","0.0-226.0-0.0","14105934","wem/bandit_party_1","A27ZE20JZ3VDUP","either","5","169","","","","","","","0","1","0","","0.3472982705","0.4","0.6","0.8","0.2","0.2745112141","0.3472982705","0.1394203739","0.3805788675","","","","","","","","","","","","","","74","J","1","","","185","main_expt","",""
"","bandit","267","579889","0.0-227.0-0.0","14105934","wem/bandit_party_1","A27ZE20JZ3VDUP","either","5","241","","","","","","","0","0","1","","0.3095995051","0.4","0.6","0.8","0.2","0.2774566956","0.3095995051","0.1557479742","0.4236809331","","","","","","","","","","","","","","74","J","1","","","186","main_expt","",""
"","bandit","268","581473","0.0-228.0-0.0","14105934","wem/bandit_party_1","A27ZE20JZ3VDUP","either","5","62","","","","","","","0","0","1","0.2567332284","","0.4","0.6","0.8","0.2","","","","","0.2876011691","0.2567332284","0.1823611596","0.4058627081","","","","","","","","","","74","J","1","","","187","main_expt","",""
"","bandit","269","583049","0.0-229.0-0.0","14105934","wem/bandit_party_1","A27ZE20JZ3VDUP","either","5","33","","","","","","","0","0","1","0.1854179297","","0.4","0.6","0.8","0.2","","","","","0.2947112378","0.2555256861","0.1854179297","0.3913346521","","","","","","","","","","75","K","2","","","188","main_expt","",""
"","bandit","270","584706","0.0-230.0-0.0","14105934","wem/bandit_party_1","A27ZE20JZ3VDUP","either","5","135","","","","","","","0","0","1","0.1875645599","","0.4","0.6","0.8","0.2","","","","","0.2581494","0.2009875262","0.1875645599","0.3760164219","","","","","","","","","","75","K","2","","","189","main_expt","",""
"","bandit","271","586290","0.0-231.0-0.0","14105934","wem/bandit_party_1","A27ZE20JZ3VDUP","either","5","62","","","","","","","0","0","1","0.2018323604","","0.4","0.6","0.8","0.2","","","","","0.1756323468","0.2055488595","0.2018323604","0.3327352817","","","","","","","","","","75","K","2","","","190","main_expt","",""
"","bandit","272","588011","0.0-232.0-0.0","14105934","wem/bandit_party_1","A27ZE20JZ3VDUP","either","5","199","","","","","","","0","0","1","","0.221094727","0.4","0.6","0.8","0.2","0.2521570866","0.1506387864","0.221094727","0.3015177445","","","","","","","","","","","","","","75","K","2","","","191","main_expt","",""
"","bandit","273","589595","0.0-233.0-0.0","14105934","wem/bandit_party_1","A27ZE20JZ3VDUP","either","5","61","","","","","","","0","0","1","0.2320570195","","0.4","0.6","0.8","0.2","","","","","0.2964739449","0.2027442266","0.2320570195","0.2773298268","","","","","","","","","","75","K","2","","","192","main_expt","",""
"","bandit","274","591145","0.0-234.0-0.0","14105934","wem/bandit_party_1","A27ZE20JZ3VDUP","either","5","32","","","","","","","0","0","1","0.2836613797","","0.4","0.6","0.8","0.2","","","","","0.2612966838","0.1969137872","0.2948950962","0.2836613797","","","","","","","","","","76","L","3","","","193","main_expt","",""
"","bandit","275","592753","0.0-235.0-0.0","14105934","wem/bandit_party_1","A27ZE20JZ3VDUP","either","5","88","","","","","","","0","0","1","","0.2799350415","0.4","0.6","0.8","0.2","0.3292914436","0.2114994946","0.2602906927","0.2799350415","","","","","","","","","","","","","","76","L","3","","","194","main_expt","",""
"","bandit","276","594412","0.0-236.0-0.0","14105934","wem/bandit_party_1","A27ZE20JZ3VDUP","either","5","138","","","","","","","0","1","0","","0.2068597772","0.4","0.6","0.8","0.2","0.4070308407","0.2467939011","0.1771499101","0.2068597772","","","","","","","","","","","","","","76","L","3","","","195","main_expt","",""
"","bandit","277","596060","0.0-237.0-0.0","14105934","wem/bandit_party_1","A27ZE20JZ3VDUP","either","5","123","","","","","","","0","1","0","","0.2679469531","0.4","0.6","0.8","0.2","0.3494820729","0.2731811988","0.1746274925","0.2679469531","","","","","","","","","","","","","","76","L","3","","","196","main_expt","",""
"","bandit","278","598059","0.0-238.0-0.0","14105934","wem/bandit_party_1","A27ZE20JZ3VDUP","either","5","404","","","","","","","1","0","0","0.2448078588","","0.4","0.6","0.8","0.2","","","","","0.3571939809","0.2512114903","0.193224684","0.2448078588","","","","","","","","","","76","L","3","","","197","main_expt","",""
"","bandit","279","599873","0.0-239.0-0.0","14105934","wem/bandit_party_1","A27ZE20JZ3VDUP","either","5","290","","","","","","","0","0","1","0.382430028","","0.4","0.6","0.8","0.2","","","","","0.382430028","0.190651112","0.1771509929","0.2433987968","","","","","","","","","","72","H","0","img/none_selected.jpg","","198","main_expt","",""
"","bandit","280","601627","0.0-240.0-0.0","14105934","wem/bandit_party_1","A27ZE20JZ3VDUP","either","5","230","","","","","","","0","0","1","","0.3353474301","0.4","0.6","0.8","0.2","0.3353474301","0.1701189695","0.2466668772","0.2653624242","","","","","","","","","","","","","","72","H","0","img/none_selected.jpg","","199","main_expt","",""
"","bandit","281","603350","0.0-241.0-0.0","14105934","wem/bandit_party_1","A27ZE20JZ3VDUP","either","5","205","","","","","","","1","0","0","0.3321976498","","0.4","0.6","0.8","0.2","","","","","0.3321976498","0.1656975488","0.2477816141","0.2551376492","","","","","","","","","","72","H","0","img/none_selected.jpg","","200","main_expt","",""
"","bandit","282","605059","0.0-242.0-0.0","14105934","wem/bandit_party_1","A27ZE20JZ3VDUP","either","5","186","","","","","","","0","0","1","","0.3218117355","0.4","0.6","0.8","0.2","0.3218117355","0.1647298582","0.2744817861","0.2660639347","","","","","","","","","","","","","","72","H","0","img/none_selected.jpg","","201","main_expt","",""
"","bandit","283","606804","0.0-243.0-0.0","14105934","wem/bandit_party_1","A27ZE20JZ3VDUP","either","5","223","","","","","","","0","0","1","","0.2949214693","0.4","0.6","0.8","0.2","0.2949214693","0.1242041815","0.3043062986","0.2220900594","","","","","","","","","","","","","","72","H","0","img/none_selected.jpg","","202","main_expt","",""
"","bandit","284","608874","0.0-244.0-0.0","14105934","wem/bandit_party_1","A27ZE20JZ3VDUP","either","5","549","","","","","","","0","0","1","0.1684487429","","0.4","0.6","0.8","0.2","","","","","0.300077299","0.1684487429","0.272185569","0.1543353204","","","","","","","","","","74","J","1","","","203","main_expt","",""
"","bandit","285","610771","0.0-245.0-0.0","14105934","wem/bandit_party_1","A27ZE20JZ3VDUP","either","5","375","","","","","","","0","1","0","","0.1666409686","0.4","0.6","0.8","0.2","0.2866085977","0.1666409686","0.2610767704","0.1605482003","","","","","","","","","","","","","","74","J","1","","","204","main_expt","",""
"","bandit","286","612602","0.0-246.0-0.0","14105934","wem/bandit_party_1","A27ZE20JZ3VDUP","either","5","310","","","","","","","0","0","1","0.2197286508","","0.4","0.6","0.8","0.2","","","","","0.2695546272","0.2197286508","0.2832615928","0.1406914754","","","","","","","","","","74","J","1","","","205","main_expt","",""
"","bandit","287","614379","0.0-247.0-0.0","14105934","wem/bandit_party_1","A27ZE20JZ3VDUP","either","5","256","","","","","","","0","0","1","0.2754509052","","0.4","0.6","0.8","0.2","","","","","0.2622178416","0.2754509052","0.300913322","0.1138947463","","","","","","","","","","74","J","1","","","206","main_expt","",""
"","bandit","288","616166","0.0-248.0-0.0","14105934","wem/bandit_party_1","A27ZE20JZ3VDUP","either","5","260","","","","","","","0","1","0","","0.2664869377","0.4","0.6","0.8","0.2","0.2498186578","0.2664869377","0.3260258847","0.1096702189","","","","","","","","","","","","","","74","J","1","","","207","main_expt","",""
"","bandit","289","617867","0.0-249.0-0.0","14105934","wem/bandit_party_1","A27ZE20JZ3VDUP","either","5","178","","","","","","","1","0","0","0.2686565688","","0.4","0.6","0.8","0.2","","","","","0.2335358635","0.2686565688","0.3173829003","0.09922356593","","","","","","","","","","74","J","1","","","208","main_expt","",""
"","bandit","290","619739","0.0-250.0-0.0","14105934","wem/bandit_party_1","A27ZE20JZ3VDUP","either","5","349","","","","","","","0","1","0","","0.2380255957","0.4","0.6","0.8","0.2","0.2638942681","0.2380255957","0.3153846937","0.101567507","","","","","","","","","","","","","","74","J","1","","","209","main_expt","",""
"","bandit","291","621419","0.0-251.0-0.0","14105934","wem/bandit_party_1","A27ZE20JZ3VDUP","either","5","159","","","","","","","0","0","1","0.3010876552","","0.4","0.6","0.8","0.2","","","","","0.2526926237","0.2507768727","0.3010876552","0.08675379402","","","","","","","","","","75","K","2","","","210","main_expt","",""
"","bandit","292","623179","0.0-252.0-0.0","14105934","wem/bandit_party_1","A27ZE20JZ3VDUP","either","5","238","","","","","","","1","0","0","0.2864900033","","0.4","0.6","0.8","0.2","","","","","0.2740367769","0.2685142319","0.2864900033","0.07512021269","","","","","","","","","","75","K","2","","","211","main_expt","",""
"","bandit","293","624987","0.0-253.0-0.0","14105934","wem/bandit_party_1","A27ZE20JZ3VDUP","either","5","287","","","","","","","0","0","1","0.3163372434","","0.4","0.6","0.8","0.2","","","","","0.2440836191","0.260511483","0.3163372434","0.08144254236","","","","","","","","","","75","K","2","","","212","main_expt","",""
"","bandit","294","626675","0.0-254.0-0.0","14105934","wem/bandit_party_1","A27ZE20JZ3VDUP","either","5","168","","","","","","","0","0","1","0.2701305136","","0.4","0.6","0.8","0.2","","","","","0.2341903104","0.2579605047","0.2701305136","0.06585574052","","","","","","","","","","75","K","2","","","213","main_expt","",""
"","bandit","295","628491","0.0-255.0-0.0","14105934","wem/bandit_party_1","A27ZE20JZ3VDUP","either","5","295","","","","","","","0","0","1","0.302599165","","0.4","0.6","0.8","0.2","","","","","0.2097526345","0.2470456849","0.302599165","0.08686614453","","","","","","","","","","75","K","2","","","214","main_expt","",""
"","bandit","296","630292","0.0-256.0-0.0","14105934","wem/bandit_party_1","A27ZE20JZ3VDUP","either","5","279","","","","","","","0","0","1","","0.2968005471","0.4","0.6","0.8","0.2","0.1796882487","0.3285383036","0.2968005471","0.1068548489","","","","","","","","","","","","","","75","K","2","","","215","main_expt","",""
"","bandit","297","632046","0.0-257.0-0.0","14105934","wem/bandit_party_1","A27ZE20JZ3VDUP","either","5","228","","","","","","","0","1","0","","0.1211736082","0.4","0.6","0.8","0.2","0.2237900511","0.3780044773","0.2835536598","0.1211736082","","","","","","","","","","","","","","76","L","3","","","216","main_expt","",""
"","bandit","298","633763","0.0-258.0-0.0","14105934","wem/bandit_party_1","A27ZE20JZ3VDUP","either","5","195","","","","","","","0","0","1","0.09343701815","","0.4","0.6","0.8","0.2","","","","","0.2265358539","0.3939228946","0.2520762718","0.09343701815","","","","","","","","","","76","L","3","","","217","main_expt","",""
"","bandit","299","635452","0.0-259.0-0.0","14105934","wem/bandit_party_1","A27ZE20JZ3VDUP","either","5","167","","","","","","","0","1","0","","0.1001055386","0.4","0.6","0.8","0.2","0.2364013437","0.3198270803","0.2562699476","0.1001055386","","","","","","","","","","","","","","76","L","3","","","218","main_expt","",""
"","bandit","300","637229","0.0-260.0-0.0","14105934","wem/bandit_party_1","A27ZE20JZ3VDUP","either","5","254","","","","","","","0","1","0","","0.09524874014","0.4","0.6","0.8","0.2","0.2810560361","0.3502502288","0.3002431464","0.09524874014","","","","","","","","","","","","","","76","L","3","","","219","main_expt","",""
"","bandit","301","639122","0.0-261.0-0.0","14105934","wem/bandit_party_1","A27ZE20JZ3VDUP","either","5","348","","","","","","","0","1","0","","0.1304899995","0.4","0.6","0.8","0.2","0.3027429446","0.3402456168","0.3365413303","0.1304899995","","","","","","","","","","","","","","76","L","3","","","220","main_expt","",""
"","bandit","302","641160","0.0-262.0-0.0","14105934","wem/bandit_party_1","A27ZE20JZ3VDUP","either","5","501","","","","","","","0","1","0","","0.3132134988","0.4","0.6","0.8","0.2","0.3132134988","0.3770059732","0.2946103072","0.1272814923","","","","","","","","","","","","","","72","H","0","img/none_selected.jpg","","221","main_expt","",""
"","bandit","303","642920","0.0-263.0-0.0","14105934","wem/bandit_party_1","A27ZE20JZ3VDUP","either","5","233","","","","","","","0","0","1","0.2424821827","","0.4","0.6","0.8","0.2","","","","","0.2424821827","0.3864421123","0.3267284332","0.1654407056","","","","","","","","","","72","H","0","img/none_selected.jpg","","222","main_expt","",""
"","bandit","304","644604","0.0-264.0-0.0","14105934","wem/bandit_party_1","A27ZE20JZ3VDUP","either","5","162","","","","","","","0","1","0","","0.2595367495","0.4","0.6","0.8","0.2","0.2595367495","0.4205211408","0.3175152631","0.1788325852","","","","","","","","","","","","","","72","H","0","img/none_selected.jpg","","223","main_expt","",""
"","bandit","305","646387","0.0-265.0-0.0","14105934","wem/bandit_party_1","A27ZE20JZ3VDUP","either","5","262","","","","","","","0","0","1","0.328819141","","0.4","0.6","0.8","0.2","","","","","0.328819141","0.4131889957","0.3192400935","0.1736623033","","","","","","","","","","72","H","0","img/none_selected.jpg","","224","main_expt","",""
"","bandit","306","649667","0.0-266.0-0.0","14105934","wem/bandit_party_1","A27ZE20JZ3VDUP","either","5","1761","","","","","","","0","0","1","","0.356121412","0.4","0.6","0.8","0.2","0.356121412","0.4001513574","0.3096750449","0.1721911447","","","","","","","","","","","","","","72","H","0","img/none_selected.jpg","","225","main_expt","",""
"","bandit","307","651386","0.0-267.0-0.0","14105934","wem/bandit_party_1","A27ZE20JZ3VDUP","either","5","199","","","","","","","1","0","0","0.3963688582","","0.4","0.6","0.8","0.2","","","","","0.3394019192","0.3963688582","0.3142833063","0.2133818582","","","","","","","","","","74","J","1","","","226","main_expt","",""
"","bandit","308","653100","0.0-268.0-0.0","14105934","wem/bandit_party_1","A27ZE20JZ3VDUP","either","5","192","","","","","","","0","0","1","0.3979714495","","0.4","0.6","0.8","0.2","","","","","0.2860553004","0.3979714495","0.3096885674","0.2620007467","","","","","","","","","","74","J","1","","","227","main_expt","",""
"","bandit","309","654862","0.0-269.0-0.0","14105934","wem/bandit_party_1","A27ZE20JZ3VDUP","either","5","236","","","","","","","0","0","1","0.3811043637","","0.4","0.6","0.8","0.2","","","","","0.2967856672","0.3811043637","0.3048295172","0.2961930455","","","","","","","","","","74","J","1","","","228","main_expt","",""
"","bandit","310","656677","0.0-270.0-0.0","14105934","wem/bandit_party_1","A27ZE20JZ3VDUP","either","5","279","","","","","","","1","0","0","0.3488149186","","0.4","0.6","0.8","0.2","","","","","0.2857745529","0.3488149186","0.2553920021","0.3081123415","","","","","","","","","","74","J","1","","","229","main_expt","",""
"","bandit","311","658574","0.0-271.0-0.0","14105934","wem/bandit_party_1","A27ZE20JZ3VDUP","either","5","375","","","","","","","0","0","1","0.2883621188","","0.4","0.6","0.8","0.2","","","","","0.2589404948","0.2883621188","0.2783794412","0.3027177586","","","","","","","","","","74","J","1","","","230","main_expt","",""
"","bandit","312","660552","0.0-272.0-0.0","14105934","wem/bandit_party_1","A27ZE20JZ3VDUP","either","5","457","","","","","","","0","0","1","0.2735536708","","0.4","0.6","0.8","0.2","","","","","0.2628441024","0.2444465504","0.2735536708","0.2495346478","","","","","","","","","","75","K","2","","","231","main_expt","",""
"","bandit","313","662238","0.0-273.0-0.0","14105934","wem/bandit_party_1","A27ZE20JZ3VDUP","either","5","162","","","","","","","0","0","1","0.2262440502","","0.4","0.6","0.8","0.2","","","","","0.276537748","0.2996930955","0.2262440502","0.2185872191","","","","","","","","","","75","K","2","","","232","main_expt","",""
"","bandit","314","663797","0.0-274.0-0.0","14105934","wem/bandit_party_1","A27ZE20JZ3VDUP","either","5","34","","","","","","","0","0","1","0.2171974885","","0.4","0.6","0.8","0.2","","","","","0.2485723575","0.3103031796","0.2171974885","0.1874863907","","","","","","","","","","75","K","2","","","233","main_expt","",""
