"consent","trial_type","trial_index","time_elapsed","internal_node_id","subjID","study","MID","cond","drift","rt","responses","button_pressed","key_press","like","value","connected","gems","bombs","no_reward","GemPrChosen","BombPrChosen","GainOverPainPr_0","GainOverPainPr_1","GainOverPainPr_2","GainOverPainPr_3","LosePr_0","LosePr_1","LosePr_2","LosePr_3","WinPr_0","WinPr_1","WinPr_2","WinPr_3","Q0","Q1","Q2","gender","age","ethnicity","label","expt_phase","target","respCharCode","respKey","respChoiceNum","respChoice","practice","trial_counter","trial_label","Q0_index","view_history"
"GDM/GDM_behavioral_consent_30min_online.html","consent","0","6504","0.0-0.0","14766227","wem/bandit_party_1","A3HAPMZV7CYDY8","either","8","","","","","","","","","","","","","","","","","","","","","","","","","","","","","","","","","","","","","","","","","",""
"","survey-text","1","9138","0.0-1.0","14766227","wem/bandit_party_1","A3HAPMZV7CYDY8","either","8","1617","{""Q0"":""A3HAPMZV7CYDY8""}","","","","","","","","","","","","","","","","","","","","","","","","","","","","","","","","","","","","","","","",""
"","button-response","2","11896","0.0-2.0","14766227","wem/bandit_party_1","A3HAPMZV7CYDY8","either","8","1748","","0","","","","","","","","","","","","","","","","","","","","","","","","","","","","","","","","","","","","","","",""
"","text-replacement","3","18207","0.0-3.0","14766227","wem/bandit_party_1","A3HAPMZV7CYDY8","either","8","5304","","","32","","","","","","","","","","","","","","","","","","","","","","","","","","","","","","","","","","","","","",""
"","text-replacement","4","20135","0.0-4.0","14766227","wem/bandit_party_1","A3HAPMZV7CYDY8","either","8","1925","","","32","","","","","","","","","","","","","","","","","","","","","","","","","","","","","","","","","","","","","",""
"","identification","5","25019","0.0-6.0-0.0","14766227","wem/bandit_party_1","A3HAPMZV7CYDY8","either","8","4868","","","","5","4","5","","","","","","","","","","","","","","","","","","","","","","","","pre","identification_pre","the Republican party","","","","","","","","",""
"","identification","6","30121","0.0-6.0-1.0","14766227","wem/bandit_party_1","A3HAPMZV7CYDY8","either","8","4088","","","","1","0","0","","","","","","","","","","","","","","","","","","","","","","","","pre","identification_pre","the Democratic Party","","","","","","","","",""
"","text-replacement","7","34474","0.0-7.0","14766227","wem/bandit_party_1","A3HAPMZV7CYDY8","either","8","3350","","","32","","","","","","","","","","","","","","","","","","","","","","","","","","","","","","","","","","","","","",""
"","text-replacement","8","35144","0.0-8.0","14766227","wem/bandit_party_1","A3HAPMZV7CYDY8","either","8","669","","","32","","","","","","","","","","","","","","","","","","","","","","","","","","","","","","","","","","","","","",""
"","text-replacement","9","35635","0.0-9.0","14766227","wem/bandit_party_1","A3HAPMZV7CYDY8","either","8","488","","","32","","","","","","","","","","","","","","","","","","","","","","","","","","","","","","","","","","","","","",""
"","text-replacement","10","35948","0.0-10.0","14766227","wem/bandit_party_1","A3HAPMZV7CYDY8","either","8","311","","","32","","","","","","","","","","","","","","","","","","","","","","","","","","","","","","","","","","","","","",""
"","text-replacement","11","36362","0.0-11.0","14766227","wem/bandit_party_1","A3HAPMZV7CYDY8","either","8","412","","","32","","","","","","","","","","","","","","","","","","","","","","","","","","","","","","","","","","","","","",""
"","bandit","12","39581","0.0-12.0-0.0","14766227","wem/bandit_party_1","A3HAPMZV7CYDY8","either","8","1711","","","","","","","0","0","1","0","0","","","","","0","","","","0","","","","","","","","","","","","","74","J","0","img/none_selected_demo.jpg","true","0","","",""
"","bandit","13","41635","0.0-13.0-0.0","14766227","wem/bandit_party_1","A3HAPMZV7CYDY8","either","8","547","","","","","","","0","0","1","0","0","","","","","0","","","","0","","","","","","","","","","","","","75","K","0","img/none_selected_demo.jpg","true","0","","",""
"","text-replacement","14","43825","0.0-14.0","14766227","wem/bandit_party_1","A3HAPMZV7CYDY8","either","8","2188","","","32","","","","","","","","","","","","","","","","","","","","","","","","","","","","","","","","","","","","","",""
"","text-replacement","15","44313","0.0-15.0","14766227","wem/bandit_party_1","A3HAPMZV7CYDY8","either","8","487","","","32","","","","","","","","","","","","","","","","","","","","","","","","","","","","","","","","","","","","","",""
"","text-replacement","16","44709","0.0-16.0","14766227","wem/bandit_party_1","A3HAPMZV7CYDY8","either","8","394","","","32","","","","","","","","","","","","","","","","","","","","","","","","","","","","","","","","","","","","","",""
"","text-replacement","17","45121","0.0-17.0","14766227","wem/bandit_party_1","A3HAPMZV7CYDY8","either","8","410","","","32","","","","","","","","","","","","","","","","","","","","","","","","","","","","","","","","","","","","","",""
"","bandit","18","47303","0.0-18.0-0.0","14766227","wem/bandit_party_1","A3HAPMZV7CYDY8","either","8","677","","","","","","","0","1","0","","0.8","0.5","0.5","","","0.8","0.2","","","","","","","","","","","","","","","","74","J","0","img/none_selected_demo.jpg","true","0","80_20_practice","",""
"","bandit","19","49110","0.0-18.0-1.0","14766227","wem/bandit_party_1","A3HAPMZV7CYDY8","either","8","300","","","","","","","1","0","0","0.8","","0.5","0.5","","","","","","","0.8","0.2","","","","","","","","","","","","74","J","0","img/none_selected_demo.jpg","true","0","80_20_practice","",""
"","bandit","20","50895","0.0-18.0-2.0","14766227","wem/bandit_party_1","A3HAPMZV7CYDY8","either","8","280","","","","","","","0","0","1","","0.2","0.5","0.5","","","0.8","0.2","","","","","","","","","","","","","","","","75","K","1","","true","0","80_20_practice","",""
"","bandit","21","52586","0.0-18.0-3.0","14766227","wem/bandit_party_1","A3HAPMZV7CYDY8","either","8","187","","","","","","","0","1","0","","0.8","0.5","0.5","","","0.8","0.2","","","","","","","","","","","","","","","","74","J","0","img/none_selected_demo.jpg","true","0","80_20_practice","",""
"","bandit","22","54272","0.0-18.0-4.0","14766227","wem/bandit_party_1","A3HAPMZV7CYDY8","either","8","176","","","","","","","0","0","1","0.2","","0.5","0.5","","","","","","","0.8","0.2","","","","","","","","","","","","75","K","1","","true","0","80_20_practice","",""
"","bandit","23","55816","0.0-18.0-5.0","14766227","wem/bandit_party_1","A3HAPMZV7CYDY8","either","8","38","","","","","","","0","0","1","","0.2","0.5","0.5","","","0.8","0.2","","","","","","","","","","","","","","","","75","K","1","","true","0","80_20_practice","",""
"","bandit","24","57471","0.0-18.0-6.0","14766227","wem/bandit_party_1","A3HAPMZV7CYDY8","either","8","148","","","","","","","0","0","1","","0.2","0.5","0.5","","","0.8","0.2","","","","","","","","","","","","","","","","75","K","1","","true","0","80_20_practice","",""
"","bandit","25","58978","0.0-18.0-7.0","14766227","wem/bandit_party_1","A3HAPMZV7CYDY8","either","8","0","","","","","","","0","1","0","","0.8","0.5","0.5","","","0.8","0.2","","","","","","","","","","","","","","","","74","J","0","img/none_selected_demo.jpg","true","0","80_20_practice","",""
"","bandit","26","60584","0.0-18.0-8.0","14766227","wem/bandit_party_1","A3HAPMZV7CYDY8","either","8","99","","","","","","","0","0","1","0.8","","0.5","0.5","","","","","","","0.8","0.2","","","","","","","","","","","","74","J","0","img/none_selected_demo.jpg","true","0","80_20_practice","",""
"","bandit","27","62104","0.0-18.0-9.0","14766227","wem/bandit_party_1","A3HAPMZV7CYDY8","either","8","13","","","","","","","0","0","1","","0.2","0.5","0.5","","","0.8","0.2","","","","","","","","","","","","","","","","75","K","1","","true","0","80_20_practice","",""
"","bandit","28","63833","0.0-18.0-10.0","14766227","wem/bandit_party_1","A3HAPMZV7CYDY8","either","8","223","","","","","","","1","0","0","0.2","","0.5","0.5","","","","","","","0.8","0.2","","","","","","","","","","","","75","K","1","","true","0","80_20_practice","",""
"","bandit","29","65405","0.0-18.0-11.0","14766227","wem/bandit_party_1","A3HAPMZV7CYDY8","either","8","65","","","","","","","0","0","1","0.8","","0.5","0.5","","","","","","","0.8","0.2","","","","","","","","","","","","74","J","0","img/none_selected_demo.jpg","true","0","80_20_practice","",""
"","bandit","30","67076","0.0-18.0-12.0","14766227","wem/bandit_party_1","A3HAPMZV7CYDY8","either","8","166","","","","","","","1","0","0","0.8","","0.5","0.5","","","","","","","0.8","0.2","","","","","","","","","","","","74","J","0","img/none_selected_demo.jpg","true","0","80_20_practice","",""
"","bandit","31","68885","0.0-18.0-13.0","14766227","wem/bandit_party_1","A3HAPMZV7CYDY8","either","8","303","","","","","","","0","0","1","0.8","","0.5","0.5","","","","","","","0.8","0.2","","","","","","","","","","","","74","J","0","img/none_selected_demo.jpg","true","0","80_20_practice","",""
"","bandit","32","71055","0.0-18.0-14.0","14766227","wem/bandit_party_1","A3HAPMZV7CYDY8","either","8","666","","","","","","","1","0","0","0.8","","0.5","0.5","","","","","","","0.8","0.2","","","","","","","","","","","","74","J","0","img/none_selected_demo.jpg","true","0","80_20_practice","",""
"","bandit","33","72843","0.0-18.0-15.0","14766227","wem/bandit_party_1","A3HAPMZV7CYDY8","either","8","281","","","","","","","0","1","0","","0.8","0.5","0.5","","","0.8","0.2","","","","","","","","","","","","","","","","74","J","0","img/none_selected_demo.jpg","true","0","80_20_practice","",""
"","bandit","34","74628","0.0-18.0-16.0","14766227","wem/bandit_party_1","A3HAPMZV7CYDY8","either","8","280","","","","","","","0","1","0","","0.8","0.5","0.5","","","0.8","0.2","","","","","","","","","","","","","","","","74","J","0","img/none_selected_demo.jpg","true","0","80_20_practice","",""
"","bandit","35","76269","0.0-18.0-17.0","14766227","wem/bandit_party_1","A3HAPMZV7CYDY8","either","8","137","","","","","","","1","0","0","0.8","","0.5","0.5","","","","","","","0.8","0.2","","","","","","","","","","","","74","J","0","img/none_selected_demo.jpg","true","0","80_20_practice","",""
"","bandit","36","77839","0.0-18.0-18.0","14766227","wem/bandit_party_1","A3HAPMZV7CYDY8","either","8","62","","","","","","","0","1","0","","0.8","0.5","0.5","","","0.8","0.2","","","","","","","","","","","","","","","","74","J","0","img/none_selected_demo.jpg","true","0","80_20_practice","",""
"","bandit","37","79577","0.0-18.0-19.0","14766227","wem/bandit_party_1","A3HAPMZV7CYDY8","either","8","232","","","","","","","1","0","0","0.8","","0.5","0.5","","","","","","","0.8","0.2","","","","","","","","","","","","74","J","0","img/none_selected_demo.jpg","true","0","80_20_practice","",""
"","text-replacement","38","89653","0.0-19.0","14766227","wem/bandit_party_1","A3HAPMZV7CYDY8","either","8","10076","","","32","","","","","","","","","","","","","","","","","","","","","","","","","","","","","","","","","","","","","",""
"","bandit","39","91868","0.0-20.0-0.0","14766227","wem/bandit_party_1","A3HAPMZV7CYDY8","either","8","707","","","","","","","1","0","0","1","0","","","","","0","1","","","1","0","","","","","","","","","","","","74","J","0","img/none_selected_demo.jpg","true","0","","",""
"","text-replacement","40","93118","0.0-21.0","14766227","wem/bandit_party_1","A3HAPMZV7CYDY8","either","8","1247","","","32","","","","","","","","","","","","","","","","","","","","","","","","","","","","","","","","","","","","","",""
"","text-replacement","41","93346","0.0-22.0","14766227","wem/bandit_party_1","A3HAPMZV7CYDY8","either","8","225","","","32","","","","","","","","","","","","","","","","","","","","","","","","","","","","","","","","","","","","","",""
"","text-replacement","42","94250","0.0-23.0","14766227","wem/bandit_party_1","A3HAPMZV7CYDY8","either","8","900","","","32","","","","","","","","","","","","","","","","","","","","","","","","","","","","","","","","","","","","","",""
"","text-replacement","43","94832","0.0-24.0","14766227","wem/bandit_party_1","A3HAPMZV7CYDY8","either","8","581","","","32","","","","","","","","","","","","","","","","","","","","","","","","","","","","","","","","","","","","","",""
"","text-replacement","44","95205","0.0-25.0","14766227","wem/bandit_party_1","A3HAPMZV7CYDY8","either","8","370","","","32","","","","","","","","","","","","","","","","","","","","","","","","","","","","","","","","","","","","","",""
"","text-replacement","45","95535","0.0-26.0","14766227","wem/bandit_party_1","A3HAPMZV7CYDY8","either","8","327","","","32","","","","","","","","","","","","","","","","","","","","","","","","","","","","","","","","","","","","","",""
"","text-replacement","46","95833","0.0-27.0","14766227","wem/bandit_party_1","A3HAPMZV7CYDY8","either","8","295","","","32","","","","","","","","","","","","","","","","","","","","","","","","","","","","","","","","","","","","","",""
"","text-replacement","47","96633","0.0-28.0","14766227","wem/bandit_party_1","A3HAPMZV7CYDY8","either","8","797","","","32","","","","","","","","","","","","","","","","","","","","","","","","","","","","","","","","","","","","","",""
"","text-replacement","48","96988","0.0-29.0","14766227","wem/bandit_party_1","A3HAPMZV7CYDY8","either","8","353","","","32","","","","","","","","","","","","","","","","","","","","","","","","","","","","","","","","","","","","","",""
"","text-replacement","49","97288","0.0-30.0","14766227","wem/bandit_party_1","A3HAPMZV7CYDY8","either","8","296","","","32","","","","","","","","","","","","","","","","","","","","","","","","","","","","","","","","","","","","","",""
"","text-replacement","50","97602","0.0-31.0","14766227","wem/bandit_party_1","A3HAPMZV7CYDY8","either","8","312","","","32","","","","","","","","","","","","","","","","","","","","","","","","","","","","","","","","","","","","","",""
"","bandit","51","99499","0.0-32.0-0.0","14766227","wem/bandit_party_1","A3HAPMZV7CYDY8","either","8","390","","","","","","","0","0","1","0.2","","0.5","0.5","0.5","0.5","","","","","0.8","0.2","0.6","0.2","","","","","","","","","","74","J","1","","true","0","full_practice","",""
"","bandit","52","101041","0.0-32.0-1.0","14766227","wem/bandit_party_1","A3HAPMZV7CYDY8","either","8","34","","","","","","","0","0","1","","0.2","0.5","0.5","0.5","0.5","0.8","0.2","0.6","0.2","","","","","","","","","","","","","","76","L","3","","true","0","full_practice","",""
"","bandit","53","102577","0.0-32.0-2.0","14766227","wem/bandit_party_1","A3HAPMZV7CYDY8","either","8","30","","","","","","","0","0","1","0.6","","0.5","0.5","0.5","0.5","","","","","0.8","0.2","0.6","0.2","","","","","","","","","","75","K","2","","true","0","full_practice","",""
"","bandit","54","104199","0.0-32.0-3.0","14766227","wem/bandit_party_1","A3HAPMZV7CYDY8","either","8","116","","","","","","","0","0","1","0.6","","0.5","0.5","0.5","0.5","","","","","0.8","0.2","0.6","0.2","","","","","","","","","","75","K","2","","true","0","full_practice","",""
"","bandit","55","105876","0.0-32.0-4.0","14766227","wem/bandit_party_1","A3HAPMZV7CYDY8","either","8","171","","","","","","","0","0","1","","0.6","0.5","0.5","0.5","0.5","0.8","0.2","0.6","0.2","","","","","","","","","","","","","","75","K","2","","true","0","full_practice","",""
"","bandit","56","107513","0.0-32.0-5.0","14766227","wem/bandit_party_1","A3HAPMZV7CYDY8","either","8","131","","","","","","","0","0","1","","0.2","0.5","0.5","0.5","0.5","0.8","0.2","0.6","0.2","","","","","","","","","","","","","","76","L","3","","true","0","full_practice","",""
"","bandit","57","109029","0.0-32.0-6.0","14766227","wem/bandit_party_1","A3HAPMZV7CYDY8","either","8","9","","","","","","","0","0","1","0.2","","0.5","0.5","0.5","0.5","","","","","0.8","0.2","0.6","0.2","","","","","","","","","","74","J","1","","true","0","full_practice","",""
"","bandit","58","110678","0.0-32.0-7.0","14766227","wem/bandit_party_1","A3HAPMZV7CYDY8","either","8","143","","","","","","","0","0","1","0.2","","0.5","0.5","0.5","0.5","","","","","0.8","0.2","0.6","0.2","","","","","","","","","","74","J","1","","true","0","full_practice","",""
"","bandit","59","112356","0.0-32.0-8.0","14766227","wem/bandit_party_1","A3HAPMZV7CYDY8","either","8","173","","","","","","","0","1","0","","0.8","0.5","0.5","0.5","0.5","0.8","0.2","0.6","0.2","","","","","","","","","","","","","","72","H","0","img/none_selected.jpg","true","0","full_practice","",""
"","bandit","60","113960","0.0-32.0-9.0","14766227","wem/bandit_party_1","A3HAPMZV7CYDY8","either","8","94","","","","","","","0","0","1","","0.2","0.5","0.5","0.5","0.5","0.8","0.2","0.6","0.2","","","","","","","","","","","","","","74","J","1","","true","0","full_practice","",""
"","bandit","61","115737","0.0-32.0-10.0","14766227","wem/bandit_party_1","A3HAPMZV7CYDY8","either","8","270","","","","","","","0","1","0","","0.8","0.5","0.5","0.5","0.5","0.8","0.2","0.6","0.2","","","","","","","","","","","","","","72","H","0","img/none_selected.jpg","true","0","full_practice","",""
"","bandit","62","118070","0.0-32.0-11.0","14766227","wem/bandit_party_1","A3HAPMZV7CYDY8","either","8","828","","","","","","","0","1","0","","0.8","0.5","0.5","0.5","0.5","0.8","0.2","0.6","0.2","","","","","","","","","","","","","","72","H","0","img/none_selected.jpg","true","0","full_practice","",""
"","bandit","63","119764","0.0-32.0-12.0","14766227","wem/bandit_party_1","A3HAPMZV7CYDY8","either","8","188","","","","","","","1","0","0","0.6","","0.5","0.5","0.5","0.5","","","","","0.8","0.2","0.6","0.2","","","","","","","","","","75","K","2","","true","0","full_practice","",""
"","bandit","64","121425","0.0-32.0-13.0","14766227","wem/bandit_party_1","A3HAPMZV7CYDY8","either","8","154","","","","","","","0","0","1","","0.2","0.5","0.5","0.5","0.5","0.8","0.2","0.6","0.2","","","","","","","","","","","","","","74","J","1","","true","0","full_practice","",""
"","bandit","65","122980","0.0-32.0-14.0","14766227","wem/bandit_party_1","A3HAPMZV7CYDY8","either","8","47","","","","","","","0","0","1","","0.2","0.5","0.5","0.5","0.5","0.8","0.2","0.6","0.2","","","","","","","","","","","","","","74","J","1","","true","0","full_practice","",""
"","bandit","66","124559","0.0-32.0-15.0","14766227","wem/bandit_party_1","A3HAPMZV7CYDY8","either","8","73","","","","","","","0","0","1","","0.2","0.5","0.5","0.5","0.5","0.8","0.2","0.6","0.2","","","","","","","","","","","","","","74","J","1","","true","0","full_practice","",""
"","bandit","67","126321","0.0-32.0-16.0","14766227","wem/bandit_party_1","A3HAPMZV7CYDY8","either","8","258","","","","","","","0","0","1","","0.2","0.5","0.5","0.5","0.5","0.8","0.2","0.6","0.2","","","","","","","","","","","","","","74","J","1","","true","0","full_practice","",""
"","bandit","68","127861","0.0-32.0-17.0","14766227","wem/bandit_party_1","A3HAPMZV7CYDY8","either","8","32","","","","","","","0","0","1","","0.2","0.5","0.5","0.5","0.5","0.8","0.2","0.6","0.2","","","","","","","","","","","","","","74","J","1","","true","0","full_practice","",""
"","bandit","69","129688","0.0-32.0-18.0","14766227","wem/bandit_party_1","A3HAPMZV7CYDY8","either","8","321","","","","","","","0","0","1","0.2","","0.5","0.5","0.5","0.5","","","","","0.8","0.2","0.6","0.2","","","","","","","","","","74","J","1","","true","0","full_practice","",""
"","bandit","70","131196","0.0-32.0-19.0","14766227","wem/bandit_party_1","A3HAPMZV7CYDY8","either","8","1","","","","","","","0","0","1","","0.2","0.5","0.5","0.5","0.5","0.8","0.2","0.6","0.2","","","","","","","","","","","","","","74","J","1","","true","0","full_practice","",""
"","text","71","162981","0.0-33.0","14766227","wem/bandit_party_1","A3HAPMZV7CYDY8","either","8","31776","","","32","","","","","","","","","","","","","","","","","","","","","","","","","","","","","","","","","","","","","",""
"","text-replacement","72","164965","0.0-34.0","14766227","wem/bandit_party_1","A3HAPMZV7CYDY8","either","8","980","","","32","","","","","","","","","","","","","","","","","","","","","","","","","","","","","","","","","","","","","",""
"","text-replacement","73","165214","0.0-35.0","14766227","wem/bandit_party_1","A3HAPMZV7CYDY8","either","8","244","","","32","","","","","","","","","","","","","","","","","","","","","","","","","","","","","","","","","","","","","",""
"","text-replacement","74","165424","0.0-36.0","14766227","wem/bandit_party_1","A3HAPMZV7CYDY8","either","8","207","","","32","","","","","","","","","","","","","","","","","","","","","","","","","","","","","","","","","","","","","",""
"","text-replacement","75","165617","0.0-37.0","14766227","wem/bandit_party_1","A3HAPMZV7CYDY8","either","8","190","","","32","","","","","","","","","","","","","","","","","","","","","","","","","","","","","","","","","","","","","",""
"","text-replacement","76","165808","0.0-38.0","14766227","wem/bandit_party_1","A3HAPMZV7CYDY8","either","8","187","","","32","","","","","","","","","","","","","","","","","","","","","","","","","","","","","","","","","","","","","",""
"","survey-multi-choice-replacement","77","170252","0.0-39.0-0.0","14766227","wem/bandit_party_1","A3HAPMZV7CYDY8","either","8","4435","","","","","","","","","","","","","","","","","","","","","","","","Money will be subtracted from the pool for <span style='color:blue;'>DEMOCRATS</span>","","","","","","","attn_check","","","","","","","","","1",""
"","instructions","78","172211","0.0-39.0-1.0-0.0","14766227","wem/bandit_party_1","A3HAPMZV7CYDY8","either","8","952","","","","","","","","","","","","","","","","","","","","","","","","","","","","","","","","","","","","","","","","","[{""page_index"":0,""viewing_time"":952}]"
"","survey-multi-choice-replacement","79","174829","0.0-39.1-0.1","14766227","wem/bandit_party_1","A3HAPMZV7CYDY8","either","8","1609","","","","","","","","","","","","","","","","","","","","","","","","Money will be added to the pool for <span style='color:red;'>REPUBLICANS</span>","","","","","","","attn_check","","","","","","","","","0",""
"","survey-multi-choice-replacement","80","178655","0.0-40.0-0.0","14766227","wem/bandit_party_1","A3HAPMZV7CYDY8","either","8","2814","","","","","","","","","","","","","","","","","","","","","","","","Money will be subtracted from the pool for <span style='color:blue;'>DEMOCRATS</span>","","","","","","","attn_check","","","","","","","","","1",""
"","instructions","81","180947","0.0-40.0-1.0-0.0","14766227","wem/bandit_party_1","A3HAPMZV7CYDY8","either","8","1289","","","","","","","","","","","","","","","","","","","","","","","","","","","","","","","","","","","","","","","","","[{""page_index"":0,""viewing_time"":1288}]"
"","survey-multi-choice-replacement","82","183944","0.0-40.1-0.1","14766227","wem/bandit_party_1","A3HAPMZV7CYDY8","either","8","1991","","","","","","","","","","","","","","","","","","","","","","","","Equal amounts of money will be added to the pool for <span style='color:red;'>REPUBLICANS</span> and subtracted from the pool for <span style='color:blue;'>DEMOCRATS</span>","","","","","","","attn_check","","","","","","","","","2",""
"","survey-multi-choice-replacement","83","187687","0.0-41.0-0.0","14766227","wem/bandit_party_1","A3HAPMZV7CYDY8","either","8","2733","","","","","","","","","","","","","","","","","","","","","","","","No money will be added to either pool","","","","","","","attn_check","","","","","","","","","3",""
"","bandit","84","191346","0.0-42.0-0.0","14766227","wem/bandit_party_1","A3HAPMZV7CYDY8","either","8","1147","","","","","","","0","0","1","0.1351790469","","0.4","0.6","0.8","0.2","","","","","0.3540548627","0.1351790469","0.2637293772","0.2928194041","","","","","","","","","","74","J","1","","","1","main_expt","",""
"","bandit","85","192904","0.0-43.0-0.0","14766227","wem/bandit_party_1","A3HAPMZV7CYDY8","either","8","53","","","","","","","0","0","1","0.125602744","","0.4","0.6","0.8","0.2","","","","","0.3812516843","0.125602744","0.2760013096","0.3040419902","","","","","","","","","","74","J","1","","","2","main_expt","",""
"","bandit","86","194502","0.0-44.0-0.0","14766227","wem/bandit_party_1","A3HAPMZV7CYDY8","either","8","90","","","","","","","0","0","1","","0.3901316494","0.4","0.6","0.8","0.2","0.3901316494","0.09574082279","0.3240499928","0.2875251023","","","","","","","","","","","","","","72","H","0","img/none_selected.jpg","","3","main_expt","",""
"","bandit","87","196602","0.0-45.0-0.0","14766227","wem/bandit_party_1","A3HAPMZV7CYDY8","either","8","591","","","","","","","1","0","0","0.3945399471","","0.4","0.6","0.8","0.2","","","","","0.3945399471","0.0913382225","0.3510822359","0.2965567903","","","","","","","","","","72","H","0","img/none_selected.jpg","","4","main_expt","",""
"","bandit","88","198124","0.0-46.0-0.0","14766227","wem/bandit_party_1","A3HAPMZV7CYDY8","either","8","16","","","","","","","0","0","1","0.3522827721","","0.4","0.6","0.8","0.2","","","","","0.3997977613","0.106177601","0.3522827721","0.2681113314","","","","","","","","","","75","K","2","","","5","main_expt","",""
"","bandit","89","199898","0.0-47.0-0.0","14766227","wem/bandit_party_1","A3HAPMZV7CYDY8","either","8","267","","","","","","","1","0","0","0.382674005","","0.4","0.6","0.8","0.2","","","","","0.390783501","0.08998955495","0.382674005","0.2330443498","","","","","","","","","","75","K","2","","","6","main_expt","",""
"","bandit","90","201626","0.0-48.0-0.0","14766227","wem/bandit_party_1","A3HAPMZV7CYDY8","either","8","214","","","","","","","0","1","0","","0.1630509172","0.4","0.6","0.8","0.2","0.3305693427","0.1077526668","0.3998463606","0.1630509172","","","","","","","","","","","","","","76","L","3","","","7","main_expt","",""
"","bandit","91","203289","0.0-49.0-0.0","14766227","wem/bandit_party_1","A3HAPMZV7CYDY8","either","8","157","","","","","","","0","0","1","","0.2002468685","0.4","0.6","0.8","0.2","0.3056545716","0.1243697388","0.3832029687","0.2002468685","","","","","","","","","","","","","","76","L","3","","","8","main_expt","",""
"","bandit","92","204867","0.0-50.0-0.0","14766227","wem/bandit_party_1","A3HAPMZV7CYDY8","either","8","73","","","","","","","0","0","1","0.3796681134","","0.4","0.6","0.8","0.2","","","","","0.3278889804","0.1698108096","0.3796681134","0.1835034381","","","","","","","","","","75","K","2","","","9","main_expt","",""
"","bandit","93","206523","0.0-51.0-0.0","14766227","wem/bandit_party_1","A3HAPMZV7CYDY8","either","8","150","","","","","","","0","0","1","","0.1939723001","0.4","0.6","0.8","0.2","0.3137855556","0.221757114","0.3614311416","0.1939723001","","","","","","","","","","","","","","76","L","3","","","10","main_expt","",""
"","bandit","94","208124","0.0-52.0-0.0","14766227","wem/bandit_party_1","A3HAPMZV7CYDY8","either","8","93","","","","","","","0","0","1","","0.1961062924","0.4","0.6","0.8","0.2","0.3253079181","0.1961062924","0.3938737051","0.1949806013","","","","","","","","","","","","","","74","J","1","","","11","main_expt","",""
"","bandit","95","209806","0.0-53.0-0.0","14766227","wem/bandit_party_1","A3HAPMZV7CYDY8","either","8","175","","","","","","","1","0","0","0.3298150516","","0.4","0.6","0.8","0.2","","","","","0.3298150516","0.1907056259","0.3810544723","0.2587943474","","","","","","","","","","72","H","0","img/none_selected.jpg","","12","main_expt","",""
"","bandit","96","211585","0.0-54.0-0.0","14766227","wem/bandit_party_1","A3HAPMZV7CYDY8","either","8","273","","","","","","","0","0","1","","0.2162865666","0.4","0.6","0.8","0.2","0.3673307406","0.2162865666","0.3707046684","0.3085985727","","","","","","","","","","","","","","74","J","1","","","13","main_expt","",""
"","bandit","97","213344","0.0-55.0-0.0","14766227","wem/bandit_party_1","A3HAPMZV7CYDY8","either","8","252","","","","","","","0","0","1","0.2399362825","","0.4","0.6","0.8","0.2","","","","","0.3679224674","0.2399362825","0.3486531997","0.2464992766","","","","","","","","","","74","J","1","","","14","main_expt","",""
"","bandit","98","214895","0.0-56.0-0.0","14766227","wem/bandit_party_1","A3HAPMZV7CYDY8","either","8","43","","","","","","","0","0","1","0.3263578384","","0.4","0.6","0.8","0.2","","","","","0.3062507314","0.1986859052","0.3263578384","0.2474611475","","","","","","","","","","75","K","2","","","15","main_expt","",""
"","bandit","99","216416","0.0-57.0-0.0","14766227","wem/bandit_party_1","A3HAPMZV7CYDY8","either","8","13","","","","","","","0","0","1","0.3514189979","","0.4","0.6","0.8","0.2","","","","","0.2892976033","0.1865641621","0.3514189979","0.2835538477","","","","","","","","","","75","K","2","","","16","main_expt","",""
"","bandit","100","218044","0.0-58.0-0.0","14766227","wem/bandit_party_1","A3HAPMZV7CYDY8","either","8","122","","","","","","","0","0","1","0.2035525071","","0.4","0.6","0.8","0.2","","","","","0.2861796528","0.2035525071","0.3532592314","0.3256112075","","","","","","","","","","74","J","1","","","17","main_expt","",""
"","bandit","101","219666","0.0-59.0-0.0","14766227","wem/bandit_party_1","A3HAPMZV7CYDY8","either","8","115","","","","","","","0","0","1","0.3858608091","","0.4","0.6","0.8","0.2","","","","","0.2958570682","0.2039336531","0.3858608091","0.3802227677","","","","","","","","","","75","K","2","","","18","main_expt","",""
"","bandit","102","221350","0.0-60.0-0.0","14766227","wem/bandit_party_1","A3HAPMZV7CYDY8","either","8","176","","","","","","","0","0","1","","0.1598579642","0.4","0.6","0.8","0.2","0.3353028819","0.1598579642","0.3837638756","0.360566968","","","","","","","","","","","","","","74","J","1","","","19","main_expt","",""
"","bandit","103","222909","0.0-61.0-0.0","14766227","wem/bandit_party_1","A3HAPMZV7CYDY8","either","8","51","","","","","","","0","0","1","","0.1437622327","0.4","0.6","0.8","0.2","0.3139704528","0.1437622327","0.2872100501","0.3696799013","","","","","","","","","","","","","","74","J","1","","","20","main_expt","",""
"","bandit","104","224416","0.0-62.0-0.0","14766227","wem/bandit_party_1","A3HAPMZV7CYDY8","either","8","0","","","","","","","0","0","1","0.2975414498","","0.4","0.6","0.8","0.2","","","","","0.2524707143","0.07974703335","0.2975414498","0.4006907501","","","","","","","","","","75","K","2","","","21","main_expt","",""
"","bandit","105","225943","0.0-63.0-0.0","14766227","wem/bandit_party_1","A3HAPMZV7CYDY8","either","8","21","","","","","","","0","0","1","0.1361132429","","0.4","0.6","0.8","0.2","","","","","0.248326021","0.1361132429","0.2741965999","0.4081217326","","","","","","","","","","74","J","1","","","22","main_expt","",""
"","bandit","106","227671","0.0-64.0-0.0","14766227","wem/bandit_party_1","A3HAPMZV7CYDY8","either","8","220","","","","","","","0","0","1","","0.2937153481","0.4","0.6","0.8","0.2","0.2937153481","0.1705973249","0.2379064449","0.3740207531","","","","","","","","","","","","","","72","H","0","img/none_selected.jpg","","23","main_expt","",""
"","bandit","107","230287","0.0-65.0-0.0","14766227","wem/bandit_party_1","A3HAPMZV7CYDY8","either","8","1108","","","","","","","0","0","1","","0.2625315469","0.4","0.6","0.8","0.2","0.2625315469","0.1392759225","0.2078598572","0.3913756451","","","","","","","","","","","","","","72","H","0","img/none_selected.jpg","","24","main_expt","",""
"","bandit","108","232074","0.0-66.0-0.0","14766227","wem/bandit_party_1","A3HAPMZV7CYDY8","either","8","281","","","","","","","1","0","0","0.2405651368","","0.4","0.6","0.8","0.2","","","","","0.2405651368","0.1800538527","0.2764850733","0.4100905738","","","","","","","","","","72","H","0","img/none_selected.jpg","","25","main_expt","",""
"","bandit","109","237806","0.0-67.0-0.0","14766227","wem/bandit_party_1","A3HAPMZV7CYDY8","either","8","4226","","","","","","","0","0","1","0.2503350336","","0.4","0.6","0.8","0.2","","","","","0.2503350336","0.2146400533","0.3080191348","0.3600668969","","","","","","","","","","72","H","0","img/none_selected.jpg","","26","main_expt","",""
"","bandit","110","239417","0.0-68.0-0.0","14766227","wem/bandit_party_1","A3HAPMZV7CYDY8","either","8","103","","","","","","","0","0","1","","0.1948367851","0.4","0.6","0.8","0.2","0.354091838","0.1948367851","0.3606197488","0.3703096079","","","","","","","","","","","","","","74","J","1","","","27","main_expt","",""
"","bandit","111","240984","0.0-69.0-0.0","14766227","wem/bandit_party_1","A3HAPMZV7CYDY8","either","8","60","","","","","","","0","0","1","0.3696097963","","0.4","0.6","0.8","0.2","","","","","0.3419366675","0.2282666016","0.3696097963","0.3527269899","","","","","","","","","","75","K","2","","","28","main_expt","",""
"","bandit","112","242583","0.0-70.0-0.0","14766227","wem/bandit_party_1","A3HAPMZV7CYDY8","either","8","91","","","","","","","0","0","1","0.1842618798","","0.4","0.6","0.8","0.2","","","","","0.361896517","0.1842618798","0.3434444954","0.2854860911","","","","","","","","","","74","J","1","","","29","main_expt","",""
"","bandit","113","245933","0.0-71.0-0.0","14766227","wem/bandit_party_1","A3HAPMZV7CYDY8","either","8","1843","","","","","","","0","0","1","","0.3701160785","0.4","0.6","0.8","0.2","0.3701160785","0.1930267653","0.3528183973","0.2971434158","","","","","","","","","","","","","","72","H","0","img/none_selected.jpg","","30","main_expt","",""
"","bandit","114","247555","0.0-72.0-0.0","14766227","wem/bandit_party_1","A3HAPMZV7CYDY8","either","8","115","","","","","","","0","1","0","","0.2279264959","0.4","0.6","0.8","0.2","0.3602312343","0.2279264959","0.3436926249","0.3192935598","","","","","","","","","","","","","","74","J","1","","","31","main_expt","",""
"","bandit","115","249145","0.0-73.0-0.0","14766227","wem/bandit_party_1","A3HAPMZV7CYDY8","either","8","82","","","","","","","0","0","1","0.1922668126","","0.4","0.6","0.8","0.2","","","","","0.3550043818","0.1922668126","0.3392376576","0.2910845839","","","","","","","","","","74","J","1","","","32","main_expt","",""
"","bandit","116","250688","0.0-74.0-0.0","14766227","wem/bandit_party_1","A3HAPMZV7CYDY8","either","8","36","","","","","","","0","0","1","0.1503247695","","0.4","0.6","0.8","0.2","","","","","0.3927862597","0.1503247695","0.2524106513","0.2956883229","","","","","","","","","","74","J","1","","","33","main_expt","",""
"","bandit","117","252555","0.0-75.0-0.0","14766227","wem/bandit_party_1","A3HAPMZV7CYDY8","either","8","359","","","","","","","0","0","1","","0.1875072744","0.4","0.6","0.8","0.2","0.4185963197","0.1875072744","0.2378308988","0.2918182698","","","","","","","","","","","","","","74","J","1","","","34","main_expt","",""
"","bandit","118","254365","0.0-76.0-0.0","14766227","wem/bandit_party_1","A3HAPMZV7CYDY8","either","8","303","","","","","","","0","0","1","0.2683654211","","0.4","0.6","0.8","0.2","","","","","0.441983755","0.2135507624","0.2683654211","0.3063909307","","","","","","","","","","75","K","2","","","35","main_expt","",""
"","bandit","119","255995","0.0-77.0-0.0","14766227","wem/bandit_party_1","A3HAPMZV7CYDY8","either","8","122","","","","","","","0","0","1","0.2645223933","","0.4","0.6","0.8","0.2","","","","","0.4352827683","0.2042402853","0.2645223933","0.2820805085","","","","","","","","","","75","K","2","","","36","main_expt","",""
"","bandit","120","257502","0.0-78.0-0.0","14766227","wem/bandit_party_1","A3HAPMZV7CYDY8","either","8","0","","","","","","","1","0","0","0.2024605481","","0.4","0.6","0.8","0.2","","","","","0.450520142","0.2024605481","0.2360561858","0.2610370824","","","","","","","","","","74","J","1","","","37","main_expt","",""
"","bandit","121","259038","0.0-79.0-0.0","14766227","wem/bandit_party_1","A3HAPMZV7CYDY8","either","8","27","","","","","","","0","0","1","","0.4681224698","0.4","0.6","0.8","0.2","0.4681224698","0.1677713785","0.2001865083","0.1896233007","","","","","","","","","","","","","","72","H","0","img/none_selected.jpg","","38","main_expt","",""
"","bandit","122","260636","0.0-80.0-0.0","14766227","wem/bandit_party_1","A3HAPMZV7CYDY8","either","8","87","","","","","","","0","0","1","","0.4711022053","0.4","0.6","0.8","0.2","0.4711022053","0.221779122","0.1687915361","0.168851025","","","","","","","","","","","","","","72","H","0","img/none_selected.jpg","","39","main_expt","",""
"","bandit","123","262434","0.0-81.0-0.0","14766227","wem/bandit_party_1","A3HAPMZV7CYDY8","either","8","279","","","","","","","0","1","0","","0.4559447699","0.4","0.6","0.8","0.2","0.4559447699","0.2722397218","0.1503151413","0.1615787635","","","","","","","","","","","","","","72","H","0","img/none_selected.jpg","","40","main_expt","",""
"","bandit","124","264113","0.0-82.0-0.0","14766227","wem/bandit_party_1","A3HAPMZV7CYDY8","either","8","169","","","","","","","0","0","1","0.4412687596","","0.4","0.6","0.8","0.2","","","","","0.4412687596","0.3298230943","0.08168262283","0.1472326003","","","","","","","","","","72","H","0","img/none_selected.jpg","","41","main_expt","",""
"","bandit","125","265653","0.0-83.0-0.0","14766227","wem/bandit_party_1","A3HAPMZV7CYDY8","either","8","33","","","","","","","0","0","1","0.4457751761","","0.4","0.6","0.8","0.2","","","","","0.4457751761","0.3104885444","0.07668629145","0.1533480506","","","","","","","","","","72","H","0","img/none_selected.jpg","","42","main_expt","",""
"","bandit","126","267444","0.0-84.0-0.0","14766227","wem/bandit_party_1","A3HAPMZV7CYDY8","either","8","284","","","","","","","0","0","1","","0.1414351437","0.4","0.6","0.8","0.2","0.4298378352","0.3005355489","0.07394587158","0.1414351437","","","","","","","","","","","","","","76","L","3","","","43","main_expt","",""
"","bandit","127","269180","0.0-85.0-0.0","14766227","wem/bandit_party_1","A3HAPMZV7CYDY8","either","8","228","","","","","","","0","0","1","0.2456242138","","0.4","0.6","0.8","0.2","","","","","0.4416915379","0.2456242138","0.1192337685","0.1067646429","","","","","","","","","","74","J","1","","","44","main_expt","",""
"","bandit","128","270762","0.0-86.0-0.0","14766227","wem/bandit_party_1","A3HAPMZV7CYDY8","either","8","76","","","","","","","0","0","1","","0.1250796286","0.4","0.6","0.8","0.2","0.3915522423","0.2839901561","0.1285724119","0.1250796286","","","","","","","","","","","","","","76","L","3","","","45","main_expt","",""
"","bandit","129","272389","0.0-87.0-0.0","14766227","wem/bandit_party_1","A3HAPMZV7CYDY8","either","8","120","","","","","","","0","0","1","0.2353621531","","0.4","0.6","0.8","0.2","","","","","0.4318427431","0.2353621531","0.1112684106","0.1927264636","","","","","","","","","","74","J","1","","","46","main_expt","",""
"","bandit","130","273968","0.0-88.0-0.0","14766227","wem/bandit_party_1","A3HAPMZV7CYDY8","either","8","72","","","","","","","0","0","1","","0.2405257196","0.4","0.6","0.8","0.2","0.4395998441","0.2405257196","0.1207340475","0.1804488412","","","","","","","","","","","","","","74","J","1","","","47","main_expt","",""
"","bandit","131","275674","0.0-89.0-0.0","14766227","wem/bandit_party_1","A3HAPMZV7CYDY8","either","8","198","","","","","","","0","0","1","0.2629408555","","0.4","0.6","0.8","0.2","","","","","0.4630443269","0.2629408555","0.1182533935","0.168268176","","","","","","","","","","74","J","1","","","48","main_expt","",""
"","bandit","132","277284","0.0-90.0-0.0","14766227","wem/bandit_party_1","A3HAPMZV7CYDY8","either","8","100","","","","","","","0","1","0","","0.2902453213","0.4","0.6","0.8","0.2","0.4794982466","0.2902453213","0.1460801474","0.1466838001","","","","","","","","","","","","","","74","J","1","","","49","main_expt","",""
"","bandit","133","278816","0.0-91.0-0.0","14766227","wem/bandit_party_1","A3HAPMZV7CYDY8","either","8","24","","","","","","","1","0","0","0.4562783041","","0.4","0.6","0.8","0.2","","","","","0.4562783041","0.3033715012","0.1765155983","0.1336340117","","","","","","","","","","72","H","0","img/none_selected.jpg","","50","main_expt","",""
"","bandit","134","280358","0.0-92.0-0.0","14766227","wem/bandit_party_1","A3HAPMZV7CYDY8","either","8","35","","","","","","","0","0","1","0.3536831403","","0.4","0.6","0.8","0.2","","","","","0.4515646323","0.3536831403","0.1614266163","0.1067821754","","","","","","","","","","74","J","1","","","51","main_expt","",""
"","bandit","135","281867","0.0-93.0-0.0","14766227","wem/bandit_party_1","A3HAPMZV7CYDY8","either","8","1","","","","","","","1","0","0","0.4344137529","","0.4","0.6","0.8","0.2","","","","","0.4344137529","0.3058792917","0.1938643747","0.07294577227","","","","","","","","","","72","H","0","img/none_selected.jpg","","52","main_expt","",""
"","bandit","136","283411","0.0-94.0-0.0","14766227","wem/bandit_party_1","A3HAPMZV7CYDY8","either","8","39","","","","","","","0","1","0","","0.4421766306","0.4","0.6","0.8","0.2","0.4421766306","0.3466820038","0.1721886996","0.07676454597","","","","","","","","","","","","","","72","H","0","img/none_selected.jpg","","53","main_expt","",""
"","bandit","137","285189","0.0-95.0-0.0","14766227","wem/bandit_party_1","A3HAPMZV7CYDY8","either","8","269","","","","","","","0","0","1","","0.07707135067","0.4","0.6","0.8","0.2","0.4591875032","0.3159173384","0.1542880765","0.07707135067","","","","","","","","","","","","","","76","L","3","","","54","main_expt","",""
"","bandit","138","286850","0.0-96.0-0.0","14766227","wem/bandit_party_1","A3HAPMZV7CYDY8","either","8","155","","","","","","","1","0","0","0.3205246683","","0.4","0.6","0.8","0.2","","","","","0.4455250987","0.3205246683","0.2155598061","0.08227932488","","","","","","","","","","74","J","1","","","55","main_expt","",""
"","bandit","139","288753","0.0-97.0-0.0","14766227","wem/bandit_party_1","A3HAPMZV7CYDY8","either","8","395","","","","","","","0","0","1","0.3067659888","","0.4","0.6","0.8","0.2","","","","","0.4200701886","0.3067659888","0.199350645","0.09013031375","","","","","","","","","","74","J","1","","","56","main_expt","",""
"","bandit","140","290263","0.0-98.0-0.0","14766227","wem/bandit_party_1","A3HAPMZV7CYDY8","either","8","0","","","","","","","0","0","1","0.3786279545","","0.4","0.6","0.8","0.2","","","","","0.3635567377","0.3786279545","0.1991981904","0.106866739","","","","","","","","","","74","J","1","","","57","main_expt","",""
"","bandit","141","291808","0.0-99.0-0.0","14766227","wem/bandit_party_1","A3HAPMZV7CYDY8","either","8","37","","","","","","","0","0","1","0.3796022377","","0.4","0.6","0.8","0.2","","","","","0.3647217687","0.3796022377","0.1307276253","0.0915584437","","","","","","","","","","74","J","1","","","58","main_expt","",""
"","bandit","142","293485","0.0-100.0-0.0","14766227","wem/bandit_party_1","A3HAPMZV7CYDY8","either","8","169","","","","","","","0","0","1","","0.3570845549","0.4","0.6","0.8","0.2","0.3975499765","0.3570845549","0.1540949786","0.1036540812","","","","","","","","","","","","","","74","J","1","","","59","main_expt","",""
"","bandit","143","295243","0.0-101.0-0.0","14766227","wem/bandit_party_1","A3HAPMZV7CYDY8","either","8","250","","","","","","","0","0","1","0.398525789","","0.4","0.6","0.8","0.2","","","","","0.376383165","0.398525789","0.1187181044","0.07948280662","","","","","","","","","","74","J","1","","","60","main_expt","",""
"","bandit","144","297022","0.0-102.0-0.0","14766227","wem/bandit_party_1","A3HAPMZV7CYDY8","either","8","269","","","","","","","1","0","0","0.3384437455","","0.4","0.6","0.8","0.2","","","","","0.3384437455","0.380986593","0.1734870435","0.0685056185","","","","","","","","","","72","H","0","img/none_selected.jpg","","61","main_expt","",""
"","bandit","145","298695","0.0-103.0-0.0","14766227","wem/bandit_party_1","A3HAPMZV7CYDY8","either","8","168","","","","","","","1","0","0","0.3928002855","","0.4","0.6","0.8","0.2","","","","","0.3086389155","0.3928002855","0.2056999461","0.04196312691","","","","","","","","","","74","J","1","","","62","main_expt","",""
"","bandit","146","300290","0.0-104.0-0.0","14766227","wem/bandit_party_1","A3HAPMZV7CYDY8","either","8","87","","","","","","","0","0","1","0.4097838671","","0.4","0.6","0.8","0.2","","","","","0.3098998428","0.4097838671","0.2421495796","0.06524357318","","","","","","","","","","74","J","1","","","63","main_expt","",""
"","bandit","147","302065","0.0-105.0-0.0","14766227","wem/bandit_party_1","A3HAPMZV7CYDY8","either","8","267","","","","","","","1","0","0","0.3942475769","","0.4","0.6","0.8","0.2","","","","","0.2859800092","0.3942475769","0.2678986655","0.04599317762","","","","","","","","","","74","J","1","","","64","main_expt","",""
"","bandit","148","303803","0.0-106.0-0.0","14766227","wem/bandit_party_1","A3HAPMZV7CYDY8","either","8","231","","","","","","","0","0","1","","0.2780623804","0.4","0.6","0.8","0.2","0.2780623804","0.3756823908","0.2780805564","0.04738713632","","","","","","","","","","","","","","72","H","0","img/none_selected.jpg","","65","main_expt","",""
"","bandit","149","305377","0.0-107.0-0.0","14766227","wem/bandit_party_1","A3HAPMZV7CYDY8","either","8","66","","","","","","","0","0","1","0.2740889186","","0.4","0.6","0.8","0.2","","","","","0.2740889186","0.3780323226","0.2923516192","0.02873144913","","","","","","","","","","72","H","0","img/none_selected.jpg","","66","main_expt","",""
"","bandit","150","307437","0.0-108.0-0.0","14766227","wem/bandit_party_1","A3HAPMZV7CYDY8","either","8","552","","","","","","","0","0","1","0.3481747094","","0.4","0.6","0.8","0.2","","","","","0.3122756929","0.382091886","0.3481747094","0.0355516853","","","","","","","","","","75","K","2","","","67","main_expt","",""
"","bandit","151","308981","0.0-109.0-0.0","14766227","wem/bandit_party_1","A3HAPMZV7CYDY8","either","8","35","","","","","","","1","0","0","0.3004294993","","0.4","0.6","0.8","0.2","","","","","0.3004294993","0.4080562953","0.3540590834","0.04483006882","","","","","","","","","","72","H","0","img/none_selected.jpg","","68","main_expt","",""
"","bandit","152","310840","0.0-110.0-0.0","14766227","wem/bandit_party_1","A3HAPMZV7CYDY8","either","8","350","","","","","","","0","0","1","","0.04300650393","0.4","0.6","0.8","0.2","0.3312842332","0.419826639","0.3348318208","0.04300650393","","","","","","","","","","","","","","76","L","3","","","69","main_expt","",""
"","bandit","153","312635","0.0-111.0-0.0","14766227","wem/bandit_party_1","A3HAPMZV7CYDY8","either","8","287","","","","","","","0","0","1","","0.03960880855","0.4","0.6","0.8","0.2","0.2362018798","0.3889643965","0.3844983113","0.03960880855","","","","","","","","","","","","","","76","L","3","","","70","main_expt","",""
"","bandit","154","314275","0.0-112.0-0.0","14766227","wem/bandit_party_1","A3HAPMZV7CYDY8","either","8","133","","","","","","","0","1","0","","0.1838323472","0.4","0.6","0.8","0.2","0.1838323472","0.3492343966","0.3753843975","0.02401392238","","","","","","","","","","","","","","72","H","0","img/none_selected.jpg","","71","main_expt","",""
"","bandit","155","315842","0.0-113.0-0.0","14766227","wem/bandit_party_1","A3HAPMZV7CYDY8","either","8","62","","","","","","","0","1","0","","0.3502155883","0.4","0.6","0.8","0.2","0.1749810972","0.3502155883","0.3861429343","0.008756159955","","","","","","","","","","","","","","74","J","1","","","72","main_expt","",""
"","bandit","156","317381","0.0-114.0-0.0","14766227","wem/bandit_party_1","A3HAPMZV7CYDY8","either","8","31","","","","","","","0","0","1","","0.1664097112","0.4","0.6","0.8","0.2","0.1664097112","0.3568691787","0.3978436086","0.006257651783","","","","","","","","","","","","","","72","H","0","img/none_selected.jpg","","73","main_expt","",""
"","bandit","157","318934","0.0-115.0-0.0","14766227","wem/bandit_party_1","A3HAPMZV7CYDY8","either","8","45","","","","","","","0","0","1","","0.3303653739","0.4","0.6","0.8","0.2","0.2001176207","0.3303653739","0.3847979518","0.004732084297","","","","","","","","","","","","","","74","J","1","","","74","main_expt","",""
"","bandit","158","320712","0.0-116.0-0.0","14766227","wem/bandit_party_1","A3HAPMZV7CYDY8","either","8","270","","","","","","","0","0","1","","0.1848717924","0.4","0.6","0.8","0.2","0.1848717924","0.3353283381","0.3974319157","0.006967558871","","","","","","","","","","","","","","72","H","0","img/none_selected.jpg","","75","main_expt","",""
"","bandit","159","322248","0.0-117.0-0.0","14766227","wem/bandit_party_1","A3HAPMZV7CYDY8","either","8","21","","","","","","","0","0","1","0.3009524994","","0.4","0.6","0.8","0.2","","","","","0.1510178238","0.3009524994","0.3987985884","0.004525860487","","","","","","","","","","74","J","1","","","76","main_expt","",""
"","bandit","160","323789","0.0-118.0-0.0","14766227","wem/bandit_party_1","A3HAPMZV7CYDY8","either","8","34","","","","","","","0","0","1","","0.007245535115","0.4","0.6","0.8","0.2","0.2089633591","0.3316028908","0.4127312768","0.007245535115","","","","","","","","","","","","","","76","L","3","","","77","main_expt","",""
"","bandit","161","325473","0.0-119.0-0.0","14766227","wem/bandit_party_1","A3HAPMZV7CYDY8","either","8","174","","","","","","","0","0","1","0.4257675477","","0.4","0.6","0.8","0.2","","","","","0.2285147345","0.3571024926","0.4257675477","0.00483057751","","","","","","","","","","75","K","2","","","78","main_expt","",""
"","bandit","162","327039","0.0-120.0-0.0","14766227","wem/bandit_party_1","A3HAPMZV7CYDY8","either","8","58","","","","","","","1","0","0","0.3542776451","","0.4","0.6","0.8","0.2","","","","","0.2246975601","0.3542776451","0.4331167668","0.005956317848","","","","","","","","","","74","J","1","","","79","main_expt","",""
"","bandit","163","328604","0.0-121.0-0.0","14766227","wem/bandit_party_1","A3HAPMZV7CYDY8","either","8","58","","","","","","","0","0","1","","0.0076590047","0.4","0.6","0.8","0.2","0.1878766281","0.3201174307","0.4294395537","0.0076590047","","","","","","","","","","","","","","76","L","3","","","80","main_expt","",""
"","bandit","164","330236","0.0-122.0-0.0","14766227","wem/bandit_party_1","A3HAPMZV7CYDY8","either","8","123","","","","","","","1","0","0","0.4234249918","","0.4","0.6","0.8","0.2","","","","","0.2436254364","0.3503003334","0.4234249918","0.009115568074","","","","","","","","","","75","K","2","","","81","main_expt","",""
"","bandit","165","331752","0.0-123.0-0.0","14766227","wem/bandit_party_1","A3HAPMZV7CYDY8","either","8","8","","","","","","","0","0","1","","0.3509066846","0.4","0.6","0.8","0.2","0.2627531714","0.3509066846","0.3956977209","0.01382977225","","","","","","","","","","","","","","74","J","1","","","82","main_expt","",""
"","bandit","166","333291","0.0-124.0-0.0","14766227","wem/bandit_party_1","A3HAPMZV7CYDY8","either","8","31","","","","","","","0","0","1","0.4248650233","","0.4","0.6","0.8","0.2","","","","","0.2672212524","0.3951868033","0.4248650233","0.01500629599","","","","","","","","","","75","K","2","","","83","main_expt","",""
"","bandit","167","334869","0.0-125.0-0.0","14766227","wem/bandit_party_1","A3HAPMZV7CYDY8","either","8","71","","","","","","","0","0","1","0.4131477378","","0.4","0.6","0.8","0.2","","","","","0.2817484998","0.4131477378","0.4196907627","0.02310127573","","","","","","","","","","74","J","1","","","84","main_expt","",""
"","bandit","168","336516","0.0-126.0-0.0","14766227","wem/bandit_party_1","A3HAPMZV7CYDY8","either","8","140","","","","","","","0","1","0","","0.3074775227","0.4","0.6","0.8","0.2","0.3074775227","0.3889697292","0.435633498","0.02639065846","","","","","","","","","","","","","","72","H","0","img/none_selected.jpg","","85","main_expt","",""
"","bandit","169","338505","0.0-127.0-0.0","14766227","wem/bandit_party_1","A3HAPMZV7CYDY8","either","8","480","","","","","","","1","0","0","0.4322222521","","0.4","0.6","0.8","0.2","","","","","0.2717847629","0.3885636443","0.4322222521","0.01746441632","","","","","","","","","","75","K","2","","","86","main_expt","",""
"","bandit","170","340176","0.0-128.0-0.0","14766227","wem/bandit_party_1","A3HAPMZV7CYDY8","either","8","162","","","","","","","0","0","1","","0.4476119451","0.4","0.6","0.8","0.2","0.2183858348","0.4028282504","0.4476119451","0.01256144444","","","","","","","","","","","","","","75","K","2","","","87","main_expt","",""
"","bandit","171","341686","0.0-129.0-0.0","14766227","wem/bandit_party_1","A3HAPMZV7CYDY8","either","8","0","","","","","","","0","0","1","0.4073123198","","0.4","0.6","0.8","0.2","","","","","0.2054961256","0.4306890759","0.4073123198","0.01178158386","","","","","","","","","","75","K","2","","","88","main_expt","",""
"","bandit","172","343313","0.0-130.0-0.0","14766227","wem/bandit_party_1","A3HAPMZV7CYDY8","either","8","118","","","","","","","1","0","0","0.3862301724","","0.4","0.6","0.8","0.2","","","","","0.1452714398","0.4103738654","0.3862301724","0.008722555822","","","","","","","","","","75","K","2","","","89","main_expt","",""
"","bandit","173","344861","0.0-131.0-0.0","14766227","wem/bandit_party_1","A3HAPMZV7CYDY8","either","8","37","","","","","","","1","0","0","0.3596745144","","0.4","0.6","0.8","0.2","","","","","0.1077779513","0.3980827974","0.3596745144","0.008232471735","","","","","","","","","","75","K","2","","","90","main_expt","",""
"","bandit","174","346453","0.0-132.0-0.0","14766227","wem/bandit_party_1","A3HAPMZV7CYDY8","either","8","81","","","","","","","0","1","0","","0.4040531024","0.4","0.6","0.8","0.2","0.1308407065","0.4040531024","0.3082854458","0.01249180717","","","","","","","","","","","","","","74","J","1","","","91","main_expt","",""
"","bandit","175","348185","0.0-133.0-0.0","14766227","wem/bandit_party_1","A3HAPMZV7CYDY8","either","8","221","","","","","","","1","0","0","0.3462944796","","0.4","0.6","0.8","0.2","","","","","0.1652322036","0.3462944796","0.312225492","0.01470986316","","","","","","","","","","74","J","1","","","92","main_expt","",""
"","bandit","176","349766","0.0-134.0-0.0","14766227","wem/bandit_party_1","A3HAPMZV7CYDY8","either","8","73","","","","","","","1","0","0","0.3671658277","","0.4","0.6","0.8","0.2","","","","","0.1344678182","0.3411451966","0.3671658277","0.02655281846","","","","","","","","","","75","K","2","","","93","main_expt","",""
"","bandit","177","351304","0.0-135.0-0.0","14766227","wem/bandit_party_1","A3HAPMZV7CYDY8","either","8","31","","","","","","","0","0","1","0.1301314301","","0.4","0.6","0.8","0.2","","","","","0.1301314301","0.3384154489","0.3401731108","0.02575246025","","","","","","","","","","72","H","0","img/none_selected.jpg","","94","main_expt","",""
"","bandit","178","353000","0.0-136.0-0.0","14766227","wem/bandit_party_1","A3HAPMZV7CYDY8","either","8","187","","","","","","","0","0","1","","0.3126988266","0.4","0.6","0.8","0.2","0.1746055711","0.3126988266","0.3413923724","0.02262355665","","","","","","","","","","","","","","74","J","1","","","95","main_expt","",""
"","bandit","179","354905","0.0-137.0-0.0","14766227","wem/bandit_party_1","A3HAPMZV7CYDY8","either","8","395","","","","","","","1","0","0","0.3800019137","","0.4","0.6","0.8","0.2","","","","","0.1994244555","0.3800019137","0.3570420485","0.02047181149","","","","","","","","","","74","J","1","","","96","main_expt","",""
"","bandit","180","356596","0.0-138.0-0.0","14766227","wem/bandit_party_1","A3HAPMZV7CYDY8","either","8","180","","","","","","","0","0","1","0.3328121005","","0.4","0.6","0.8","0.2","","","","","0.1834602947","0.3328121005","0.3435474977","0.0207754381","","","","","","","","","","74","J","1","","","97","main_expt","",""
"","bandit","181","358163","0.0-139.0-0.0","14766227","wem/bandit_party_1","A3HAPMZV7CYDY8","either","8","57","","","","","","","0","0","1","0.332228596","","0.4","0.6","0.8","0.2","","","","","0.1719221531","0.332228596","0.3614714926","0.02955834597","","","","","","","","","","74","J","1","","","98","main_expt","",""
"","bandit","182","359673","0.0-140.0-0.0","14766227","wem/bandit_party_1","A3HAPMZV7CYDY8","either","8","1","","","","","","","0","1","0","","0.2843854285","0.4","0.6","0.8","0.2","0.1183399241","0.2843854285","0.3176405447","0.0383131093","","","","","","","","","","","","","","74","J","1","","","99","main_expt","",""
"","bandit","183","361198","0.0-141.0-0.0","14766227","wem/bandit_party_1","A3HAPMZV7CYDY8","either","8","17","","","","","","","0","0","1","0.1558635017","","0.4","0.6","0.8","0.2","","","","","0.1558635017","0.309751149","0.3586553183","0.03580757471","","","","","","","","","","72","H","0","img/none_selected.jpg","","100","main_expt","",""
"","bandit","184","362743","0.0-142.0-0.0","14766227","wem/bandit_party_1","A3HAPMZV7CYDY8","either","8","37","","","","","","","0","0","1","0.2993195944","","0.4","0.6","0.8","0.2","","","","","0.1389665978","0.2993195944","0.2951503345","0.04899620691","","","","","","","","","","74","J","1","","","101","main_expt","",""
"","bandit","185","364307","0.0-143.0-0.0","14766227","wem/bandit_party_1","A3HAPMZV7CYDY8","either","8","53","","","","","","","0","0","1","0.3551890872","","0.4","0.6","0.8","0.2","","","","","0.1377203561","0.3551890872","0.2998391809","0.08055650644","","","","","","","","","","74","J","1","","","102","main_expt","",""
"","bandit","186","365900","0.0-144.0-0.0","14766227","wem/bandit_party_1","A3HAPMZV7CYDY8","either","8","85","","","","","","","0","0","1","0.3148404956","","0.4","0.6","0.8","0.2","","","","","0.1285548106","0.3148404956","0.2791823827","0.1040447627","","","","","","","","","","74","J","1","","","103","main_expt","",""
"","bandit","187","367472","0.0-145.0-0.0","14766227","wem/bandit_party_1","A3HAPMZV7CYDY8","either","8","63","","","","","","","0","0","1","0.1555523735","","0.4","0.6","0.8","0.2","","","","","0.1555523735","0.3286912191","0.3382769334","0.1143547335","","","","","","","","","","72","H","0","img/none_selected.jpg","","104","main_expt","",""
"","bandit","188","369061","0.0-146.0-0.0","14766227","wem/bandit_party_1","A3HAPMZV7CYDY8","either","8","77","","","","","","","0","0","1","0.1487676438","","0.4","0.6","0.8","0.2","","","","","0.1775592141","0.298340497","0.3339697125","0.1487676438","","","","","","","","","","76","L","3","","","105","main_expt","",""
"","bandit","189","370592","0.0-147.0-0.0","14766227","wem/bandit_party_1","A3HAPMZV7CYDY8","either","8","22","","","","","","","0","0","1","0.3504464386","","0.4","0.6","0.8","0.2","","","","","0.2263451353","0.3504464386","0.3124129253","0.152088545","","","","","","","","","","74","J","1","","","106","main_expt","",""
"","bandit","190","372724","0.0-148.0-0.0","14766227","wem/bandit_party_1","A3HAPMZV7CYDY8","either","8","623","","","","","","","0","0","1","","0.1679769802","0.4","0.6","0.8","0.2","0.1679769802","0.3510410077","0.3400683723","0.2406734145","","","","","","","","","","","","","","72","H","0","img/none_selected.jpg","","107","main_expt","",""
"","bandit","191","374433","0.0-149.0-0.0","14766227","wem/bandit_party_1","A3HAPMZV7CYDY8","either","8","201","","","","","","","1","0","0","0.3048040024","","0.4","0.6","0.8","0.2","","","","","0.1999870147","0.3282766846","0.3557340834","0.3048040024","","","","","","","","","","76","L","3","","","108","main_expt","",""
"","bandit","192","376268","0.0-150.0-0.0","14766227","wem/bandit_party_1","A3HAPMZV7CYDY8","either","8","325","","","","","","","1","0","0","0.3418503096","","0.4","0.6","0.8","0.2","","","","","0.208992856","0.3561186451","0.3846418901","0.3418503096","","","","","","","","","","76","L","3","","","109","main_expt","",""
"","bandit","193","377937","0.0-151.0-0.0","14766227","wem/bandit_party_1","A3HAPMZV7CYDY8","either","8","161","","","","","","","0","0","1","","0.3198501315","0.4","0.6","0.8","0.2","0.1716040471","0.3576445865","0.4057962062","0.3198501315","","","","","","","","","","","","","","76","L","3","","","110","main_expt","",""
"","bandit","194","379519","0.0-152.0-0.0","14766227","wem/bandit_party_1","A3HAPMZV7CYDY8","either","8","73","","","","","","","0","0","1","","0.3681534847","0.4","0.6","0.8","0.2","0.08984071331","0.3377543854","0.3692451483","0.3681534847","","","","","","","","","","","","","","76","L","3","","","111","main_expt","",""
"","bandit","195","381220","0.0-153.0-0.0","14766227","wem/bandit_party_1","A3HAPMZV7CYDY8","either","8","194","","","","","","","0","0","1","","0.3757830796","0.4","0.6","0.8","0.2","0.1243463141","0.286234052","0.3577317973","0.3757830796","","","","","","","","","","","","","","76","L","3","","","112","main_expt","",""
"","bandit","196","382918","0.0-154.0-0.0","14766227","wem/bandit_party_1","A3HAPMZV7CYDY8","either","8","178","","","","","","","0","0","1","","0.1932674395","0.4","0.6","0.8","0.2","0.1433440675","0.1932674395","0.3328808086","0.3838999828","","","","","","","","","","","","","","74","J","1","","","113","main_expt","",""
"","bandit","197","384626","0.0-155.0-0.0","14766227","wem/bandit_party_1","A3HAPMZV7CYDY8","either","8","198","","","","","","","0","0","1","0.2403040534","","0.4","0.6","0.8","0.2","","","","","0.1510662198","0.2403040534","0.3416979579","0.4157938717","","","","","","","","","","74","J","1","","","114","main_expt","",""
"","bandit","198","386152","0.0-156.0-0.0","14766227","wem/bandit_party_1","A3HAPMZV7CYDY8","either","8","17","","","","","","","0","0","1","0.3377137281","","0.4","0.6","0.8","0.2","","","","","0.09845245139","0.254937398","0.3377137281","0.4055870595","","","","","","","","","","75","K","2","","","115","main_expt","",""
"","bandit","199","387805","0.0-157.0-0.0","14766227","wem/bandit_party_1","A3HAPMZV7CYDY8","either","8","142","","","","","","","0","0","1","0.2605063941","","0.4","0.6","0.8","0.2","","","","","0.107393795","0.2605063941","0.3039448029","0.4161015278","","","","","","","","","","74","J","1","","","116","main_expt","",""
"","bandit","200","389448","0.0-158.0-0.0","14766227","wem/bandit_party_1","A3HAPMZV7CYDY8","either","8","133","","","","","","","0","1","0","","0.2161328783","0.4","0.6","0.8","0.2","0.07879800556","0.2161328783","0.2974336912","0.414877819","","","","","","","","","","","","","","74","J","1","","","117","main_expt","",""
"","bandit","201","391021","0.0-159.0-0.0","14766227","wem/bandit_party_1","A3HAPMZV7CYDY8","either","8","64","","","","","","","1","0","0","0.1931197841","","0.4","0.6","0.8","0.2","","","","","0.08383735875","0.1931197841","0.2651867246","0.3968259953","","","","","","","","","","74","J","1","","","118","main_expt","",""
"","bandit","202","392606","0.0-160.0-0.0","14766227","wem/bandit_party_1","A3HAPMZV7CYDY8","either","8","77","","","","","","","0","0","1","","0.1638183597","0.4","0.6","0.8","0.2","0.1392474383","0.1638183597","0.3131666206","0.4198241006","","","","","","","","","","","","","","74","J","1","","","119","main_expt","",""
"","bandit","203","394116","0.0-161.0-0.0","14766227","wem/bandit_party_1","A3HAPMZV7CYDY8","either","8","1","","","","","","","0","0","1","","0.1893282748","0.4","0.6","0.8","0.2","0.1649404926","0.1893282748","0.358829095","0.4286088018","","","","","","","","","","","","","","74","J","1","","","120","main_expt","",""
"","bandit","204","395649","0.0-162.0-0.0","14766227","wem/bandit_party_1","A3HAPMZV7CYDY8","either","8","22","","","","","","","0","0","1","","0.4253829576","0.4","0.6","0.8","0.2","0.1764152442","0.2290368179","0.3189860171","0.4253829576","","","","","","","","","","","","","","76","L","3","","","121","main_expt","",""
"","bandit","205","397259","0.0-163.0-0.0","14766227","wem/bandit_party_1","A3HAPMZV7CYDY8","either","8","100","","","","","","","0","0","1","0.2445441383","","0.4","0.6","0.8","0.2","","","","","0.2092397698","0.2445441383","0.3011672979","0.4235175979","","","","","","","","","","74","J","1","","","122","main_expt","",""
"","bandit","206","398797","0.0-164.0-0.0","14766227","wem/bandit_party_1","A3HAPMZV7CYDY8","either","8","30","","","","","","","0","0","1","0.2091075756","","0.4","0.6","0.8","0.2","","","","","0.1884058447","0.2091075756","0.3037948063","0.4182090072","","","","","","","","","","74","J","1","","","123","main_expt","",""
"","bandit","207","400417","0.0-165.0-0.0","14766227","wem/bandit_party_1","A3HAPMZV7CYDY8","either","8","113","","","","","","","0","0","1","0.2216111921","","0.4","0.6","0.8","0.2","","","","","0.1876417206","0.2216111921","0.2446200253","0.4356016004","","","","","","","","","","74","J","1","","","124","main_expt","",""
"","bandit","208","402127","0.0-166.0-0.0","14766227","wem/bandit_party_1","A3HAPMZV7CYDY8","either","8","200","","","","","","","0","0","1","0.1890564589","","0.4","0.6","0.8","0.2","","","","","0.1890564589","0.1622020501","0.2464628806","0.403953628","","","","","","","","","","72","H","0","img/none_selected.jpg","","125","main_expt","",""
"","bandit","209","403703","0.0-167.0-0.0","14766227","wem/bandit_party_1","A3HAPMZV7CYDY8","either","8","67","","","","","","","0","0","1","0.1659850756","","0.4","0.6","0.8","0.2","","","","","0.1659850756","0.173533554","0.281169445","0.4020675328","","","","","","","","","","72","H","0","img/none_selected.jpg","","126","main_expt","",""
"","bandit","210","405281","0.0-168.0-0.0","14766227","wem/bandit_party_1","A3HAPMZV7CYDY8","either","8","69","","","","","","","0","0","1","","0.338443572","0.4","0.6","0.8","0.2","0.2006343121","0.189829559","0.290080064","0.338443572","","","","","","","","","","","","","","76","L","3","","","127","main_expt","",""
"","bandit","211","406828","0.0-169.0-0.0","14766227","wem/bandit_party_1","A3HAPMZV7CYDY8","either","8","39","","","","","","","0","1","0","","0.3280989756","0.4","0.6","0.8","0.2","0.2637444583","0.1764696366","0.3280989756","0.323123489","","","","","","","","","","","","","","75","K","2","","","128","main_expt","",""
"","bandit","212","408420","0.0-170.0-0.0","14766227","wem/bandit_party_1","A3HAPMZV7CYDY8","either","8","82","","","","","","","0","1","0","","0.3615310162","0.4","0.6","0.8","0.2","0.2783394686","0.172709194","0.3052704822","0.3615310162","","","","","","","","","","","","","","76","L","3","","","129","main_expt","",""
"","bandit","213","410042","0.0-171.0-0.0","14766227","wem/bandit_party_1","A3HAPMZV7CYDY8","either","8","111","","","","","","","0","1","0","","0.1407460215","0.4","0.6","0.8","0.2","0.2674474002","0.1407460215","0.314718742","0.3667448715","","","","","","","","","","","","","","74","J","1","","","130","main_expt","",""
"","bandit","214","411699","0.0-172.0-0.0","14766227","wem/bandit_party_1","A3HAPMZV7CYDY8","either","8","148","","","","","","","0","0","1","0.143826562","","0.4","0.6","0.8","0.2","","","","","0.2122920843","0.143826562","0.2492347367","0.341745941","","","","","","","","","","74","J","1","","","131","main_expt","",""
"","bandit","215","413427","0.0-173.0-0.0","14766227","wem/bandit_party_1","A3HAPMZV7CYDY8","either","8","219","","","","","","","0","0","1","0.1862992663","","0.4","0.6","0.8","0.2","","","","","0.1969346152","0.1862992663","0.2495736985","0.2615325727","","","","","","","","","","74","J","1","","","132","main_expt","",""
"","bandit","216","415132","0.0-174.0-0.0","14766227","wem/bandit_party_1","A3HAPMZV7CYDY8","either","8","195","","","","","","","0","0","1","0.2487120015","","0.4","0.6","0.8","0.2","","","","","0.1390835973","0.185648564","0.2487120015","0.27905624","","","","","","","","","","75","K","2","","","133","main_expt","",""
"","bandit","217","416678","0.0-175.0-0.0","14766227","wem/bandit_party_1","A3HAPMZV7CYDY8","either","8","33","","","","","","","0","0","1","0.2751163123","","0.4","0.6","0.8","0.2","","","","","0.1437640715","0.2002276213","0.3239420422","0.2751163123","","","","","","","","","","76","L","3","","","134","main_expt","",""
"","bandit","218","418380","0.0-176.0-0.0","14766227","wem/bandit_party_1","A3HAPMZV7CYDY8","either","8","192","","","","","","","1","0","0","0.2474552851","","0.4","0.6","0.8","0.2","","","","","0.1175999949","0.2474552851","0.3903525049","0.2586507773","","","","","","","","","","74","J","1","","","135","main_expt","",""
"","bandit","219","420272","0.0-177.0-0.0","14766227","wem/bandit_party_1","A3HAPMZV7CYDY8","either","8","381","","","","","","","0","0","1","0.3703049055","","0.4","0.6","0.8","0.2","","","","","0.1108499649","0.2454982057","0.3703049055","0.2385277364","","","","","","","","","","75","K","2","","","136","main_expt","",""
"","bandit","220","421815","0.0-178.0-0.0","14766227","wem/bandit_party_1","A3HAPMZV7CYDY8","either","8","35","","","","","","","0","0","1","0.3657944308","","0.4","0.6","0.8","0.2","","","","","0.1208727618","0.2708690816","0.3657944308","0.1935782534","","","","","","","","","","75","K","2","","","137","main_expt","",""
"","bandit","221","423521","0.0-179.0-0.0","14766227","wem/bandit_party_1","A3HAPMZV7CYDY8","either","8","198","","","","","","","0","0","1","","0.1098805161","0.4","0.6","0.8","0.2","0.1098805161","0.2219039101","0.3452946514","0.14087624","","","","","","","","","","","","","","72","H","0","img/none_selected.jpg","","138","main_expt","",""
"","bandit","222","425087","0.0-180.0-0.0","14766227","wem/bandit_party_1","A3HAPMZV7CYDY8","either","8","57","","","","","","","0","0","1","0.1359731218","","0.4","0.6","0.8","0.2","","","","","0.1359731218","0.2485571535","0.3225052804","0.1340930794","","","","","","","","","","72","H","0","img/none_selected.jpg","","139","main_expt","",""
"","bandit","223","426737","0.0-181.0-0.0","14766227","wem/bandit_party_1","A3HAPMZV7CYDY8","either","8","140","","","","","","","0","0","1","0.2997250911","","0.4","0.6","0.8","0.2","","","","","0.1419248406","0.2605640439","0.2997250911","0.1170750994","","","","","","","","","","75","K","2","","","140","main_expt","",""
"","bandit","224","428268","0.0-182.0-0.0","14766227","wem/bandit_party_1","A3HAPMZV7CYDY8","either","8","23","","","","","","","0","0","1","0.311933389","","0.4","0.6","0.8","0.2","","","","","0.1269577117","0.2260680923","0.311933389","0.1316830279","","","","","","","","","","75","K","2","","","141","main_expt","",""
"","bandit","225","429829","0.0-183.0-0.0","14766227","wem/bandit_party_1","A3HAPMZV7CYDY8","either","8","51","","","","","","","0","0","1","0.1073819056","","0.4","0.6","0.8","0.2","","","","","0.1073819056","0.2354846983","0.3442568425","0.09490366034","","","","","","","","","","72","H","0","img/none_selected.jpg","","142","main_expt","",""
"","bandit","226","431362","0.0-184.0-0.0","14766227","wem/bandit_party_1","A3HAPMZV7CYDY8","either","8","25","","","","","","","0","0","1","0.1152767294","","0.4","0.6","0.8","0.2","","","","","0.1152767294","0.2089358464","0.3117203045","0.1246024154","","","","","","","","","","72","H","0","img/none_selected.jpg","","143","main_expt","",""
"","bandit","227","432984","0.0-185.0-0.0","14766227","wem/bandit_party_1","A3HAPMZV7CYDY8","either","8","114","","","","","","","1","0","0","0.3080771123","","0.4","0.6","0.8","0.2","","","","","0.1317444946","0.1844607625","0.3080771123","0.1179874238","","","","","","","","","","75","K","2","","","144","main_expt","",""
"","bandit","228","434494","0.0-186.0-0.0","14766227","wem/bandit_party_1","A3HAPMZV7CYDY8","either","8","0","","","","","","","0","1","0","","0.1940384654","0.4","0.6","0.8","0.2","0.1058600218","0.1940384654","0.3146876691","0.1211842963","","","","","","","","","","","","","","74","J","1","","","145","main_expt","",""
"","bandit","229","436109","0.0-187.0-0.0","14766227","wem/bandit_party_1","A3HAPMZV7CYDY8","either","8","106","","","","","","","0","0","1","","0.1862633901","0.4","0.6","0.8","0.2","0.1862633901","0.2532022814","0.3526806189","0.06212451067","","","","","","","","","","","","","","72","H","0","img/none_selected.jpg","","146","main_expt","",""
"","bandit","230","437744","0.0-188.0-0.0","14766227","wem/bandit_party_1","A3HAPMZV7CYDY8","either","8","124","","","","","","","0","1","0","","0.3859334927","0.4","0.6","0.8","0.2","0.1944793183","0.272856749","0.3859334927","0.05826033827","","","","","","","","","","","","","","75","K","2","","","147","main_expt","",""
"","bandit","231","439279","0.0-189.0-0.0","14766227","wem/bandit_party_1","A3HAPMZV7CYDY8","either","8","24","","","","","","","0","0","1","","0.04847575149","0.4","0.6","0.8","0.2","0.1572605535","0.2441255329","0.4089873985","0.04847575149","","","","","","","","","","","","","","76","L","3","","","148","main_expt","",""
"","bandit","232","441022","0.0-190.0-0.0","14766227","wem/bandit_party_1","A3HAPMZV7CYDY8","either","8","232","","","","","","","0","0","1","","0.1632070519","0.4","0.6","0.8","0.2","0.1632070519","0.2304797635","0.3317076441","0.07397138717","","","","","","","","","","","","","","72","H","0","img/none_selected.jpg","","149","main_expt","",""
"","bandit","233","442539","0.0-191.0-0.0","14766227","wem/bandit_party_1","A3HAPMZV7CYDY8","either","8","7","","","","","","","0","0","1","0.2162169298","","0.4","0.6","0.8","0.2","","","","","0.2162169298","0.2645424191","0.2514439341","0.1178437277","","","","","","","","","","72","H","0","img/none_selected.jpg","","150","main_expt","",""
"","bandit","234","444102","0.0-192.0-0.0","14766227","wem/bandit_party_1","A3HAPMZV7CYDY8","either","8","41","","","","","","","0","0","1","0.2919476008","","0.4","0.6","0.8","0.2","","","","","0.2806681102","0.2919476008","0.2209696772","0.1116740648","","","","","","","","","","74","J","1","","","151","main_expt","",""
"","bandit","235","445629","0.0-193.0-0.0","14766227","wem/bandit_party_1","A3HAPMZV7CYDY8","either","8","17","","","","","","","0","0","1","0.25223767","","0.4","0.6","0.8","0.2","","","","","0.25223767","0.3004198658","0.2004300668","0.09681320826","","","","","","","","","","72","H","0","img/none_selected.jpg","","152","main_expt","",""
"","bandit","236","447197","0.0-194.0-0.0","14766227","wem/bandit_party_1","A3HAPMZV7CYDY8","either","8","57","","","","","","","0","0","1","","0.2259503681","0.4","0.6","0.8","0.2","0.2259503681","0.2910243242","0.1803159607","0.1162344283","","","","","","","","","","","","","","72","H","0","img/none_selected.jpg","","153","main_expt","",""
"","bandit","237","448760","0.0-195.0-0.0","14766227","wem/bandit_party_1","A3HAPMZV7CYDY8","either","8","53","","","","","","","0","0","1","0.1793353988","","0.4","0.6","0.8","0.2","","","","","0.2520515582","0.2858680692","0.1793353988","0.1441765144","","","","","","","","","","75","K","2","","","154","main_expt","",""
"","bandit","238","450287","0.0-196.0-0.0","14766227","wem/bandit_party_1","A3HAPMZV7CYDY8","either","8","16","","","","","","","0","0","1","0.175125938","","0.4","0.6","0.8","0.2","","","","","0.246895917","0.276906037","0.175125938","0.1506434262","","","","","","","","","","75","K","2","","","155","main_expt","",""
"","bandit","239","451813","0.0-197.0-0.0","14766227","wem/bandit_party_1","A3HAPMZV7CYDY8","either","8","16","","","","","","","0","0","1","0.19004546","","0.4","0.6","0.8","0.2","","","","","0.2067462234","0.3087514371","0.19004546","0.1691825384","","","","","","","","","","75","K","2","","","156","main_expt","",""
"","bandit","240","453759","0.0-198.0-0.0","14766227","wem/bandit_party_1","A3HAPMZV7CYDY8","either","8","437","","","","","","","0","0","1","0.3400763937","","0.4","0.6","0.8","0.2","","","","","0.1736677602","0.3400763937","0.1538528063","0.1465267651","","","","","","","","","","74","J","1","","","157","main_expt","",""
"","bandit","241","455339","0.0-199.0-0.0","14766227","wem/bandit_party_1","A3HAPMZV7CYDY8","either","8","68","","","","","","","0","0","1","0.2437422656","","0.4","0.6","0.8","0.2","","","","","0.2437422656","0.3388441277","0.1624419901","0.1517260174","","","","","","","","","","72","H","0","img/none_selected.jpg","","158","main_expt","",""
"","bandit","242","457176","0.0-200.0-0.0","14766227","wem/bandit_party_1","A3HAPMZV7CYDY8","either","8","326","","","","","","","0","0","1","0.143579764","","0.4","0.6","0.8","0.2","","","","","0.2627628197","0.3496437485","0.1749682205","0.143579764","","","","","","","","","","76","L","3","","","159","main_expt","",""
"","bandit","243","458857","0.0-201.0-0.0","14766227","wem/bandit_party_1","A3HAPMZV7CYDY8","either","8","166","","","","","","","0","0","1","0.2532756584","","0.4","0.6","0.8","0.2","","","","","0.2532756584","0.3347491532","0.2227833177","0.1701049762","","","","","","","","","","72","H","0","img/none_selected.jpg","","160","main_expt","",""
"","bandit","244","460879","0.0-202.0-0.0","14766227","wem/bandit_party_1","A3HAPMZV7CYDY8","either","8","512","","","","","","","0","0","1","0.2846030245","","0.4","0.6","0.8","0.2","","","","","0.2846030245","0.3036625801","0.1616195486","0.1596038406","","","","","","","","","","72","H","0","img/none_selected.jpg","","161","main_expt","",""
"","bandit","245","462485","0.0-203.0-0.0","14766227","wem/bandit_party_1","A3HAPMZV7CYDY8","either","8","97","","","","","","","0","0","1","0.1186271452","","0.4","0.6","0.8","0.2","","","","","0.2480450928","0.2735804545","0.1440802068","0.1186271452","","","","","","","","","","76","L","3","","","162","main_expt","",""
"","bandit","246","464361","0.0-204.0-0.0","14766227","wem/bandit_party_1","A3HAPMZV7CYDY8","either","8","367","","","","","","","1","0","0","0.3217860246","","0.4","0.6","0.8","0.2","","","","","0.3217860246","0.2219233964","0.1349250059","0.1460830151","","","","","","","","","","72","H","0","img/none_selected.jpg","","163","main_expt","",""
"","bandit","247","465921","0.0-205.0-0.0","14766227","wem/bandit_party_1","A3HAPMZV7CYDY8","either","8","48","","","","","","","1","0","0","0.2489701673","","0.4","0.6","0.8","0.2","","","","","0.3528623486","0.2489701673","0.1482528248","0.1924179555","","","","","","","","","","74","J","1","","","164","main_expt","",""
"","bandit","248","467590","0.0-206.0-0.0","14766227","wem/bandit_party_1","A3HAPMZV7CYDY8","either","8","157","","","","","","","0","0","1","","0.3113737792","0.4","0.6","0.8","0.2","0.3113737792","0.2424219606","0.1444116863","0.1909643941","","","","","","","","","","","","","","72","H","0","img/none_selected.jpg","","165","main_expt","",""
"","bandit","249","469230","0.0-207.0-0.0","14766227","wem/bandit_party_1","A3HAPMZV7CYDY8","either","8","130","","","","","","","0","0","1","","0.1917506842","0.4","0.6","0.8","0.2","0.2820045276","0.1899742571","0.1621449425","0.1917506842","","","","","","","","","","","","","","76","L","3","","","166","main_expt","",""
"","bandit","250","470828","0.0-208.0-0.0","14766227","wem/bandit_party_1","A3HAPMZV7CYDY8","either","8","87","","","","","","","0","0","1","0.1695256229","","0.4","0.6","0.8","0.2","","","","","0.2539690707","0.2298880826","0.1695256229","0.2238056512","","","","","","","","","","75","K","2","","","167","main_expt","",""
"","bandit","251","472620","0.0-209.0-0.0","14766227","wem/bandit_party_1","A3HAPMZV7CYDY8","either","8","281","","","","","","","1","0","0","0.241220494","","0.4","0.6","0.8","0.2","","","","","0.2177565821","0.241220494","0.1712445676","0.2132240521","","","","","","","","","","74","J","1","","","168","main_expt","",""
"","bandit","252","474278","0.0-210.0-0.0","14766227","wem/bandit_party_1","A3HAPMZV7CYDY8","either","8","146","","","","","","","0","0","1","0.191079104","","0.4","0.6","0.8","0.2","","","","","0.183214586","0.2113351254","0.191079104","0.1363713625","","","","","","","","","","75","K","2","","","169","main_expt","",""
"","bandit","253","478207","0.0-211.0-0.0","14766227","wem/bandit_party_1","A3HAPMZV7CYDY8","either","8","2419","","","","","","","0","0","1","","0.2007690262","0.4","0.6","0.8","0.2","0.1757282231","0.2224744884","0.2227666825","0.2007690262","","","","","","","","","","","","","","76","L","3","","","170","main_expt","",""
"","bandit","254","480294","0.0-212.0-0.0","14766227","wem/bandit_party_1","A3HAPMZV7CYDY8","either","8","575","","","","","","","0","0","1","0.1679331046","","0.4","0.6","0.8","0.2","","","","","0.1679331046","0.262177911","0.2719914804","0.1238998316","","","","","","","","","","72","H","0","img/none_selected.jpg","","171","main_expt","",""
"","bandit","255","482255","0.0-213.0-0.0","14766227","wem/bandit_party_1","A3HAPMZV7CYDY8","either","8","451","","","","","","","0","0","1","","0.09746419185","0.4","0.6","0.8","0.2","0.14560319","0.2822992514","0.2330128459","0.09746419185","","","","","","","","","","","","","","76","L","3","","","172","main_expt","",""
"","bandit","256","483914","0.0-214.0-0.0","14766227","wem/bandit_party_1","A3HAPMZV7CYDY8","either","8","147","","","","","","","0","1","0","","0.1018164217","0.4","0.6","0.8","0.2","0.1341549344","0.2545762091","0.2840251313","0.1018164217","","","","","","","","","","","","","","76","L","3","","","173","main_expt","",""
"","bandit","257","485481","0.0-215.0-0.0","14766227","wem/bandit_party_1","A3HAPMZV7CYDY8","either","8","56","","","","","","","0","0","1","","0.1401689619","0.4","0.6","0.8","0.2","0.1471305278","0.2838184637","0.2739042306","0.1401689619","","","","","","","","","","","","","","76","L","3","","","174","main_expt","",""
"","bandit","258","487868","0.0-216.0-0.0","14766227","wem/bandit_party_1","A3HAPMZV7CYDY8","either","8","874","","","","","","","1","0","0","0.173963405","","0.4","0.6","0.8","0.2","","","","","0.173963405","0.3002790513","0.3444735506","0.1697524679","","","","","","","","","","72","H","0","img/none_selected.jpg","","175","main_expt","",""
"","bandit","259","490791","0.0-217.0-0.0","14766227","wem/bandit_party_1","A3HAPMZV7CYDY8","either","8","1410","","","","","","","0","0","1","0.3223017316","","0.4","0.6","0.8","0.2","","","","","0.1821857965","0.3771690292","0.3223017316","0.1896898672","","","","","","","","","","75","K","2","","","176","main_expt","",""
"","bandit","260","492468","0.0-218.0-0.0","14766227","wem/bandit_party_1","A3HAPMZV7CYDY8","either","8","165","","","","","","","1","0","0","0.2441254625","","0.4","0.6","0.8","0.2","","","","","0.1444884472","0.4047809956","0.2964924158","0.2441254625","","","","","","","","","","76","L","3","","","177","main_expt","",""
"","bandit","261","494026","0.0-219.0-0.0","14766227","wem/bandit_party_1","A3HAPMZV7CYDY8","either","8","48","","","","","","","0","0","1","","0.1207783293","0.4","0.6","0.8","0.2","0.1207783293","0.4344960837","0.2780576925","0.2427722412","","","","","","","","","","","","","","72","H","0","img/none_selected.jpg","","178","main_expt","",""
"","bandit","262","495720","0.0-220.0-0.0","14766227","wem/bandit_party_1","A3HAPMZV7CYDY8","either","8","181","","","","","","","0","0","1","","0.111585665","0.4","0.6","0.8","0.2","0.111585665","0.4287912686","0.2859751729","0.2284650367","","","","","","","","","","","","","","72","H","0","img/none_selected.jpg","","179","main_expt","",""
"","bandit","263","497573","0.0-221.0-0.0","14766227","wem/bandit_party_1","A3HAPMZV7CYDY8","either","8","344","","","","","","","0","0","1","","0.06891525065","0.4","0.6","0.8","0.2","0.06891525065","0.4294180747","0.283533164","0.2694081366","","","","","","","","","","","","","","72","H","0","img/none_selected.jpg","","180","main_expt","",""
"","bandit","264","499243","0.0-222.0-0.0","14766227","wem/bandit_party_1","A3HAPMZV7CYDY8","either","8","159","","","","","","","0","0","1","","0.07407739619","0.4","0.6","0.8","0.2","0.07407739619","0.3887332701","0.2430023428","0.2471628034","","","","","","","","","","","","","","72","H","0","img/none_selected.jpg","","181","main_expt","",""
"","bandit","265","500910","0.0-223.0-0.0","14766227","wem/bandit_party_1","A3HAPMZV7CYDY8","either","8","155","","","","","","","0","0","1","0.07501704201","","0.4","0.6","0.8","0.2","","","","","0.07501704201","0.3910635387","0.223254837","0.275372354","","","","","","","","","","72","H","0","img/none_selected.jpg","","182","main_expt","",""
"","bandit","266","502532","0.0-224.0-0.0","14766227","wem/bandit_party_1","A3HAPMZV7CYDY8","either","8","112","","","","","","","0","0","1","0.09354103142","","0.4","0.6","0.8","0.2","","","","","0.09354103142","0.3957792538","0.2274286797","0.2378950907","","","","","","","","","","72","H","0","img/none_selected.jpg","","183","main_expt","",""
"","bandit","267","504134","0.0-225.0-0.0","14766227","wem/bandit_party_1","A3HAPMZV7CYDY8","either","8","79","","","","","","","0","0","1","0.2485964068","","0.4","0.6","0.8","0.2","","","","","0.06673830493","0.3777829694","0.2485964068","0.2611999536","","","","","","","","","","75","K","2","","","184","main_expt","",""
"","bandit","268","505653","0.0-226.0-0.0","14766227","wem/bandit_party_1","A3HAPMZV7CYDY8","either","8","8","","","","","","","0","0","1","","0.08617836821","0.4","0.6","0.8","0.2","0.08617836821","0.4130939835","0.2080173303","0.2799245071","","","","","","","","","","","","","","72","H","0","img/none_selected.jpg","","185","main_expt","",""
"","bandit","269","507349","0.0-227.0-0.0","14766227","wem/bandit_party_1","A3HAPMZV7CYDY8","either","8","184","","","","","","","0","0","1","","0.05054014018","0.4","0.6","0.8","0.2","0.05054014018","0.376930599","0.2538883687","0.2275386122","","","","","","","","","","","","","","72","H","0","img/none_selected.jpg","","186","main_expt","",""
"","bandit","270","509146","0.0-228.0-0.0","14766227","wem/bandit_party_1","A3HAPMZV7CYDY8","either","8","286","","","","","","","0","0","1","","0.2267652077","0.4","0.6","0.8","0.2","0.1101456656","0.3934592684","0.2267652077","0.2558518805","","","","","","","","","","","","","","75","K","2","","","187","main_expt","",""
"","bandit","271","510824","0.0-229.0-0.0","14766227","wem/bandit_party_1","A3HAPMZV7CYDY8","either","8","167","","","","","","","0","1","0","","0.2757393749","0.4","0.6","0.8","0.2","0.1076418148","0.4086060551","0.2583789709","0.2757393749","","","","","","","","","","","","","","76","L","3","","","188","main_expt","",""
"","bandit","272","513161","0.0-230.0-0.0","14766227","wem/bandit_party_1","A3HAPMZV7CYDY8","either","8","826","","","","","","","0","0","1","","0.3326758055","0.4","0.6","0.8","0.2","0.1230456027","0.447145564","0.2329768584","0.3326758055","","","","","","","","","","","","","","76","L","3","","","189","main_expt","",""
"","bandit","273","514988","0.0-231.0-0.0","14766227","wem/bandit_party_1","A3HAPMZV7CYDY8","either","8","315","","","","","","","0","1","0","","0.332927569","0.4","0.6","0.8","0.2","0.1872873117","0.386091063","0.2002510669","0.332927569","","","","","","","","","","","","","","76","L","3","","","190","main_expt","",""
"","bandit","274","517428","0.0-232.0-0.0","14766227","wem/bandit_party_1","A3HAPMZV7CYDY8","either","8","928","","","","","","","0","0","1","","0.3859199101","0.4","0.6","0.8","0.2","0.1413073252","0.4221145333","0.2182600554","0.3859199101","","","","","","","","","","","","","","76","L","3","","","191","main_expt","",""
"","bandit","275","519225","0.0-233.0-0.0","14766227","wem/bandit_party_1","A3HAPMZV7CYDY8","either","8","285","","","","","","","0","1","0","","0.392668484","0.4","0.6","0.8","0.2","0.1868627967","0.3913199708","0.2681613901","0.392668484","","","","","","","","","","","","","","76","L","3","","","192","main_expt","",""
"","bandit","276","520923","0.0-234.0-0.0","14766227","wem/bandit_party_1","A3HAPMZV7CYDY8","either","8","186","","","","","","","0","0","1","","0.2312719224","0.4","0.6","0.8","0.2","0.2312719224","0.4013624592","0.3035027483","0.3789843676","","","","","","","","","","","","","","72","H","0","img/none_selected.jpg","","193","main_expt","",""
"","bandit","277","522500","0.0-235.0-0.0","14766227","wem/bandit_party_1","A3HAPMZV7CYDY8","either","8","66","","","","","","","0","0","1","","0.3689216281","0.4","0.6","0.8","0.2","0.2585201677","0.3668237699","0.275531754","0.3689216281","","","","","","","","","","","","","","76","L","3","","","194","main_expt","",""
"","bandit","278","524024","0.0-236.0-0.0","14766227","wem/bandit_party_1","A3HAPMZV7CYDY8","either","8","10","","","","","","","0","0","1","","0.4136905162","0.4","0.6","0.8","0.2","0.2786104129","0.3856266791","0.2716401532","0.4136905162","","","","","","","","","","","","","","76","L","3","","","195","main_expt","",""
"","bandit","279","525656","0.0-237.0-0.0","14766227","wem/bandit_party_1","A3HAPMZV7CYDY8","either","8","121","","","","","","","0","0","1","0.2814611543","","0.4","0.6","0.8","0.2","","","","","0.2407834285","0.3702439493","0.2814611543","0.4258575101","","","","","","","","","","75","K","2","","","196","main_expt","",""
"","bandit","280","527610","0.0-238.0-0.0","14766227","wem/bandit_party_1","A3HAPMZV7CYDY8","either","8","444","","","","","","","0","0","1","0.3665926528","","0.4","0.6","0.8","0.2","","","","","0.2550568011","0.3665926528","0.2588010394","0.3976178043","","","","","","","","","","74","J","1","","","197","main_expt","",""
"","bandit","281","529135","0.0-239.0-0.0","14766227","wem/bandit_party_1","A3HAPMZV7CYDY8","either","8","15","","","","","","","0","0","1","0.3432124584","","0.4","0.6","0.8","0.2","","","","","0.3094863904","0.3432124584","0.3094610495","0.3802378075","","","","","","","","","","74","J","1","","","198","main_expt","",""
"","bandit","282","530909","0.0-240.0-0.0","14766227","wem/bandit_party_1","A3HAPMZV7CYDY8","either","8","261","","","","","","","0","0","1","0.3012985694","","0.4","0.6","0.8","0.2","","","","","0.3012985694","0.4096574544","0.3139278769","0.3926800246","","","","","","","","","","72","H","0","img/none_selected.jpg","","199","main_expt","",""
"","bandit","283","532421","0.0-241.0-0.0","14766227","wem/bandit_party_1","A3HAPMZV7CYDY8","either","8","0","","","","","","","0","1","0","","0.3149132519","0.4","0.6","0.8","0.2","0.3149132519","0.3799023259","0.3459706187","0.3814844917","","","","","","","","","","","","","","72","H","0","img/none_selected.jpg","","200","main_expt","",""
"","bandit","284","533945","0.0-242.0-0.0","14766227","wem/bandit_party_1","A3HAPMZV7CYDY8","either","8","13","","","","","","","0","0","1","0.3038365479","","0.4","0.6","0.8","0.2","","","","","0.3236307962","0.3513783521","0.3038365479","0.3831630738","","","","","","","","","","75","K","2","","","201","main_expt","",""
"","bandit","285","535887","0.0-243.0-0.0","14766227","wem/bandit_party_1","A3HAPMZV7CYDY8","either","8","430","","","","","","","0","0","1","","0.3957430938","0.4","0.6","0.8","0.2","0.3163717903","0.3439351057","0.2964599608","0.3957430938","","","","","","","","","","","","","","76","L","3","","","202","main_expt","",""
"","bandit","286","537426","0.0-244.0-0.0","14766227","wem/bandit_party_1","A3HAPMZV7CYDY8","either","8","27","","","","","","","0","0","1","","0.4175506619","0.4","0.6","0.8","0.2","0.3165936227","0.2615327891","0.280336616","0.4175506619","","","","","","","","","","","","","","76","L","3","","","203","main_expt","",""
"","bandit","287","538960","0.0-245.0-0.0","14766227","wem/bandit_party_1","A3HAPMZV7CYDY8","either","8","22","","","","","","","1","0","0","0.4356800279","","0.4","0.6","0.8","0.2","","","","","0.3166231072","0.2211517471","0.262900641","0.4356800279","","","","","","","","","","76","L","3","","","204","main_expt","",""
"","bandit","288","540473","0.0-246.0-0.0","14766227","wem/bandit_party_1","A3HAPMZV7CYDY8","either","8","2","","","","","","","0","0","1","0.3403150927","","0.4","0.6","0.8","0.2","","","","","0.2983153058","0.1955747294","0.3403150927","0.4342993254","","","","","","","","","","75","K","2","","","205","main_expt","",""
"","bandit","289","542187","0.0-247.0-0.0","14766227","wem/bandit_party_1","A3HAPMZV7CYDY8","either","8","201","","","","","","","0","1","0","","0.4515967499","0.4","0.6","0.8","0.2","0.255573156","0.3137251184","0.3407188883","0.4515967499","","","","","","","","","","","","","","76","L","3","","","206","main_expt","",""
"","bandit","290","543816","0.0-248.0-0.0","14766227","wem/bandit_party_1","A3HAPMZV7CYDY8","either","8","117","","","","","","","0","0","1","0.2816724171","","0.4","0.6","0.8","0.2","","","","","0.2816724171","0.2982459604","0.2955601217","0.4559700358","","","","","","","","","","72","H","0","img/none_selected.jpg","","207","main_expt","",""
"","bandit","291","545336","0.0-249.0-0.0","14766227","wem/bandit_party_1","A3HAPMZV7CYDY8","either","8","10","","","","","","","0","1","0","","0.2462622089","0.4","0.6","0.8","0.2","0.2462622089","0.2359404152","0.2832193826","0.4711787588","","","","","","","","","","","","","","72","H","0","img/none_selected.jpg","","208","main_expt","",""
"","bandit","292","546847","0.0-250.0-0.0","14766227","wem/bandit_party_1","A3HAPMZV7CYDY8","either","8","1","","","","","","","0","0","1","0.25637755","","0.4","0.6","0.8","0.2","","","","","0.2608633631","0.2396635106","0.25637755","0.4859779177","","","","","","","","","","75","K","2","","","209","main_expt","",""
"","bandit","293","548649","0.0-251.0-0.0","14766227","wem/bandit_party_1","A3HAPMZV7CYDY8","either","8","289","","","","","","","0","0","1","","0.4798195452","0.4","0.6","0.8","0.2","0.2649708152","0.2320506775","0.2500912527","0.4798195452","","","","","","","","","","","","","","76","L","3","","","210","main_expt","",""
"","bandit","294","550400","0.0-252.0-0.0","14766227","wem/bandit_party_1","A3HAPMZV7CYDY8","either","8","237","","","","","","","0","1","0","","0.2658594566","0.4","0.6","0.8","0.2","0.2658594566","0.1894847828","0.2481129288","0.4754072522","","","","","","","","","","","","","","72","H","0","img/none_selected.jpg","","211","main_expt","",""
"","bandit","295","553044","0.0-253.0-0.0","14766227","wem/bandit_party_1","A3HAPMZV7CYDY8","either","8","1133","","","","","","","0","0","1","","0.4780703898","0.4","0.6","0.8","0.2","0.2648449814","0.2330804604","0.3192168596","0.4780703898","","","","","","","","","","","","","","76","L","3","","","212","main_expt","",""
"","bandit","296","555012","0.0-254.0-0.0","14766227","wem/bandit_party_1","A3HAPMZV7CYDY8","either","8","456","","","","","","","0","0","1","","0.4883488692","0.4","0.6","0.8","0.2","0.286492297","0.2484053244","0.2361953268","0.4883488692","","","","","","","","","","","","","","76","L","3","","","213","main_expt","",""
"","bandit","297","556537","0.0-255.0-0.0","14766227","wem/bandit_party_1","A3HAPMZV7CYDY8","either","8","11","","","","","","","0","0","1","0.2308921763","","0.4","0.6","0.8","0.2","","","","","0.2540339129","0.2182548364","0.2308921763","0.4872562331","","","","","","","","","","75","K","2","","","214","main_expt","",""
"","bandit","298","559031","0.0-256.0-0.0","14766227","wem/bandit_party_1","A3HAPMZV7CYDY8","either","8","981","","","","","","","0","1","0","","0.4749609167","0.4","0.6","0.8","0.2","0.254651127","0.1824073789","0.2161033537","0.4749609167","","","","","","","","","","","","","","76","L","3","","","215","main_expt","",""
"","bandit","299","560963","0.0-257.0-0.0","14766227","wem/bandit_party_1","A3HAPMZV7CYDY8","either","8","419","","","","","","","0","1","0","","0.4798413464","0.4","0.6","0.8","0.2","0.3140517816","0.1923730387","0.1896756427","0.4798413464","","","","","","","","","","","","","","76","L","3","","","216","main_expt","",""
"","bandit","300","565721","0.0-258.0-0.0","14766227","wem/bandit_party_1","A3HAPMZV7CYDY8","either","8","3246","","","","","","","0","0","1","","0.4865144435","0.4","0.6","0.8","0.2","0.3338676317","0.2266612446","0.1724286307","0.4865144435","","","","","","","","","","","","","","76","L","3","","","217","main_expt","",""
"","bandit","301","567458","0.0-259.0-0.0","14766227","wem/bandit_party_1","A3HAPMZV7CYDY8","either","8","222","","","","","","","1","0","0","0.4789145001","","0.4","0.6","0.8","0.2","","","","","0.3397001125","0.1702705737","0.161168334","0.4789145001","","","","","","","","","","76","L","3","","","218","main_expt","",""
"","bandit","302","569076","0.0-260.0-0.0","14766227","wem/bandit_party_1","A3HAPMZV7CYDY8","either","8","101","","","","","","","1","0","0","0.4834748692","","0.4","0.6","0.8","0.2","","","","","0.2982528089","0.1159766116","0.2021763003","0.4834748692","","","","","","","","","","76","L","3","","","219","main_expt","",""
"","bandit","303","571718","0.0-261.0-0.0","14766227","wem/bandit_party_1","A3HAPMZV7CYDY8","either","8","1131","","","","","","","0","0","1","","0.4722371777","0.4","0.6","0.8","0.2","0.2770934022","0.09529473055","0.2142164272","0.4722371777","","","","","","","","","","","","","","76","L","3","","","220","main_expt","",""
"","bandit","304","573232","0.0-262.0-0.0","14766227","wem/bandit_party_1","A3HAPMZV7CYDY8","either","8","2","","","","","","","0","1","0","","0.4654689219","0.4","0.6","0.8","0.2","0.2696770889","0.09060922323","0.189068297","0.4654689219","","","","","","","","","","","","","","76","L","3","","","221","main_expt","",""
"","bandit","305","575427","0.0-263.0-0.0","14766227","wem/bandit_party_1","A3HAPMZV7CYDY8","either","8","682","","","","","","","0","0","1","","0.4533789701","0.4","0.6","0.8","0.2","0.3103502417","0.1250772464","0.2120997892","0.4533789701","","","","","","","","","","","","","","76","L","3","","","222","main_expt","",""
"","bandit","306","577621","0.0-264.0-0.0","14766227","wem/bandit_party_1","A3HAPMZV7CYDY8","either","8","683","","","","","","","0","0","1","","0.4473019993","0.4","0.6","0.8","0.2","0.3477728299","0.1177235221","0.1937664477","0.4473019993","","","","","","","","","","","","","","76","L","3","","","223","main_expt","",""
"","bandit","307","579143","0.0-265.0-0.0","14766227","wem/bandit_party_1","A3HAPMZV7CYDY8","either","8","9","","","","","","","0","0","1","","0.4651086175","0.4","0.6","0.8","0.2","0.3230244909","0.1589673504","0.2195846313","0.4651086175","","","","","","","","","","","","","","76","L","3","","","224","main_expt","",""
"","bandit","308","582574","0.0-266.0-0.0","14766227","wem/bandit_party_1","A3HAPMZV7CYDY8","either","8","1919","","","","","","","1","0","0","0.4704934375","","0.4","0.6","0.8","0.2","","","","","0.3641913847","0.1582937281","0.1973587738","0.4704934375","","","","","","","","","","76","L","3","","","225","main_expt","",""
"","bandit","309","584430","0.0-267.0-0.0","14766227","wem/bandit_party_1","A3HAPMZV7CYDY8","either","8","344","","","","","","","0","1","0","","0.4545632724","0.4","0.6","0.8","0.2","0.3211822138","0.1585786296","0.2029059012","0.4545632724","","","","","","","","","","","","","","76","L","3","","","226","main_expt","",""
"","bandit","310","587599","0.0-268.0-0.0","14766227","wem/bandit_party_1","A3HAPMZV7CYDY8","either","8","1657","","","","","","","0","1","0","","0.4313330006","0.4","0.6","0.8","0.2","0.3318596792","0.1614007709","0.1677618241","0.4313330006","","","","","","","","","","","","","","76","L","3","","","227","main_expt","",""
"","bandit","311","590491","0.0-269.0-0.0","14766227","wem/bandit_party_1","A3HAPMZV7CYDY8","either","8","1380","","","","","","","0","0","1","","0.4253897179","0.4","0.6","0.8","0.2","0.3715738924","0.1160982884","0.2079318551","0.4253897179","","","","","","","","","","","","","","76","L","3","","","228","main_expt","",""
"","bandit","312","593319","0.0-270.0-0.0","14766227","wem/bandit_party_1","A3HAPMZV7CYDY8","either","8","1316","","","","","","","0","0","1","","0.4416009531","0.4","0.6","0.8","0.2","0.3571583743","0.1327168588","0.1860779256","0.4416009531","","","","","","","","","","","","","","76","L","3","","","229","main_expt","",""
"","bandit","313","595404","0.0-271.0-0.0","14766227","wem/bandit_party_1","A3HAPMZV7CYDY8","either","8","573","","","","","","","0","0","1","0.1294985144","","0.4","0.6","0.8","0.2","","","","","0.3455313741","0.1751239199","0.1294985144","0.4612445757","","","","","","","","","","75","K","2","","","230","main_expt","",""
"","bandit","314","597543","0.0-272.0-0.0","14766227","wem/bandit_party_1","A3HAPMZV7CYDY8","either","8","626","","","","","","","0","0","1","","0.4455927364","0.4","0.6","0.8","0.2","0.3114256563","0.2080149414","0.1424139305","0.4455927364","","","","","","","","","","","","","","76","L","3","","","231","main_expt","",""
