"consent","trial_type","trial_index","time_elapsed","internal_node_id","subjID","study","MID","cond","drift","rt","responses","button_pressed","key_press","like","value","connected","gems","bombs","no_reward","GemPrChosen","BombPrChosen","GainOverPainPr_0","GainOverPainPr_1","GainOverPainPr_2","GainOverPainPr_3","LosePr_0","LosePr_1","LosePr_2","LosePr_3","WinPr_0","WinPr_1","WinPr_2","WinPr_3","Q0","Q1","Q2","gender","age","ethnicity","label","expt_phase","target","respCharCode","respKey","respChoiceNum","respChoice","practice","trial_counter","trial_label","Q0_index"
"GDM/GDM_behavioral_consent_30min_online.html","consent","0","16198","0.0-0.0","15128521","wem/bandit_party_1","AGVIHLR1DX7","either","1","","","","","","","","","","","","","","","","","","","","","","","","","","","","","","","","","","","","","","","","",""
"","survey-text","1","27392","0.0-1.0","15128521","wem/bandit_party_1","AGVIHLR1DX7","either","1","10178","{""Q0"":""AGVIHLR1DX7""}","","","","","","","","","","","","","","","","","","","","","","","","","","","","","","","","","","","","","","",""
"","button-response","2","29979","0.0-2.0","15128521","wem/bandit_party_1","AGVIHLR1DX7","either","1","1578","","0","","","","","","","","","","","","","","","","","","","","","","","","","","","","","","","","","","","","","",""
"","text-replacement","3","46615","0.0-3.0","15128521","wem/bandit_party_1","AGVIHLR1DX7","either","1","15628","","","32","","","","","","","","","","","","","","","","","","","","","","","","","","","","","","","","","","","","",""
"","text-replacement","4","58924","0.0-4.0","15128521","wem/bandit_party_1","AGVIHLR1DX7","either","1","12305","","","32","","","","","","","","","","","","","","","","","","","","","","","","","","","","","","","","","","","","",""
"","identification","5","65471","0.0-6.0-0.0","15128521","wem/bandit_party_1","AGVIHLR1DX7","either","1","6507","","","","6","6","6","","","","","","","","","","","","","","","","","","","","","","","","pre","identification_pre","the Republican party","","","","","","","",""
"","identification","6","72141","0.0-6.0-1.0","15128521","wem/bandit_party_1","AGVIHLR1DX7","either","1","5639","","","","0","0","0","","","","","","","","","","","","","","","","","","","","","","","","pre","identification_pre","the Democratic Party","","","","","","","",""
"","text-replacement","7","86090","0.0-7.0","15128521","wem/bandit_party_1","AGVIHLR1DX7","either","1","12943","","","32","","","","","","","","","","","","","","","","","","","","","","","","","","","","","","","","","","","","",""
"","text-replacement","8","94731","0.0-8.0","15128521","wem/bandit_party_1","AGVIHLR1DX7","either","1","8637","","","32","","","","","","","","","","","","","","","","","","","","","","","","","","","","","","","","","","","","",""
"","text-replacement","9","105007","0.0-9.0","15128521","wem/bandit_party_1","AGVIHLR1DX7","either","1","10272","","","32","","","","","","","","","","","","","","","","","","","","","","","","","","","","","","","","","","","","",""
"","text-replacement","10","109421","0.0-10.0","15128521","wem/bandit_party_1","AGVIHLR1DX7","either","1","4409","","","32","","","","","","","","","","","","","","","","","","","","","","","","","","","","","","","","","","","","",""
"","text-replacement","11","114438","0.0-11.0","15128521","wem/bandit_party_1","AGVIHLR1DX7","either","1","5013","","","32","","","","","","","","","","","","","","","","","","","","","","","","","","","","","","","","","","","","",""
"","bandit","12","117404","0.0-12.0-0.0","15128521","wem/bandit_party_1","AGVIHLR1DX7","either","1","1432","","","","","","","0","0","1","0","0","","","","","0","","","","0","","","","","","","","","","","","","74","J","0","img/none_selected_demo.jpg","true","0","",""
"","bandit","13","120674","0.0-13.0-0.0","15128521","wem/bandit_party_1","AGVIHLR1DX7","either","1","1749","","","","","","","0","0","1","0","0","","","","","0","","","","0","","","","","","","","","","","","","75","K","0","img/none_selected_demo.jpg","true","0","",""
"","text-replacement","14","126789","0.0-14.0","15128521","wem/bandit_party_1","AGVIHLR1DX7","either","1","6112","","","32","","","","","","","","","","","","","","","","","","","","","","","","","","","","","","","","","","","","",""
"","text-replacement","15","131449","0.0-15.0","15128521","wem/bandit_party_1","AGVIHLR1DX7","either","1","4656","","","32","","","","","","","","","","","","","","","","","","","","","","","","","","","","","","","","","","","","",""
"","text-replacement","16","139342","0.0-16.0","15128521","wem/bandit_party_1","AGVIHLR1DX7","either","1","7889","","","32","","","","","","","","","","","","","","","","","","","","","","","","","","","","","","","","","","","","",""
"","text-replacement","17","143824","0.0-17.0","15128521","wem/bandit_party_1","AGVIHLR1DX7","either","1","4478","","","32","","","","","","","","","","","","","","","","","","","","","","","","","","","","","","","","","","","","",""
"","bandit","18","146476","0.0-18.0-0.0","15128521","wem/bandit_party_1","AGVIHLR1DX7","either","1","1140","","","","","","","0","1","0","","0.8","0.5","0.5","","","0.8","0.2","","","","","","","","","","","","","","","","74","J","0","img/none_selected_demo.jpg","true","0","80_20_practice",""
"","bandit","19","148800","0.0-18.0-1.0","15128521","wem/bandit_party_1","AGVIHLR1DX7","either","1","812","","","","","","","0","1","0","","0.8","0.5","0.5","","","0.8","0.2","","","","","","","","","","","","","","","","74","J","0","img/none_selected_demo.jpg","true","0","80_20_practice",""
"","bandit","20","151139","0.0-18.0-2.0","15128521","wem/bandit_party_1","AGVIHLR1DX7","either","1","827","","","","","","","0","0","1","","0.2","0.5","0.5","","","0.8","0.2","","","","","","","","","","","","","","","","75","K","1","","true","0","80_20_practice",""
"","bandit","21","153034","0.0-18.0-3.0","15128521","wem/bandit_party_1","AGVIHLR1DX7","either","1","380","","","","","","","0","0","1","","0.8","0.5","0.5","","","0.8","0.2","","","","","","","","","","","","","","","","74","J","0","img/none_selected_demo.jpg","true","0","80_20_practice",""
"","bandit","22","154885","0.0-18.0-4.0","15128521","wem/bandit_party_1","AGVIHLR1DX7","either","1","339","","","","","","","0","1","0","","0.8","0.5","0.5","","","0.8","0.2","","","","","","","","","","","","","","","","74","J","0","img/none_selected_demo.jpg","true","0","80_20_practice",""
"","bandit","23","156721","0.0-18.0-5.0","15128521","wem/bandit_party_1","AGVIHLR1DX7","either","1","322","","","","","","","0","1","0","","0.8","0.5","0.5","","","0.8","0.2","","","","","","","","","","","","","","","","74","J","0","img/none_selected_demo.jpg","true","0","80_20_practice",""
"","bandit","24","158517","0.0-18.0-6.0","15128521","wem/bandit_party_1","AGVIHLR1DX7","either","1","285","","","","","","","0","1","0","","0.8","0.5","0.5","","","0.8","0.2","","","","","","","","","","","","","","","","74","J","0","img/none_selected_demo.jpg","true","0","80_20_practice",""
"","bandit","25","160310","0.0-18.0-7.0","15128521","wem/bandit_party_1","AGVIHLR1DX7","either","1","278","","","","","","","0","1","0","","0.8","0.5","0.5","","","0.8","0.2","","","","","","","","","","","","","","","","74","J","0","img/none_selected_demo.jpg","true","0","80_20_practice",""
"","bandit","26","162103","0.0-18.0-8.0","15128521","wem/bandit_party_1","AGVIHLR1DX7","either","1","282","","","","","","","0","1","0","","0.8","0.5","0.5","","","0.8","0.2","","","","","","","","","","","","","","","","74","J","0","img/none_selected_demo.jpg","true","0","80_20_practice",""
"","bandit","27","163842","0.0-18.0-9.0","15128521","wem/bandit_party_1","AGVIHLR1DX7","either","1","225","","","","","","","0","0","1","","0.8","0.5","0.5","","","0.8","0.2","","","","","","","","","","","","","","","","74","J","0","img/none_selected_demo.jpg","true","0","80_20_practice",""
"","bandit","28","165627","0.0-18.0-10.0","15128521","wem/bandit_party_1","AGVIHLR1DX7","either","1","270","","","","","","","0","0","1","","0.8","0.5","0.5","","","0.8","0.2","","","","","","","","","","","","","","","","74","J","0","img/none_selected_demo.jpg","true","0","80_20_practice",""
"","bandit","29","167424","0.0-18.0-11.0","15128521","wem/bandit_party_1","AGVIHLR1DX7","either","1","285","","","","","","","0","1","0","","0.8","0.5","0.5","","","0.8","0.2","","","","","","","","","","","","","","","","74","J","0","img/none_selected_demo.jpg","true","0","80_20_practice",""
"","bandit","30","169211","0.0-18.0-12.0","15128521","wem/bandit_party_1","AGVIHLR1DX7","either","1","273","","","","","","","1","0","0","0.8","","0.5","0.5","","","","","","","0.8","0.2","","","","","","","","","","","","74","J","0","img/none_selected_demo.jpg","true","0","80_20_practice",""
"","bandit","31","171370","0.0-18.0-13.0","15128521","wem/bandit_party_1","AGVIHLR1DX7","either","1","645","","","","","","","0","1","0","","0.8","0.5","0.5","","","0.8","0.2","","","","","","","","","","","","","","","","74","J","0","img/none_selected_demo.jpg","true","0","80_20_practice",""
"","bandit","32","173175","0.0-18.0-14.0","15128521","wem/bandit_party_1","AGVIHLR1DX7","either","1","283","","","","","","","0","1","0","","0.8","0.5","0.5","","","0.8","0.2","","","","","","","","","","","","","","","","74","J","0","img/none_selected_demo.jpg","true","0","80_20_practice",""
"","bandit","33","174909","0.0-18.0-15.0","15128521","wem/bandit_party_1","AGVIHLR1DX7","either","1","221","","","","","","","0","1","0","","0.8","0.5","0.5","","","0.8","0.2","","","","","","","","","","","","","","","","74","J","0","img/none_selected_demo.jpg","true","0","80_20_practice",""
"","bandit","34","176493","0.0-18.0-16.0","15128521","wem/bandit_party_1","AGVIHLR1DX7","either","1","71","","","","","","","0","0","1","","0.8","0.5","0.5","","","0.8","0.2","","","","","","","","","","","","","","","","74","J","0","img/none_selected_demo.jpg","true","0","80_20_practice",""
"","bandit","35","178069","0.0-18.0-17.0","15128521","wem/bandit_party_1","AGVIHLR1DX7","either","1","63","","","","","","","0","1","0","","0.8","0.5","0.5","","","0.8","0.2","","","","","","","","","","","","","","","","74","J","0","img/none_selected_demo.jpg","true","0","80_20_practice",""
"","bandit","36","179824","0.0-18.0-18.0","15128521","wem/bandit_party_1","AGVIHLR1DX7","either","1","241","","","","","","","0","1","0","","0.8","0.5","0.5","","","0.8","0.2","","","","","","","","","","","","","","","","74","J","0","img/none_selected_demo.jpg","true","0","80_20_practice",""
"","bandit","37","181355","0.0-18.0-19.0","15128521","wem/bandit_party_1","AGVIHLR1DX7","either","1","18","","","","","","","0","1","0","","0.8","0.5","0.5","","","0.8","0.2","","","","","","","","","","","","","","","","74","J","0","img/none_selected_demo.jpg","true","0","80_20_practice",""
"","text-replacement","38","184015","0.0-19.0","15128521","wem/bandit_party_1","AGVIHLR1DX7","either","1","2656","","","32","","","","","","","","","","","","","","","","","","","","","","","","","","","","","","","","","","","","",""
"","bandit","39","186183","0.0-20.0-0.0","15128521","wem/bandit_party_1","AGVIHLR1DX7","either","1","643","","","","","","","1","0","0","1","0","","","","","0","1","","","1","0","","","","","","","","","","","","74","J","0","img/none_selected_demo.jpg","true","0","",""
"","text-replacement","40","190979","0.0-21.0","15128521","wem/bandit_party_1","AGVIHLR1DX7","either","1","4790","","","32","","","","","","","","","","","","","","","","","","","","","","","","","","","","","","","","","","","","",""
"","text-replacement","41","194401","0.0-22.0","15128521","wem/bandit_party_1","AGVIHLR1DX7","either","1","3417","","","32","","","","","","","","","","","","","","","","","","","","","","","","","","","","","","","","","","","","",""
"","text-replacement","42","198509","0.0-23.0","15128521","wem/bandit_party_1","AGVIHLR1DX7","either","1","4103","","","32","","","","","","","","","","","","","","","","","","","","","","","","","","","","","","","","","","","","",""
"","text-replacement","43","203474","0.0-24.0","15128521","wem/bandit_party_1","AGVIHLR1DX7","either","1","4961","","","32","","","","","","","","","","","","","","","","","","","","","","","","","","","","","","","","","","","","",""
"","text-replacement","44","207123","0.0-25.0","15128521","wem/bandit_party_1","AGVIHLR1DX7","either","1","3644","","","32","","","","","","","","","","","","","","","","","","","","","","","","","","","","","","","","","","","","",""
"","text-replacement","45","210935","0.0-26.0","15128521","wem/bandit_party_1","AGVIHLR1DX7","either","1","3808","","","32","","","","","","","","","","","","","","","","","","","","","","","","","","","","","","","","","","","","",""
"","text-replacement","46","214552","0.0-27.0","15128521","wem/bandit_party_1","AGVIHLR1DX7","either","1","3613","","","32","","","","","","","","","","","","","","","","","","","","","","","","","","","","","","","","","","","","",""
"","text-replacement","47","217951","0.0-28.0","15128521","wem/bandit_party_1","AGVIHLR1DX7","either","1","3395","","","32","","","","","","","","","","","","","","","","","","","","","","","","","","","","","","","","","","","","",""
"","text-replacement","48","221863","0.0-29.0","15128521","wem/bandit_party_1","AGVIHLR1DX7","either","1","3906","","","32","","","","","","","","","","","","","","","","","","","","","","","","","","","","","","","","","","","","",""
"","text-replacement","49","224004","0.0-30.0","15128521","wem/bandit_party_1","AGVIHLR1DX7","either","1","2134","","","32","","","","","","","","","","","","","","","","","","","","","","","","","","","","","","","","","","","","",""
"","text-replacement","50","225747","0.0-31.0","15128521","wem/bandit_party_1","AGVIHLR1DX7","either","1","1738","","","32","","","","","","","","","","","","","","","","","","","","","","","","","","","","","","","","","","","","",""
"","bandit","51","228051","0.0-32.0-0.0","15128521","wem/bandit_party_1","AGVIHLR1DX7","either","1","793","","","","","","","0","1","0","","0.8","0.5","0.5","0.5","0.5","0.8","0.2","0.6","0.2","","","","","","","","","","","","","","72","H","0","img/none_selected.jpg","true","0","full_practice",""
"","bandit","52","229897","0.0-32.0-1.0","15128521","wem/bandit_party_1","AGVIHLR1DX7","either","1","324","","","","","","","0","1","0","","0.8","0.5","0.5","0.5","0.5","0.8","0.2","0.6","0.2","","","","","","","","","","","","","","72","H","0","img/none_selected.jpg","true","0","full_practice",""
"","bandit","53","232039","0.0-32.0-2.0","15128521","wem/bandit_party_1","AGVIHLR1DX7","either","1","630","","","","","","","0","1","0","","0.8","0.5","0.5","0.5","0.5","0.8","0.2","0.6","0.2","","","","","","","","","","","","","","72","H","0","img/none_selected.jpg","true","0","full_practice",""
"","bandit","54","233849","0.0-32.0-3.0","15128521","wem/bandit_party_1","AGVIHLR1DX7","either","1","295","","","","","","","0","1","0","","0.8","0.5","0.5","0.5","0.5","0.8","0.2","0.6","0.2","","","","","","","","","","","","","","72","H","0","img/none_selected.jpg","true","0","full_practice",""
"","bandit","55","235644","0.0-32.0-4.0","15128521","wem/bandit_party_1","AGVIHLR1DX7","either","1","280","","","","","","","1","0","0","0.8","","0.5","0.5","0.5","0.5","","","","","0.8","0.2","0.6","0.2","","","","","","","","","","72","H","0","img/none_selected.jpg","true","0","full_practice",""
"","bandit","56","237379","0.0-32.0-5.0","15128521","wem/bandit_party_1","AGVIHLR1DX7","either","1","223","","","","","","","1","0","0","0.8","","0.5","0.5","0.5","0.5","","","","","0.8","0.2","0.6","0.2","","","","","","","","","","72","H","0","img/none_selected.jpg","true","0","full_practice",""
"","bandit","57","239152","0.0-32.0-6.0","15128521","wem/bandit_party_1","AGVIHLR1DX7","either","1","259","","","","","","","0","1","0","","0.8","0.5","0.5","0.5","0.5","0.8","0.2","0.6","0.2","","","","","","","","","","","","","","72","H","0","img/none_selected.jpg","true","0","full_practice",""
"","bandit","58","240962","0.0-32.0-7.0","15128521","wem/bandit_party_1","AGVIHLR1DX7","either","1","298","","","","","","","0","0","1","0.8","","0.5","0.5","0.5","0.5","","","","","0.8","0.2","0.6","0.2","","","","","","","","","","72","H","0","img/none_selected.jpg","true","0","full_practice",""
"","bandit","59","242745","0.0-32.0-8.0","15128521","wem/bandit_party_1","AGVIHLR1DX7","either","1","269","","","","","","","1","0","0","0.8","","0.5","0.5","0.5","0.5","","","","","0.8","0.2","0.6","0.2","","","","","","","","","","72","H","0","img/none_selected.jpg","true","0","full_practice",""
"","bandit","60","244396","0.0-32.0-9.0","15128521","wem/bandit_party_1","AGVIHLR1DX7","either","1","138","","","","","","","0","0","1","0.8","","0.5","0.5","0.5","0.5","","","","","0.8","0.2","0.6","0.2","","","","","","","","","","72","H","0","img/none_selected.jpg","true","0","full_practice",""
"","bandit","61","246072","0.0-32.0-10.0","15128521","wem/bandit_party_1","AGVIHLR1DX7","either","1","161","","","","","","","1","0","0","0.8","","0.5","0.5","0.5","0.5","","","","","0.8","0.2","0.6","0.2","","","","","","","","","","72","H","0","img/none_selected.jpg","true","0","full_practice",""
"","bandit","62","248093","0.0-32.0-11.0","15128521","wem/bandit_party_1","AGVIHLR1DX7","either","1","503","","","","","","","0","1","0","","0.8","0.5","0.5","0.5","0.5","0.8","0.2","0.6","0.2","","","","","","","","","","","","","","72","H","0","img/none_selected.jpg","true","0","full_practice",""
"","bandit","63","249676","0.0-32.0-12.0","15128521","wem/bandit_party_1","AGVIHLR1DX7","either","1","68","","","","","","","1","0","0","0.8","","0.5","0.5","0.5","0.5","","","","","0.8","0.2","0.6","0.2","","","","","","","","","","72","H","0","img/none_selected.jpg","true","0","full_practice",""
"","bandit","64","251270","0.0-32.0-13.0","15128521","wem/bandit_party_1","AGVIHLR1DX7","either","1","81","","","","","","","0","1","0","","0.8","0.5","0.5","0.5","0.5","0.8","0.2","0.6","0.2","","","","","","","","","","","","","","72","H","0","img/none_selected.jpg","true","0","full_practice",""
"","bandit","65","252922","0.0-32.0-14.0","15128521","wem/bandit_party_1","AGVIHLR1DX7","either","1","139","","","","","","","1","0","0","0.8","","0.5","0.5","0.5","0.5","","","","","0.8","0.2","0.6","0.2","","","","","","","","","","72","H","0","img/none_selected.jpg","true","0","full_practice",""
"","bandit","66","254454","0.0-32.0-15.0","15128521","wem/bandit_party_1","AGVIHLR1DX7","either","1","18","","","","","","","0","0","1","","0.8","0.5","0.5","0.5","0.5","0.8","0.2","0.6","0.2","","","","","","","","","","","","","","72","H","0","img/none_selected.jpg","true","0","full_practice",""
"","bandit","67","256273","0.0-32.0-16.0","15128521","wem/bandit_party_1","AGVIHLR1DX7","either","1","305","","","","","","","0","1","0","","0.8","0.5","0.5","0.5","0.5","0.8","0.2","0.6","0.2","","","","","","","","","","","","","","72","H","0","img/none_selected.jpg","true","0","full_practice",""
"","bandit","68","257990","0.0-32.0-17.0","15128521","wem/bandit_party_1","AGVIHLR1DX7","either","1","203","","","","","","","0","1","0","","0.8","0.5","0.5","0.5","0.5","0.8","0.2","0.6","0.2","","","","","","","","","","","","","","72","H","0","img/none_selected.jpg","true","0","full_practice",""
"","bandit","69","259762","0.0-32.0-18.0","15128521","wem/bandit_party_1","AGVIHLR1DX7","either","1","254","","","","","","","1","0","0","0.8","","0.5","0.5","0.5","0.5","","","","","0.8","0.2","0.6","0.2","","","","","","","","","","72","H","0","img/none_selected.jpg","true","0","full_practice",""
"","bandit","70","261510","0.0-32.0-19.0","15128521","wem/bandit_party_1","AGVIHLR1DX7","either","1","235","","","","","","","1","0","0","0.8","","0.5","0.5","0.5","0.5","","","","","0.8","0.2","0.6","0.2","","","","","","","","","","72","H","0","img/none_selected.jpg","true","0","full_practice",""
"","text","71","264998","0.0-33.0","15128521","wem/bandit_party_1","AGVIHLR1DX7","either","1","3466","","","32","","","","","","","","","","","","","","","","","","","","","","","","","","","","","","","","","","","","",""
"","text-replacement","72","281874","0.0-34.0","15128521","wem/bandit_party_1","AGVIHLR1DX7","either","1","15867","","","32","","","","","","","","","","","","","","","","","","","","","","","","","","","","","","","","","","","","",""
"","text-replacement","73","296017","0.0-35.0","15128521","wem/bandit_party_1","AGVIHLR1DX7","either","1","14138","","","32","","","","","","","","","","","","","","","","","","","","","","","","","","","","","","","","","","","","",""
"","text-replacement","74","298162","0.0-36.0","15128521","wem/bandit_party_1","AGVIHLR1DX7","either","1","2139","","","32","","","","","","","","","","","","","","","","","","","","","","","","","","","","","","","","","","","","",""
"","text-replacement","75","301878","0.0-37.0","15128521","wem/bandit_party_1","AGVIHLR1DX7","either","1","3699","","","32","","","","","","","","","","","","","","","","","","","","","","","","","","","","","","","","","","","","",""
"","text-replacement","76","306370","0.0-38.0","15128521","wem/bandit_party_1","AGVIHLR1DX7","either","1","4487","","","32","","","","","","","","","","","","","","","","","","","","","","","","","","","","","","","","","","","","",""
"","survey-multi-choice-replacement","77","312302","0.0-39.0-0.0","15128521","wem/bandit_party_1","AGVIHLR1DX7","either","1","5911","","","","","","","","","","","","","","","","","","","","","","","","Money will be added to the pool for <span style='color:red;'>REPUBLICANS</span>","","","","","","","attn_check","","","","","","","","","0"
"","survey-multi-choice-replacement","78","322388","0.0-40.0-0.0","15128521","wem/bandit_party_1","AGVIHLR1DX7","either","1","9055","","","","","","","","","","","","","","","","","","","","","","","","Equal amounts of money will be added to the pool for <span style='color:red;'>REPUBLICANS</span> and subtracted from the pool for <span style='color:blue;'>DEMOCRATS</span>","","","","","","","attn_check","","","","","","","","","2"
"","survey-multi-choice-replacement","79","326836","0.0-41.0-0.0","15128521","wem/bandit_party_1","AGVIHLR1DX7","either","1","3429","","","","","","","","","","","","","","","","","","","","","","","","No money will be added to either pool","","","","","","","attn_check","","","","","","","","","3"
"","bandit","80","331848","0.0-42.0-0.0","15128521","wem/bandit_party_1","AGVIHLR1DX7","either","1","2491","","","","","","","0","0","1","","0.4269289603","0.2","0.4","0.8","0.6","0.4269289603","0.3592836462","0.0798457429","0.02943109976","","","","","","","","","","","","","","72","H","0","img/none_selected.jpg","","1","main_expt",""
"","bandit","81","334293","0.0-43.0-0.0","15128521","wem/bandit_party_1","AGVIHLR1DX7","either","1","931","","","","","","","0","0","1","","0.3454903542","0.2","0.4","0.8","0.6","0.4660243271","0.3454903542","0.07621336767","0.06336112212","","","","","","","","","","","","","","74","J","1","","","2","main_expt",""
"","bandit","82","336088","0.0-44.0-0.0","15128521","wem/bandit_party_1","AGVIHLR1DX7","either","1","278","","","","","","","0","0","1","0.07476295528","","0.2","0.4","0.8","0.6","","","","","0.4738503749","0.2941512374","0.07476295528","0.07335687118","","","","","","","","","","75","K","2","","","3","main_expt",""
"","bandit","83","338015","0.0-45.0-0.0","15128521","wem/bandit_party_1","AGVIHLR1DX7","either","1","411","","","","","","","0","0","1","0.06156305515","","0.2","0.4","0.8","0.6","","","","","0.4618500418","0.2851241965","0.06526985361","0.06156305515","","","","","","","","","","76","L","3","","","4","main_expt",""
"","bandit","84","341088","0.0-46.0-0.0","15128521","wem/bandit_party_1","AGVIHLR1DX7","either","1","1557","","","","","","","0","0","1","","0.4488935273","0.2","0.4","0.8","0.6","0.4488935273","0.3172925843","0.05487735528","0.08141194251","","","","","","","","","","","","","","72","H","0","img/none_selected.jpg","","5","main_expt",""
"","bandit","85","343113","0.0-47.0-0.0","15128521","wem/bandit_party_1","AGVIHLR1DX7","either","1","507","","","","","","","0","0","1","0.04340015571","","0.2","0.4","0.8","0.6","","","","","0.4437832297","0.3319153021","0.04340015571","0.1104821702","","","","","","","","","","75","K","2","","","6","main_expt",""
"","bandit","86","345106","0.0-48.0-0.0","15128521","wem/bandit_party_1","AGVIHLR1DX7","either","1","480","","","","","","","0","1","0","","0.3553039772","0.2","0.4","0.8","0.6","0.4310077805","0.3553039772","0.04575060371","0.1191408541","","","","","","","","","","","","","","74","J","1","","","7","main_expt",""
"","bandit","87","346950","0.0-49.0-0.0","15128521","wem/bandit_party_1","AGVIHLR1DX7","either","1","327","","","","","","","0","1","0","","0.3868093767","0.2","0.4","0.8","0.6","0.4480386191","0.3868093767","0.06112087539","0.1517570037","","","","","","","","","","","","","","74","J","1","","","8","main_expt",""
"","bandit","88","348731","0.0-50.0-0.0","15128521","wem/bandit_party_1","AGVIHLR1DX7","either","1","265","","","","","","","0","0","1","","0.3754406694","0.2","0.4","0.8","0.6","0.4460224538","0.3754406694","0.07854191076","0.1738087075","","","","","","","","","","","","","","74","J","1","","","9","main_expt",""
"","bandit","89","350518","0.0-51.0-0.0","15128521","wem/bandit_party_1","AGVIHLR1DX7","either","1","270","","","","","","","0","0","1","","0.3537433427","0.2","0.4","0.8","0.6","0.3954493452","0.3537433427","0.06865483858","0.2033535465","","","","","","","","","","","","","","74","J","1","","","10","main_expt",""
"","bandit","90","352566","0.0-52.0-0.0","15128521","wem/bandit_party_1","AGVIHLR1DX7","either","1","536","","","","","","","0","1","0","","0.3793358735","0.2","0.4","0.8","0.6","0.4064238371","0.3793358735","0.05083805298","0.1751631116","","","","","","","","","","","","","","74","J","1","","","11","main_expt",""
"","bandit","91","354389","0.0-53.0-0.0","15128521","wem/bandit_party_1","AGVIHLR1DX7","either","1","308","","","","","","","0","1","0","","0.3800428212","0.2","0.4","0.8","0.6","0.3800839449","0.3800428212","0.1038792476","0.1787487179","","","","","","","","","","","","","","74","J","1","","","12","main_expt",""
"","bandit","92","356136","0.0-54.0-0.0","15128521","wem/bandit_party_1","AGVIHLR1DX7","either","1","224","","","","","","","0","1","0","","0.3647981021","0.2","0.4","0.8","0.6","0.3866628193","0.3647981021","0.1197284353","0.1794712961","","","","","","","","","","","","","","74","J","1","","","13","main_expt",""
"","bandit","93","357910","0.0-55.0-0.0","15128521","wem/bandit_party_1","AGVIHLR1DX7","either","1","259","","","","","","","0","1","0","","0.3646471907","0.2","0.4","0.8","0.6","0.326509825","0.3646471907","0.135681701","0.2482140722","","","","","","","","","","","","","","74","J","1","","","14","main_expt",""
"","bandit","94","359697","0.0-56.0-0.0","15128521","wem/bandit_party_1","AGVIHLR1DX7","either","1","274","","","","","","","1","0","0","0.3549291363","","0.2","0.4","0.8","0.6","","","","","0.2428529647","0.3549291363","0.125153919","0.2859415589","","","","","","","","","","74","J","1","","","15","main_expt",""
"","bandit","95","361275","0.0-57.0-0.0","15128521","wem/bandit_party_1","AGVIHLR1DX7","either","1","64","","","","","","","0","0","1","0.3727350689","","0.2","0.4","0.8","0.6","","","","","0.2332962783","0.3727350689","0.1096891688","0.26587149","","","","","","","","","","74","J","1","","","16","main_expt",""
"","bandit","96","363150","0.0-58.0-0.0","15128521","wem/bandit_party_1","AGVIHLR1DX7","either","1","359","","","","","","","0","0","1","","0.3112083829","0.2","0.4","0.8","0.6","0.2271032234","0.3112083829","0.1051581447","0.2776265896","","","","","","","","","","","","","","74","J","1","","","17","main_expt",""
"","bandit","97","364998","0.0-59.0-0.0","15128521","wem/bandit_party_1","AGVIHLR1DX7","either","1","334","","","","","","","0","0","1","0.2403081055","","0.2","0.4","0.8","0.6","","","","","0.1701710303","0.2403081055","0.1437943492","0.3223387563","","","","","","","","","","74","J","1","","","18","main_expt",""
"","bandit","98","367151","0.0-60.0-0.0","15128521","wem/bandit_party_1","AGVIHLR1DX7","either","1","638","","","","","","","0","0","1","","0.2377482675","0.2","0.4","0.8","0.6","0.2070198111","0.2377482675","0.1405615485","0.3192918255","","","","","","","","","","","","","","74","J","1","","","19","main_expt",""
"","bandit","99","368667","0.0-61.0-0.0","15128521","wem/bandit_party_1","AGVIHLR1DX7","either","1","1","","","","","","","0","0","1","0.1063334751","","0.2","0.4","0.8","0.6","","","","","0.2412547966","0.2607530295","0.1063334751","0.2739159796","","","","","","","","","","75","K","2","","","20","main_expt",""
"","bandit","100","370299","0.0-62.0-0.0","15128521","wem/bandit_party_1","AGVIHLR1DX7","either","1","117","","","","","","","0","0","1","","0.2454385858","0.2","0.4","0.8","0.6","0.2184758186","0.2919400674","0.07848250716","0.2454385858","","","","","","","","","","","","","","76","L","3","","","21","main_expt",""
"","bandit","101","372334","0.0-63.0-0.0","15128521","wem/bandit_party_1","AGVIHLR1DX7","either","1","520","","","","","","","0","1","0","","0.1849325376","0.2","0.4","0.8","0.6","0.1849325376","0.2995681058","0.1005082742","0.2340842041","","","","","","","","","","","","","","72","H","0","img/none_selected.jpg","","22","main_expt",""
"","bandit","102","374164","0.0-64.0-0.0","15128521","wem/bandit_party_1","AGVIHLR1DX7","either","1","314","","","","","","","0","0","1","0.1521197653","","0.2","0.4","0.8","0.6","","","","","0.1521197653","0.292554742","0.0792694407","0.1840173947","","","","","","","","","","72","H","0","img/none_selected.jpg","","23","main_expt",""
"","bandit","103","376025","0.0-65.0-0.0","15128521","wem/bandit_party_1","AGVIHLR1DX7","either","1","347","","","","","","","0","0","1","","0.1759403195","0.2","0.4","0.8","0.6","0.1759403195","0.3616894364","0.07358699385","0.1745529383","","","","","","","","","","","","","","72","H","0","img/none_selected.jpg","","24","main_expt",""
"","bandit","104","377868","0.0-66.0-0.0","15128521","wem/bandit_party_1","AGVIHLR1DX7","either","1","291","","","","","","","0","0","1","","0.09479311865","0.2","0.4","0.8","0.6","0.09479311865","0.3575757263","0.142208116","0.1756582033","","","","","","","","","","","","","","72","H","0","img/none_selected.jpg","","25","main_expt",""
"","bandit","105","379665","0.0-67.0-0.0","15128521","wem/bandit_party_1","AGVIHLR1DX7","either","1","282","","","","","","","0","0","1","","0.08156123497","0.2","0.4","0.8","0.6","0.08156123497","0.3635346368","0.1245113583","0.2086365416","","","","","","","","","","","","","","72","H","0","img/none_selected.jpg","","26","main_expt",""
"","bandit","106","381434","0.0-68.0-0.0","15128521","wem/bandit_party_1","AGVIHLR1DX7","either","1","255","","","","","","","0","0","1","0.118364605","","0.2","0.4","0.8","0.6","","","","","0.1102307873","0.4109801844","0.118364605","0.2139763749","","","","","","","","","","75","K","2","","","27","main_expt",""
"","bandit","107","383270","0.0-69.0-0.0","15128521","wem/bandit_party_1","AGVIHLR1DX7","either","1","309","","","","","","","0","0","1","0.1105930361","","0.2","0.4","0.8","0.6","","","","","0.08274430796","0.3772962545","0.1105930361","0.1613483267","","","","","","","","","","75","K","2","","","28","main_expt",""
"","bandit","108","385096","0.0-70.0-0.0","15128521","wem/bandit_party_1","AGVIHLR1DX7","either","1","312","","","","","","","0","0","1","","0.1712488152","0.2","0.4","0.8","0.6","0.1086911099","0.3875745016","0.1118713044","0.1712488152","","","","","","","","","","","","","","76","L","3","","","29","main_expt",""
"","bandit","109","387047","0.0-71.0-0.0","15128521","wem/bandit_party_1","AGVIHLR1DX7","either","1","436","","","","","","","0","0","1","","0.3780019893","0.2","0.4","0.8","0.6","0.1116575632","0.3780019893","0.1914750456","0.1675524316","","","","","","","","","","","","","","74","J","1","","","30","main_expt",""
"","bandit","110","388854","0.0-72.0-0.0","15128521","wem/bandit_party_1","AGVIHLR1DX7","either","1","294","","","","","","","0","0","1","0.140325158","","0.2","0.4","0.8","0.6","","","","","0.07828091442","0.416860241","0.2367730164","0.140325158","","","","","","","","","","76","L","3","","","31","main_expt",""
"","bandit","111","390596","0.0-73.0-0.0","15128521","wem/bandit_party_1","AGVIHLR1DX7","either","1","224","","","","","","","0","0","1","0.4242573056","","0.2","0.4","0.8","0.6","","","","","0.07550395781","0.4242573056","0.2109574779","0.1553940025","","","","","","","","","","74","J","1","","","32","main_expt",""
"","bandit","112","392390","0.0-74.0-0.0","15128521","wem/bandit_party_1","AGVIHLR1DX7","either","1","274","","","","","","","0","0","1","0.2005542758","","0.2","0.4","0.8","0.6","","","","","0.1445529326","0.4185546122","0.2005542758","0.1925614924","","","","","","","","","","75","K","2","","","33","main_expt",""
"","bandit","113","394172","0.0-75.0-0.0","15128521","wem/bandit_party_1","AGVIHLR1DX7","either","1","259","","","","","","","0","0","1","0.1091775744","","0.2","0.4","0.8","0.6","","","","","0.1091775744","0.4268308419","0.180377021","0.2150530123","","","","","","","","","","72","H","0","img/none_selected.jpg","","34","main_expt",""
"","bandit","114","395821","0.0-76.0-0.0","15128521","wem/bandit_party_1","AGVIHLR1DX7","either","1","133","","","","","","","0","0","1","","0.1297995116","0.2","0.4","0.8","0.6","0.1297995116","0.4265642185","0.2111187229","0.2688968874","","","","","","","","","","","","","","72","H","0","img/none_selected.jpg","","35","main_expt",""
"","bandit","115","397403","0.0-77.0-0.0","15128521","wem/bandit_party_1","AGVIHLR1DX7","either","1","61","","","","","","","0","0","1","","0.4066287969","0.2","0.4","0.8","0.6","0.09468550628","0.4066287969","0.2119332756","0.2977459964","","","","","","","","","","","","","","74","J","1","","","36","main_expt",""
"","bandit","116","399444","0.0-78.0-0.0","15128521","wem/bandit_party_1","AGVIHLR1DX7","either","1","528","","","","","","","0","0","1","0.2256131965","","0.2","0.4","0.8","0.6","","","","","0.09396978408","0.4611471687","0.2256131965","0.2684429955","","","","","","","","","","75","K","2","","","37","main_expt",""
"","bandit","117","401291","0.0-79.0-0.0","15128521","wem/bandit_party_1","AGVIHLR1DX7","either","1","333","","","","","","","0","0","1","0.2490186117","","0.2","0.4","0.8","0.6","","","","","0.1062257399","0.4482708269","0.1975147253","0.2490186117","","","","","","","","","","76","L","3","","","38","main_expt",""
"","bandit","118","403039","0.0-80.0-0.0","15128521","wem/bandit_party_1","AGVIHLR1DX7","either","1","231","","","","","","","1","0","0","0.2548033483","","0.2","0.4","0.8","0.6","","","","","0.09676453159","0.4402774387","0.1595648847","0.2548033483","","","","","","","","","","76","L","3","","","39","main_expt",""
"","bandit","119","404783","0.0-81.0-0.0","15128521","wem/bandit_party_1","AGVIHLR1DX7","either","1","230","","","","","","","0","1","0","","0.2688720753","0.2","0.4","0.8","0.6","0.08197179495","0.4385128538","0.1626610004","0.2688720753","","","","","","","","","","","","","","76","L","3","","","40","main_expt",""
"","bandit","120","406600","0.0-82.0-0.0","15128521","wem/bandit_party_1","AGVIHLR1DX7","either","1","301","","","","","","","0","0","1","0.297778532","","0.2","0.4","0.8","0.6","","","","","0.14416382","0.4380640779","0.1982402655","0.297778532","","","","","","","","","","76","L","3","","","41","main_expt",""
"","bandit","121","408199","0.0-83.0-0.0","15128521","wem/bandit_party_1","AGVIHLR1DX7","either","1","84","","","","","","","1","0","0","0.2449207522","","0.2","0.4","0.8","0.6","","","","","0.1070927036","0.4265224768","0.1863610343","0.2449207522","","","","","","","","","","76","L","3","","","42","main_expt",""
"","bandit","122","410100","0.0-84.0-0.0","15128521","wem/bandit_party_1","AGVIHLR1DX7","either","1","386","","","","","","","0","0","1","","0.2457567503","0.2","0.4","0.8","0.6","0.1214526226","0.435880106","0.2418389683","0.2457567503","","","","","","","","","","","","","","76","L","3","","","43","main_expt",""
"","bandit","123","411902","0.0-85.0-0.0","15128521","wem/bandit_party_1","AGVIHLR1DX7","either","1","282","","","","","","","0","1","0","","0.2432732657","0.2","0.4","0.8","0.6","0.1450738833","0.4450576882","0.1943491227","0.2432732657","","","","","","","","","","","","","","76","L","3","","","44","main_expt",""
"","bandit","124","413651","0.0-86.0-0.0","15128521","wem/bandit_party_1","AGVIHLR1DX7","either","1","234","","","","","","","0","0","1","0.2656772236","","0.2","0.4","0.8","0.6","","","","","0.09632230927","0.4382030275","0.1543250971","0.2656772236","","","","","","","","","","76","L","3","","","45","main_expt",""
"","bandit","125","415346","0.0-87.0-0.0","15128521","wem/bandit_party_1","AGVIHLR1DX7","either","1","176","","","","","","","0","0","1","0.2432112423","","0.2","0.4","0.8","0.6","","","","","0.103211431","0.4412369426","0.09719433791","0.2432112423","","","","","","","","","","76","L","3","","","46","main_expt",""
"","bandit","126","417112","0.0-88.0-0.0","15128521","wem/bandit_party_1","AGVIHLR1DX7","either","1","251","","","","","","","1","0","0","0.2992745976","","0.2","0.4","0.8","0.6","","","","","0.09916324924","0.4588863431","0.1228880329","0.2992745976","","","","","","","","","","76","L","3","","","47","main_expt",""
"","bandit","127","418863","0.0-89.0-0.0","15128521","wem/bandit_party_1","AGVIHLR1DX7","either","1","234","","","","","","","0","0","1","0.2594611615","","0.2","0.4","0.8","0.6","","","","","0.1090242341","0.4408788818","0.1068532567","0.2594611615","","","","","","","","","","76","L","3","","","48","main_expt",""
"","bandit","128","420598","0.0-90.0-0.0","15128521","wem/bandit_party_1","AGVIHLR1DX7","either","1","220","","","","","","","0","0","1","","0.2767916858","0.2","0.4","0.8","0.6","0.1265186769","0.4232064109","0.1044048509","0.2767916858","","","","","","","","","","","","","","76","L","3","","","49","main_expt",""
"","bandit","129","422389","0.0-91.0-0.0","15128521","wem/bandit_party_1","AGVIHLR1DX7","either","1","274","","","","","","","1","0","0","0.2762534014","","0.2","0.4","0.8","0.6","","","","","0.1397440907","0.4210883962","0.1072026782","0.2762534014","","","","","","","","","","76","L","3","","","50","main_expt",""
"","bandit","130","423982","0.0-92.0-0.0","15128521","wem/bandit_party_1","AGVIHLR1DX7","either","1","79","","","","","","","0","0","1","0.3379376541","","0.2","0.4","0.8","0.6","","","","","0.153600331","0.4225635581","0.1287882573","0.3379376541","","","","","","","","","","76","L","3","","","51","main_expt",""
"","bandit","131","425512","0.0-93.0-0.0","15128521","wem/bandit_party_1","AGVIHLR1DX7","either","1","16","","","","","","","0","0","1","0.3395267946","","0.2","0.4","0.8","0.6","","","","","0.1718407591","0.4146237098","0.1298059469","0.3395267946","","","","","","","","","","76","L","3","","","52","main_expt",""
"","bandit","132","427269","0.0-94.0-0.0","15128521","wem/bandit_party_1","AGVIHLR1DX7","either","1","238","","","","","","","1","0","0","0.29674647","","0.2","0.4","0.8","0.6","","","","","0.1945727614","0.3763623321","0.07423060895","0.29674647","","","","","","","","","","76","L","3","","","53","main_expt",""
"","bandit","133","429005","0.0-95.0-0.0","15128521","wem/bandit_party_1","AGVIHLR1DX7","either","1","221","","","","","","","0","0","1","","0.3372955831","0.2","0.4","0.8","0.6","0.2450542523","0.3289081181","0.08562383645","0.3372955831","","","","","","","","","","","","","","76","L","3","","","54","main_expt",""
"","bandit","134","430892","0.0-96.0-0.0","15128521","wem/bandit_party_1","AGVIHLR1DX7","either","1","309","","","","","","","0","0","1","0.3506099842","","0.2","0.4","0.8","0.6","","","","","0.2547241938","0.3025984711","0.0757818623","0.3506099842","","","","","","","","","","76","L","3","","","55","main_expt",""
"","bandit","135","432650","0.0-97.0-0.0","15128521","wem/bandit_party_1","AGVIHLR1DX7","either","1","244","","","","","","","0","0","1","0.3418029788","","0.2","0.4","0.8","0.6","","","","","0.2595112895","0.2921333137","0.09897923035","0.3418029788","","","","","","","","","","76","L","3","","","56","main_expt",""
"","bandit","136","434450","0.0-98.0-0.0","15128521","wem/bandit_party_1","AGVIHLR1DX7","either","1","286","","","","","","","0","0","1","0.1160875525","","0.2","0.4","0.8","0.6","","","","","0.2610276213","0.3317177772","0.1160875525","0.3162475816","","","","","","","","","","75","K","2","","","57","main_expt",""
"","bandit","137","436236","0.0-99.0-0.0","15128521","wem/bandit_party_1","AGVIHLR1DX7","either","1","270","","","","","","","0","0","1","0.1134641846","","0.2","0.4","0.8","0.6","","","","","0.2354201416","0.3240244649","0.1134641846","0.3269881105","","","","","","","","","","75","K","2","","","58","main_expt",""
"","bandit","138","438518","0.0-100.0-0.0","15128521","wem/bandit_party_1","AGVIHLR1DX7","either","1","763","","","","","","","0","1","0","","0.2988076671","0.2","0.4","0.8","0.6","0.2346370837","0.2988076671","0.1177083384","0.2901324944","","","","","","","","","","","","","","74","J","1","","","59","main_expt",""
"","bandit","139","440330","0.0-101.0-0.0","15128521","wem/bandit_party_1","AGVIHLR1DX7","either","1","296","","","","","","","0","0","1","","0.3096792726","0.2","0.4","0.8","0.6","0.2315637733","0.3096792726","0.1125723432","0.289588464","","","","","","","","","","","","","","74","J","1","","","60","main_expt",""
"","bandit","140","442280","0.0-102.0-0.0","15128521","wem/bandit_party_1","AGVIHLR1DX7","either","1","426","","","","","","","0","0","1","0.2821336973","","0.2","0.4","0.8","0.6","","","","","0.2599537756","0.2821336973","0.09911093426","0.2782845563","","","","","","","","","","74","J","1","","","61","main_expt",""
"","bandit","141","444060","0.0-103.0-0.0","15128521","wem/bandit_party_1","AGVIHLR1DX7","either","1","259","","","","","","","0","0","1","","0.2414244345","0.2","0.4","0.8","0.6","0.2594941563","0.2414244345","0.09440438105","0.3165490401","","","","","","","","","","","","","","74","J","1","","","62","main_expt",""
"","bandit","142","445783","0.0-104.0-0.0","15128521","wem/bandit_party_1","AGVIHLR1DX7","either","1","202","","","","","","","0","0","1","","0.2660839385","0.2","0.4","0.8","0.6","0.2660839385","0.213639373","0.1015409351","0.3034564924","","","","","","","","","","","","","","72","H","0","img/none_selected.jpg","","63","main_expt",""
"","bandit","143","447415","0.0-105.0-0.0","15128521","wem/bandit_party_1","AGVIHLR1DX7","either","1","116","","","","","","","0","0","1","0.07049798599","","0.2","0.4","0.8","0.6","","","","","0.2426585031","0.1876308072","0.07049798599","0.2506654962","","","","","","","","","","75","K","2","","","64","main_expt",""
"","bandit","144","449347","0.0-106.0-0.0","15128521","wem/bandit_party_1","AGVIHLR1DX7","either","1","417","","","","","","","0","0","1","","0.253414466","0.2","0.4","0.8","0.6","0.2581047566","0.1841803182","0.05735603507","0.253414466","","","","","","","","","","","","","","76","L","3","","","65","main_expt",""
"","bandit","145","450905","0.0-107.0-0.0","15128521","wem/bandit_party_1","AGVIHLR1DX7","either","1","40","","","","","","","1","0","0","0.2872127433","","0.2","0.4","0.8","0.6","","","","","0.2872127433","0.187417598","0.0621258055","0.2836500186","","","","","","","","","","72","H","0","img/none_selected.jpg","","66","main_expt",""
"","bandit","146","452563","0.0-108.0-0.0","15128521","wem/bandit_party_1","AGVIHLR1DX7","either","1","137","","","","","","","0","0","1","","0.3232337643","0.2","0.4","0.8","0.6","0.3232337643","0.1395950637","0.06966106928","0.3217852231","","","","","","","","","","","","","","72","H","0","img/none_selected.jpg","","67","main_expt",""
"","bandit","147","454402","0.0-109.0-0.0","15128521","wem/bandit_party_1","AGVIHLR1DX7","either","1","318","","","","","","","0","0","1","","0.3376006622","0.2","0.4","0.8","0.6","0.3376006622","0.1363519197","0.09965709916","0.3574581916","","","","","","","","","","","","","","72","H","0","img/none_selected.jpg","","68","main_expt",""
"","bandit","148","456172","0.0-110.0-0.0","15128521","wem/bandit_party_1","AGVIHLR1DX7","either","1","247","","","","","","","0","0","1","","0.2917609244","0.2","0.4","0.8","0.6","0.2917609244","0.1117144852","0.1428217854","0.3884563005","","","","","","","","","","","","","","72","H","0","img/none_selected.jpg","","69","main_expt",""
"","bandit","149","457986","0.0-111.0-0.0","15128521","wem/bandit_party_1","AGVIHLR1DX7","either","1","285","","","","","","","0","0","1","0.2218665627","","0.2","0.4","0.8","0.6","","","","","0.2218665627","0.09667493602","0.1866845388","0.3920047773","","","","","","","","","","72","H","0","img/none_selected.jpg","","70","main_expt",""
"","bandit","150","459793","0.0-112.0-0.0","15128521","wem/bandit_party_1","AGVIHLR1DX7","either","1","291","","","","","","","0","0","1","0.09186933139","","0.2","0.4","0.8","0.6","","","","","0.2409383839","0.09186933139","0.1702545286","0.4066376731","","","","","","","","","","74","J","1","","","71","main_expt",""
"","bandit","151","461616","0.0-113.0-0.0","15128521","wem/bandit_party_1","AGVIHLR1DX7","either","1","305","","","","","","","0","0","1","0.09472009463","","0.2","0.4","0.8","0.6","","","","","0.1920783453","0.09472009463","0.1836279043","0.3443789926","","","","","","","","","","74","J","1","","","72","main_expt",""
"","bandit","152","463491","0.0-114.0-0.0","15128521","wem/bandit_party_1","AGVIHLR1DX7","either","1","354","","","","","","","0","0","1","","0.1167805336","0.2","0.4","0.8","0.6","0.1905254877","0.1167805336","0.1644348242","0.3227553012","","","","","","","","","","","","","","74","J","1","","","73","main_expt",""
"","bandit","153","465489","0.0-115.0-0.0","15128521","wem/bandit_party_1","AGVIHLR1DX7","either","1","480","","","","","","","0","0","1","0.1833421201","","0.2","0.4","0.8","0.6","","","","","0.184198213","0.1465151254","0.1833421201","0.3336652139","","","","","","","","","","75","K","2","","","74","main_expt",""
"","bandit","154","467396","0.0-116.0-0.0","15128521","wem/bandit_party_1","AGVIHLR1DX7","either","1","365","","","","","","","0","0","1","0.1519653276","","0.2","0.4","0.8","0.6","","","","","0.1881920243","0.123285719","0.1519653276","0.2890150868","","","","","","","","","","75","K","2","","","75","main_expt",""
"","bandit","155","469217","0.0-117.0-0.0","15128521","wem/bandit_party_1","AGVIHLR1DX7","either","1","301","","","","","","","0","0","1","0.1506622639","","0.2","0.4","0.8","0.6","","","","","0.1988930589","0.1392606081","0.1506622639","0.2673490463","","","","","","","","","","75","K","2","","","76","main_expt",""
"","bandit","156","471032","0.0-118.0-0.0","15128521","wem/bandit_party_1","AGVIHLR1DX7","either","1","298","","","","","","","1","0","0","0.2858541315","","0.2","0.4","0.8","0.6","","","","","0.2255968657","0.099337717","0.1860897766","0.2858541315","","","","","","","","","","76","L","3","","","77","main_expt",""
"","bandit","157","472888","0.0-119.0-0.0","15128521","wem/bandit_party_1","AGVIHLR1DX7","either","1","297","","","","","","","0","0","1","","0.2639968829","0.2","0.4","0.8","0.6","0.1917014014","0.09666605973","0.1618556875","0.2639968829","","","","","","","","","","","","","","76","L","3","","","78","main_expt",""
"","bandit","158","474722","0.0-120.0-0.0","15128521","wem/bandit_party_1","AGVIHLR1DX7","either","1","319","","","","","","","0","0","1","0.2304888896","","0.2","0.4","0.8","0.6","","","","","0.2092129429","0.09639353985","0.1976853889","0.2304888896","","","","","","","","","","76","L","3","","","79","main_expt",""
"","bandit","159","476626","0.0-121.0-0.0","15128521","wem/bandit_party_1","AGVIHLR1DX7","either","1","387","","","","","","","1","0","0","0.1991809665","","0.2","0.4","0.8","0.6","","","","","0.1974306726","0.09566996791","0.2198838985","0.1991809665","","","","","","","","","","76","L","3","","","80","main_expt",""
"","bandit","160","478407","0.0-122.0-0.0","15128521","wem/bandit_party_1","AGVIHLR1DX7","either","1","262","","","","","","","1","0","0","0.1627434897","","0.2","0.4","0.8","0.6","","","","","0.1414754506","0.07958501382","0.2167005254","0.1627434897","","","","","","","","","","76","L","3","","","81","main_expt",""
"","bandit","161","480105","0.0-123.0-0.0","15128521","wem/bandit_party_1","AGVIHLR1DX7","either","1","178","","","","","","","0","0","1","0.1624637972","","0.2","0.4","0.8","0.6","","","","","0.1422587364","0.08833774835","0.2527486409","0.1624637972","","","","","","","","","","76","L","3","","","82","main_expt",""
"","bandit","162","481678","0.0-124.0-0.0","15128521","wem/bandit_party_1","AGVIHLR1DX7","either","1","49","","","","","","","0","0","1","","0.1900332","0.2","0.4","0.8","0.6","0.1079415531","0.09109006352","0.2569721607","0.1900332","","","","","","","","","","","","","","76","L","3","","","83","main_expt",""
"","bandit","163","483243","0.0-125.0-0.0","15128521","wem/bandit_party_1","AGVIHLR1DX7","either","1","40","","","","","","","1","0","0","0.1705646391","","0.2","0.4","0.8","0.6","","","","","0.07696487024","0.05321730921","0.2535394321","0.1705646391","","","","","","","","","","76","L","3","","","84","main_expt",""
"","bandit","164","485012","0.0-126.0-0.0","15128521","wem/bandit_party_1","AGVIHLR1DX7","either","1","247","","","","","","","0","0","1","","0.2053302659","0.2","0.4","0.8","0.6","0.08313016423","0.03321009489","0.2255799186","0.2053302659","","","","","","","","","","","","","","76","L","3","","","85","main_expt",""
"","bandit","165","486612","0.0-127.0-0.0","15128521","wem/bandit_party_1","AGVIHLR1DX7","either","1","81","","","","","","","0","0","1","0.2128685413","","0.2","0.4","0.8","0.6","","","","","0.102083396","0.04864990798","0.2197080914","0.2128685413","","","","","","","","","","76","L","3","","","86","main_expt",""
"","bandit","166","488559","0.0-128.0-0.0","15128521","wem/bandit_party_1","AGVIHLR1DX7","either","1","431","","","","","","","0","0","1","","0.213778815","0.2","0.4","0.8","0.6","0.09067070718","0.07919268752","0.2230338057","0.213778815","","","","","","","","","","","","","","76","L","3","","","87","main_expt",""
"","bandit","167","490238","0.0-129.0-0.0","15128521","wem/bandit_party_1","AGVIHLR1DX7","either","1","160","","","","","","","0","1","0","","0.2102340809","0.2","0.4","0.8","0.6","0.1421970704","0.05835116993","0.2484269739","0.2102340809","","","","","","","","","","","","","","76","L","3","","","88","main_expt",""
"","bandit","168","491969","0.0-130.0-0.0","15128521","wem/bandit_party_1","AGVIHLR1DX7","either","1","208","","","","","","","0","0","1","0.1809358483","","0.2","0.4","0.8","0.6","","","","","0.219142046","0.05115519592","0.2733562597","0.1809358483","","","","","","","","","","76","L","3","","","89","main_expt",""
"","bandit","169","493490","0.0-131.0-0.0","15128521","wem/bandit_party_1","AGVIHLR1DX7","either","1","1","","","","","","","0","0","1","0.1293356972","","0.2","0.4","0.8","0.6","","","","","0.2806923657","0.07819273649","0.2973868449","0.1293356972","","","","","","","","","","76","L","3","","","90","main_expt",""
"","bandit","170","495373","0.0-132.0-0.0","15128521","wem/bandit_party_1","AGVIHLR1DX7","either","1","362","","","","","","","0","0","1","0.3067689268","","0.2","0.4","0.8","0.6","","","","","0.2819660137","0.05564661524","0.3067689268","0.1136224352","","","","","","","","","","75","K","2","","","91","main_expt",""
"","bandit","171","497298","0.0-133.0-0.0","15128521","wem/bandit_party_1","AGVIHLR1DX7","either","1","409","","","","","","","0","0","1","","0.05914103421","0.2","0.4","0.8","0.6","0.3370305887","0.05914103421","0.2719776188","0.07539152519","","","","","","","","","","","","","","74","J","1","","","92","main_expt",""
"","bandit","172","499185","0.0-134.0-0.0","15128521","wem/bandit_party_1","AGVIHLR1DX7","either","1","360","","","","","","","0","0","1","","0.3722719914","0.2","0.4","0.8","0.6","0.3722719914","0.03944324463","0.3081791896","0.08243558305","","","","","","","","","","","","","","72","H","0","img/none_selected.jpg","","93","main_expt",""
"","bandit","173","500840","0.0-135.0-0.0","15128521","wem/bandit_party_1","AGVIHLR1DX7","either","1","125","","","","","","","0","0","1","","0.09807673793","0.2","0.4","0.8","0.6","0.3840030774","0.05023017475","0.356667856","0.09807673793","","","","","","","","","","","","","","76","L","3","","","94","main_expt",""
"","bandit","174","502625","0.0-136.0-0.0","15128521","wem/bandit_party_1","AGVIHLR1DX7","either","1","266","","","","","","","0","0","1","","0.09746204728","0.2","0.4","0.8","0.6","0.4050844552","0.07311956304","0.3300765204","0.09746204728","","","","","","","","","","","","","","76","L","3","","","95","main_expt",""
"","bandit","175","504373","0.0-137.0-0.0","15128521","wem/bandit_party_1","AGVIHLR1DX7","either","1","230","","","","","","","0","0","1","0.3642735905","","0.2","0.4","0.8","0.6","","","","","0.4081076376","0.09573717159","0.3642735905","0.08559835745","","","","","","","","","","75","K","2","","","96","main_expt",""
"","bandit","176","506090","0.0-138.0-0.0","15128521","wem/bandit_party_1","AGVIHLR1DX7","either","1","198","","","","","","","1","0","0","0.3885664579","","0.2","0.4","0.8","0.6","","","","","0.4142780263","0.1235519285","0.3885664579","0.0732645996","","","","","","","","","","75","K","2","","","97","main_expt",""
"","bandit","177","507890","0.0-139.0-0.0","15128521","wem/bandit_party_1","AGVIHLR1DX7","either","1","283","","","","","","","0","0","1","0.4162912028","","0.2","0.4","0.8","0.6","","","","","0.4131193208","0.1274282425","0.4162912028","0.05343209845","","","","","","","","","","75","K","2","","","98","main_expt",""
"","bandit","178","509704","0.0-140.0-0.0","15128521","wem/bandit_party_1","AGVIHLR1DX7","either","1","293","","","","","","","0","0","1","","0.4074153657","0.2","0.4","0.8","0.6","0.428944851","0.1457321849","0.4074153657","0.05144299931","","","","","","","","","","","","","","75","K","2","","","99","main_expt",""
"","bandit","179","511568","0.0-141.0-0.0","15128521","wem/bandit_party_1","AGVIHLR1DX7","either","1","342","","","","","","","0","0","1","","0.3349137267","0.2","0.4","0.8","0.6","0.4279797645","0.1492128348","0.3349137267","0.03934302155","","","","","","","","","","","","","","75","K","2","","","100","main_expt",""
"","bandit","180","513387","0.0-142.0-0.0","15128521","wem/bandit_party_1","AGVIHLR1DX7","either","1","298","","","","","","","0","0","1","","0.125019219","0.2","0.4","0.8","0.6","0.4189249443","0.125019219","0.2732947861","0.05783306622","","","","","","","","","","","","","","74","J","1","","","101","main_expt",""
"","bandit","181","515204","0.0-143.0-0.0","15128521","wem/bandit_party_1","AGVIHLR1DX7","either","1","298","","","","","","","0","0","1","0.1008510245","","0.2","0.4","0.8","0.6","","","","","0.4279241466","0.1008510245","0.2584454073","0.06484492547","","","","","","","","","","74","J","1","","","102","main_expt",""
"","bandit","182","517065","0.0-144.0-0.0","15128521","wem/bandit_party_1","AGVIHLR1DX7","either","1","340","","","","","","","0","1","0","","0.419390052","0.2","0.4","0.8","0.6","0.419390052","0.1087281004","0.2143891894","0.0701259157","","","","","","","","","","","","","","72","H","0","img/none_selected.jpg","","103","main_expt",""
"","bandit","183","518872","0.0-145.0-0.0","15128521","wem/bandit_party_1","AGVIHLR1DX7","either","1","289","","","","","","","0","1","0","","0.3761202226","0.2","0.4","0.8","0.6","0.3761202226","0.143855427","0.1354346047","0.06922647753","","","","","","","","","","","","","","72","H","0","img/none_selected.jpg","","104","main_expt",""
"","bandit","184","520652","0.0-146.0-0.0","15128521","wem/bandit_party_1","AGVIHLR1DX7","either","1","261","","","","","","","0","0","1","","0.4229881466","0.2","0.4","0.8","0.6","0.4229881466","0.1606853024","0.1615963473","0.07802312096","","","","","","","","","","","","","","72","H","0","img/none_selected.jpg","","105","main_expt",""
"","bandit","185","522456","0.0-147.0-0.0","15128521","wem/bandit_party_1","AGVIHLR1DX7","either","1","283","","","","","","","0","0","1","","0.4110558218","0.2","0.4","0.8","0.6","0.4110558218","0.1612939645","0.1738621023","0.08930313369","","","","","","","","","","","","","","72","H","0","img/none_selected.jpg","","106","main_expt",""
"","bandit","186","524301","0.0-148.0-0.0","15128521","wem/bandit_party_1","AGVIHLR1DX7","either","1","321","","","","","","","0","1","0","","0.4176599015","0.2","0.4","0.8","0.6","0.4176599015","0.1778053335","0.1799671425","0.1397733654","","","","","","","","","","","","","","72","H","0","img/none_selected.jpg","","107","main_expt",""
"","bandit","187","525964","0.0-149.0-0.0","15128521","wem/bandit_party_1","AGVIHLR1DX7","either","1","143","","","","","","","0","1","0","","0.4210396584","0.2","0.4","0.8","0.6","0.4210396584","0.1826465361","0.1844274074","0.1505899732","","","","","","","","","","","","","","72","H","0","img/none_selected.jpg","","108","main_expt",""
"","bandit","188","527612","0.0-150.0-0.0","15128521","wem/bandit_party_1","AGVIHLR1DX7","either","1","129","","","","","","","0","0","1","0.4328015469","","0.2","0.4","0.8","0.6","","","","","0.4328015469","0.1737022726","0.1702708828","0.1162436109","","","","","","","","","","72","H","0","img/none_selected.jpg","","109","main_expt",""
"","bandit","189","529217","0.0-151.0-0.0","15128521","wem/bandit_party_1","AGVIHLR1DX7","either","1","86","","","","","","","0","1","0","","0.4495585744","0.2","0.4","0.8","0.6","0.4495585744","0.1658344406","0.1964407335","0.08267976014","","","","","","","","","","","","","","72","H","0","img/none_selected.jpg","","110","main_expt",""
"","bandit","190","530967","0.0-152.0-0.0","15128521","wem/bandit_party_1","AGVIHLR1DX7","either","1","232","","","","","","","0","0","1","","0.4237631325","0.2","0.4","0.8","0.6","0.4237631325","0.240619448","0.1777579569","0.09389793805","","","","","","","","","","","","","","72","H","0","img/none_selected.jpg","","111","main_expt",""
"","bandit","191","532756","0.0-153.0-0.0","15128521","wem/bandit_party_1","AGVIHLR1DX7","either","1","271","","","","","","","0","0","1","","0.4521571561","0.2","0.4","0.8","0.6","0.4521571561","0.1927397719","0.1395994444","0.07903418564","","","","","","","","","","","","","","72","H","0","img/none_selected.jpg","","112","main_expt",""
"","bandit","192","534371","0.0-154.0-0.0","15128521","wem/bandit_party_1","AGVIHLR1DX7","either","1","92","","","","","","","0","1","0","","0.4350762846","0.2","0.4","0.8","0.6","0.4350762846","0.234725565","0.1205999431","0.05501139052","","","","","","","","","","","","","","72","H","0","img/none_selected.jpg","","113","main_expt",""
"","bandit","193","536399","0.0-155.0-0.0","15128521","wem/bandit_party_1","AGVIHLR1DX7","either","1","505","","","","","","","0","0","1","0.4315824664","","0.2","0.4","0.8","0.6","","","","","0.4315824664","0.1950215869","0.09123355482","0.07627702456","","","","","","","","","","72","H","0","img/none_selected.jpg","","114","main_expt",""
"","bandit","194","538214","0.0-156.0-0.0","15128521","wem/bandit_party_1","AGVIHLR1DX7","either","1","282","","","","","","","0","1","0","","0.4127349624","0.2","0.4","0.8","0.6","0.4127349624","0.2575833325","0.09554471192","0.03985247356","","","","","","","","","","","","","","72","H","0","img/none_selected.jpg","","115","main_expt",""
"","bandit","195","539970","0.0-157.0-0.0","15128521","wem/bandit_party_1","AGVIHLR1DX7","either","1","225","","","","","","","0","0","1","","0.4468356006","0.2","0.4","0.8","0.6","0.4468356006","0.2296468005","0.1942182492","0.0683792979","","","","","","","","","","","","","","72","H","0","img/none_selected.jpg","","116","main_expt",""
"","bandit","196","541773","0.0-158.0-0.0","15128521","wem/bandit_party_1","AGVIHLR1DX7","either","1","285","","","","","","","0","0","1","","0.4458703805","0.2","0.4","0.8","0.6","0.4458703805","0.2816483341","0.2208250117","0.03956212276","","","","","","","","","","","","","","72","H","0","img/none_selected.jpg","","117","main_expt",""
"","bandit","197","543587","0.0-159.0-0.0","15128521","wem/bandit_party_1","AGVIHLR1DX7","either","1","293","","","","","","","0","1","0","","0.4500370674","0.2","0.4","0.8","0.6","0.4500370674","0.2626769985","0.1687975443","0.04459229253","","","","","","","","","","","","","","72","H","0","img/none_selected.jpg","","118","main_expt",""
"","bandit","198","545329","0.0-160.0-0.0","15128521","wem/bandit_party_1","AGVIHLR1DX7","either","1","224","","","","","","","0","1","0","","0.4704359259","0.2","0.4","0.8","0.6","0.4704359259","0.2418090277","0.1546105485","0.03386957434","","","","","","","","","","","","","","72","H","0","img/none_selected.jpg","","119","main_expt",""
"","bandit","199","547069","0.0-161.0-0.0","15128521","wem/bandit_party_1","AGVIHLR1DX7","either","1","219","","","","","","","0","0","1","0.4578798539","","0.2","0.4","0.8","0.6","","","","","0.4578798539","0.2603236095","0.143668411","0.03305427522","","","","","","","","","","72","H","0","img/none_selected.jpg","","120","main_expt",""
"","bandit","200","548892","0.0-162.0-0.0","15128521","wem/bandit_party_1","AGVIHLR1DX7","either","1","301","","","","","","","0","0","1","0.4591190262","","0.2","0.4","0.8","0.6","","","","","0.4591190262","0.2381785671","0.1098317425","0.03146098963","","","","","","","","","","72","H","0","img/none_selected.jpg","","121","main_expt",""
"","bandit","201","550703","0.0-163.0-0.0","15128521","wem/bandit_party_1","AGVIHLR1DX7","either","1","290","","","","","","","0","0","1","","0.4643737298","0.2","0.4","0.8","0.6","0.4643737298","0.2388462554","0.1097832873","0.02311797033","","","","","","","","","","","","","","72","H","0","img/none_selected.jpg","","122","main_expt",""
"","bandit","202","552467","0.0-164.0-0.0","15128521","wem/bandit_party_1","AGVIHLR1DX7","either","1","243","","","","","","","0","0","1","0.451586091","","0.2","0.4","0.8","0.6","","","","","0.451586091","0.2079929623","0.1145900252","0.0171261738","","","","","","","","","","72","H","0","img/none_selected.jpg","","123","main_expt",""
"","bandit","203","554254","0.0-165.0-0.0","15128521","wem/bandit_party_1","AGVIHLR1DX7","either","1","257","","","","","","","0","1","0","","0.4456906556","0.2","0.4","0.8","0.6","0.4456906556","0.2148400852","0.1137783892","0.03468299263","","","","","","","","","","","","","","72","H","0","img/none_selected.jpg","","124","main_expt",""
"","bandit","204","555898","0.0-166.0-0.0","15128521","wem/bandit_party_1","AGVIHLR1DX7","either","1","122","","","","","","","0","0","1","","0.4240876494","0.2","0.4","0.8","0.6","0.4240876494","0.2185056602","0.145605256","0.02544516396","","","","","","","","","","","","","","72","H","0","img/none_selected.jpg","","125","main_expt",""
"","bandit","205","557797","0.0-167.0-0.0","15128521","wem/bandit_party_1","AGVIHLR1DX7","either","1","379","","","","","","","0","0","1","","0.4008501573","0.2","0.4","0.8","0.6","0.4008501573","0.2152323899","0.1443839055","0.03059506073","","","","","","","","","","","","","","72","H","0","img/none_selected.jpg","","126","main_expt",""
"","bandit","206","559590","0.0-168.0-0.0","15128521","wem/bandit_party_1","AGVIHLR1DX7","either","1","274","","","","","","","0","0","1","","0.4066073101","0.2","0.4","0.8","0.6","0.4066073101","0.1699446714","0.1434222382","0.0339638967","","","","","","","","","","","","","","72","H","0","img/none_selected.jpg","","127","main_expt",""
"","bandit","207","561280","0.0-169.0-0.0","15128521","wem/bandit_party_1","AGVIHLR1DX7","either","1","168","","","","","","","0","0","1","","0.4270302575","0.2","0.4","0.8","0.6","0.4270302575","0.1299446217","0.1412168693","0.02632978063","","","","","","","","","","","","","","72","H","0","img/none_selected.jpg","","128","main_expt",""
"","bandit","208","562981","0.0-170.0-0.0","15128521","wem/bandit_party_1","AGVIHLR1DX7","either","1","182","","","","","","","0","0","1","","0.1299487573","0.2","0.4","0.8","0.6","0.4401824822","0.1299487573","0.1086871361","0.02640977482","","","","","","","","","","","","","","74","J","1","","","129","main_expt",""
"","bandit","209","564877","0.0-171.0-0.0","15128521","wem/bandit_party_1","AGVIHLR1DX7","either","1","373","","","","","","","0","0","1","","0.1672766288","0.2","0.4","0.8","0.6","0.4160959849","0.1172580566","0.1672766288","0.03646961518","","","","","","","","","","","","","","75","K","2","","","130","main_expt",""
"","bandit","210","566694","0.0-172.0-0.0","15128521","wem/bandit_party_1","AGVIHLR1DX7","either","1","297","","","","","","","0","0","1","0.02171712127","","0.2","0.4","0.8","0.6","","","","","0.4374535298","0.1289979545","0.157110596","0.02171712127","","","","","","","","","","76","L","3","","","131","main_expt",""
"","bandit","211","568549","0.0-173.0-0.0","15128521","wem/bandit_party_1","AGVIHLR1DX7","either","1","336","","","","","","","0","0","1","0.01004766493","","0.2","0.4","0.8","0.6","","","","","0.4382483821","0.1243754988","0.1338697581","0.01004766493","","","","","","","","","","76","L","3","","","132","main_expt",""
"","bandit","212","570385","0.0-174.0-0.0","15128521","wem/bandit_party_1","AGVIHLR1DX7","either","1","313","","","","","","","0","0","1","","0.005153708139","0.2","0.4","0.8","0.6","0.3913946914","0.1189203389","0.1101669797","0.005153708139","","","","","","","","","","","","","","76","L","3","","","133","main_expt",""
"","bandit","213","572276","0.0-175.0-0.0","15128521","wem/bandit_party_1","AGVIHLR1DX7","either","1","367","","","","","","","0","1","0","","0.4280120537","0.2","0.4","0.8","0.6","0.4280120537","0.07075860378","0.060775537","0.01308543257","","","","","","","","","","","","","","72","H","0","img/none_selected.jpg","","134","main_expt",""
"","bandit","214","573935","0.0-176.0-0.0","15128521","wem/bandit_party_1","AGVIHLR1DX7","either","1","134","","","","","","","1","0","0","0.4385213509","","0.2","0.4","0.8","0.6","","","","","0.4385213509","0.1073185777","0.0714416082","0.02634180281","","","","","","","","","","72","H","0","img/none_selected.jpg","","135","main_expt",""
"","bandit","215","575859","0.0-177.0-0.0","15128521","wem/bandit_party_1","AGVIHLR1DX7","either","1","403","","","","","","","0","0","1","0.4605212521","","0.2","0.4","0.8","0.6","","","","","0.4605212521","0.1001442491","0.1115096907","0.04122629063","","","","","","","","","","72","H","0","img/none_selected.jpg","","136","main_expt",""
"","bandit","216","577654","0.0-178.0-0.0","15128521","wem/bandit_party_1","AGVIHLR1DX7","either","1","273","","","","","","","0","0","1","","0.4729500637","0.2","0.4","0.8","0.6","0.4729500637","0.1736681681","0.1307091067","0.05517648788","","","","","","","","","","","","","","72","H","0","img/none_selected.jpg","","137","main_expt",""
"","bandit","217","579502","0.0-179.0-0.0","15128521","wem/bandit_party_1","AGVIHLR1DX7","either","1","326","","","","","","","0","1","0","","0.4705425907","0.2","0.4","0.8","0.6","0.4705425907","0.1839908368","0.1289533412","0.05929415862","","","","","","","","","","","","","","72","H","0","img/none_selected.jpg","","138","main_expt",""
"","bandit","218","581300","0.0-180.0-0.0","15128521","wem/bandit_party_1","AGVIHLR1DX7","either","1","277","","","","","","","0","0","1","0.465423541","","0.2","0.4","0.8","0.6","","","","","0.465423541","0.1500833973","0.1215972271","0.05470710098","","","","","","","","","","72","H","0","img/none_selected.jpg","","139","main_expt",""
"","bandit","219","583113","0.0-181.0-0.0","15128521","wem/bandit_party_1","AGVIHLR1DX7","either","1","287","","","","","","","1","0","0","0.4486857012","","0.2","0.4","0.8","0.6","","","","","0.4486857012","0.1718879457","0.1158179575","0.06062538604","","","","","","","","","","72","H","0","img/none_selected.jpg","","140","main_expt",""
"","bandit","220","584785","0.0-182.0-0.0","15128521","wem/bandit_party_1","AGVIHLR1DX7","either","1","143","","","","","","","0","0","1","0.4053061298","","0.2","0.4","0.8","0.6","","","","","0.4053061298","0.2025036279","0.08691297649","0.05819772386","","","","","","","","","","72","H","0","img/none_selected.jpg","","141","main_expt",""
"","bandit","221","586558","0.0-183.0-0.0","15128521","wem/bandit_party_1","AGVIHLR1DX7","either","1","255","","","","","","","0","0","1","0.3989731656","","0.2","0.4","0.8","0.6","","","","","0.3989731656","0.1872564568","0.1425267255","0.05329701838","","","","","","","","","","72","H","0","img/none_selected.jpg","","142","main_expt",""
"","bandit","222","588349","0.0-184.0-0.0","15128521","wem/bandit_party_1","AGVIHLR1DX7","either","1","271","","","","","","","0","1","0","","0.3783570596","0.2","0.4","0.8","0.6","0.3783570596","0.1676641842","0.1425141192","0.06209903385","","","","","","","","","","","","","","72","H","0","img/none_selected.jpg","","143","main_expt",""
"","bandit","223","590130","0.0-185.0-0.0","15128521","wem/bandit_party_1","AGVIHLR1DX7","either","1","263","","","","","","","1","0","0","0.3485663762","","0.2","0.4","0.8","0.6","","","","","0.3485663762","0.1502987652","0.1362652721","0.06954729647","","","","","","","","","","72","H","0","img/none_selected.jpg","","144","main_expt",""
"","bandit","224","591777","0.0-186.0-0.0","15128521","wem/bandit_party_1","AGVIHLR1DX7","either","1","127","","","","","","","0","1","0","","0.3534190037","0.2","0.4","0.8","0.6","0.3534190037","0.1050568962","0.1335650053","0.062760129","","","","","","","","","","","","","","72","H","0","img/none_selected.jpg","","145","main_expt",""
"","bandit","225","593446","0.0-187.0-0.0","15128521","wem/bandit_party_1","AGVIHLR1DX7","either","1","140","","","","","","","0","0","1","","0.342282706","0.2","0.4","0.8","0.6","0.342282706","0.1266784727","0.1392461982","0.05014677947","","","","","","","","","","","","","","72","H","0","img/none_selected.jpg","","146","main_expt",""
"","bandit","226","595203","0.0-188.0-0.0","15128521","wem/bandit_party_1","AGVIHLR1DX7","either","1","237","","","","","","","0","0","1","","0.3497384939","0.2","0.4","0.8","0.6","0.3497384939","0.1121887101","0.1060810453","0.04801868921","","","","","","","","","","","","","","72","H","0","img/none_selected.jpg","","147","main_expt",""
"","bandit","227","597001","0.0-189.0-0.0","15128521","wem/bandit_party_1","AGVIHLR1DX7","either","1","277","","","","","","","0","0","1","0.3507348305","","0.2","0.4","0.8","0.6","","","","","0.3507348305","0.1050077765","0.1076054289","0.05298179562","","","","","","","","","","72","H","0","img/none_selected.jpg","","148","main_expt",""
"","bandit","228","598839","0.0-190.0-0.0","15128521","wem/bandit_party_1","AGVIHLR1DX7","either","1","315","","","","","","","0","1","0","","0.306786392","0.2","0.4","0.8","0.6","0.306786392","0.08725679698","0.09143227578","0.05271587927","","","","","","","","","","","","","","72","H","0","img/none_selected.jpg","","149","main_expt",""
"","bandit","229","600654","0.0-191.0-0.0","15128521","wem/bandit_party_1","AGVIHLR1DX7","either","1","291","","","","","","","0","0","1","","0.3289077467","0.2","0.4","0.8","0.6","0.3289077467","0.04813781364","0.08361181256","0.06153260368","","","","","","","","","","","","","","72","H","0","img/none_selected.jpg","","150","main_expt",""
"","bandit","230","602378","0.0-192.0-0.0","15128521","wem/bandit_party_1","AGVIHLR1DX7","either","1","203","","","","","","","0","0","1","0.2844912386","","0.2","0.4","0.8","0.6","","","","","0.2844912386","0.04690393958","0.1038450747","0.07716317934","","","","","","","","","","72","H","0","img/none_selected.jpg","","151","main_expt",""
"","bandit","231","603956","0.0-193.0-0.0","15128521","wem/bandit_party_1","AGVIHLR1DX7","either","1","53","","","","","","","0","0","1","","0.3221551402","0.2","0.4","0.8","0.6","0.3221551402","0.05051779207","0.1311897928","0.08370894892","","","","","","","","","","","","","","72","H","0","img/none_selected.jpg","","152","main_expt",""
"","bandit","232","605653","0.0-194.0-0.0","15128521","wem/bandit_party_1","AGVIHLR1DX7","either","1","178","","","","","","","0","0","1","","0.288581716","0.2","0.4","0.8","0.6","0.288581716","0.0417019452","0.1106636196","0.06235129306","","","","","","","","","","","","","","72","H","0","img/none_selected.jpg","","153","main_expt",""
"","bandit","233","607415","0.0-195.0-0.0","15128521","wem/bandit_party_1","AGVIHLR1DX7","either","1","236","","","","","","","0","0","1","","0.3674714493","0.2","0.4","0.8","0.6","0.3674714493","0.04565059468","0.08044616817","0.08808261531","","","","","","","","","","","","","","72","H","0","img/none_selected.jpg","","154","main_expt",""
"","bandit","234","608939","0.0-196.0-0.0","15128521","wem/bandit_party_1","AGVIHLR1DX7","either","1","2","","","","","","","0","0","1","","0.3836765626","0.2","0.4","0.8","0.6","0.3836765626","0.0249337719","0.09849608375","0.08415746701","","","","","","","","","","","","","","72","H","0","img/none_selected.jpg","","155","main_expt",""
"","bandit","235","610493","0.0-197.0-0.0","15128521","wem/bandit_party_1","AGVIHLR1DX7","either","1","34","","","","","","","0","0","1","","0.3499766022","0.2","0.4","0.8","0.6","0.3499766022","0.0207568711","0.0679626842","0.1363215429","","","","","","","","","","","","","","72","H","0","img/none_selected.jpg","","156","main_expt",""
"","bandit","236","612471","0.0-198.0-0.0","15128521","wem/bandit_party_1","AGVIHLR1DX7","either","1","457","","","","","","","0","1","0","","0.3083455354","0.2","0.4","0.8","0.6","0.3083455354","0.01044871803","0.06316877849","0.176329139","","","","","","","","","","","","","","72","H","0","img/none_selected.jpg","","157","main_expt",""
"","bandit","237","614270","0.0-199.0-0.0","15128521","wem/bandit_party_1","AGVIHLR1DX7","either","1","275","","","","","","","0","1","0","","0.2780985587","0.2","0.4","0.8","0.6","0.2780985587","0.008486032171","0.06381796224","0.2239815039","","","","","","","","","","","","","","72","H","0","img/none_selected.jpg","","158","main_expt",""
"","bandit","238","616046","0.0-200.0-0.0","15128521","wem/bandit_party_1","AGVIHLR1DX7","either","1","254","","","","","","","0","0","1","","0.2721424699","0.2","0.4","0.8","0.6","0.2721424699","0.006770001311","0.09986374221","0.1754735631","","","","","","","","","","","","","","72","H","0","img/none_selected.jpg","","159","main_expt",""
"","bandit","239","617888","0.0-201.0-0.0","15128521","wem/bandit_party_1","AGVIHLR1DX7","either","1","319","","","","","","","0","0","1","","0.3005636977","0.2","0.4","0.8","0.6","0.3005636977","0.005009972043","0.08334790929","0.1820859676","","","","","","","","","","","","","","72","H","0","img/none_selected.jpg","","160","main_expt",""
"","bandit","240","619647","0.0-202.0-0.0","15128521","wem/bandit_party_1","AGVIHLR1DX7","either","1","235","","","","","","","0","0","1","","0.2481613967","0.2","0.4","0.8","0.6","0.2481613967","0.003825417776","0.1094566723","0.1771527669","","","","","","","","","","","","","","72","H","0","img/none_selected.jpg","","161","main_expt",""
"","bandit","241","621286","0.0-203.0-0.0","15128521","wem/bandit_party_1","AGVIHLR1DX7","either","1","114","","","","","","","0","0","1","","0.2040880477","0.2","0.4","0.8","0.6","0.2040880477","0.006458278423","0.1287108975","0.209245514","","","","","","","","","","","","","","72","H","0","img/none_selected.jpg","","162","main_expt",""
"","bandit","242","622880","0.0-204.0-0.0","15128521","wem/bandit_party_1","AGVIHLR1DX7","either","1","72","","","","","","","0","0","1","0.01344146107","","0.2","0.4","0.8","0.6","","","","","0.256608811","0.01344146107","0.1811808859","0.1864252411","","","","","","","","","","74","J","1","","","163","main_expt",""
"","bandit","243","624615","0.0-205.0-0.0","15128521","wem/bandit_party_1","AGVIHLR1DX7","either","1","210","","","","","","","0","0","1","","0.1374611454","0.2","0.4","0.8","0.6","0.2798468236","0.004940614731","0.1374611454","0.1662237337","","","","","","","","","","","","","","75","K","2","","","164","main_expt",""
"","bandit","244","626357","0.0-206.0-0.0","15128521","wem/bandit_party_1","AGVIHLR1DX7","either","1","219","","","","","","","0","0","1","","0.1375661656","0.2","0.4","0.8","0.6","0.2689568899","0.007349038951","0.1640313333","0.1375661656","","","","","","","","","","","","","","76","L","3","","","165","main_expt",""
"","bandit","245","628098","0.0-207.0-0.0","15128521","wem/bandit_party_1","AGVIHLR1DX7","either","1","215","","","","","","","0","1","0","","0.2786045926","0.2","0.4","0.8","0.6","0.2786045926","0.005679103294","0.20052236","0.1416727521","","","","","","","","","","","","","","72","H","0","img/none_selected.jpg","","166","main_expt",""
"","bandit","246","629760","0.0-208.0-0.0","15128521","wem/bandit_party_1","AGVIHLR1DX7","either","1","141","","","","","","","0","1","0","","0.2507583434","0.2","0.4","0.8","0.6","0.2507583434","0.004037182679","0.1945206589","0.1497541138","","","","","","","","","","","","","","72","H","0","img/none_selected.jpg","","167","main_expt",""
"","bandit","247","631452","0.0-209.0-0.0","15128521","wem/bandit_party_1","AGVIHLR1DX7","either","1","171","","","","","","","0","0","1","","0.1827624484","0.2","0.4","0.8","0.6","0.1827624484","0.007111326723","0.1902154162","0.1761460581","","","","","","","","","","","","","","72","H","0","img/none_selected.jpg","","168","main_expt",""
"","bandit","248","633267","0.0-210.0-0.0","15128521","wem/bandit_party_1","AGVIHLR1DX7","either","1","288","","","","","","","0","0","1","0.1558723634","","0.2","0.4","0.8","0.6","","","","","0.1558723634","0.01708305062","0.1931964682","0.2248215173","","","","","","","","","","72","H","0","img/none_selected.jpg","","169","main_expt",""
"","bandit","249","634853","0.0-211.0-0.0","15128521","wem/bandit_party_1","AGVIHLR1DX7","either","1","58","","","","","","","0","0","1","","0.1757164868","0.2","0.4","0.8","0.6","0.1757164868","0.02105388628","0.236179436","0.2503105048","","","","","","","","","","","","","","72","H","0","img/none_selected.jpg","","170","main_expt",""
"","bandit","250","636466","0.0-212.0-0.0","15128521","wem/bandit_party_1","AGVIHLR1DX7","either","1","89","","","","","","","0","0","1","","0.1985597056","0.2","0.4","0.8","0.6","0.1985597056","0.01477187034","0.2229285478","0.2515708499","","","","","","","","","","","","","","72","H","0","img/none_selected.jpg","","171","main_expt",""
"","bandit","251","637993","0.0-213.0-0.0","15128521","wem/bandit_party_1","AGVIHLR1DX7","either","1","2","","","","","","","0","0","1","","0.1725269859","0.2","0.4","0.8","0.6","0.1725269859","0.00639283578","0.1805811295","0.2601117771","","","","","","","","","","","","","","72","H","0","img/none_selected.jpg","","172","main_expt",""
"","bandit","252","639598","0.0-214.0-0.0","15128521","wem/bandit_party_1","AGVIHLR1DX7","either","1","81","","","","","","","0","0","1","","0.1955807132","0.2","0.4","0.8","0.6","0.1955807132","0.008503536177","0.2203049146","0.2277859889","","","","","","","","","","","","","","72","H","0","img/none_selected.jpg","","173","main_expt",""
"","bandit","253","641466","0.0-215.0-0.0","15128521","wem/bandit_party_1","AGVIHLR1DX7","either","1","346","","","","","","","0","0","1","0.01512836446","","0.2","0.4","0.8","0.6","","","","","0.1712969398","0.01512836446","0.2079245196","0.204090619","","","","","","","","","","74","J","1","","","174","main_expt",""
"","bandit","254","643001","0.0-216.0-0.0","15128521","wem/bandit_party_1","AGVIHLR1DX7","either","1","7","","","","","","","0","0","1","","0.1904909119","0.2","0.4","0.8","0.6","0.2145566876","0.034550241","0.1904909119","0.2264282848","","","","","","","","","","","","","","75","K","2","","","175","main_expt",""
"","bandit","255","644626","0.0-217.0-0.0","15128521","wem/bandit_party_1","AGVIHLR1DX7","either","1","99","","","","","","","1","0","0","0.2263436383","","0.2","0.4","0.8","0.6","","","","","0.1987050603","0.01969997198","0.1611975006","0.2263436383","","","","","","","","","","76","L","3","","","176","main_expt",""
"","bandit","256","646270","0.0-218.0-0.0","15128521","wem/bandit_party_1","AGVIHLR1DX7","either","1","119","","","","","","","0","0","1","0.2449632337","","0.2","0.4","0.8","0.6","","","","","0.2161967517","0.02558747067","0.1747210449","0.2449632337","","","","","","","","","","76","L","3","","","177","main_expt",""
"","bandit","257","648111","0.0-219.0-0.0","15128521","wem/bandit_party_1","AGVIHLR1DX7","either","1","314","","","","","","","0","1","0","","0.1923885174","0.2","0.4","0.8","0.6","0.1790488899","0.02865462312","0.1667690144","0.1923885174","","","","","","","","","","","","","","76","L","3","","","178","main_expt",""
"","bandit","258","649926","0.0-220.0-0.0","15128521","wem/bandit_party_1","AGVIHLR1DX7","either","1","293","","","","","","","1","0","0","0.1791230597","","0.2","0.4","0.8","0.6","","","","","0.1254539317","0.05873937836","0.248539666","0.1791230597","","","","","","","","","","76","L","3","","","179","main_expt",""
"","bandit","259","651470","0.0-221.0-0.0","15128521","wem/bandit_party_1","AGVIHLR1DX7","either","1","21","","","","","","","0","0","1","0.1641305094","","0.2","0.4","0.8","0.6","","","","","0.1761702366","0.04996702027","0.2393284063","0.1641305094","","","","","","","","","","76","L","3","","","180","main_expt",""
"","bandit","260","653085","0.0-222.0-0.0","15128521","wem/bandit_party_1","AGVIHLR1DX7","either","1","89","","","","","","","0","0","1","0.1567194189","","0.2","0.4","0.8","0.6","","","","","0.2307221343","0.06192223509","0.2450765022","0.1567194189","","","","","","","","","","76","L","3","","","181","main_expt",""
"","bandit","261","654700","0.0-223.0-0.0","15128521","wem/bandit_party_1","AGVIHLR1DX7","either","1","89","","","","","","","0","0","1","","0.1805899487","0.2","0.4","0.8","0.6","0.1656926355","0.07865608963","0.2898963007","0.1805899487","","","","","","","","","","","","","","76","L","3","","","182","main_expt",""
"","bandit","262","656488","0.0-224.0-0.0","15128521","wem/bandit_party_1","AGVIHLR1DX7","either","1","263","","","","","","","0","0","1","","0.1381226487","0.2","0.4","0.8","0.6","0.1997223474","0.0695036973","0.337419987","0.1381226487","","","","","","","","","","","","","","76","L","3","","","183","main_expt",""
"","bandit","263","658219","0.0-225.0-0.0","15128521","wem/bandit_party_1","AGVIHLR1DX7","either","1","205","","","","","","","0","0","1","","0.1936006223","0.2","0.4","0.8","0.6","0.1936006223","0.09883674892","0.3334404967","0.1157029232","","","","","","","","","","","","","","72","H","0","img/none_selected.jpg","","184","main_expt",""
"","bandit","264","660037","0.0-226.0-0.0","15128521","wem/bandit_party_1","AGVIHLR1DX7","either","1","293","","","","","","","0","0","1","","0.1794548994","0.2","0.4","0.8","0.6","0.1794548994","0.1344132801","0.3049781316","0.09007466759","","","","","","","","","","","","","","72","H","0","img/none_selected.jpg","","185","main_expt",""
"","bandit","265","661862","0.0-227.0-0.0","15128521","wem/bandit_party_1","AGVIHLR1DX7","either","1","300","","","","","","","0","0","1","0.1679588243","","0.2","0.4","0.8","0.6","","","","","0.1679588243","0.1194183803","0.322039184","0.07784091677","","","","","","","","","","72","H","0","img/none_selected.jpg","","186","main_expt",""
"","bandit","266","663597","0.0-228.0-0.0","15128521","wem/bandit_party_1","AGVIHLR1DX7","either","1","206","","","","","","","0","0","1","0.1456002269","","0.2","0.4","0.8","0.6","","","","","0.1692259204","0.1456002269","0.2898485093","0.1332261693","","","","","","","","","","74","J","1","","","187","main_expt",""
"","bandit","267","665378","0.0-229.0-0.0","15128521","wem/bandit_party_1","AGVIHLR1DX7","either","1","261","","","","","","","0","0","1","0.1008589119","","0.2","0.4","0.8","0.6","","","","","0.1796926114","0.1008589119","0.3046836684","0.1302169342","","","","","","","","","","74","J","1","","","188","main_expt",""
"","bandit","268","667197","0.0-230.0-0.0","15128521","wem/bandit_party_1","AGVIHLR1DX7","either","1","297","","","","","","","0","0","1","","0.09109327247","0.2","0.4","0.8","0.6","0.1463090895","0.09109327247","0.3437642557","0.1459867673","","","","","","","","","","","","","","74","J","1","","","189","main_expt",""
"","bandit","269","668741","0.0-231.0-0.0","15128521","wem/bandit_party_1","AGVIHLR1DX7","either","1","19","","","","","","","1","0","0","0.3685715368","","0.2","0.4","0.8","0.6","","","","","0.1670442817","0.133333279","0.3685715368","0.1930387326","","","","","","","","","","75","K","2","","","190","main_expt",""
"","bandit","270","670268","0.0-232.0-0.0","15128521","wem/bandit_party_1","AGVIHLR1DX7","either","1","1","","","","","","","0","0","1","0.4063368095","","0.2","0.4","0.8","0.6","","","","","0.2148667481","0.1253338948","0.4063368095","0.1447045196","","","","","","","","","","75","K","2","","","191","main_expt",""
"","bandit","271","672097","0.0-233.0-0.0","15128521","wem/bandit_party_1","AGVIHLR1DX7","either","1","295","","","","","","","1","0","0","0.4194789623","","0.2","0.4","0.8","0.6","","","","","0.1891029698","0.1371372983","0.4194789623","0.1521301445","","","","","","","","","","75","K","2","","","192","main_expt",""
"","bandit","272","673912","0.0-234.0-0.0","15128521","wem/bandit_party_1","AGVIHLR1DX7","either","1","293","","","","","","","0","0","1","","0.3914453041","0.2","0.4","0.8","0.6","0.1818436489","0.1269519223","0.3914453041","0.1216552598","","","","","","","","","","","","","","75","K","2","","","193","main_expt",""
"","bandit","273","675620","0.0-235.0-0.0","15128521","wem/bandit_party_1","AGVIHLR1DX7","either","1","184","","","","","","","0","0","1","0.3988429791","","0.2","0.4","0.8","0.6","","","","","0.2036833838","0.1253972088","0.3988429791","0.07681554104","","","","","","","","","","75","K","2","","","194","main_expt",""
"","bandit","274","677199","0.0-236.0-0.0","15128521","wem/bandit_party_1","AGVIHLR1DX7","either","1","55","","","","","","","1","0","0","0.4212514022","","0.2","0.4","0.8","0.6","","","","","0.2189502041","0.1231557279","0.4212514022","0.07468822185","","","","","","","","","","75","K","2","","","195","main_expt",""
"","bandit","275","679046","0.0-237.0-0.0","15128521","wem/bandit_party_1","AGVIHLR1DX7","either","1","323","","","","","","","0","0","1","0.4128950903","","0.2","0.4","0.8","0.6","","","","","0.2011136523","0.2304226507","0.4128950903","0.07634526252","","","","","","","","","","75","K","2","","","196","main_expt",""
"","bandit","276","680858","0.0-238.0-0.0","15128521","wem/bandit_party_1","AGVIHLR1DX7","either","1","285","","","","","","","0","0","1","0.3979973083","","0.2","0.4","0.8","0.6","","","","","0.2295646827","0.3102822931","0.3979973083","0.06680697181","","","","","","","","","","75","K","2","","","197","main_expt",""
"","bandit","277","682655","0.0-239.0-0.0","15128521","wem/bandit_party_1","AGVIHLR1DX7","either","1","268","","","","","","","0","0","1","0.3153467244","","0.2","0.4","0.8","0.6","","","","","0.2570874699","0.3222054514","0.3153467244","0.05107679344","","","","","","","","","","75","K","2","","","198","main_expt",""
"","bandit","278","684302","0.0-240.0-0.0","15128521","wem/bandit_party_1","AGVIHLR1DX7","either","1","121","","","","","","","0","0","1","","0.06140804873","0.2","0.4","0.8","0.6","0.2215013189","0.3416159467","0.3121882746","0.06140804873","","","","","","","","","","","","","","76","L","3","","","199","main_expt",""
"","bandit","279","686137","0.0-241.0-0.0","15128521","wem/bandit_party_1","AGVIHLR1DX7","either","1","308","","","","","","","0","0","1","","0.05697288244","0.2","0.4","0.8","0.6","0.1681318695","0.3826655938","0.3789620948","0.05697288244","","","","","","","","","","","","","","76","L","3","","","200","main_expt",""
"","bandit","280","687882","0.0-242.0-0.0","15128521","wem/bandit_party_1","AGVIHLR1DX7","either","1","219","","","","","","","0","0","1","","0.1787039029","0.2","0.4","0.8","0.6","0.1787039029","0.4117435103","0.3575696279","0.04802221103","","","","","","","","","","","","","","72","H","0","img/none_selected.jpg","","201","main_expt",""
"","bandit","281","689597","0.0-243.0-0.0","15128521","wem/bandit_party_1","AGVIHLR1DX7","either","1","185","","","","","","","0","0","1","","0.2180442152","0.2","0.4","0.8","0.6","0.2180442152","0.4023622846","0.3937046418","0.04583536071","","","","","","","","","","","","","","72","H","0","img/none_selected.jpg","","202","main_expt",""
"","bandit","282","692073","0.0-244.0-0.0","15128521","wem/bandit_party_1","AGVIHLR1DX7","either","1","951","","","","","","","1","0","0","0.4225273878","","0.2","0.4","0.8","0.6","","","","","0.262784421","0.4225273878","0.3901943722","0.03655969434","","","","","","","","","","74","J","1","","","203","main_expt",""
"","bandit","283","693604","0.0-245.0-0.0","15128521","wem/bandit_party_1","AGVIHLR1DX7","either","1","6","","","","","","","0","0","1","","0.4151046429","0.2","0.4","0.8","0.6","0.2843732649","0.4151046429","0.4099131859","0.05773518339","","","","","","","","","","","","","","74","J","1","","","204","main_expt",""
"","bandit","284","695186","0.0-246.0-0.0","15128521","wem/bandit_party_1","AGVIHLR1DX7","either","1","57","","","","","","","0","0","1","","0.4288165897","0.2","0.4","0.8","0.6","0.2549063301","0.4288165897","0.4238238901","0.06616346658","","","","","","","","","","","","","","74","J","1","","","205","main_expt",""
"","bandit","285","696807","0.0-247.0-0.0","15128521","wem/bandit_party_1","AGVIHLR1DX7","either","1","94","","","","","","","0","1","0","","0.436745712","0.2","0.4","0.8","0.6","0.2982701688","0.436745712","0.4139837541","0.09055598832","","","","","","","","","","","","","","74","J","1","","","206","main_expt",""
"","bandit","286","698405","0.0-248.0-0.0","15128521","wem/bandit_party_1","AGVIHLR1DX7","either","1","72","","","","","","","1","0","0","0.4484652972","","0.2","0.4","0.8","0.6","","","","","0.3423773839","0.4484652972","0.3544894801","0.07583085731","","","","","","","","","","74","J","1","","","207","main_expt",""
"","bandit","287","699975","0.0-249.0-0.0","15128521","wem/bandit_party_1","AGVIHLR1DX7","either","1","45","","","","","","","0","0","1","0.4516947584","","0.2","0.4","0.8","0.6","","","","","0.3321535101","0.4516947584","0.3703609936","0.09768014643","","","","","","","","","","74","J","1","","","208","main_expt",""
"","bandit","288","701691","0.0-250.0-0.0","15128521","wem/bandit_party_1","AGVIHLR1DX7","either","1","190","","","","","","","1","0","0","0.4590139285","","0.2","0.4","0.8","0.6","","","","","0.3467721984","0.4590139285","0.3590511704","0.08389795445","","","","","","","","","","74","J","1","","","209","main_expt",""
"","bandit","289","703248","0.0-251.0-0.0","15128521","wem/bandit_party_1","AGVIHLR1DX7","either","1","31","","","","","","","0","0","1","0.4378910613","","0.2","0.4","0.8","0.6","","","","","0.3513447539","0.4378910613","0.3781523972","0.07846525543","","","","","","","","","","74","J","1","","","210","main_expt",""
"","bandit","290","704854","0.0-252.0-0.0","15128521","wem/bandit_party_1","AGVIHLR1DX7","either","1","82","","","","","","","0","0","1","0.4139384991","","0.2","0.4","0.8","0.6","","","","","0.4003692624","0.4139384991","0.3895188655","0.05906932722","","","","","","","","","","74","J","1","","","211","main_expt",""
"","bandit","291","706472","0.0-253.0-0.0","15128521","wem/bandit_party_1","AGVIHLR1DX7","either","1","96","","","","","","","0","0","1","0.3659234609","","0.2","0.4","0.8","0.6","","","","","0.3949660502","0.3659234609","0.4075098947","0.04754192311","","","","","","","","","","74","J","1","","","212","main_expt",""
"","bandit","292","708128","0.0-254.0-0.0","15128521","wem/bandit_party_1","AGVIHLR1DX7","either","1","123","","","","","","","0","0","1","0.3180572988","","0.2","0.4","0.8","0.6","","","","","0.4233479157","0.3180572988","0.4191075236","0.05481920189","","","","","","","","","","74","J","1","","","213","main_expt",""
"","bandit","293","709652","0.0-255.0-0.0","15128521","wem/bandit_party_1","AGVIHLR1DX7","either","1","1","","","","","","","0","0","1","0.3799529118","","0.2","0.4","0.8","0.6","","","","","0.4182751871","0.2611162072","0.3799529118","0.07954578011","","","","","","","","","","75","K","2","","","214","main_expt",""
"","bandit","294","711225","0.0-256.0-0.0","15128521","wem/bandit_party_1","AGVIHLR1DX7","either","1","51","","","","","","","1","0","0","0.3924699069","","0.2","0.4","0.8","0.6","","","","","0.3745823719","0.2331309726","0.3924699069","0.1078137614","","","","","","","","","","75","K","2","","","215","main_expt",""
"","bandit","295","712848","0.0-257.0-0.0","15128521","wem/bandit_party_1","AGVIHLR1DX7","either","1","97","","","","","","","0","0","1","0.3556657658","","0.2","0.4","0.8","0.6","","","","","0.3809837923","0.2428402293","0.3556657658","0.1269525553","","","","","","","","","","75","K","2","","","216","main_expt",""
"","bandit","296","714391","0.0-258.0-0.0","15128521","wem/bandit_party_1","AGVIHLR1DX7","either","1","20","","","","","","","0","0","1","0.3870416945","","0.2","0.4","0.8","0.6","","","","","0.4144294186","0.2317762644","0.3870416945","0.1849794572","","","","","","","","","","75","K","2","","","217","main_expt",""
"","bandit","297","715937","0.0-259.0-0.0","15128521","wem/bandit_party_1","AGVIHLR1DX7","either","1","20","","","","","","","0","0","1","","0.3944581396","0.2","0.4","0.8","0.6","0.4090742927","0.204309912","0.3944581396","0.1903787706","","","","","","","","","","","","","","75","K","2","","","218","main_expt",""
"","bandit","298","717464","0.0-260.0-0.0","15128521","wem/bandit_party_1","AGVIHLR1DX7","either","1","2","","","","","","","1","0","0","0.4256173987","","0.2","0.4","0.8","0.6","","","","","0.3869695378","0.1685596251","0.4256173987","0.1768508397","","","","","","","","","","75","K","2","","","219","main_expt",""
"","bandit","299","719029","0.0-261.0-0.0","15128521","wem/bandit_party_1","AGVIHLR1DX7","either","1","37","","","","","","","1","0","0","0.4240862242","","0.2","0.4","0.8","0.6","","","","","0.3814250035","0.2488487331","0.4240862242","0.2176561852","","","","","","","","","","75","K","2","","","220","main_expt",""
"","bandit","300","720918","0.0-262.0-0.0","15128521","wem/bandit_party_1","AGVIHLR1DX7","either","1","362","","","","","","","0","1","0","","0.4364702466","0.2","0.4","0.8","0.6","0.3560431311","0.2789816034","0.4364702466","0.2075488201","","","","","","","","","","","","","","75","K","2","","","221","main_expt",""
"","bandit","301","722460","0.0-263.0-0.0","15128521","wem/bandit_party_1","AGVIHLR1DX7","either","1","21","","","","","","","0","0","1","0.4512924842","","0.2","0.4","0.8","0.6","","","","","0.3424215647","0.242729834","0.4512924842","0.2260831429","","","","","","","","","","75","K","2","","","222","main_expt",""
"","bandit","302","723997","0.0-264.0-0.0","15128521","wem/bandit_party_1","AGVIHLR1DX7","either","1","2","","","","","","","1","0","0","0.4649948574","","0.2","0.4","0.8","0.6","","","","","0.3118962833","0.196538567","0.4649948574","0.2512075751","","","","","","","","","","75","K","2","","","223","main_expt",""
"","bandit","303","725686","0.0-265.0-0.0","15128521","wem/bandit_party_1","AGVIHLR1DX7","either","1","167","","","","","","","0","0","1","0.4692106987","","0.2","0.4","0.8","0.6","","","","","0.261290028","0.2189223785","0.4692106987","0.3072691987","","","","","","","","","","75","K","2","","","224","main_expt",""
"","bandit","304","727280","0.0-266.0-0.0","15128521","wem/bandit_party_1","AGVIHLR1DX7","either","1","71","","","","","","","0","1","0","","0.4772226815","0.2","0.4","0.8","0.6","0.2748104332","0.2131207899","0.4772226815","0.3358063032","","","","","","","","","","","","","","75","K","2","","","225","main_expt",""
"","bandit","305","728802","0.0-267.0-0.0","15128521","wem/bandit_party_1","AGVIHLR1DX7","either","1","1","","","","","","","1","0","0","0.4828013869","","0.2","0.4","0.8","0.6","","","","","0.2112523614","0.187439681","0.4828013869","0.2994610032","","","","","","","","","","75","K","2","","","226","main_expt",""
"","bandit","306","730512","0.0-268.0-0.0","15128521","wem/bandit_party_1","AGVIHLR1DX7","either","1","188","","","","","","","1","0","0","0.4805292857","","0.2","0.4","0.8","0.6","","","","","0.1879164098","0.1522087394","0.4805292857","0.2719992041","","","","","","","","","","75","K","2","","","227","main_expt",""
"","bandit","307","732216","0.0-269.0-0.0","15128521","wem/bandit_party_1","AGVIHLR1DX7","either","1","180","","","","","","","1","0","0","0.4770879938","","0.2","0.4","0.8","0.6","","","","","0.1857646906","0.1975586059","0.4770879938","0.2601066631","","","","","","","","","","75","K","2","","","228","main_expt",""
"","bandit","308","733883","0.0-270.0-0.0","15128521","wem/bandit_party_1","AGVIHLR1DX7","either","1","135","","","","","","","1","0","0","0.4830225504","","0.2","0.4","0.8","0.6","","","","","0.1608888173","0.2280604414","0.4830225504","0.2333982712","","","","","","","","","","75","K","2","","","229","main_expt",""
"","bandit","309","735537","0.0-271.0-0.0","15128521","wem/bandit_party_1","AGVIHLR1DX7","either","1","133","","","","","","","1","0","0","0.4827210916","","0.2","0.4","0.8","0.6","","","","","0.1139945837","0.2120359748","0.4827210916","0.2179366985","","","","","","","","","","75","K","2","","","230","main_expt",""
"","bandit","310","737080","0.0-272.0-0.0","15128521","wem/bandit_party_1","AGVIHLR1DX7","either","1","19","","","","","","","1","0","0","0.4764813513","","0.2","0.4","0.8","0.6","","","","","0.1071229599","0.2260377558","0.4764813513","0.210335649","","","","","","","","","","75","K","2","","","231","main_expt",""
"","bandit","311","738687","0.0-273.0-0.0","15128521","wem/bandit_party_1","AGVIHLR1DX7","either","1","80","","","","","","","1","0","0","0.4794978353","","0.2","0.4","0.8","0.6","","","","","0.1250262501","0.2810037348","0.4794978353","0.2154905401","","","","","","","","","","75","K","2","","","232","main_expt",""
"","bandit","312","740267","0.0-274.0-0.0","15128521","wem/bandit_party_1","AGVIHLR1DX7","either","1","54","","","","","","","1","0","0","0.4717583679","","0.2","0.4","0.8","0.6","","","","","0.1262657767","0.3371590923","0.4717583679","0.2199054097","","","","","","","","","","75","K","2","","","233","main_expt",""
"","bandit","313","741983","0.0-275.0-0.0","15128521","wem/bandit_party_1","AGVIHLR1DX7","either","1","188","","","","","","","0","0","1","0.4801470087","","0.2","0.4","0.8","0.6","","","","","0.1436583916","0.2614597929","0.4801470087","0.2116885818","","","","","","","","","","75","K","2","","","234","main_expt",""
"","bandit","314","743517","0.0-276.0-0.0","15128521","wem/bandit_party_1","AGVIHLR1DX7","either","1","1","","","","","","","0","0","1","0.4698449305","","0.2","0.4","0.8","0.6","","","","","0.1776605917","0.2855471023","0.4698449305","0.2037112673","","","","","","","","","","75","K","2","","","235","main_expt",""
"","bandit","315","745236","0.0-277.0-0.0","15128521","wem/bandit_party_1","AGVIHLR1DX7","either","1","194","","","","","","","1","0","0","0.4750890902","","0.2","0.4","0.8","0.6","","","","","0.2039581082","0.2806831757","0.4750890902","0.2295670059","","","","","","","","","","75","K","2","","","236","main_expt",""
"","bandit","316","746908","0.0-278.0-0.0","15128521","wem/bandit_party_1","AGVIHLR1DX7","either","1","147","","","","","","","1","0","0","0.490873849","","0.2","0.4","0.8","0.6","","","","","0.1898025468","0.3314479917","0.490873849","0.2602584061","","","","","","","","","","75","K","2","","","237","main_expt",""
