"consent","trial_type","trial_index","time_elapsed","internal_node_id","subjID","study","MID","cond","drift","rt","responses","button_pressed","key_press","like","value","connected","gems","bombs","no_reward","GemPrChosen","BombPrChosen","GainOverPainPr_0","GainOverPainPr_1","GainOverPainPr_2","GainOverPainPr_3","LosePr_0","LosePr_1","LosePr_2","LosePr_3","WinPr_0","WinPr_1","WinPr_2","WinPr_3","Q0","Q1","Q2","gender","age","ethnicity","label","expt_phase","target","respCharCode","respKey","respChoiceNum","respChoice","practice","trial_counter","trial_label","Q0_index","view_history"
"GDM/GDM_behavioral_consent_30min_online.html","consent","0","8272","0.0-0.0","15332633","wem/bandit_party_1","A1MQ9B05ZMM4YI","either","8","","","","","","","","","","","","","","","","","","","","","","","","","","","","","","","","","","","","","","","","","",""
"","survey-text","1","14120","0.0-1.0","15332633","wem/bandit_party_1","A1MQ9B05ZMM4YI","either","8","4839","{""Q0"":""A1MQ9B05ZMM4YI""}","","","","","","","","","","","","","","","","","","","","","","","","","","","","","","","","","","","","","","","",""
"","button-response","2","17798","0.0-2.0","15332633","wem/bandit_party_1","A1MQ9B05ZMM4YI","either","8","2671","","0","","","","","","","","","","","","","","","","","","","","","","","","","","","","","","","","","","","","","","",""
"","text-replacement","3","27202","0.0-3.0","15332633","wem/bandit_party_1","A1MQ9B05ZMM4YI","either","8","8400","","","32","","","","","","","","","","","","","","","","","","","","","","","","","","","","","","","","","","","","","",""
"","text-replacement","4","56847","0.0-4.0","15332633","wem/bandit_party_1","A1MQ9B05ZMM4YI","either","8","29643","","","32","","","","","","","","","","","","","","","","","","","","","","","","","","","","","","","","","","","","","",""
"","identification","5","65160","0.0-6.0-0.0","15332633","wem/bandit_party_1","A1MQ9B05ZMM4YI","either","8","8303","","","","4","3","0","","","","","","","","","","","","","","","","","","","","","","","","pre","identification_pre","the Democratic Party","","","","","","","","",""
"","identification","6","70079","0.0-6.0-1.0","15332633","wem/bandit_party_1","A1MQ9B05ZMM4YI","either","8","3904","","","","6","6","6","","","","","","","","","","","","","","","","","","","","","","","","pre","identification_pre","the Republican party","","","","","","","","",""
"","text-replacement","7","77982","0.0-7.0","15332633","wem/bandit_party_1","A1MQ9B05ZMM4YI","either","8","6899","","","32","","","","","","","","","","","","","","","","","","","","","","","","","","","","","","","","","","","","","",""
"","text-replacement","8","83456","0.0-8.0","15332633","wem/bandit_party_1","A1MQ9B05ZMM4YI","either","8","5472","","","32","","","","","","","","","","","","","","","","","","","","","","","","","","","","","","","","","","","","","",""
"","text-replacement","9","85701","0.0-9.0","15332633","wem/bandit_party_1","A1MQ9B05ZMM4YI","either","8","2242","","","32","","","","","","","","","","","","","","","","","","","","","","","","","","","","","","","","","","","","","",""
"","text-replacement","10","91006","0.0-10.0","15332633","wem/bandit_party_1","A1MQ9B05ZMM4YI","either","8","5303","","","32","","","","","","","","","","","","","","","","","","","","","","","","","","","","","","","","","","","","","",""
"","text-replacement","11","94431","0.0-11.0","15332633","wem/bandit_party_1","A1MQ9B05ZMM4YI","either","8","3424","","","32","","","","","","","","","","","","","","","","","","","","","","","","","","","","","","","","","","","","","",""
"","bandit","12","104877","0.0-12.0-0.0","15332633","wem/bandit_party_1","A1MQ9B05ZMM4YI","either","8","8936","","","","","","","0","0","1","0","0","","","","","0","","","","0","","","","","","","","","","","","","74","J","0","img/none_selected_demo.jpg","true","0","","",""
"","bandit","13","107837","0.0-13.0-0.0","15332633","wem/bandit_party_1","A1MQ9B05ZMM4YI","either","8","1455","","","","","","","0","0","1","0","0","","","","","0","","","","0","","","","","","","","","","","","","75","K","0","img/none_selected_demo.jpg","true","0","","",""
"","text-replacement","14","111646","0.0-14.0","15332633","wem/bandit_party_1","A1MQ9B05ZMM4YI","either","8","3807","","","32","","","","","","","","","","","","","","","","","","","","","","","","","","","","","","","","","","","","","",""
"","text-replacement","15","113389","0.0-15.0","15332633","wem/bandit_party_1","A1MQ9B05ZMM4YI","either","8","1741","","","32","","","","","","","","","","","","","","","","","","","","","","","","","","","","","","","","","","","","","",""
"","text-replacement","16","118257","0.0-16.0","15332633","wem/bandit_party_1","A1MQ9B05ZMM4YI","either","8","4866","","","32","","","","","","","","","","","","","","","","","","","","","","","","","","","","","","","","","","","","","",""
"","text-replacement","17","123415","0.0-17.0","15332633","wem/bandit_party_1","A1MQ9B05ZMM4YI","either","8","5156","","","32","","","","","","","","","","","","","","","","","","","","","","","","","","","","","","","","","","","","","",""
"","bandit","18","125661","0.0-18.0-0.0","15332633","wem/bandit_party_1","A1MQ9B05ZMM4YI","either","8","740","","","","","","","0","0","1","","0.2","0.5","0.5","","","0.8","0.2","","","","","","","","","","","","","","","","75","K","1","","true","0","80_20_practice","",""
"","bandit","19","127286","0.0-18.0-1.0","15332633","wem/bandit_party_1","A1MQ9B05ZMM4YI","either","8","118","","","","","","","1","0","0","0.8","","0.5","0.5","","","","","","","0.8","0.2","","","","","","","","","","","","74","J","0","img/none_selected_demo.jpg","true","0","80_20_practice","",""
"","bandit","20","129167","0.0-18.0-2.0","15332633","wem/bandit_party_1","A1MQ9B05ZMM4YI","either","8","373","","","","","","","0","1","0","","0.8","0.5","0.5","","","0.8","0.2","","","","","","","","","","","","","","","","74","J","0","img/none_selected_demo.jpg","true","0","80_20_practice","",""
"","bandit","21","130703","0.0-18.0-3.0","15332633","wem/bandit_party_1","A1MQ9B05ZMM4YI","either","8","30","","","","","","","1","0","0","0.2","","0.5","0.5","","","","","","","0.8","0.2","","","","","","","","","","","","75","K","1","","true","0","80_20_practice","",""
"","bandit","22","132493","0.0-18.0-4.0","15332633","wem/bandit_party_1","A1MQ9B05ZMM4YI","either","8","284","","","","","","","0","1","0","","0.8","0.5","0.5","","","0.8","0.2","","","","","","","","","","","","","","","","74","J","0","img/none_selected_demo.jpg","true","0","80_20_practice","",""
"","bandit","23","134288","0.0-18.0-5.0","15332633","wem/bandit_party_1","A1MQ9B05ZMM4YI","either","8","287","","","","","","","0","0","1","","0.2","0.5","0.5","","","0.8","0.2","","","","","","","","","","","","","","","","75","K","1","","true","0","80_20_practice","",""
"","bandit","24","136221","0.0-18.0-6.0","15332633","wem/bandit_party_1","A1MQ9B05ZMM4YI","either","8","426","","","","","","","0","1","0","","0.8","0.5","0.5","","","0.8","0.2","","","","","","","","","","","","","","","","74","J","0","img/none_selected_demo.jpg","true","0","80_20_practice","",""
"","bandit","25","138037","0.0-18.0-7.0","15332633","wem/bandit_party_1","A1MQ9B05ZMM4YI","either","8","311","","","","","","","1","0","0","0.8","","0.5","0.5","","","","","","","0.8","0.2","","","","","","","","","","","","74","J","0","img/none_selected_demo.jpg","true","0","80_20_practice","",""
"","bandit","26","139845","0.0-18.0-8.0","15332633","wem/bandit_party_1","A1MQ9B05ZMM4YI","either","8","303","","","","","","","0","1","0","","0.8","0.5","0.5","","","0.8","0.2","","","","","","","","","","","","","","","","74","J","0","img/none_selected_demo.jpg","true","0","80_20_practice","",""
"","bandit","27","141590","0.0-18.0-9.0","15332633","wem/bandit_party_1","A1MQ9B05ZMM4YI","either","8","240","","","","","","","0","1","0","","0.8","0.5","0.5","","","0.8","0.2","","","","","","","","","","","","","","","","74","J","0","img/none_selected_demo.jpg","true","0","80_20_practice","",""
"","bandit","28","143349","0.0-18.0-10.0","15332633","wem/bandit_party_1","A1MQ9B05ZMM4YI","either","8","253","","","","","","","0","0","1","","0.2","0.5","0.5","","","0.8","0.2","","","","","","","","","","","","","","","","75","K","1","","true","0","80_20_practice","",""
"","bandit","29","145181","0.0-18.0-11.0","15332633","wem/bandit_party_1","A1MQ9B05ZMM4YI","either","8","326","","","","","","","1","0","0","0.8","","0.5","0.5","","","","","","","0.8","0.2","","","","","","","","","","","","74","J","0","img/none_selected_demo.jpg","true","0","80_20_practice","",""
"","bandit","30","147142","0.0-18.0-12.0","15332633","wem/bandit_party_1","A1MQ9B05ZMM4YI","either","8","453","","","","","","","0","0","1","","0.8","0.5","0.5","","","0.8","0.2","","","","","","","","","","","","","","","","74","J","0","img/none_selected_demo.jpg","true","0","80_20_practice","",""
"","bandit","31","148877","0.0-18.0-13.0","15332633","wem/bandit_party_1","A1MQ9B05ZMM4YI","either","8","228","","","","","","","0","0","1","","0.2","0.5","0.5","","","0.8","0.2","","","","","","","","","","","","","","","","75","K","1","","true","0","80_20_practice","",""
"","bandit","32","150645","0.0-18.0-14.0","15332633","wem/bandit_party_1","A1MQ9B05ZMM4YI","either","8","262","","","","","","","0","1","0","","0.8","0.5","0.5","","","0.8","0.2","","","","","","","","","","","","","","","","74","J","0","img/none_selected_demo.jpg","true","0","80_20_practice","",""
"","bandit","33","153119","0.0-18.0-15.0","15332633","wem/bandit_party_1","A1MQ9B05ZMM4YI","either","8","968","","","","","","","0","0","1","0.2","","0.5","0.5","","","","","","","0.8","0.2","","","","","","","","","","","","75","K","1","","true","0","80_20_practice","",""
"","bandit","34","154748","0.0-18.0-16.0","15332633","wem/bandit_party_1","A1MQ9B05ZMM4YI","either","8","124","","","","","","","0","1","0","","0.8","0.5","0.5","","","0.8","0.2","","","","","","","","","","","","","","","","74","J","0","img/none_selected_demo.jpg","true","0","80_20_practice","",""
"","bandit","35","156677","0.0-18.0-17.0","15332633","wem/bandit_party_1","A1MQ9B05ZMM4YI","either","8","421","","","","","","","1","0","0","0.8","","0.5","0.5","","","","","","","0.8","0.2","","","","","","","","","","","","74","J","0","img/none_selected_demo.jpg","true","0","80_20_practice","",""
"","bandit","36","158926","0.0-18.0-18.0","15332633","wem/bandit_party_1","A1MQ9B05ZMM4YI","either","8","741","","","","","","","0","1","0","","0.8","0.5","0.5","","","0.8","0.2","","","","","","","","","","","","","","","","74","J","0","img/none_selected_demo.jpg","true","0","80_20_practice","",""
"","bandit","37","160446","0.0-18.0-19.0","15332633","wem/bandit_party_1","A1MQ9B05ZMM4YI","either","8","13","","","","","","","0","1","0","","0.2","0.5","0.5","","","0.8","0.2","","","","","","","","","","","","","","","","75","K","1","","true","0","80_20_practice","",""
"","text-replacement","38","184396","0.0-19.0","15332633","wem/bandit_party_1","A1MQ9B05ZMM4YI","either","8","23948","","","32","","","","","","","","","","","","","","","","","","","","","","","","","","","","","","","","","","","","","",""
"","bandit","39","186700","0.0-20.0-0.0","15332633","wem/bandit_party_1","A1MQ9B05ZMM4YI","either","8","797","","","","","","","0","1","0","0","1","","","","","0","1","","","1","0","","","","","","","","","","","","75","K","1","","true","0","","",""
"","text-replacement","40","188212","0.0-21.0","15332633","wem/bandit_party_1","A1MQ9B05ZMM4YI","either","8","1510","","","74","","","","","","","","","","","","","","","","","","","","","","","","","","","","","","","","","","","","","",""
"","text-replacement","41","191533","0.0-22.0","15332633","wem/bandit_party_1","A1MQ9B05ZMM4YI","either","8","3318","","","32","","","","","","","","","","","","","","","","","","","","","","","","","","","","","","","","","","","","","",""
"","text-replacement","42","192703","0.0-23.0","15332633","wem/bandit_party_1","A1MQ9B05ZMM4YI","either","8","1167","","","32","","","","","","","","","","","","","","","","","","","","","","","","","","","","","","","","","","","","","",""
"","text-replacement","43","193388","0.0-24.0","15332633","wem/bandit_party_1","A1MQ9B05ZMM4YI","either","8","684","","","32","","","","","","","","","","","","","","","","","","","","","","","","","","","","","","","","","","","","","",""
"","text-replacement","44","194941","0.0-25.0","15332633","wem/bandit_party_1","A1MQ9B05ZMM4YI","either","8","1550","","","32","","","","","","","","","","","","","","","","","","","","","","","","","","","","","","","","","","","","","",""
"","text-replacement","45","195524","0.0-26.0","15332633","wem/bandit_party_1","A1MQ9B05ZMM4YI","either","8","581","","","32","","","","","","","","","","","","","","","","","","","","","","","","","","","","","","","","","","","","","",""
"","text-replacement","46","196669","0.0-27.0","15332633","wem/bandit_party_1","A1MQ9B05ZMM4YI","either","8","1142","","","32","","","","","","","","","","","","","","","","","","","","","","","","","","","","","","","","","","","","","",""
"","text-replacement","47","197236","0.0-28.0","15332633","wem/bandit_party_1","A1MQ9B05ZMM4YI","either","8","565","","","32","","","","","","","","","","","","","","","","","","","","","","","","","","","","","","","","","","","","","",""
"","text-replacement","48","197869","0.0-29.0","15332633","wem/bandit_party_1","A1MQ9B05ZMM4YI","either","8","630","","","32","","","","","","","","","","","","","","","","","","","","","","","","","","","","","","","","","","","","","",""
"","text-replacement","49","198724","0.0-30.0","15332633","wem/bandit_party_1","A1MQ9B05ZMM4YI","either","8","853","","","32","","","","","","","","","","","","","","","","","","","","","","","","","","","","","","","","","","","","","",""
"","text-replacement","50","206548","0.0-31.0","15332633","wem/bandit_party_1","A1MQ9B05ZMM4YI","either","8","7821","","","32","","","","","","","","","","","","","","","","","","","","","","","","","","","","","","","","","","","","","",""
"","bandit","51","209323","0.0-32.0-0.0","15332633","wem/bandit_party_1","A1MQ9B05ZMM4YI","either","8","1268","","","","","","","0","1","0","","0.8","0.5","0.5","0.5","0.5","0.8","0.2","0.6","0.2","","","","","","","","","","","","","","72","H","0","img/none_selected.jpg","true","0","full_practice","",""
"","bandit","52","211204","0.0-32.0-1.0","15332633","wem/bandit_party_1","A1MQ9B05ZMM4YI","either","8","375","","","","","","","1","0","0","0.2","","0.5","0.5","0.5","0.5","","","","","0.8","0.2","0.6","0.2","","","","","","","","","","74","J","1","","true","0","full_practice","",""
"","bandit","53","212851","0.0-32.0-2.0","15332633","wem/bandit_party_1","A1MQ9B05ZMM4YI","either","8","141","","","","","","","0","0","1","","0.6","0.5","0.5","0.5","0.5","0.8","0.2","0.6","0.2","","","","","","","","","","","","","","75","K","2","","true","0","full_practice","",""
"","bandit","54","214470","0.0-32.0-3.0","15332633","wem/bandit_party_1","A1MQ9B05ZMM4YI","either","8","112","","","","","","","0","0","1","0.2","","0.5","0.5","0.5","0.5","","","","","0.8","0.2","0.6","0.2","","","","","","","","","","76","L","3","","true","0","full_practice","",""
"","bandit","55","216562","0.0-32.0-4.0","15332633","wem/bandit_party_1","A1MQ9B05ZMM4YI","either","8","587","","","","","","","1","0","0","0.6","","0.5","0.5","0.5","0.5","","","","","0.8","0.2","0.6","0.2","","","","","","","","","","75","K","2","","true","0","full_practice","",""
"","bandit","56","218274","0.0-32.0-5.0","15332633","wem/bandit_party_1","A1MQ9B05ZMM4YI","either","8","207","","","","","","","0","1","0","","0.2","0.5","0.5","0.5","0.5","0.8","0.2","0.6","0.2","","","","","","","","","","","","","","74","J","1","","true","0","full_practice","",""
"","bandit","57","220035","0.0-32.0-6.0","15332633","wem/bandit_party_1","A1MQ9B05ZMM4YI","either","8","254","","","","","","","0","0","1","0.6","","0.5","0.5","0.5","0.5","","","","","0.8","0.2","0.6","0.2","","","","","","","","","","75","K","2","","true","0","full_practice","",""
"","bandit","58","221956","0.0-32.0-7.0","15332633","wem/bandit_party_1","A1MQ9B05ZMM4YI","either","8","413","","","","","","","0","1","0","","0.8","0.5","0.5","0.5","0.5","0.8","0.2","0.6","0.2","","","","","","","","","","","","","","72","H","0","img/none_selected.jpg","true","0","full_practice","",""
"","bandit","59","223723","0.0-32.0-8.0","15332633","wem/bandit_party_1","A1MQ9B05ZMM4YI","either","8","261","","","","","","","0","0","1","0.2","","0.5","0.5","0.5","0.5","","","","","0.8","0.2","0.6","0.2","","","","","","","","","","76","L","3","","true","0","full_practice","",""
"","bandit","60","225540","0.0-32.0-9.0","15332633","wem/bandit_party_1","A1MQ9B05ZMM4YI","either","8","312","","","","","","","0","0","1","","0.2","0.5","0.5","0.5","0.5","0.8","0.2","0.6","0.2","","","","","","","","","","","","","","74","J","1","","true","0","full_practice","",""
"","bandit","61","227226","0.0-32.0-10.0","15332633","wem/bandit_party_1","A1MQ9B05ZMM4YI","either","8","179","","","","","","","0","0","1","","0.6","0.5","0.5","0.5","0.5","0.8","0.2","0.6","0.2","","","","","","","","","","","","","","75","K","2","","true","0","full_practice","",""
"","bandit","62","228973","0.0-32.0-11.0","15332633","wem/bandit_party_1","A1MQ9B05ZMM4YI","either","8","237","","","","","","","0","1","0","","0.8","0.5","0.5","0.5","0.5","0.8","0.2","0.6","0.2","","","","","","","","","","","","","","72","H","0","img/none_selected.jpg","true","0","full_practice","",""
"","bandit","63","230778","0.0-32.0-12.0","15332633","wem/bandit_party_1","A1MQ9B05ZMM4YI","either","8","299","","","","","","","0","1","0","","0.6","0.5","0.5","0.5","0.5","0.8","0.2","0.6","0.2","","","","","","","","","","","","","","75","K","2","","true","0","full_practice","",""
"","bandit","64","232634","0.0-32.0-13.0","15332633","wem/bandit_party_1","A1MQ9B05ZMM4YI","either","8","349","","","","","","","0","0","1","","0.2","0.5","0.5","0.5","0.5","0.8","0.2","0.6","0.2","","","","","","","","","","","","","","76","L","3","","true","0","full_practice","",""
"","bandit","65","234458","0.0-32.0-14.0","15332633","wem/bandit_party_1","A1MQ9B05ZMM4YI","either","8","317","","","","","","","0","0","1","","0.2","0.5","0.5","0.5","0.5","0.8","0.2","0.6","0.2","","","","","","","","","","","","","","74","J","1","","true","0","full_practice","",""
"","bandit","66","236276","0.0-32.0-15.0","15332633","wem/bandit_party_1","A1MQ9B05ZMM4YI","either","8","311","","","","","","","0","1","0","","0.8","0.5","0.5","0.5","0.5","0.8","0.2","0.6","0.2","","","","","","","","","","","","","","72","H","0","img/none_selected.jpg","true","0","full_practice","",""
"","bandit","67","238042","0.0-32.0-16.0","15332633","wem/bandit_party_1","A1MQ9B05ZMM4YI","either","8","259","","","","","","","0","1","0","","0.6","0.5","0.5","0.5","0.5","0.8","0.2","0.6","0.2","","","","","","","","","","","","","","75","K","2","","true","0","full_practice","",""
"","bandit","68","239650","0.0-32.0-17.0","15332633","wem/bandit_party_1","A1MQ9B05ZMM4YI","either","8","102","","","","","","","0","1","0","","0.2","0.5","0.5","0.5","0.5","0.8","0.2","0.6","0.2","","","","","","","","","","","","","","76","L","3","","true","0","full_practice","",""
"","bandit","69","241412","0.0-32.0-18.0","15332633","wem/bandit_party_1","A1MQ9B05ZMM4YI","either","8","253","","","","","","","0","0","1","","0.2","0.5","0.5","0.5","0.5","0.8","0.2","0.6","0.2","","","","","","","","","","","","","","74","J","1","","true","0","full_practice","",""
"","bandit","70","243219","0.0-32.0-19.0","15332633","wem/bandit_party_1","A1MQ9B05ZMM4YI","either","8","299","","","","","","","1","0","0","0.6","","0.5","0.5","0.5","0.5","","","","","0.8","0.2","0.6","0.2","","","","","","","","","","75","K","2","","true","0","full_practice","",""
"","text","71","245598","0.0-33.0","15332633","wem/bandit_party_1","A1MQ9B05ZMM4YI","either","8","2367","","","32","","","","","","","","","","","","","","","","","","","","","","","","","","","","","","","","","","","","","",""
"","text-replacement","72","257550","0.0-34.0","15332633","wem/bandit_party_1","A1MQ9B05ZMM4YI","either","8","10949","","","32","","","","","","","","","","","","","","","","","","","","","","","","","","","","","","","","","","","","","",""
"","text-replacement","73","263132","0.0-35.0","15332633","wem/bandit_party_1","A1MQ9B05ZMM4YI","either","8","5579","","","32","","","","","","","","","","","","","","","","","","","","","","","","","","","","","","","","","","","","","",""
"","text-replacement","74","265972","0.0-36.0","15332633","wem/bandit_party_1","A1MQ9B05ZMM4YI","either","8","2837","","","32","","","","","","","","","","","","","","","","","","","","","","","","","","","","","","","","","","","","","",""
"","text-replacement","75","268758","0.0-37.0","15332633","wem/bandit_party_1","A1MQ9B05ZMM4YI","either","8","2782","","","32","","","","","","","","","","","","","","","","","","","","","","","","","","","","","","","","","","","","","",""
"","text-replacement","76","272115","0.0-38.0","15332633","wem/bandit_party_1","A1MQ9B05ZMM4YI","either","8","3355","","","32","","","","","","","","","","","","","","","","","","","","","","","","","","","","","","","","","","","","","",""
"","survey-multi-choice-replacement","77","281214","0.0-39.0-0.0","15332633","wem/bandit_party_1","A1MQ9B05ZMM4YI","either","8","9088","","","","","","","","","","","","","","","","","","","","","","","","Equal amounts of money will be added to the pool for <span style='color:red;'>REPUBLICANS</span> and subtracted from the pool for <span style='color:blue;'>DEMOCRATS</span>","","","","","","","attn_check","","","","","","","","","2",""
"","instructions","78","283700","0.0-39.0-1.0-0.0","15332633","wem/bandit_party_1","A1MQ9B05ZMM4YI","either","8","1482","","","","","","","","","","","","","","","","","","","","","","","","","","","","","","","","","","","","","","","","","[{""page_index"":0,""viewing_time"":1482}]"
"","survey-multi-choice-replacement","79","288316","0.0-39.1-0.1","15332633","wem/bandit_party_1","A1MQ9B05ZMM4YI","either","8","3606","","","","","","","","","","","","","","","","","","","","","","","","Money will be added to the pool for <span style='color:red;'>REPUBLICANS</span>","","","","","","","attn_check","","","","","","","","","0",""
"","survey-multi-choice-replacement","80","292404","0.0-40.0-0.0","15332633","wem/bandit_party_1","A1MQ9B05ZMM4YI","either","8","3077","","","","","","","","","","","","","","","","","","","","","","","","Equal amounts of money will be added to the pool for <span style='color:red;'>REPUBLICANS</span> and subtracted from the pool for <span style='color:blue;'>DEMOCRATS</span>","","","","","","","attn_check","","","","","","","","","2",""
"","survey-multi-choice-replacement","81","296436","0.0-41.0-0.0","15332633","wem/bandit_party_1","A1MQ9B05ZMM4YI","either","8","3020","","","","","","","","","","","","","","","","","","","","","","","","No money will be added to either pool","","","","","","","attn_check","","","","","","","","","3",""
"","bandit","82","300507","0.0-42.0-0.0","15332633","wem/bandit_party_1","A1MQ9B05ZMM4YI","either","8","1560","","","","","","","0","0","1","","0.1351790469","0.2","0.4","0.8","0.6","0.1351790469","0.2928194041","0.2637293772","0.3540548627","","","","","","","","","","","","","","72","H","0","img/none_selected.jpg","","1","main_expt","",""
"","bandit","83","302906","0.0-43.0-0.0","15332633","wem/bandit_party_1","A1MQ9B05ZMM4YI","either","8","892","","","","","","","1","0","0","0.2760013096","","0.2","0.4","0.8","0.6","","","","","0.125602744","0.3040419902","0.2760013096","0.3812516843","","","","","","","","","","75","K","2","","","2","main_expt","",""
"","bandit","84","305333","0.0-44.0-0.0","15332633","wem/bandit_party_1","A1MQ9B05ZMM4YI","either","8","921","","","","","","","0","0","1","0.3240499928","","0.2","0.4","0.8","0.6","","","","","0.09574082279","0.2875251023","0.3240499928","0.3901316494","","","","","","","","","","75","K","2","","","3","main_expt","",""
"","bandit","85","307905","0.0-45.0-0.0","15332633","wem/bandit_party_1","A1MQ9B05ZMM4YI","either","8","1066","","","","","","","0","0","1","0.3945399471","","0.2","0.4","0.8","0.6","","","","","0.0913382225","0.2965567903","0.3510822359","0.3945399471","","","","","","","","","","76","L","3","","","4","main_expt","",""
"","bandit","86","310546","0.0-46.0-0.0","15332633","wem/bandit_party_1","A1MQ9B05ZMM4YI","either","8","1133","","","","","","","0","1","0","","0.2681113314","0.2","0.4","0.8","0.6","0.106177601","0.2681113314","0.3522827721","0.3997977613","","","","","","","","","","","","","","74","J","1","","","5","main_expt","",""
"","bandit","87","312964","0.0-47.0-0.0","15332633","wem/bandit_party_1","A1MQ9B05ZMM4YI","either","8","909","","","","","","","0","0","1","","0.08998955495","0.2","0.4","0.8","0.6","0.08998955495","0.2330443498","0.382674005","0.390783501","","","","","","","","","","","","","","72","H","0","img/none_selected.jpg","","6","main_expt","",""
"","bandit","88","314866","0.0-48.0-0.0","15332633","wem/bandit_party_1","A1MQ9B05ZMM4YI","either","8","393","","","","","","","0","0","1","0.3998463606","","0.2","0.4","0.8","0.6","","","","","0.1077526668","0.1630509172","0.3998463606","0.3305693427","","","","","","","","","","75","K","2","","","7","main_expt","",""
"","bandit","89","316723","0.0-49.0-0.0","15332633","wem/bandit_party_1","A1MQ9B05ZMM4YI","either","8","353","","","","","","","0","0","1","0.3056545716","","0.2","0.4","0.8","0.6","","","","","0.1243697388","0.2002468685","0.3832029687","0.3056545716","","","","","","","","","","76","L","3","","","8","main_expt","",""
"","bandit","90","318577","0.0-50.0-0.0","15332633","wem/bandit_party_1","A1MQ9B05ZMM4YI","either","8","347","","","","","","","0","1","0","","0.1835034381","0.2","0.4","0.8","0.6","0.1698108096","0.1835034381","0.3796681134","0.3278889804","","","","","","","","","","","","","","74","J","1","","","9","main_expt","",""
"","bandit","91","320733","0.0-51.0-0.0","15332633","wem/bandit_party_1","A1MQ9B05ZMM4YI","either","8","645","","","","","","","0","0","1","0.221757114","","0.2","0.4","0.8","0.6","","","","","0.221757114","0.1939723001","0.3614311416","0.3137855556","","","","","","","","","","72","H","0","img/none_selected.jpg","","10","main_expt","",""
"","bandit","92","322722","0.0-52.0-0.0","15332633","wem/bandit_party_1","A1MQ9B05ZMM4YI","either","8","481","","","","","","","0","0","1","0.3938737051","","0.2","0.4","0.8","0.6","","","","","0.1961062924","0.1949806013","0.3938737051","0.3253079181","","","","","","","","","","75","K","2","","","11","main_expt","",""
"","bandit","93","324723","0.0-53.0-0.0","15332633","wem/bandit_party_1","A1MQ9B05ZMM4YI","either","8","492","","","","","","","0","0","1","","0.2587943474","0.2","0.4","0.8","0.6","0.1907056259","0.2587943474","0.3810544723","0.3298150516","","","","","","","","","","","","","","74","J","1","","","12","main_expt","",""
"","bandit","94","326601","0.0-54.0-0.0","15332633","wem/bandit_party_1","A1MQ9B05ZMM4YI","either","8","371","","","","","","","0","0","1","","0.2162865666","0.2","0.4","0.8","0.6","0.2162865666","0.3085985727","0.3707046684","0.3673307406","","","","","","","","","","","","","","72","H","0","img/none_selected.jpg","","13","main_expt","",""
"","bandit","95","328691","0.0-55.0-0.0","15332633","wem/bandit_party_1","A1MQ9B05ZMM4YI","either","8","583","","","","","","","0","0","1","","0.3486531997","0.2","0.4","0.8","0.6","0.2399362825","0.2464992766","0.3486531997","0.3679224674","","","","","","","","","","","","","","75","K","2","","","14","main_expt","",""
"","bandit","96","330585","0.0-56.0-0.0","15332633","wem/bandit_party_1","A1MQ9B05ZMM4YI","either","8","387","","","","","","","1","0","0","0.3062507314","","0.2","0.4","0.8","0.6","","","","","0.1986859052","0.2474611475","0.3263578384","0.3062507314","","","","","","","","","","76","L","3","","","15","main_expt","",""
"","bandit","97","332435","0.0-57.0-0.0","15332633","wem/bandit_party_1","A1MQ9B05ZMM4YI","either","8","340","","","","","","","0","1","0","","0.2835538477","0.2","0.4","0.8","0.6","0.1865641621","0.2835538477","0.3514189979","0.2892976033","","","","","","","","","","","","","","74","J","1","","","16","main_expt","",""
"","bandit","98","334201","0.0-58.0-0.0","15332633","wem/bandit_party_1","A1MQ9B05ZMM4YI","either","8","259","","","","","","","0","0","1","","0.2035525071","0.2","0.4","0.8","0.6","0.2035525071","0.3256112075","0.3532592314","0.2861796528","","","","","","","","","","","","","","72","H","0","img/none_selected.jpg","","17","main_expt","",""
"","bandit","99","335994","0.0-59.0-0.0","15332633","wem/bandit_party_1","A1MQ9B05ZMM4YI","either","8","285","","","","","","","0","0","1","0.3858608091","","0.2","0.4","0.8","0.6","","","","","0.2039336531","0.3802227677","0.3858608091","0.2958570682","","","","","","","","","","75","K","2","","","18","main_expt","",""
"","bandit","100","337826","0.0-60.0-0.0","15332633","wem/bandit_party_1","A1MQ9B05ZMM4YI","either","8","324","","","","","","","0","0","1","","0.360566968","0.2","0.4","0.8","0.6","0.1598579642","0.360566968","0.3837638756","0.3353028819","","","","","","","","","","","","","","74","J","1","","","19","main_expt","",""
"","bandit","101","339675","0.0-61.0-0.0","15332633","wem/bandit_party_1","A1MQ9B05ZMM4YI","either","8","342","","","","","","","0","0","1","0.3696799013","","0.2","0.4","0.8","0.6","","","","","0.1437622327","0.3696799013","0.2872100501","0.3139704528","","","","","","","","","","74","J","1","","","20","main_expt","",""
"","bandit","102","341577","0.0-62.0-0.0","15332633","wem/bandit_party_1","A1MQ9B05ZMM4YI","either","8","395","","","","","","","0","0","1","","0.07974703335","0.2","0.4","0.8","0.6","0.07974703335","0.4006907501","0.2975414498","0.2524707143","","","","","","","","","","","","","","72","H","0","img/none_selected.jpg","","21","main_expt","",""
"","bandit","103","343401","0.0-63.0-0.0","15332633","wem/bandit_party_1","A1MQ9B05ZMM4YI","either","8","315","","","","","","","0","0","1","","0.2741965999","0.2","0.4","0.8","0.6","0.1361132429","0.4081217326","0.2741965999","0.248326021","","","","","","","","","","","","","","75","K","2","","","22","main_expt","",""
"","bandit","104","345162","0.0-64.0-0.0","15332633","wem/bandit_party_1","A1MQ9B05ZMM4YI","either","8","253","","","","","","","0","0","1","","0.2937153481","0.2","0.4","0.8","0.6","0.1705973249","0.3740207531","0.2379064449","0.2937153481","","","","","","","","","","","","","","76","L","3","","","23","main_expt","",""
"","bandit","105","347064","0.0-65.0-0.0","15332633","wem/bandit_party_1","A1MQ9B05ZMM4YI","either","8","395","","","","","","","0","0","1","","0.3913756451","0.2","0.4","0.8","0.6","0.1392759225","0.3913756451","0.2078598572","0.2625315469","","","","","","","","","","","","","","74","J","1","","","24","main_expt","",""
"","bandit","106","349504","0.0-66.0-0.0","15332633","wem/bandit_party_1","A1MQ9B05ZMM4YI","either","8","933","","","","","","","0","0","1","0.2764850733","","0.2","0.4","0.8","0.6","","","","","0.1800538527","0.4100905738","0.2764850733","0.2405651368","","","","","","","","","","75","K","2","","","25","main_expt","",""
"","bandit","107","351411","0.0-67.0-0.0","15332633","wem/bandit_party_1","A1MQ9B05ZMM4YI","either","8","400","","","","","","","0","0","1","0.3080191348","","0.2","0.4","0.8","0.6","","","","","0.2146400533","0.3600668969","0.3080191348","0.2503350336","","","","","","","","","","75","K","2","","","26","main_expt","",""
"","bandit","108","353227","0.0-68.0-0.0","15332633","wem/bandit_party_1","A1MQ9B05ZMM4YI","either","8","306","","","","","","","1","0","0","0.3606197488","","0.2","0.4","0.8","0.6","","","","","0.1948367851","0.3703096079","0.3606197488","0.354091838","","","","","","","","","","75","K","2","","","27","main_expt","",""
"","bandit","109","355066","0.0-69.0-0.0","15332633","wem/bandit_party_1","A1MQ9B05ZMM4YI","either","8","331","","","","","","","0","0","1","0.3527269899","","0.2","0.4","0.8","0.6","","","","","0.2282666016","0.3527269899","0.3696097963","0.3419366675","","","","","","","","","","74","J","1","","","28","main_expt","",""
"","bandit","110","356921","0.0-70.0-0.0","15332633","wem/bandit_party_1","A1MQ9B05ZMM4YI","either","8","347","","","","","","","0","0","1","","0.2854860911","0.2","0.4","0.8","0.6","0.1842618798","0.2854860911","0.3434444954","0.361896517","","","","","","","","","","","","","","74","J","1","","","29","main_expt","",""
"","bandit","111","359033","0.0-71.0-0.0","15332633","wem/bandit_party_1","A1MQ9B05ZMM4YI","either","8","604","","","","","","","0","1","0","","0.2971434158","0.2","0.4","0.8","0.6","0.1930267653","0.2971434158","0.3528183973","0.3701160785","","","","","","","","","","","","","","74","J","1","","","30","main_expt","",""
"","bandit","112","360697","0.0-72.0-0.0","15332633","wem/bandit_party_1","A1MQ9B05ZMM4YI","either","8","156","","","","","","","1","0","0","0.3602312343","","0.2","0.4","0.8","0.6","","","","","0.2279264959","0.3192935598","0.3436926249","0.3602312343","","","","","","","","","","76","L","3","","","31","main_expt","",""
"","bandit","113","362451","0.0-73.0-0.0","15332633","wem/bandit_party_1","A1MQ9B05ZMM4YI","either","8","246","","","","","","","0","0","1","","0.1922668126","0.2","0.4","0.8","0.6","0.1922668126","0.2910845839","0.3392376576","0.3550043818","","","","","","","","","","","","","","72","H","0","img/none_selected.jpg","","32","main_expt","",""
"","bandit","114","364304","0.0-74.0-0.0","15332633","wem/bandit_party_1","A1MQ9B05ZMM4YI","either","8","345","","","","","","","0","0","1","0.2956883229","","0.2","0.4","0.8","0.6","","","","","0.1503247695","0.2956883229","0.2524106513","0.3927862597","","","","","","","","","","74","J","1","","","33","main_expt","",""
"","bandit","115","366297","0.0-75.0-0.0","15332633","wem/bandit_party_1","A1MQ9B05ZMM4YI","either","8","485","","","","","","","0","0","1","0.2378308988","","0.2","0.4","0.8","0.6","","","","","0.1875072744","0.2918182698","0.2378308988","0.4185963197","","","","","","","","","","75","K","2","","","34","main_expt","",""
"","bandit","116","369425","0.0-76.0-0.0","15332633","wem/bandit_party_1","A1MQ9B05ZMM4YI","either","8","1619","","","","","","","0","1","0","","0.2135507624","0.2","0.4","0.8","0.6","0.2135507624","0.3063909307","0.2683654211","0.441983755","","","","","","","","","","","","","","72","H","0","img/none_selected.jpg","","35","main_expt","",""
"","bandit","117","371835","0.0-77.0-0.0","15332633","wem/bandit_party_1","A1MQ9B05ZMM4YI","either","8","900","","","","","","","0","0","1","0.4352827683","","0.2","0.4","0.8","0.6","","","","","0.2042402853","0.2820805085","0.2645223933","0.4352827683","","","","","","","","","","76","L","3","","","36","main_expt","",""
"","bandit","118","374722","0.0-78.0-0.0","15332633","wem/bandit_party_1","A1MQ9B05ZMM4YI","either","8","1382","","","","","","","0","0","1","","0.2360561858","0.2","0.4","0.8","0.6","0.2024605481","0.2610370824","0.2360561858","0.450520142","","","","","","","","","","","","","","75","K","2","","","37","main_expt","",""
"","bandit","119","381027","0.0-79.0-0.0","15332633","wem/bandit_party_1","A1MQ9B05ZMM4YI","either","8","4795","","","","","","","0","0","1","","0.1677713785","0.2","0.4","0.8","0.6","0.1677713785","0.1896233007","0.2001865083","0.4681224698","","","","","","","","","","","","","","72","H","0","img/none_selected.jpg","","38","main_expt","",""
"","bandit","120","383794","0.0-80.0-0.0","15332633","wem/bandit_party_1","A1MQ9B05ZMM4YI","either","8","1258","","","","","","","0","0","1","","0.168851025","0.2","0.4","0.8","0.6","0.221779122","0.168851025","0.1687915361","0.4711022053","","","","","","","","","","","","","","74","J","1","","","39","main_expt","",""
"","bandit","121","386523","0.0-81.0-0.0","15332633","wem/bandit_party_1","A1MQ9B05ZMM4YI","either","8","1221","","","","","","","0","0","1","","0.1503151413","0.2","0.4","0.8","0.6","0.2722397218","0.1615787635","0.1503151413","0.4559447699","","","","","","","","","","","","","","75","K","2","","","40","main_expt","",""
"","bandit","122","388673","0.0-82.0-0.0","15332633","wem/bandit_party_1","A1MQ9B05ZMM4YI","either","8","641","","","","","","","0","0","1","","0.4412687596","0.2","0.4","0.8","0.6","0.3298230943","0.1472326003","0.08168262283","0.4412687596","","","","","","","","","","","","","","76","L","3","","","41","main_expt","",""
"","bandit","123","391977","0.0-83.0-0.0","15332633","wem/bandit_party_1","A1MQ9B05ZMM4YI","either","8","1795","","","","","","","0","0","1","0.07668629145","","0.2","0.4","0.8","0.6","","","","","0.3104885444","0.1533480506","0.07668629145","0.4457751761","","","","","","","","","","75","K","2","","","42","main_expt","",""
"","bandit","124","394218","0.0-84.0-0.0","15332633","wem/bandit_party_1","A1MQ9B05ZMM4YI","either","8","732","","","","","","","0","0","1","","0.1414351437","0.2","0.4","0.8","0.6","0.3005355489","0.1414351437","0.07394587158","0.4298378352","","","","","","","","","","","","","","74","J","1","","","43","main_expt","",""
"","bandit","125","396449","0.0-85.0-0.0","15332633","wem/bandit_party_1","A1MQ9B05ZMM4YI","either","8","723","","","","","","","0","0","1","","0.2456242138","0.2","0.4","0.8","0.6","0.2456242138","0.1067646429","0.1192337685","0.4416915379","","","","","","","","","","","","","","72","H","0","img/none_selected.jpg","","44","main_expt","",""
"","bandit","126","400907","0.0-86.0-0.0","15332633","wem/bandit_party_1","A1MQ9B05ZMM4YI","either","8","2948","","","","","","","0","0","1","0.1285724119","","0.2","0.4","0.8","0.6","","","","","0.2839901561","0.1250796286","0.1285724119","0.3915522423","","","","","","","","","","75","K","2","","","45","main_expt","",""
"","bandit","127","403416","0.0-87.0-0.0","15332633","wem/bandit_party_1","A1MQ9B05ZMM4YI","either","8","1002","","","","","","","0","0","1","0.1927264636","","0.2","0.4","0.8","0.6","","","","","0.2353621531","0.1927264636","0.1112684106","0.4318427431","","","","","","","","","","74","J","1","","","46","main_expt","",""
"","bandit","128","405858","0.0-88.0-0.0","15332633","wem/bandit_party_1","A1MQ9B05ZMM4YI","either","8","931","","","","","","","0","0","1","","0.4395998441","0.2","0.4","0.8","0.6","0.2405257196","0.1804488412","0.1207340475","0.4395998441","","","","","","","","","","","","","","76","L","3","","","47","main_expt","",""
"","bandit","129","408065","0.0-89.0-0.0","15332633","wem/bandit_party_1","A1MQ9B05ZMM4YI","either","8","701","","","","","","","0","0","1","","0.1182533935","0.2","0.4","0.8","0.6","0.2629408555","0.168268176","0.1182533935","0.4630443269","","","","","","","","","","","","","","75","K","2","","","48","main_expt","",""
"","bandit","130","409906","0.0-90.0-0.0","15332633","wem/bandit_party_1","A1MQ9B05ZMM4YI","either","8","332","","","","","","","0","1","0","","0.1466838001","0.2","0.4","0.8","0.6","0.2902453213","0.1466838001","0.1460801474","0.4794982466","","","","","","","","","","","","","","74","J","1","","","49","main_expt","",""
"","bandit","131","411692","0.0-91.0-0.0","15332633","wem/bandit_party_1","A1MQ9B05ZMM4YI","either","8","276","","","","","","","0","0","1","","0.3033715012","0.2","0.4","0.8","0.6","0.3033715012","0.1336340117","0.1765155983","0.4562783041","","","","","","","","","","","","","","72","H","0","img/none_selected.jpg","","50","main_expt","",""
"","bandit","132","413247","0.0-92.0-0.0","15332633","wem/bandit_party_1","A1MQ9B05ZMM4YI","either","8","47","","","","","","","0","0","1","0.4515646323","","0.2","0.4","0.8","0.6","","","","","0.3536831403","0.1067821754","0.1614266163","0.4515646323","","","","","","","","","","76","L","3","","","51","main_expt","",""
"","bandit","133","414897","0.0-93.0-0.0","15332633","wem/bandit_party_1","A1MQ9B05ZMM4YI","either","8","141","","","","","","","0","0","1","0.1938643747","","0.2","0.4","0.8","0.6","","","","","0.3058792917","0.07294577227","0.1938643747","0.4344137529","","","","","","","","","","75","K","2","","","52","main_expt","",""
"","bandit","134","416449","0.0-94.0-0.0","15332633","wem/bandit_party_1","A1MQ9B05ZMM4YI","either","8","44","","","","","","","0","0","1","","0.07676454597","0.2","0.4","0.8","0.6","0.3466820038","0.07676454597","0.1721886996","0.4421766306","","","","","","","","","","","","","","74","J","1","","","53","main_expt","",""
"","bandit","135","418144","0.0-95.0-0.0","15332633","wem/bandit_party_1","A1MQ9B05ZMM4YI","either","8","187","","","","","","","0","0","1","0.3159173384","","0.2","0.4","0.8","0.6","","","","","0.3159173384","0.07707135067","0.1542880765","0.4591875032","","","","","","","","","","72","H","0","img/none_selected.jpg","","54","main_expt","",""
"","bandit","136","419872","0.0-96.0-0.0","15332633","wem/bandit_party_1","A1MQ9B05ZMM4YI","either","8","219","","","","","","","0","0","1","0.2155598061","","0.2","0.4","0.8","0.6","","","","","0.3205246683","0.08227932488","0.2155598061","0.4455250987","","","","","","","","","","75","K","2","","","55","main_expt","",""
"","bandit","137","421664","0.0-97.0-0.0","15332633","wem/bandit_party_1","A1MQ9B05ZMM4YI","either","8","283","","","","","","","0","0","1","0.09013031375","","0.2","0.4","0.8","0.6","","","","","0.3067659888","0.09013031375","0.199350645","0.4200701886","","","","","","","","","","74","J","1","","","56","main_expt","",""
"","bandit","138","423457","0.0-98.0-0.0","15332633","wem/bandit_party_1","A1MQ9B05ZMM4YI","either","8","286","","","","","","","0","0","1","0.1991981904","","0.2","0.4","0.8","0.6","","","","","0.3786279545","0.106866739","0.1991981904","0.3635567377","","","","","","","","","","75","K","2","","","57","main_expt","",""
"","bandit","139","425089","0.0-99.0-0.0","15332633","wem/bandit_party_1","A1MQ9B05ZMM4YI","either","8","123","","","","","","","0","0","1","0.0915584437","","0.2","0.4","0.8","0.6","","","","","0.3796022377","0.0915584437","0.1307276253","0.3647217687","","","","","","","","","","74","J","1","","","58","main_expt","",""
"","bandit","140","426890","0.0-100.0-0.0","15332633","wem/bandit_party_1","A1MQ9B05ZMM4YI","either","8","291","","","","","","","0","0","1","","0.3570845549","0.2","0.4","0.8","0.6","0.3570845549","0.1036540812","0.1540949786","0.3975499765","","","","","","","","","","","","","","72","H","0","img/none_selected.jpg","","59","main_expt","",""
"","bandit","141","428561","0.0-101.0-0.0","15332633","wem/bandit_party_1","A1MQ9B05ZMM4YI","either","8","163","","","","","","","0","0","1","","0.07948280662","0.2","0.4","0.8","0.6","0.398525789","0.07948280662","0.1187181044","0.376383165","","","","","","","","","","","","","","74","J","1","","","60","main_expt","",""
"","bandit","142","430378","0.0-102.0-0.0","15332633","wem/bandit_party_1","A1MQ9B05ZMM4YI","either","8","307","","","","","","","0","0","1","0.3384437455","","0.2","0.4","0.8","0.6","","","","","0.380986593","0.0685056185","0.1734870435","0.3384437455","","","","","","","","","","76","L","3","","","61","main_expt","",""
"","bandit","143","432170","0.0-103.0-0.0","15332633","wem/bandit_party_1","A1MQ9B05ZMM4YI","either","8","283","","","","","","","0","0","1","0.2056999461","","0.2","0.4","0.8","0.6","","","","","0.3928002855","0.04196312691","0.2056999461","0.3086389155","","","","","","","","","","75","K","2","","","62","main_expt","",""
"","bandit","144","435204","0.0-104.0-0.0","15332633","wem/bandit_party_1","A1MQ9B05ZMM4YI","either","8","1524","","","","","","","1","0","0","0.06524357318","","0.2","0.4","0.8","0.6","","","","","0.4097838671","0.06524357318","0.2421495796","0.3098998428","","","","","","","","","","74","J","1","","","63","main_expt","",""
"","bandit","145","443075","0.0-105.0-0.0","15332633","wem/bandit_party_1","A1MQ9B05ZMM4YI","either","8","6363","","","","","","","0","1","0","","0.3942475769","0.2","0.4","0.8","0.6","0.3942475769","0.04599317762","0.2678986655","0.2859800092","","","","","","","","","","","","","","72","H","0","img/none_selected.jpg","","64","main_expt","",""
"","bandit","146","450275","0.0-106.0-0.0","15332633","wem/bandit_party_1","A1MQ9B05ZMM4YI","either","8","5691","","","","","","","1","0","0","0.2780805564","","0.2","0.4","0.8","0.6","","","","","0.3756823908","0.04738713632","0.2780805564","0.2780623804","","","","","","","","","","75","K","2","","","65","main_expt","",""
"","bandit","147","454851","0.0-107.0-0.0","15332633","wem/bandit_party_1","A1MQ9B05ZMM4YI","either","8","3066","","","","","","","0","0","1","0.02873144913","","0.2","0.4","0.8","0.6","","","","","0.3780323226","0.02873144913","0.2923516192","0.2740889186","","","","","","","","","","74","J","1","","","66","main_expt","",""
"","bandit","148","466532","0.0-108.0-0.0","15332633","wem/bandit_party_1","A1MQ9B05ZMM4YI","either","8","10172","","","","","","","0","0","1","","0.382091886","0.2","0.4","0.8","0.6","0.382091886","0.0355516853","0.3481747094","0.3122756929","","","","","","","","","","","","","","72","H","0","img/none_selected.jpg","","67","main_expt","",""
"","bandit","149","468243","0.0-109.0-0.0","15332633","wem/bandit_party_1","A1MQ9B05ZMM4YI","either","8","200","","","","","","","0","0","1","0.04483006882","","0.2","0.4","0.8","0.6","","","","","0.4080562953","0.04483006882","0.3540590834","0.3004294993","","","","","","","","","","74","J","1","","","68","main_expt","",""
"","bandit","150","478623","0.0-110.0-0.0","15332633","wem/bandit_party_1","A1MQ9B05ZMM4YI","either","8","8869","","","","","","","0","0","1","0.3348318208","","0.2","0.4","0.8","0.6","","","","","0.419826639","0.04300650393","0.3348318208","0.3312842332","","","","","","","","","","75","K","2","","","69","main_expt","",""
"","bandit","151","481227","0.0-111.0-0.0","15332633","wem/bandit_party_1","A1MQ9B05ZMM4YI","either","8","1094","","","","","","","0","0","1","0.03960880855","","0.2","0.4","0.8","0.6","","","","","0.3889643965","0.03960880855","0.3844983113","0.2362018798","","","","","","","","","","74","J","1","","","70","main_expt","",""
"","bandit","152","484905","0.0-112.0-0.0","15332633","wem/bandit_party_1","A1MQ9B05ZMM4YI","either","8","2172","","","","","","","0","1","0","","0.3492343966","0.2","0.4","0.8","0.6","0.3492343966","0.02401392238","0.3753843975","0.1838323472","","","","","","","","","","","","","","72","H","0","img/none_selected.jpg","","71","main_expt","",""
"","bandit","153","489274","0.0-113.0-0.0","15332633","wem/bandit_party_1","A1MQ9B05ZMM4YI","either","8","2860","","","","","","","0","0","1","","0.008756159955","0.2","0.4","0.8","0.6","0.3502155883","0.008756159955","0.3861429343","0.1749810972","","","","","","","","","","","","","","74","J","1","","","72","main_expt","",""
"","bandit","154","493087","0.0-114.0-0.0","15332633","wem/bandit_party_1","A1MQ9B05ZMM4YI","either","8","2304","","","","","","","1","0","0","0.3978436086","","0.2","0.4","0.8","0.6","","","","","0.3568691787","0.006257651783","0.3978436086","0.1664097112","","","","","","","","","","75","K","2","","","73","main_expt","",""
"","bandit","155","500000","0.0-115.0-0.0","15332633","wem/bandit_party_1","A1MQ9B05ZMM4YI","either","8","5405","","","","","","","0","0","1","","0.004732084297","0.2","0.4","0.8","0.6","0.3303653739","0.004732084297","0.3847979518","0.2001176207","","","","","","","","","","","","","","74","J","1","","","74","main_expt","",""
"","bandit","156","504874","0.0-116.0-0.0","15332633","wem/bandit_party_1","A1MQ9B05ZMM4YI","either","8","3363","","","","","","","0","1","0","","0.3353283381","0.2","0.4","0.8","0.6","0.3353283381","0.006967558871","0.3974319157","0.1848717924","","","","","","","","","","","","","","72","H","0","img/none_selected.jpg","","75","main_expt","",""
"","bandit","157","510642","0.0-117.0-0.0","15332633","wem/bandit_party_1","A1MQ9B05ZMM4YI","either","8","4259","","","","","","","0","0","1","0.004525860487","","0.2","0.4","0.8","0.6","","","","","0.3009524994","0.004525860487","0.3987985884","0.1510178238","","","","","","","","","","74","J","1","","","76","main_expt","",""
"","bandit","158","515809","0.0-118.0-0.0","15332633","wem/bandit_party_1","A1MQ9B05ZMM4YI","either","8","3656","","","","","","","1","0","0","0.4127312768","","0.2","0.4","0.8","0.6","","","","","0.3316028908","0.007245535115","0.4127312768","0.2089633591","","","","","","","","","","75","K","2","","","77","main_expt","",""
"","bandit","159","522794","0.0-119.0-0.0","15332633","wem/bandit_party_1","A1MQ9B05ZMM4YI","either","8","5475","","","","","","","0","0","1","","0.00483057751","0.2","0.4","0.8","0.6","0.3571024926","0.00483057751","0.4257675477","0.2285147345","","","","","","","","","","","","","","74","J","1","","","78","main_expt","",""
"","bandit","160","529943","0.0-120.0-0.0","15332633","wem/bandit_party_1","A1MQ9B05ZMM4YI","either","8","5643","","","","","","","0","0","1","","0.005956317848","0.2","0.4","0.8","0.6","0.3542776451","0.005956317848","0.4331167668","0.2246975601","","","","","","","","","","","","","","74","J","1","","","79","main_expt","",""
"","bandit","161","552825","0.0-121.0-0.0","15332633","wem/bandit_party_1","A1MQ9B05ZMM4YI","either","8","21373","","","","","","","0","0","1","","0.0076590047","0.2","0.4","0.8","0.6","0.3201174307","0.0076590047","0.4294395537","0.1878766281","","","","","","","","","","","","","","74","J","1","","","80","main_expt","",""
"","bandit","162","556038","0.0-122.0-0.0","15332633","wem/bandit_party_1","A1MQ9B05ZMM4YI","either","8","1703","","","","","","","0","1","0","","0.3503003334","0.2","0.4","0.8","0.6","0.3503003334","0.009115568074","0.4234249918","0.2436254364","","","","","","","","","","","","","","72","H","0","img/none_selected.jpg","","81","main_expt","",""
"","bandit","163","558015","0.0-123.0-0.0","15332633","wem/bandit_party_1","A1MQ9B05ZMM4YI","either","8","468","","","","","","","0","0","1","0.01382977225","","0.2","0.4","0.8","0.6","","","","","0.3509066846","0.01382977225","0.3956977209","0.2627531714","","","","","","","","","","74","J","1","","","82","main_expt","",""
"","bandit","164","560017","0.0-124.0-0.0","15332633","wem/bandit_party_1","A1MQ9B05ZMM4YI","either","8","490","","","","","","","0","0","1","0.4248650233","","0.2","0.4","0.8","0.6","","","","","0.3951868033","0.01500629599","0.4248650233","0.2672212524","","","","","","","","","","75","K","2","","","83","main_expt","",""
"","bandit","165","561799","0.0-125.0-0.0","15332633","wem/bandit_party_1","A1MQ9B05ZMM4YI","either","8","274","","","","","","","0","0","1","0.02310127573","","0.2","0.4","0.8","0.6","","","","","0.4131477378","0.02310127573","0.4196907627","0.2817484998","","","","","","","","","","74","J","1","","","84","main_expt","",""
"","bandit","166","563537","0.0-126.0-0.0","15332633","wem/bandit_party_1","A1MQ9B05ZMM4YI","either","8","228","","","","","","","0","1","0","","0.3889697292","0.2","0.4","0.8","0.6","0.3889697292","0.02639065846","0.435633498","0.3074775227","","","","","","","","","","","","","","72","H","0","img/none_selected.jpg","","85","main_expt","",""
"","bandit","167","565430","0.0-127.0-0.0","15332633","wem/bandit_party_1","A1MQ9B05ZMM4YI","either","8","385","","","","","","","0","0","1","0.01746441632","","0.2","0.4","0.8","0.6","","","","","0.3885636443","0.01746441632","0.4322222521","0.2717847629","","","","","","","","","","74","J","1","","","86","main_expt","",""
"","bandit","168","567177","0.0-128.0-0.0","15332633","wem/bandit_party_1","A1MQ9B05ZMM4YI","either","8","235","","","","","","","0","0","1","0.4476119451","","0.2","0.4","0.8","0.6","","","","","0.4028282504","0.01256144444","0.4476119451","0.2183858348","","","","","","","","","","75","K","2","","","87","main_expt","",""
"","bandit","169","568863","0.0-129.0-0.0","15332633","wem/bandit_party_1","A1MQ9B05ZMM4YI","either","8","174","","","","","","","0","0","1","","0.01178158386","0.2","0.4","0.8","0.6","0.4306890759","0.01178158386","0.4073123198","0.2054961256","","","","","","","","","","","","","","74","J","1","","","88","main_expt","",""
"","bandit","170","570928","0.0-130.0-0.0","15332633","wem/bandit_party_1","A1MQ9B05ZMM4YI","either","8","555","","","","","","","0","1","0","","0.4103738654","0.2","0.4","0.8","0.6","0.4103738654","0.008722555822","0.3862301724","0.1452714398","","","","","","","","","","","","","","72","H","0","img/none_selected.jpg","","89","main_expt","",""
"","bandit","171","572839","0.0-131.0-0.0","15332633","wem/bandit_party_1","A1MQ9B05ZMM4YI","either","8","402","","","","","","","0","0","1","0.008232471735","","0.2","0.4","0.8","0.6","","","","","0.3980827974","0.008232471735","0.3596745144","0.1077779513","","","","","","","","","","74","J","1","","","90","main_expt","",""
"","bandit","172","582007","0.0-132.0-0.0","15332633","wem/bandit_party_1","A1MQ9B05ZMM4YI","either","8","7660","","","","","","","0","0","1","0.3082854458","","0.2","0.4","0.8","0.6","","","","","0.4040531024","0.01249180717","0.3082854458","0.1308407065","","","","","","","","","","75","K","2","","","91","main_expt","",""
"","bandit","173","585906","0.0-133.0-0.0","15332633","wem/bandit_party_1","A1MQ9B05ZMM4YI","either","8","2391","","","","","","","0","0","1","","0.01470986316","0.2","0.4","0.8","0.6","0.3462944796","0.01470986316","0.312225492","0.1652322036","","","","","","","","","","","","","","74","J","1","","","92","main_expt","",""
"","bandit","174","590399","0.0-134.0-0.0","15332633","wem/bandit_party_1","A1MQ9B05ZMM4YI","either","8","2984","","","","","","","0","0","1","0.3671658277","","0.2","0.4","0.8","0.6","","","","","0.3411451966","0.02655281846","0.3671658277","0.1344678182","","","","","","","","","","75","K","2","","","93","main_expt","",""
"","bandit","175","600248","0.0-135.0-0.0","15332633","wem/bandit_party_1","A1MQ9B05ZMM4YI","either","8","8340","","","","","","","0","0","1","","0.02575246025","0.2","0.4","0.8","0.6","0.3384154489","0.02575246025","0.3401731108","0.1301314301","","","","","","","","","","","","","","74","J","1","","","94","main_expt","",""
"","bandit","176","608487","0.0-136.0-0.0","15332633","wem/bandit_party_1","A1MQ9B05ZMM4YI","either","8","6728","","","","","","","1","0","0","0.3413923724","","0.2","0.4","0.8","0.6","","","","","0.3126988266","0.02262355665","0.3413923724","0.1746055711","","","","","","","","","","75","K","2","","","95","main_expt","",""
"","bandit","177","619866","0.0-137.0-0.0","15332633","wem/bandit_party_1","A1MQ9B05ZMM4YI","either","8","9868","","","","","","","0","0","1","0.3570420485","","0.2","0.4","0.8","0.6","","","","","0.3800019137","0.02047181149","0.3570420485","0.1994244555","","","","","","","","","","75","K","2","","","96","main_expt","",""
"","bandit","178","621866","0.0-138.0-0.0","15332633","wem/bandit_party_1","A1MQ9B05ZMM4YI","either","8","487","","","","","","","0","0","1","","0.0207754381","0.2","0.4","0.8","0.6","0.3328121005","0.0207754381","0.3435474977","0.1834602947","","","","","","","","","","","","","","74","J","1","","","97","main_expt","",""
"","bandit","179","629024","0.0-139.0-0.0","15332633","wem/bandit_party_1","A1MQ9B05ZMM4YI","either","8","5648","","","","","","","0","0","1","","0.02955834597","0.2","0.4","0.8","0.6","0.332228596","0.02955834597","0.3614714926","0.1719221531","","","","","","","","","","","","","","74","J","1","","","98","main_expt","",""
"","bandit","180","640017","0.0-140.0-0.0","15332633","wem/bandit_party_1","A1MQ9B05ZMM4YI","either","8","9484","","","","","","","0","0","1","0.3176405447","","0.2","0.4","0.8","0.6","","","","","0.2843854285","0.0383131093","0.3176405447","0.1183399241","","","","","","","","","","75","K","2","","","99","main_expt","",""
"","bandit","181","646217","0.0-141.0-0.0","15332633","wem/bandit_party_1","A1MQ9B05ZMM4YI","either","8","4688","","","","","","","0","0","1","0.03580757471","","0.2","0.4","0.8","0.6","","","","","0.309751149","0.03580757471","0.3586553183","0.1558635017","","","","","","","","","","74","J","1","","","100","main_expt","",""
"","bandit","182","660994","0.0-142.0-0.0","15332633","wem/bandit_party_1","A1MQ9B05ZMM4YI","either","8","13268","","","","","","","0","0","1","0.2951503345","","0.2","0.4","0.8","0.6","","","","","0.2993195944","0.04899620691","0.2951503345","0.1389665978","","","","","","","","","","75","K","2","","","101","main_expt","",""
"","bandit","183","665672","0.0-143.0-0.0","15332633","wem/bandit_party_1","A1MQ9B05ZMM4YI","either","8","3169","","","","","","","0","0","1","","0.08055650644","0.2","0.4","0.8","0.6","0.3551890872","0.08055650644","0.2998391809","0.1377203561","","","","","","","","","","","","","","74","J","1","","","102","main_expt","",""
"","bandit","184","668343","0.0-144.0-0.0","15332633","wem/bandit_party_1","A1MQ9B05ZMM4YI","either","8","1161","","","","","","","0","0","1","","0.2791823827","0.2","0.4","0.8","0.6","0.3148404956","0.1040447627","0.2791823827","0.1285548106","","","","","","","","","","","","","","75","K","2","","","103","main_expt","",""
"","bandit","185","680303","0.0-145.0-0.0","15332633","wem/bandit_party_1","A1MQ9B05ZMM4YI","either","8","10451","","","","","","","0","0","1","0.1143547335","","0.2","0.4","0.8","0.6","","","","","0.3286912191","0.1143547335","0.3382769334","0.1555523735","","","","","","","","","","74","J","1","","","104","main_expt","",""
"","bandit","186","687318","0.0-146.0-0.0","15332633","wem/bandit_party_1","A1MQ9B05ZMM4YI","either","8","5507","","","","","","","0","0","1","0.1775592141","","0.2","0.4","0.8","0.6","","","","","0.298340497","0.1487676438","0.3339697125","0.1775592141","","","","","","","","","","76","L","3","","","105","main_expt","",""
"","bandit","187","690046","0.0-147.0-0.0","15332633","wem/bandit_party_1","A1MQ9B05ZMM4YI","either","8","1218","","","","","","","0","1","0","","0.3124129253","0.2","0.4","0.8","0.6","0.3504464386","0.152088545","0.3124129253","0.2263451353","","","","","","","","","","","","","","75","K","2","","","106","main_expt","",""
"","bandit","188","691936","0.0-148.0-0.0","15332633","wem/bandit_party_1","A1MQ9B05ZMM4YI","either","8","378","","","","","","","0","0","1","","0.2406734145","0.2","0.4","0.8","0.6","0.3510410077","0.2406734145","0.3400683723","0.1679769802","","","","","","","","","","","","","","74","J","1","","","107","main_expt","",""
"","bandit","189","695496","0.0-149.0-0.0","15332633","wem/bandit_party_1","A1MQ9B05ZMM4YI","either","8","2050","","","","","","","0","1","0","","0.3557340834","0.2","0.4","0.8","0.6","0.3282766846","0.3048040024","0.3557340834","0.1999870147","","","","","","","","","","","","","","75","K","2","","","108","main_expt","",""
"","bandit","190","698062","0.0-150.0-0.0","15332633","wem/bandit_party_1","A1MQ9B05ZMM4YI","either","8","1056","","","","","","","0","0","1","0.208992856","","0.2","0.4","0.8","0.6","","","","","0.3561186451","0.3418503096","0.3846418901","0.208992856","","","","","","","","","","76","L","3","","","109","main_expt","",""
"","bandit","191","710560","0.0-151.0-0.0","15332633","wem/bandit_party_1","A1MQ9B05ZMM4YI","either","8","10988","","","","","","","0","0","1","0.4057962062","","0.2","0.4","0.8","0.6","","","","","0.3576445865","0.3198501315","0.4057962062","0.1716040471","","","","","","","","","","75","K","2","","","110","main_expt","",""
"","bandit","192","716383","0.0-152.0-0.0","15332633","wem/bandit_party_1","A1MQ9B05ZMM4YI","either","8","4312","","","","","","","0","0","1","","0.3681534847","0.2","0.4","0.8","0.6","0.3377543854","0.3681534847","0.3692451483","0.08984071331","","","","","","","","","","","","","","74","J","1","","","111","main_expt","",""
"","bandit","193","719302","0.0-153.0-0.0","15332633","wem/bandit_party_1","A1MQ9B05ZMM4YI","either","8","1410","","","","","","","0","0","1","0.3577317973","","0.2","0.4","0.8","0.6","","","","","0.286234052","0.3757830796","0.3577317973","0.1243463141","","","","","","","","","","75","K","2","","","112","main_expt","",""
"","bandit","194","724639","0.0-154.0-0.0","15332633","wem/bandit_party_1","A1MQ9B05ZMM4YI","either","8","3827","","","","","","","0","0","1","0.1433440675","","0.2","0.4","0.8","0.6","","","","","0.1932674395","0.3838999828","0.3328808086","0.1433440675","","","","","","","","","","76","L","3","","","113","main_expt","",""
"","bandit","195","729638","0.0-155.0-0.0","15332633","wem/bandit_party_1","A1MQ9B05ZMM4YI","either","8","3490","","","","","","","1","0","0","0.3416979579","","0.2","0.4","0.8","0.6","","","","","0.2403040534","0.4157938717","0.3416979579","0.1510662198","","","","","","","","","","75","K","2","","","114","main_expt","",""
"","bandit","196","733318","0.0-156.0-0.0","15332633","wem/bandit_party_1","A1MQ9B05ZMM4YI","either","8","2169","","","","","","","0","0","1","","0.4055870595","0.2","0.4","0.8","0.6","0.254937398","0.4055870595","0.3377137281","0.09845245139","","","","","","","","","","","","","","74","J","1","","","115","main_expt","",""
"","bandit","197","736704","0.0-157.0-0.0","15332633","wem/bandit_party_1","A1MQ9B05ZMM4YI","either","8","1877","","","","","","","0","0","1","0.107393795","","0.2","0.4","0.8","0.6","","","","","0.2605063941","0.4161015278","0.3039448029","0.107393795","","","","","","","","","","76","L","3","","","116","main_expt","",""
"","bandit","198","744897","0.0-158.0-0.0","15332633","wem/bandit_party_1","A1MQ9B05ZMM4YI","either","8","6682","","","","","","","0","0","1","0.2974336912","","0.2","0.4","0.8","0.6","","","","","0.2161328783","0.414877819","0.2974336912","0.07879800556","","","","","","","","","","75","K","2","","","117","main_expt","",""
"","bandit","199","751319","0.0-159.0-0.0","15332633","wem/bandit_party_1","A1MQ9B05ZMM4YI","either","8","4914","","","","","","","0","0","1","0.3968259953","","0.2","0.4","0.8","0.6","","","","","0.1931197841","0.3968259953","0.2651867246","0.08383735875","","","","","","","","","","74","J","1","","","118","main_expt","",""
"","bandit","200","755362","0.0-160.0-0.0","15332633","wem/bandit_party_1","A1MQ9B05ZMM4YI","either","8","2530","","","","","","","0","0","1","0.3131666206","","0.2","0.4","0.8","0.6","","","","","0.1638183597","0.4198241006","0.3131666206","0.1392474383","","","","","","","","","","75","K","2","","","119","main_expt","",""
"","bandit","201","761665","0.0-161.0-0.0","15332633","wem/bandit_party_1","A1MQ9B05ZMM4YI","either","8","4794","","","","","","","0","0","1","0.358829095","","0.2","0.4","0.8","0.6","","","","","0.1893282748","0.4286088018","0.358829095","0.1649404926","","","","","","","","","","75","K","2","","","120","main_expt","",""
"","bandit","202","764199","0.0-162.0-0.0","15332633","wem/bandit_party_1","A1MQ9B05ZMM4YI","either","8","1023","","","","","","","1","0","0","0.4253829576","","0.2","0.4","0.8","0.6","","","","","0.2290368179","0.4253829576","0.3189860171","0.1764152442","","","","","","","","","","74","J","1","","","121","main_expt","",""
"","bandit","203","780059","0.0-163.0-0.0","15332633","wem/bandit_party_1","A1MQ9B05ZMM4YI","either","8","14348","","","","","","","1","0","0","0.3011672979","","0.2","0.4","0.8","0.6","","","","","0.2445441383","0.4235175979","0.3011672979","0.2092397698","","","","","","","","","","75","K","2","","","122","main_expt","",""
"","bandit","204","798418","0.0-164.0-0.0","15332633","wem/bandit_party_1","A1MQ9B05ZMM4YI","either","8","16849","","","","","","","0","0","1","0.3037948063","","0.2","0.4","0.8","0.6","","","","","0.2091075756","0.4182090072","0.3037948063","0.1884058447","","","","","","","","","","75","K","2","","","123","main_expt","",""
"","bandit","205","803935","0.0-165.0-0.0","15332633","wem/bandit_party_1","A1MQ9B05ZMM4YI","either","8","4007","","","","","","","0","0","1","","0.4356016004","0.2","0.4","0.8","0.6","0.2216111921","0.4356016004","0.2446200253","0.1876417206","","","","","","","","","","","","","","74","J","1","","","124","main_expt","",""
"","bandit","206","812913","0.0-166.0-0.0","15332633","wem/bandit_party_1","A1MQ9B05ZMM4YI","either","8","7470","","","","","","","0","0","1","0.2464628806","","0.2","0.4","0.8","0.6","","","","","0.1622020501","0.403953628","0.2464628806","0.1890564589","","","","","","","","","","75","K","2","","","125","main_expt","",""
"","bandit","207","819255","0.0-167.0-0.0","15332633","wem/bandit_party_1","A1MQ9B05ZMM4YI","either","8","4835","","","","","","","0","0","1","","0.4020675328","0.2","0.4","0.8","0.6","0.173533554","0.4020675328","0.281169445","0.1659850756","","","","","","","","","","","","","","74","J","1","","","126","main_expt","",""
"","bandit","208","822399","0.0-168.0-0.0","15332633","wem/bandit_party_1","A1MQ9B05ZMM4YI","either","8","1635","","","","","","","0","0","1","0.2006343121","","0.2","0.4","0.8","0.6","","","","","0.189829559","0.338443572","0.290080064","0.2006343121","","","","","","","","","","76","L","3","","","127","main_expt","",""
"","bandit","209","826657","0.0-169.0-0.0","15332633","wem/bandit_party_1","A1MQ9B05ZMM4YI","either","8","2746","","","","","","","0","0","1","0.3280989756","","0.2","0.4","0.8","0.6","","","","","0.1764696366","0.323123489","0.3280989756","0.2637444583","","","","","","","","","","75","K","2","","","128","main_expt","",""
"","bandit","210","829023","0.0-170.0-0.0","15332633","wem/bandit_party_1","A1MQ9B05ZMM4YI","either","8","855","","","","","","","0","0","1","","0.3615310162","0.2","0.4","0.8","0.6","0.172709194","0.3615310162","0.3052704822","0.2783394686","","","","","","","","","","","","","","74","J","1","","","129","main_expt","",""
"","bandit","211","831592","0.0-171.0-0.0","15332633","wem/bandit_party_1","A1MQ9B05ZMM4YI","either","8","1057","","","","","","","0","0","1","","0.1407460215","0.2","0.4","0.8","0.6","0.1407460215","0.3667448715","0.314718742","0.2674474002","","","","","","","","","","","","","","72","H","0","img/none_selected.jpg","","130","main_expt","",""
"","bandit","212","836406","0.0-172.0-0.0","15332633","wem/bandit_party_1","A1MQ9B05ZMM4YI","either","8","3304","","","","","","","1","0","0","0.2492347367","","0.2","0.4","0.8","0.6","","","","","0.143826562","0.341745941","0.2492347367","0.2122920843","","","","","","","","","","75","K","2","","","131","main_expt","",""
"","bandit","213","840794","0.0-173.0-0.0","15332633","wem/bandit_party_1","A1MQ9B05ZMM4YI","either","8","2876","","","","","","","0","0","1","0.2495736985","","0.2","0.4","0.8","0.6","","","","","0.1862992663","0.2615325727","0.2495736985","0.1969346152","","","","","","","","","","75","K","2","","","132","main_expt","",""
"","bandit","214","845478","0.0-174.0-0.0","15332633","wem/bandit_party_1","A1MQ9B05ZMM4YI","either","8","3175","","","","","","","0","0","1","0.1390835973","","0.2","0.4","0.8","0.6","","","","","0.185648564","0.27905624","0.2487120015","0.1390835973","","","","","","","","","","76","L","3","","","133","main_expt","",""
"","bandit","215","849030","0.0-175.0-0.0","15332633","wem/bandit_party_1","A1MQ9B05ZMM4YI","either","8","2042","","","","","","","0","0","1","","0.3239420422","0.2","0.4","0.8","0.6","0.2002276213","0.2751163123","0.3239420422","0.1437640715","","","","","","","","","","","","","","75","K","2","","","134","main_expt","",""
"","bandit","216","853319","0.0-176.0-0.0","15332633","wem/bandit_party_1","A1MQ9B05ZMM4YI","either","8","2778","","","","","","","0","1","0","","0.2586507773","0.2","0.4","0.8","0.6","0.2474552851","0.2586507773","0.3903525049","0.1175999949","","","","","","","","","","","","","","74","J","1","","","135","main_expt","",""
"","bandit","217","855646","0.0-177.0-0.0","15332633","wem/bandit_party_1","A1MQ9B05ZMM4YI","either","8","820","","","","","","","0","0","1","","0.2454982057","0.2","0.4","0.8","0.6","0.2454982057","0.2385277364","0.3703049055","0.1108499649","","","","","","","","","","","","","","72","H","0","img/none_selected.jpg","","136","main_expt","",""
"","bandit","218","863415","0.0-178.0-0.0","15332633","wem/bandit_party_1","A1MQ9B05ZMM4YI","either","8","6259","","","","","","","0","0","1","","0.1935782534","0.2","0.4","0.8","0.6","0.2708690816","0.1935782534","0.3657944308","0.1208727618","","","","","","","","","","","","","","74","J","1","","","137","main_expt","",""
"","bandit","219","868159","0.0-179.0-0.0","15332633","wem/bandit_party_1","A1MQ9B05ZMM4YI","either","8","3233","","","","","","","1","0","0","0.3452946514","","0.2","0.4","0.8","0.6","","","","","0.2219039101","0.14087624","0.3452946514","0.1098805161","","","","","","","","","","75","K","2","","","138","main_expt","",""
"","bandit","220","881736","0.0-180.0-0.0","15332633","wem/bandit_party_1","A1MQ9B05ZMM4YI","either","8","12067","","","","","","","0","0","1","","0.1359731218","0.2","0.4","0.8","0.6","0.2485571535","0.1340930794","0.3225052804","0.1359731218","","","","","","","","","","","","","","76","L","3","","","139","main_expt","",""
"","bandit","221","887407","0.0-181.0-0.0","15332633","wem/bandit_party_1","A1MQ9B05ZMM4YI","either","8","4160","","","","","","","1","0","0","0.2997250911","","0.2","0.4","0.8","0.6","","","","","0.2605640439","0.1170750994","0.2997250911","0.1419248406","","","","","","","","","","75","K","2","","","140","main_expt","",""
"","bandit","222","891168","0.0-182.0-0.0","15332633","wem/bandit_party_1","A1MQ9B05ZMM4YI","either","8","2251","","","","","","","0","0","1","","0.1316830279","0.2","0.4","0.8","0.6","0.2260680923","0.1316830279","0.311933389","0.1269577117","","","","","","","","","","","","","","74","J","1","","","141","main_expt","",""
"","bandit","223","895465","0.0-183.0-0.0","15332633","wem/bandit_party_1","A1MQ9B05ZMM4YI","either","8","2786","","","","","","","1","0","0","0.3442568425","","0.2","0.4","0.8","0.6","","","","","0.2354846983","0.09490366034","0.3442568425","0.1073819056","","","","","","","","","","75","K","2","","","142","main_expt","",""
"","bandit","224","902177","0.0-184.0-0.0","15332633","wem/bandit_party_1","A1MQ9B05ZMM4YI","either","8","5200","","","","","","","0","0","1","0.1152767294","","0.2","0.4","0.8","0.6","","","","","0.2089358464","0.1246024154","0.3117203045","0.1152767294","","","","","","","","","","76","L","3","","","143","main_expt","",""
"","bandit","225","904254","0.0-185.0-0.0","15332633","wem/bandit_party_1","A1MQ9B05ZMM4YI","either","8","569","","","","","","","0","0","1","0.3080771123","","0.2","0.4","0.8","0.6","","","","","0.1844607625","0.1179874238","0.3080771123","0.1317444946","","","","","","","","","","75","K","2","","","144","main_expt","",""
"","bandit","226","908296","0.0-186.0-0.0","15332633","wem/bandit_party_1","A1MQ9B05ZMM4YI","either","8","2535","","","","","","","0","0","1","","0.1211842963","0.2","0.4","0.8","0.6","0.1940384654","0.1211842963","0.3146876691","0.1058600218","","","","","","","","","","","","","","74","J","1","","","145","main_expt","",""
"","bandit","227","912670","0.0-187.0-0.0","15332633","wem/bandit_party_1","A1MQ9B05ZMM4YI","either","8","2865","","","","","","","0","0","1","","0.06212451067","0.2","0.4","0.8","0.6","0.2532022814","0.06212451067","0.3526806189","0.1862633901","","","","","","","","","","","","","","74","J","1","","","146","main_expt","",""
"","bandit","228","914624","0.0-188.0-0.0","15332633","wem/bandit_party_1","A1MQ9B05ZMM4YI","either","8","445","","","","","","","0","0","1","0.3859334927","","0.2","0.4","0.8","0.6","","","","","0.272856749","0.05826033827","0.3859334927","0.1944793183","","","","","","","","","","75","K","2","","","147","main_expt","",""
"","bandit","229","917047","0.0-189.0-0.0","15332633","wem/bandit_party_1","A1MQ9B05ZMM4YI","either","8","912","","","","","","","0","0","1","","0.2441255329","0.2","0.4","0.8","0.6","0.2441255329","0.04847575149","0.4089873985","0.1572605535","","","","","","","","","","","","","","72","H","0","img/none_selected.jpg","","148","main_expt","",""
"","bandit","230","919026","0.0-190.0-0.0","15332633","wem/bandit_party_1","A1MQ9B05ZMM4YI","either","8","467","","","","","","","0","0","1","0.07397138717","","0.2","0.4","0.8","0.6","","","","","0.2304797635","0.07397138717","0.3317076441","0.1632070519","","","","","","","","","","74","J","1","","","149","main_expt","",""
"","bandit","231","920896","0.0-191.0-0.0","15332633","wem/bandit_party_1","A1MQ9B05ZMM4YI","either","8","359","","","","","","","0","0","1","","0.2514439341","0.2","0.4","0.8","0.6","0.2645424191","0.1178437277","0.2514439341","0.2162169298","","","","","","","","","","","","","","75","K","2","","","150","main_expt","",""
"","bandit","232","922599","0.0-192.0-0.0","15332633","wem/bandit_party_1","A1MQ9B05ZMM4YI","either","8","192","","","","","","","1","0","0","0.2806681102","","0.2","0.4","0.8","0.6","","","","","0.2919476008","0.1116740648","0.2209696772","0.2806681102","","","","","","","","","","76","L","3","","","151","main_expt","",""
"","bandit","233","924479","0.0-193.0-0.0","15332633","wem/bandit_party_1","A1MQ9B05ZMM4YI","either","8","370","","","","","","","1","0","0","0.2004300668","","0.2","0.4","0.8","0.6","","","","","0.3004198658","0.09681320826","0.2004300668","0.25223767","","","","","","","","","","75","K","2","","","152","main_expt","",""
"","bandit","234","926222","0.0-194.0-0.0","15332633","wem/bandit_party_1","A1MQ9B05ZMM4YI","either","8","234","","","","","","","0","0","1","0.1803159607","","0.2","0.4","0.8","0.6","","","","","0.2910243242","0.1162344283","0.1803159607","0.2259503681","","","","","","","","","","75","K","2","","","153","main_expt","",""
"","bandit","235","927873","0.0-195.0-0.0","15332633","wem/bandit_party_1","A1MQ9B05ZMM4YI","either","8","141","","","","","","","0","1","0","","0.1441765144","0.2","0.4","0.8","0.6","0.2858680692","0.1441765144","0.1793353988","0.2520515582","","","","","","","","","","","","","","74","J","1","","","154","main_expt","",""
"","bandit","236","930017","0.0-196.0-0.0","15332633","wem/bandit_party_1","A1MQ9B05ZMM4YI","either","8","636","","","","","","","0","0","1","","0.1506434262","0.2","0.4","0.8","0.6","0.276906037","0.1506434262","0.175125938","0.246895917","","","","","","","","","","","","","","74","J","1","","","155","main_expt","",""
"","bandit","237","931838","0.0-197.0-0.0","15332633","wem/bandit_party_1","A1MQ9B05ZMM4YI","either","8","311","","","","","","","0","0","1","","0.3087514371","0.2","0.4","0.8","0.6","0.3087514371","0.1691825384","0.19004546","0.2067462234","","","","","","","","","","","","","","72","H","0","img/none_selected.jpg","","156","main_expt","",""
"","bandit","238","934457","0.0-198.0-0.0","15332633","wem/bandit_party_1","A1MQ9B05ZMM4YI","either","8","1107","","","","","","","0","0","1","0.1736677602","","0.2","0.4","0.8","0.6","","","","","0.3400763937","0.1465267651","0.1538528063","0.1736677602","","","","","","","","","","76","L","3","","","157","main_expt","",""
"","bandit","239","936312","0.0-199.0-0.0","15332633","wem/bandit_party_1","A1MQ9B05ZMM4YI","either","8","344","","","","","","","1","0","0","0.1624419901","","0.2","0.4","0.8","0.6","","","","","0.3388441277","0.1517260174","0.1624419901","0.2437422656","","","","","","","","","","75","K","2","","","158","main_expt","",""
"","bandit","240","938353","0.0-200.0-0.0","15332633","wem/bandit_party_1","A1MQ9B05ZMM4YI","either","8","528","","","","","","","1","0","0","0.1749682205","","0.2","0.4","0.8","0.6","","","","","0.3496437485","0.143579764","0.1749682205","0.2627628197","","","","","","","","","","75","K","2","","","159","main_expt","",""
"","bandit","241","940579","0.0-201.0-0.0","15332633","wem/bandit_party_1","A1MQ9B05ZMM4YI","either","8","714","","","","","","","1","0","0","0.2227833177","","0.2","0.4","0.8","0.6","","","","","0.3347491532","0.1701049762","0.2227833177","0.2532756584","","","","","","","","","","75","K","2","","","160","main_expt","",""
"","bandit","242","943343","0.0-202.0-0.0","15332633","wem/bandit_party_1","A1MQ9B05ZMM4YI","either","8","1254","","","","","","","0","0","1","0.1596038406","","0.2","0.4","0.8","0.6","","","","","0.3036625801","0.1596038406","0.1616195486","0.2846030245","","","","","","","","","","74","J","1","","","161","main_expt","",""
"","bandit","243","952759","0.0-203.0-0.0","15332633","wem/bandit_party_1","A1MQ9B05ZMM4YI","either","8","7910","","","","","","","0","0","1","0.1440802068","","0.2","0.4","0.8","0.6","","","","","0.2735804545","0.1186271452","0.1440802068","0.2480450928","","","","","","","","","","75","K","2","","","162","main_expt","",""
"","bandit","244","975347","0.0-204.0-0.0","15332633","wem/bandit_party_1","A1MQ9B05ZMM4YI","either","8","21075","","","","","","","0","0","1","","0.1460830151","0.2","0.4","0.8","0.6","0.2219233964","0.1460830151","0.1349250059","0.3217860246","","","","","","","","","","","","","","74","J","1","","","163","main_expt","",""
"","bandit","245","980399","0.0-205.0-0.0","15332633","wem/bandit_party_1","A1MQ9B05ZMM4YI","either","8","3541","","","","","","","0","0","1","","0.2489701673","0.2","0.4","0.8","0.6","0.2489701673","0.1924179555","0.1482528248","0.3528623486","","","","","","","","","","","","","","72","H","0","img/none_selected.jpg","","164","main_expt","",""
"","bandit","246","983255","0.0-206.0-0.0","15332633","wem/bandit_party_1","A1MQ9B05ZMM4YI","either","8","1345","","","","","","","0","0","1","","0.1909643941","0.2","0.4","0.8","0.6","0.2424219606","0.1909643941","0.1444116863","0.3113737792","","","","","","","","","","","","","","74","J","1","","","165","main_expt","",""
"","bandit","247","985777","0.0-207.0-0.0","15332633","wem/bandit_party_1","A1MQ9B05ZMM4YI","either","8","1011","","","","","","","0","0","1","","0.2820045276","0.2","0.4","0.8","0.6","0.1899742571","0.1917506842","0.1621449425","0.2820045276","","","","","","","","","","","","","","76","L","3","","","166","main_expt","",""
"","bandit","248","988633","0.0-208.0-0.0","15332633","wem/bandit_party_1","A1MQ9B05ZMM4YI","either","8","1343","","","","","","","0","0","1","0.1695256229","","0.2","0.4","0.8","0.6","","","","","0.2298880826","0.2238056512","0.1695256229","0.2539690707","","","","","","","","","","75","K","2","","","167","main_expt","",""
"","bandit","249","995393","0.0-209.0-0.0","15332633","wem/bandit_party_1","A1MQ9B05ZMM4YI","either","8","5249","","","","","","","0","0","1","","0.2132240521","0.2","0.4","0.8","0.6","0.241220494","0.2132240521","0.1712445676","0.2177565821","","","","","","","","","","","","","","74","J","1","","","168","main_expt","",""
"","bandit","250","999971","0.0-210.0-0.0","15332633","wem/bandit_party_1","A1MQ9B05ZMM4YI","either","8","3067","","","","","","","0","0","1","","0.2113351254","0.2","0.4","0.8","0.6","0.2113351254","0.1363713625","0.191079104","0.183214586","","","","","","","","","","","","","","72","H","0","img/none_selected.jpg","","169","main_expt","",""
"","bandit","251","1004808","0.0-211.0-0.0","15332633","wem/bandit_party_1","A1MQ9B05ZMM4YI","either","8","3328","","","","","","","0","0","1","","0.2007690262","0.2","0.4","0.8","0.6","0.2224744884","0.2007690262","0.2227666825","0.1757282231","","","","","","","","","","","","","","74","J","1","","","170","main_expt","",""
"","bandit","252","1011971","0.0-212.0-0.0","15332633","wem/bandit_party_1","A1MQ9B05ZMM4YI","either","8","5649","","","","","","","1","0","0","0.2719914804","","0.2","0.4","0.8","0.6","","","","","0.262177911","0.1238998316","0.2719914804","0.1679331046","","","","","","","","","","75","K","2","","","171","main_expt","",""
"","bandit","253","1017544","0.0-213.0-0.0","15332633","wem/bandit_party_1","A1MQ9B05ZMM4YI","either","8","4060","","","","","","","0","0","1","0.09746419185","","0.2","0.4","0.8","0.6","","","","","0.2822992514","0.09746419185","0.2330128459","0.14560319","","","","","","","","","","74","J","1","","","172","main_expt","",""
"","bandit","254","1019896","0.0-214.0-0.0","15332633","wem/bandit_party_1","A1MQ9B05ZMM4YI","either","8","840","","","","","","","0","1","0","","0.2545762091","0.2","0.4","0.8","0.6","0.2545762091","0.1018164217","0.2840251313","0.1341549344","","","","","","","","","","","","","","72","H","0","img/none_selected.jpg","","173","main_expt","",""
"","bandit","255","1022048","0.0-215.0-0.0","15332633","wem/bandit_party_1","A1MQ9B05ZMM4YI","either","8","645","","","","","","","0","0","1","","0.1401689619","0.2","0.4","0.8","0.6","0.2838184637","0.1401689619","0.2739042306","0.1471305278","","","","","","","","","","","","","","74","J","1","","","174","main_expt","",""
"","bandit","256","1033888","0.0-216.0-0.0","15332633","wem/bandit_party_1","A1MQ9B05ZMM4YI","either","8","10329","","","","","","","0","0","1","0.3444735506","","0.2","0.4","0.8","0.6","","","","","0.3002790513","0.1697524679","0.3444735506","0.173963405","","","","","","","","","","75","K","2","","","175","main_expt","",""
"","bandit","257","1052761","0.0-217.0-0.0","15332633","wem/bandit_party_1","A1MQ9B05ZMM4YI","either","8","17365","","","","","","","1","0","0","0.3223017316","","0.2","0.4","0.8","0.6","","","","","0.3771690292","0.1896898672","0.3223017316","0.1821857965","","","","","","","","","","75","K","2","","","176","main_expt","",""
"","bandit","258","1054592","0.0-218.0-0.0","15332633","wem/bandit_party_1","A1MQ9B05ZMM4YI","either","8","318","","","","","","","1","0","0","0.1444884472","","0.2","0.4","0.8","0.6","","","","","0.4047809956","0.2441254625","0.2964924158","0.1444884472","","","","","","","","","","76","L","3","","","177","main_expt","",""
"","bandit","259","1056303","0.0-219.0-0.0","15332633","wem/bandit_party_1","A1MQ9B05ZMM4YI","either","8","200","","","","","","","0","0","1","0.2427722412","","0.2","0.4","0.8","0.6","","","","","0.4344960837","0.2427722412","0.2780576925","0.1207783293","","","","","","","","","","74","J","1","","","178","main_expt","",""
"","bandit","260","1057968","0.0-220.0-0.0","15332633","wem/bandit_party_1","A1MQ9B05ZMM4YI","either","8","152","","","","","","","0","0","1","0.4287912686","","0.2","0.4","0.8","0.6","","","","","0.4287912686","0.2284650367","0.2859751729","0.111585665","","","","","","","","","","72","H","0","img/none_selected.jpg","","179","main_expt","",""
"","bandit","261","1059505","0.0-221.0-0.0","15332633","wem/bandit_party_1","A1MQ9B05ZMM4YI","either","8","24","","","","","","","0","0","1","","0.2694081366","0.2","0.4","0.8","0.6","0.4294180747","0.2694081366","0.283533164","0.06891525065","","","","","","","","","","","","","","74","J","1","","","180","main_expt","",""
"","bandit","262","1062726","0.0-222.0-0.0","15332633","wem/bandit_party_1","A1MQ9B05ZMM4YI","either","8","1711","","","","","","","0","0","1","0.07407739619","","0.2","0.4","0.8","0.6","","","","","0.3887332701","0.2471628034","0.2430023428","0.07407739619","","","","","","","","","","76","L","3","","","181","main_expt","",""
"","bandit","263","1065088","0.0-223.0-0.0","15332633","wem/bandit_party_1","A1MQ9B05ZMM4YI","either","8","849","","","","","","","0","1","0","","0.3910635387","0.2","0.4","0.8","0.6","0.3910635387","0.275372354","0.223254837","0.07501704201","","","","","","","","","","","","","","72","H","0","img/none_selected.jpg","","182","main_expt","",""
"","bandit","264","1067537","0.0-224.0-0.0","15332633","wem/bandit_party_1","A1MQ9B05ZMM4YI","either","8","936","","","","","","","0","0","1","","0.3957792538","0.2","0.4","0.8","0.6","0.3957792538","0.2378950907","0.2274286797","0.09354103142","","","","","","","","","","","","","","72","H","0","img/none_selected.jpg","","183","main_expt","",""
"","bandit","265","1069376","0.0-225.0-0.0","15332633","wem/bandit_party_1","A1MQ9B05ZMM4YI","either","8","326","","","","","","","1","0","0","0.2611999536","","0.2","0.4","0.8","0.6","","","","","0.3777829694","0.2611999536","0.2485964068","0.06673830493","","","","","","","","","","74","J","1","","","184","main_expt","",""
"","bandit","266","1071177","0.0-226.0-0.0","15332633","wem/bandit_party_1","A1MQ9B05ZMM4YI","either","8","287","","","","","","","0","1","0","","0.2080173303","0.2","0.4","0.8","0.6","0.4130939835","0.2799245071","0.2080173303","0.08617836821","","","","","","","","","","","","","","75","K","2","","","185","main_expt","",""
"","bandit","267","1073072","0.0-227.0-0.0","15332633","wem/bandit_party_1","A1MQ9B05ZMM4YI","either","8","382","","","","","","","0","0","1","0.2275386122","","0.2","0.4","0.8","0.6","","","","","0.376930599","0.2275386122","0.2538883687","0.05054014018","","","","","","","","","","74","J","1","","","186","main_expt","",""
"","bandit","268","1074888","0.0-228.0-0.0","15332633","wem/bandit_party_1","A1MQ9B05ZMM4YI","either","8","305","","","","","","","0","0","1","0.1101456656","","0.2","0.4","0.8","0.6","","","","","0.3934592684","0.2558518805","0.2267652077","0.1101456656","","","","","","","","","","76","L","3","","","187","main_expt","",""
"","bandit","269","1076615","0.0-229.0-0.0","15332633","wem/bandit_party_1","A1MQ9B05ZMM4YI","either","8","219","","","","","","","0","0","1","","0.2583789709","0.2","0.4","0.8","0.6","0.4086060551","0.2757393749","0.2583789709","0.1076418148","","","","","","","","","","","","","","75","K","2","","","188","main_expt","",""
"","bandit","270","1078462","0.0-230.0-0.0","15332633","wem/bandit_party_1","A1MQ9B05ZMM4YI","either","8","336","","","","","","","0","1","0","","0.3326758055","0.2","0.4","0.8","0.6","0.447145564","0.3326758055","0.2329768584","0.1230456027","","","","","","","","","","","","","","74","J","1","","","189","main_expt","",""
"","bandit","271","1080680","0.0-231.0-0.0","15332633","wem/bandit_party_1","A1MQ9B05ZMM4YI","either","8","704","","","","","","","0","1","0","","0.386091063","0.2","0.4","0.8","0.6","0.386091063","0.332927569","0.2002510669","0.1872873117","","","","","","","","","","","","","","72","H","0","img/none_selected.jpg","","190","main_expt","",""
"","bandit","272","1082528","0.0-232.0-0.0","15332633","wem/bandit_party_1","A1MQ9B05ZMM4YI","either","8","336","","","","","","","0","0","1","","0.3859199101","0.2","0.4","0.8","0.6","0.4221145333","0.3859199101","0.2182600554","0.1413073252","","","","","","","","","","","","","","74","J","1","","","191","main_expt","",""
"","bandit","273","1084086","0.0-233.0-0.0","15332633","wem/bandit_party_1","A1MQ9B05ZMM4YI","either","8","47","","","","","","","0","0","1","0.3913199708","","0.2","0.4","0.8","0.6","","","","","0.3913199708","0.392668484","0.2681613901","0.1868627967","","","","","","","","","","72","H","0","img/none_selected.jpg","","192","main_expt","",""
"","bandit","274","1085841","0.0-234.0-0.0","15332633","wem/bandit_party_1","A1MQ9B05ZMM4YI","either","8","243","","","","","","","0","0","1","","0.2312719224","0.2","0.4","0.8","0.6","0.4013624592","0.3789843676","0.3035027483","0.2312719224","","","","","","","","","","","","","","76","L","3","","","193","main_expt","",""
"","bandit","275","1087759","0.0-235.0-0.0","15332633","wem/bandit_party_1","A1MQ9B05ZMM4YI","either","8","406","","","","","","","0","0","1","0.275531754","","0.2","0.4","0.8","0.6","","","","","0.3668237699","0.3689216281","0.275531754","0.2585201677","","","","","","","","","","75","K","2","","","194","main_expt","",""
"","bandit","276","1089640","0.0-236.0-0.0","15332633","wem/bandit_party_1","A1MQ9B05ZMM4YI","either","8","367","","","","","","","1","0","0","0.4136905162","","0.2","0.4","0.8","0.6","","","","","0.3856266791","0.4136905162","0.2716401532","0.2786104129","","","","","","","","","","74","J","1","","","195","main_expt","",""
"","bandit","277","1091432","0.0-237.0-0.0","15332633","wem/bandit_party_1","A1MQ9B05ZMM4YI","either","8","279","","","","","","","0","1","0","","0.3702439493","0.2","0.4","0.8","0.6","0.3702439493","0.4258575101","0.2814611543","0.2407834285","","","","","","","","","","","","","","72","H","0","img/none_selected.jpg","","196","main_expt","",""
"","bandit","278","1093290","0.0-238.0-0.0","15332633","wem/bandit_party_1","A1MQ9B05ZMM4YI","either","8","343","","","","","","","0","0","1","","0.3976178043","0.2","0.4","0.8","0.6","0.3665926528","0.3976178043","0.2588010394","0.2550568011","","","","","","","","","","","","","","74","J","1","","","197","main_expt","",""
"","bandit","279","1095159","0.0-239.0-0.0","15332633","wem/bandit_party_1","A1MQ9B05ZMM4YI","either","8","360","","","","","","","1","0","0","0.3094610495","","0.2","0.4","0.8","0.6","","","","","0.3432124584","0.3802378075","0.3094610495","0.3094863904","","","","","","","","","","75","K","2","","","198","main_expt","",""
"","bandit","280","1096946","0.0-240.0-0.0","15332633","wem/bandit_party_1","A1MQ9B05ZMM4YI","either","8","276","","","","","","","1","0","0","0.3012985694","","0.2","0.4","0.8","0.6","","","","","0.4096574544","0.3926800246","0.3139278769","0.3012985694","","","","","","","","","","76","L","3","","","199","main_expt","",""
"","bandit","281","1098760","0.0-241.0-0.0","15332633","wem/bandit_party_1","A1MQ9B05ZMM4YI","either","8","301","","","","","","","0","0","1","0.3459706187","","0.2","0.4","0.8","0.6","","","","","0.3799023259","0.3814844917","0.3459706187","0.3149132519","","","","","","","","","","75","K","2","","","200","main_expt","",""
"","bandit","282","1100696","0.0-242.0-0.0","15332633","wem/bandit_party_1","A1MQ9B05ZMM4YI","either","8","422","","","","","","","1","0","0","0.3831630738","","0.2","0.4","0.8","0.6","","","","","0.3513783521","0.3831630738","0.3038365479","0.3236307962","","","","","","","","","","74","J","1","","","201","main_expt","",""
"","bandit","283","1102375","0.0-243.0-0.0","15332633","wem/bandit_party_1","A1MQ9B05ZMM4YI","either","8","167","","","","","","","0","0","1","0.3439351057","","0.2","0.4","0.8","0.6","","","","","0.3439351057","0.3957430938","0.2964599608","0.3163717903","","","","","","","","","","72","H","0","img/none_selected.jpg","","202","main_expt","",""
"","bandit","284","1104224","0.0-244.0-0.0","15332633","wem/bandit_party_1","A1MQ9B05ZMM4YI","either","8","338","","","","","","","0","0","1","","0.4175506619","0.2","0.4","0.8","0.6","0.2615327891","0.4175506619","0.280336616","0.3165936227","","","","","","","","","","","","","","74","J","1","","","203","main_expt","",""
"","bandit","285","1106623","0.0-245.0-0.0","15332633","wem/bandit_party_1","A1MQ9B05ZMM4YI","either","8","887","","","","","","","0","0","1","0.262900641","","0.2","0.4","0.8","0.6","","","","","0.2211517471","0.4356800279","0.262900641","0.3166231072","","","","","","","","","","75","K","2","","","204","main_expt","",""
"","bandit","286","1108505","0.0-246.0-0.0","15332633","wem/bandit_party_1","A1MQ9B05ZMM4YI","either","8","368","","","","","","","0","0","1","","0.2983153058","0.2","0.4","0.8","0.6","0.1955747294","0.4342993254","0.3403150927","0.2983153058","","","","","","","","","","","","","","76","L","3","","","205","main_expt","",""
"","bandit","287","1110230","0.0-247.0-0.0","15332633","wem/bandit_party_1","A1MQ9B05ZMM4YI","either","8","213","","","","","","","0","1","0","","0.4515967499","0.2","0.4","0.8","0.6","0.3137251184","0.4515967499","0.3407188883","0.255573156","","","","","","","","","","","","","","74","J","1","","","206","main_expt","",""
"","bandit","288","1112047","0.0-248.0-0.0","15332633","wem/bandit_party_1","A1MQ9B05ZMM4YI","either","8","302","","","","","","","0","0","1","0.2955601217","","0.2","0.4","0.8","0.6","","","","","0.2982459604","0.4559700358","0.2955601217","0.2816724171","","","","","","","","","","75","K","2","","","207","main_expt","",""
"","bandit","289","1113824","0.0-249.0-0.0","15332633","wem/bandit_party_1","A1MQ9B05ZMM4YI","either","8","263","","","","","","","0","0","1","","0.2359404152","0.2","0.4","0.8","0.6","0.2359404152","0.4711787588","0.2832193826","0.2462622089","","","","","","","","","","","","","","72","H","0","img/none_selected.jpg","","208","main_expt","",""
"","bandit","290","1115593","0.0-250.0-0.0","15332633","wem/bandit_party_1","A1MQ9B05ZMM4YI","either","8","260","","","","","","","0","1","0","","0.25637755","0.2","0.4","0.8","0.6","0.2396635106","0.4859779177","0.25637755","0.2608633631","","","","","","","","","","","","","","75","K","2","","","209","main_expt","",""
"","bandit","291","1117439","0.0-251.0-0.0","15332633","wem/bandit_party_1","A1MQ9B05ZMM4YI","either","8","333","","","","","","","0","0","1","","0.4798195452","0.2","0.4","0.8","0.6","0.2320506775","0.4798195452","0.2500912527","0.2649708152","","","","","","","","","","","","","","74","J","1","","","210","main_expt","",""
"","bandit","292","1119033","0.0-252.0-0.0","15332633","wem/bandit_party_1","A1MQ9B05ZMM4YI","either","8","81","","","","","","","0","0","1","0.2481129288","","0.2","0.4","0.8","0.6","","","","","0.1894847828","0.4754072522","0.2481129288","0.2658594566","","","","","","","","","","75","K","2","","","211","main_expt","",""
"","bandit","293","1121257","0.0-253.0-0.0","15332633","wem/bandit_party_1","A1MQ9B05ZMM4YI","either","8","709","","","","","","","0","0","1","","0.2648449814","0.2","0.4","0.8","0.6","0.2330804604","0.4780703898","0.3192168596","0.2648449814","","","","","","","","","","","","","","76","L","3","","","212","main_expt","",""
"","bandit","294","1123184","0.0-254.0-0.0","15332633","wem/bandit_party_1","A1MQ9B05ZMM4YI","either","8","414","","","","","","","0","0","1","","0.2484053244","0.2","0.4","0.8","0.6","0.2484053244","0.4883488692","0.2361953268","0.286492297","","","","","","","","","","","","","","72","H","0","img/none_selected.jpg","","213","main_expt","",""
"","bandit","295","1125072","0.0-255.0-0.0","15332633","wem/bandit_party_1","A1MQ9B05ZMM4YI","either","8","375","","","","","","","1","0","0","0.4872562331","","0.2","0.4","0.8","0.6","","","","","0.2182548364","0.4872562331","0.2308921763","0.2540339129","","","","","","","","","","74","J","1","","","214","main_expt","",""
"","bandit","296","1126737","0.0-256.0-0.0","15332633","wem/bandit_party_1","A1MQ9B05ZMM4YI","either","8","150","","","","","","","0","0","1","0.2161033537","","0.2","0.4","0.8","0.6","","","","","0.1824073789","0.4749609167","0.2161033537","0.254651127","","","","","","","","","","75","K","2","","","215","main_expt","",""
"","bandit","297","1128560","0.0-257.0-0.0","15332633","wem/bandit_party_1","A1MQ9B05ZMM4YI","either","8","310","","","","","","","0","0","1","","0.3140517816","0.2","0.4","0.8","0.6","0.1923730387","0.4798413464","0.1896756427","0.3140517816","","","","","","","","","","","","","","76","L","3","","","216","main_expt","",""
"","bandit","298","1130393","0.0-258.0-0.0","15332633","wem/bandit_party_1","A1MQ9B05ZMM4YI","either","8","320","","","","","","","0","0","1","0.4865144435","","0.2","0.4","0.8","0.6","","","","","0.2266612446","0.4865144435","0.1724286307","0.3338676317","","","","","","","","","","74","J","1","","","217","main_expt","",""
"","bandit","299","1132418","0.0-259.0-0.0","15332633","wem/bandit_party_1","A1MQ9B05ZMM4YI","either","8","509","","","","","","","0","1","0","","0.1702705737","0.2","0.4","0.8","0.6","0.1702705737","0.4789145001","0.161168334","0.3397001125","","","","","","","","","","","","","","72","H","0","img/none_selected.jpg","","218","main_expt","",""
"","bandit","300","1134119","0.0-260.0-0.0","15332633","wem/bandit_party_1","A1MQ9B05ZMM4YI","either","8","189","","","","","","","0","0","1","","0.2021763003","0.2","0.4","0.8","0.6","0.1159766116","0.4834748692","0.2021763003","0.2982528089","","","","","","","","","","","","","","75","K","2","","","219","main_expt","",""
"","bandit","301","1135720","0.0-261.0-0.0","15332633","wem/bandit_party_1","A1MQ9B05ZMM4YI","either","8","87","","","","","","","0","0","1","","0.4722371777","0.2","0.4","0.8","0.6","0.09529473055","0.4722371777","0.2142164272","0.2770934022","","","","","","","","","","","","","","74","J","1","","","220","main_expt","",""
"","bandit","302","1137704","0.0-262.0-0.0","15332633","wem/bandit_party_1","A1MQ9B05ZMM4YI","either","8","471","","","","","","","0","0","1","0.2696770889","","0.2","0.4","0.8","0.6","","","","","0.09060922323","0.4654689219","0.189068297","0.2696770889","","","","","","","","","","76","L","3","","","221","main_expt","",""
"","bandit","303","1139615","0.0-263.0-0.0","15332633","wem/bandit_party_1","A1MQ9B05ZMM4YI","either","8","399","","","","","","","0","0","1","0.2120997892","","0.2","0.4","0.8","0.6","","","","","0.1250772464","0.4533789701","0.2120997892","0.3103502417","","","","","","","","","","75","K","2","","","222","main_expt","",""
"","bandit","304","1141250","0.0-264.0-0.0","15332633","wem/bandit_party_1","A1MQ9B05ZMM4YI","either","8","121","","","","","","","0","1","0","","0.4473019993","0.2","0.4","0.8","0.6","0.1177235221","0.4473019993","0.1937664477","0.3477728299","","","","","","","","","","","","","","74","J","1","","","223","main_expt","",""
"","bandit","305","1143912","0.0-265.0-0.0","15332633","wem/bandit_party_1","A1MQ9B05ZMM4YI","either","8","1149","","","","","","","0","0","1","","0.1589673504","0.2","0.4","0.8","0.6","0.1589673504","0.4651086175","0.2195846313","0.3230244909","","","","","","","","","","","","","","72","H","0","img/none_selected.jpg","","224","main_expt","",""
"","bandit","306","1145831","0.0-266.0-0.0","15332633","wem/bandit_party_1","A1MQ9B05ZMM4YI","either","8","405","","","","","","","0","0","1","","0.4704934375","0.2","0.4","0.8","0.6","0.1582937281","0.4704934375","0.1973587738","0.3641913847","","","","","","","","","","","","","","74","J","1","","","225","main_expt","",""
"","bandit","307","1147704","0.0-267.0-0.0","15332633","wem/bandit_party_1","A1MQ9B05ZMM4YI","either","8","359","","","","","","","0","0","1","0.2029059012","","0.2","0.4","0.8","0.6","","","","","0.1585786296","0.4545632724","0.2029059012","0.3211822138","","","","","","","","","","75","K","2","","","226","main_expt","",""
"","bandit","308","1149280","0.0-268.0-0.0","15332633","wem/bandit_party_1","A1MQ9B05ZMM4YI","either","8","63","","","","","","","0","0","1","0.3318596792","","0.2","0.4","0.8","0.6","","","","","0.1614007709","0.4313330006","0.1677618241","0.3318596792","","","","","","","","","","76","L","3","","","227","main_expt","",""
"","bandit","309","1151111","0.0-269.0-0.0","15332633","wem/bandit_party_1","A1MQ9B05ZMM4YI","either","8","319","","","","","","","1","0","0","0.2079318551","","0.2","0.4","0.8","0.6","","","","","0.1160982884","0.4253897179","0.2079318551","0.3715738924","","","","","","","","","","75","K","2","","","228","main_expt","",""
"","bandit","310","1153297","0.0-270.0-0.0","15332633","wem/bandit_party_1","A1MQ9B05ZMM4YI","either","8","673","","","","","","","1","0","0","0.4416009531","","0.2","0.4","0.8","0.6","","","","","0.1327168588","0.4416009531","0.1860779256","0.3571583743","","","","","","","","","","74","J","1","","","229","main_expt","",""
"","bandit","311","1154873","0.0-271.0-0.0","15332633","wem/bandit_party_1","A1MQ9B05ZMM4YI","either","8","61","","","","","","","0","0","1","0.1751239199","","0.2","0.4","0.8","0.6","","","","","0.1751239199","0.4612445757","0.1294985144","0.3455313741","","","","","","","","","","72","H","0","img/none_selected.jpg","","230","main_expt","",""
"","bandit","312","1156680","0.0-272.0-0.0","15332633","wem/bandit_party_1","A1MQ9B05ZMM4YI","either","8","294","","","","","","","0","0","1","0.1424139305","","0.2","0.4","0.8","0.6","","","","","0.2080149414","0.4455927364","0.1424139305","0.3114256563","","","","","","","","","","75","K","2","","","231","main_expt","",""
"","bandit","313","1158471","0.0-273.0-0.0","15332633","wem/bandit_party_1","A1MQ9B05ZMM4YI","either","8","280","","","","","","","0","0","1","0.3127001645","","0.2","0.4","0.8","0.6","","","","","0.2305008548","0.4449483857","0.1777617008","0.3127001645","","","","","","","","","","76","L","3","","","232","main_expt","",""
"","bandit","314","1160136","0.0-274.0-0.0","15332633","wem/bandit_party_1","A1MQ9B05ZMM4YI","either","8","151","","","","","","","0","0","1","0.1408291819","","0.2","0.4","0.8","0.6","","","","","0.2331895239","0.4570404202","0.1408291819","0.2953609795","","","","","","","","","","75","K","2","","","233","main_expt","",""
