"consent","trial_type","trial_index","time_elapsed","internal_node_id","subjID","study","MID","cond","drift","rt","responses","button_pressed","key_press","like","value","connected","gems","bombs","no_reward","GemPrChosen","BombPrChosen","GainOverPainPr_0","GainOverPainPr_1","GainOverPainPr_2","GainOverPainPr_3","LosePr_0","LosePr_1","LosePr_2","LosePr_3","WinPr_0","WinPr_1","WinPr_2","WinPr_3","Q0","Q1","Q2","gender","age","ethnicity","label","expt_phase","target","respCharCode","respKey","respChoiceNum","respChoice","practice","trial_counter","trial_label","Q0_index","view_history"
"GDM/GDM_behavioral_consent_30min_online.html","consent","0","11380","0.0-0.0","15958102","wem/bandit_party_1","AZIDXMX2VZOTZ","either","2","","","","","","","","","","","","","","","","","","","","","","","","","","","","","","","","","","","","","","","","","",""
"","survey-text","1","19102","0.0-1.0","15958102","wem/bandit_party_1","AZIDXMX2VZOTZ","either","2","6660","{""Q0"":""AZIDXMX2VZOTZ""}","","","","","","","","","","","","","","","","","","","","","","","","","","","","","","","","","","","","","","","",""
"","button-response","2","22969","0.0-2.0","15958102","wem/bandit_party_1","AZIDXMX2VZOTZ","either","2","2841","","2","","","","","","","","","","","","","","","","","","","","","","","","","","","","","","","","","","","","","","",""
"","text-replacement","3","46494","0.0-3.0","15958102","wem/bandit_party_1","AZIDXMX2VZOTZ","either","2","22515","","","32","","","","","","","","","","","","","","","","","","","","","","","","","","","","","","","","","","","","","",""
"","text-replacement","4","57224","0.0-4.0","15958102","wem/bandit_party_1","AZIDXMX2VZOTZ","either","2","10714","","","32","","","","","","","","","","","","","","","","","","","","","","","","","","","","","","","","","","","","","",""
"","text-replacement","5","79941","0.0-5.0-0.0","15958102","wem/bandit_party_1","AZIDXMX2VZOTZ","either","2","22699","","","32","","","","","","","","","","","","","","","","","","","","","","","","","","","","","","","","","","","","","",""
"","identification","6","92201","0.0-6.0-0.0","15958102","wem/bandit_party_1","AZIDXMX2VZOTZ","either","2","12192","","","","3","3","3","","","","","","","","","","","","","","","","","","","","","","","","pre","identification_pre","the Democratic Party","","","","","","","","",""
"","identification","7","102758","0.0-6.0-1.0","15958102","wem/bandit_party_1","AZIDXMX2VZOTZ","either","2","9507","","","","1","2","1","","","","","","","","","","","","","","","","","","","","","","","","pre","identification_pre","the Republican party","","","","","","","","",""
"","text-replacement","8","122650","0.0-7.0","15958102","wem/bandit_party_1","AZIDXMX2VZOTZ","either","2","18872","","","32","","","","","","","","","","","","","","","","","","","","","","","","","","","","","","","","","","","","","",""
"","text-replacement","9","136905","0.0-8.0","15958102","wem/bandit_party_1","AZIDXMX2VZOTZ","either","2","14245","","","32","","","","","","","","","","","","","","","","","","","","","","","","","","","","","","","","","","","","","",""
"","text-replacement","10","152277","0.0-9.0","15958102","wem/bandit_party_1","AZIDXMX2VZOTZ","either","2","15365","","","32","","","","","","","","","","","","","","","","","","","","","","","","","","","","","","","","","","","","","",""
"","text-replacement","11","157496","0.0-10.0","15958102","wem/bandit_party_1","AZIDXMX2VZOTZ","either","2","5208","","","32","","","","","","","","","","","","","","","","","","","","","","","","","","","","","","","","","","","","","",""
"","text-replacement","12","174049","0.0-11.0","15958102","wem/bandit_party_1","AZIDXMX2VZOTZ","either","2","16549","","","32","","","","","","","","","","","","","","","","","","","","","","","","","","","","","","","","","","","","","",""
"","bandit","13","183846","0.0-12.0-0.0","15958102","wem/bandit_party_1","AZIDXMX2VZOTZ","either","2","8249","","","","","","","0","0","1","0","0","","","","","0","","","","0","","","","","","","","","","","","","74","J","0","img/none_selected_demo.jpg","true","0","","",""
"","bandit","14","188164","0.0-13.0-0.0","15958102","wem/bandit_party_1","AZIDXMX2VZOTZ","either","2","2777","","","","","","","0","0","1","0","0","","","","","0","","","","0","","","","","","","","","","","","","75","K","0","img/none_selected_demo.jpg","true","0","","",""
"","text-replacement","15","197659","0.0-14.0","15958102","wem/bandit_party_1","AZIDXMX2VZOTZ","either","2","9488","","","32","","","","","","","","","","","","","","","","","","","","","","","","","","","","","","","","","","","","","",""
"","text-replacement","16","209256","0.0-15.0","15958102","wem/bandit_party_1","AZIDXMX2VZOTZ","either","2","11591","","","32","","","","","","","","","","","","","","","","","","","","","","","","","","","","","","","","","","","","","",""
"","text-replacement","17","218042","0.0-16.0","15958102","wem/bandit_party_1","AZIDXMX2VZOTZ","either","2","8780","","","32","","","","","","","","","","","","","","","","","","","","","","","","","","","","","","","","","","","","","",""
"","text-replacement","18","221412","0.0-17.0","15958102","wem/bandit_party_1","AZIDXMX2VZOTZ","either","2","3366","","","32","","","","","","","","","","","","","","","","","","","","","","","","","","","","","","","","","","","","","",""
"","bandit","19","224158","0.0-18.0-0.0","15958102","wem/bandit_party_1","AZIDXMX2VZOTZ","either","2","1198","","","","","","","0","0","1","0.2","","0.5","0.5","","","","","","","0.8","0.2","","","","","","","","","","","","75","K","1","","true","0","80_20_practice","",""
"","bandit","20","226265","0.0-18.0-1.0","15958102","wem/bandit_party_1","AZIDXMX2VZOTZ","either","2","578","","","","","","","0","0","1","","0.2","0.5","0.5","","","0.8","0.2","","","","","","","","","","","","","","","","75","K","1","","true","0","80_20_practice","",""
"","bandit","21","228047","0.0-18.0-2.0","15958102","wem/bandit_party_1","AZIDXMX2VZOTZ","either","2","232","","","","","","","1","0","0","0.8","","0.5","0.5","","","","","","","0.8","0.2","","","","","","","","","","","","74","J","0","img/none_selected_demo.jpg","true","0","80_20_practice","",""
"","bandit","22","230131","0.0-18.0-3.0","15958102","wem/bandit_party_1","AZIDXMX2VZOTZ","either","2","497","","","","","","","0","0","1","","0.8","0.5","0.5","","","0.8","0.2","","","","","","","","","","","","","","","","74","J","0","img/none_selected_demo.jpg","true","0","80_20_practice","",""
"","bandit","23","232487","0.0-18.0-4.0","15958102","wem/bandit_party_1","AZIDXMX2VZOTZ","either","2","823","","","","","","","1","0","0","0.8","","0.5","0.5","","","","","","","0.8","0.2","","","","","","","","","","","","74","J","0","img/none_selected_demo.jpg","true","0","80_20_practice","",""
"","bandit","24","234457","0.0-18.0-5.0","15958102","wem/bandit_party_1","AZIDXMX2VZOTZ","either","2","423","","","","","","","0","1","0","","0.8","0.5","0.5","","","0.8","0.2","","","","","","","","","","","","","","","","74","J","0","img/none_selected_demo.jpg","true","0","80_20_practice","",""
"","bandit","25","236652","0.0-18.0-6.0","15958102","wem/bandit_party_1","AZIDXMX2VZOTZ","either","2","654","","","","","","","1","0","0","0.8","","0.5","0.5","","","","","","","0.8","0.2","","","","","","","","","","","","74","J","0","img/none_selected_demo.jpg","true","0","80_20_practice","",""
"","bandit","26","239721","0.0-18.0-7.0","15958102","wem/bandit_party_1","AZIDXMX2VZOTZ","either","2","1530","","","","","","","0","0","1","0.8","","0.5","0.5","","","","","","","0.8","0.2","","","","","","","","","","","","74","J","0","img/none_selected_demo.jpg","true","0","80_20_practice","",""
"","bandit","27","241676","0.0-18.0-8.0","15958102","wem/bandit_party_1","AZIDXMX2VZOTZ","either","2","420","","","","","","","0","1","0","","0.8","0.5","0.5","","","0.8","0.2","","","","","","","","","","","","","","","","74","J","0","img/none_selected_demo.jpg","true","0","80_20_practice","",""
"","bandit","28","243787","0.0-18.0-9.0","15958102","wem/bandit_party_1","AZIDXMX2VZOTZ","either","2","591","","","","","","","1","0","0","0.8","","0.5","0.5","","","","","","","0.8","0.2","","","","","","","","","","","","74","J","0","img/none_selected_demo.jpg","true","0","80_20_practice","",""
"","bandit","29","247719","0.0-18.0-10.0","15958102","wem/bandit_party_1","AZIDXMX2VZOTZ","either","2","2398","","","","","","","1","0","0","0.8","","0.5","0.5","","","","","","","0.8","0.2","","","","","","","","","","","","74","J","0","img/none_selected_demo.jpg","true","0","80_20_practice","",""
"","bandit","30","250319","0.0-18.0-11.0","15958102","wem/bandit_party_1","AZIDXMX2VZOTZ","either","2","1060","","","","","","","1","0","0","0.8","","0.5","0.5","","","","","","","0.8","0.2","","","","","","","","","","","","74","J","0","img/none_selected_demo.jpg","true","0","80_20_practice","",""
"","bandit","31","255089","0.0-18.0-12.0","15958102","wem/bandit_party_1","AZIDXMX2VZOTZ","either","2","3238","","","","","","","0","1","0","","0.8","0.5","0.5","","","0.8","0.2","","","","","","","","","","","","","","","","74","J","0","img/none_selected_demo.jpg","true","0","80_20_practice","",""
"","bandit","32","257443","0.0-18.0-13.0","15958102","wem/bandit_party_1","AZIDXMX2VZOTZ","either","2","808","","","","","","","0","1","0","","0.8","0.5","0.5","","","0.8","0.2","","","","","","","","","","","","","","","","74","J","0","img/none_selected_demo.jpg","true","0","80_20_practice","",""
"","bandit","33","261423","0.0-18.0-14.0","15958102","wem/bandit_party_1","AZIDXMX2VZOTZ","either","2","2446","","","","","","","0","1","0","","0.8","0.5","0.5","","","0.8","0.2","","","","","","","","","","","","","","","","74","J","0","img/none_selected_demo.jpg","true","0","80_20_practice","",""
"","bandit","34","263583","0.0-18.0-15.0","15958102","wem/bandit_party_1","AZIDXMX2VZOTZ","either","2","594","","","","","","","1","0","0","0.8","","0.5","0.5","","","","","","","0.8","0.2","","","","","","","","","","","","74","J","0","img/none_selected_demo.jpg","true","0","80_20_practice","",""
"","bandit","35","265501","0.0-18.0-16.0","15958102","wem/bandit_party_1","AZIDXMX2VZOTZ","either","2","364","","","","","","","0","0","1","0.8","","0.5","0.5","","","","","","","0.8","0.2","","","","","","","","","","","","74","J","0","img/none_selected_demo.jpg","true","0","80_20_practice","",""
"","bandit","36","267465","0.0-18.0-17.0","15958102","wem/bandit_party_1","AZIDXMX2VZOTZ","either","2","409","","","","","","","0","1","0","","0.8","0.5","0.5","","","0.8","0.2","","","","","","","","","","","","","","","","74","J","0","img/none_selected_demo.jpg","true","0","80_20_practice","",""
"","bandit","37","269380","0.0-18.0-18.0","15958102","wem/bandit_party_1","AZIDXMX2VZOTZ","either","2","362","","","","","","","1","0","0","0.8","","0.5","0.5","","","","","","","0.8","0.2","","","","","","","","","","","","74","J","0","img/none_selected_demo.jpg","true","0","80_20_practice","",""
"","bandit","38","271283","0.0-18.0-19.0","15958102","wem/bandit_party_1","AZIDXMX2VZOTZ","either","2","373","","","","","","","0","1","0","","0.8","0.5","0.5","","","0.8","0.2","","","","","","","","","","","","","","","","74","J","0","img/none_selected_demo.jpg","true","0","80_20_practice","",""
"","text-replacement","39","276134","0.0-19.0","15958102","wem/bandit_party_1","AZIDXMX2VZOTZ","either","2","4845","","","32","","","","","","","","","","","","","","","","","","","","","","","","","","","","","","","","","","","","","",""
"","bandit","40","278850","0.0-20.0-0.0","15958102","wem/bandit_party_1","AZIDXMX2VZOTZ","either","2","1158","","","","","","","1","0","0","1","0","","","","","0","1","","","1","0","","","","","","","","","","","","74","J","0","img/none_selected_demo.jpg","true","0","","",""
"","text-replacement","41","287979","0.0-21.0","15958102","wem/bandit_party_1","AZIDXMX2VZOTZ","either","2","9121","","","32","","","","","","","","","","","","","","","","","","","","","","","","","","","","","","","","","","","","","",""
"","text-replacement","42","294631","0.0-22.0","15958102","wem/bandit_party_1","AZIDXMX2VZOTZ","either","2","6646","","","32","","","","","","","","","","","","","","","","","","","","","","","","","","","","","","","","","","","","","",""
"","text-replacement","43","297483","0.0-23.0","15958102","wem/bandit_party_1","AZIDXMX2VZOTZ","either","2","2847","","","32","","","","","","","","","","","","","","","","","","","","","","","","","","","","","","","","","","","","","",""
"","text-replacement","44","301111","0.0-24.0","15958102","wem/bandit_party_1","AZIDXMX2VZOTZ","either","2","3620","","","32","","","","","","","","","","","","","","","","","","","","","","","","","","","","","","","","","","","","","",""
"","text-replacement","45","311613","0.0-25.0","15958102","wem/bandit_party_1","AZIDXMX2VZOTZ","either","2","10495","","","32","","","","","","","","","","","","","","","","","","","","","","","","","","","","","","","","","","","","","",""
"","text-replacement","46","315774","0.0-26.0","15958102","wem/bandit_party_1","AZIDXMX2VZOTZ","either","2","4155","","","32","","","","","","","","","","","","","","","","","","","","","","","","","","","","","","","","","","","","","",""
"","text-replacement","47","320072","0.0-27.0","15958102","wem/bandit_party_1","AZIDXMX2VZOTZ","either","2","4290","","","32","","","","","","","","","","","","","","","","","","","","","","","","","","","","","","","","","","","","","",""
"","text-replacement","48","325663","0.0-28.0","15958102","wem/bandit_party_1","AZIDXMX2VZOTZ","either","2","5584","","","32","","","","","","","","","","","","","","","","","","","","","","","","","","","","","","","","","","","","","",""
"","text-replacement","49","330839","0.0-29.0","15958102","wem/bandit_party_1","AZIDXMX2VZOTZ","either","2","5169","","","32","","","","","","","","","","","","","","","","","","","","","","","","","","","","","","","","","","","","","",""
"","text-replacement","50","333685","0.0-30.0","15958102","wem/bandit_party_1","AZIDXMX2VZOTZ","either","2","2839","","","32","","","","","","","","","","","","","","","","","","","","","","","","","","","","","","","","","","","","","",""
"","text-replacement","51","337169","0.0-31.0","15958102","wem/bandit_party_1","AZIDXMX2VZOTZ","either","2","3476","","","32","","","","","","","","","","","","","","","","","","","","","","","","","","","","","","","","","","","","","",""
"","bandit","52","339921","0.0-32.0-0.0","15958102","wem/bandit_party_1","AZIDXMX2VZOTZ","either","2","1185","","","","","","","1","0","0","0.8","","0.5","0.5","0.5","0.5","","","","","0.8","0.2","0.6","0.2","","","","","","","","","","72","H","0","img/none_selected.jpg","true","0","full_practice","",""
"","bandit","53","341866","0.0-32.0-1.0","15958102","wem/bandit_party_1","AZIDXMX2VZOTZ","either","2","364","","","","","","","1","0","0","0.8","","0.5","0.5","0.5","0.5","","","","","0.8","0.2","0.6","0.2","","","","","","","","","","72","H","0","img/none_selected.jpg","true","0","full_practice","",""
"","bandit","54","343761","0.0-32.0-2.0","15958102","wem/bandit_party_1","AZIDXMX2VZOTZ","either","2","324","","","","","","","0","1","0","","0.8","0.5","0.5","0.5","0.5","0.8","0.2","0.6","0.2","","","","","","","","","","","","","","72","H","0","img/none_selected.jpg","true","0","full_practice","",""
"","bandit","55","345605","0.0-32.0-3.0","15958102","wem/bandit_party_1","AZIDXMX2VZOTZ","either","2","299","","","","","","","0","1","0","","0.8","0.5","0.5","0.5","0.5","0.8","0.2","0.6","0.2","","","","","","","","","","","","","","72","H","0","img/none_selected.jpg","true","0","full_practice","",""
"","bandit","56","347466","0.0-32.0-4.0","15958102","wem/bandit_party_1","AZIDXMX2VZOTZ","either","2","311","","","","","","","0","1","0","","0.8","0.5","0.5","0.5","0.5","0.8","0.2","0.6","0.2","","","","","","","","","","","","","","72","H","0","img/none_selected.jpg","true","0","full_practice","",""
"","bandit","57","349293","0.0-32.0-5.0","15958102","wem/bandit_party_1","AZIDXMX2VZOTZ","either","2","276","","","","","","","1","0","0","0.8","","0.5","0.5","0.5","0.5","","","","","0.8","0.2","0.6","0.2","","","","","","","","","","72","H","0","img/none_selected.jpg","true","0","full_practice","",""
"","bandit","58","351158","0.0-32.0-6.0","15958102","wem/bandit_party_1","AZIDXMX2VZOTZ","either","2","326","","","","","","","0","1","0","","0.8","0.5","0.5","0.5","0.5","0.8","0.2","0.6","0.2","","","","","","","","","","","","","","72","H","0","img/none_selected.jpg","true","0","full_practice","",""
"","bandit","59","353052","0.0-32.0-7.0","15958102","wem/bandit_party_1","AZIDXMX2VZOTZ","either","2","345","","","","","","","1","0","0","0.8","","0.5","0.5","0.5","0.5","","","","","0.8","0.2","0.6","0.2","","","","","","","","","","72","H","0","img/none_selected.jpg","true","0","full_practice","",""
"","bandit","60","354893","0.0-32.0-8.0","15958102","wem/bandit_party_1","AZIDXMX2VZOTZ","either","2","298","","","","","","","1","0","0","0.8","","0.5","0.5","0.5","0.5","","","","","0.8","0.2","0.6","0.2","","","","","","","","","","72","H","0","img/none_selected.jpg","true","0","full_practice","",""
"","bandit","61","356736","0.0-32.0-9.0","15958102","wem/bandit_party_1","AZIDXMX2VZOTZ","either","2","292","","","","","","","0","1","0","","0.8","0.5","0.5","0.5","0.5","0.8","0.2","0.6","0.2","","","","","","","","","","","","","","72","H","0","img/none_selected.jpg","true","0","full_practice","",""
"","bandit","62","358624","0.0-32.0-10.0","15958102","wem/bandit_party_1","AZIDXMX2VZOTZ","either","2","357","","","","","","","0","1","0","","0.8","0.5","0.5","0.5","0.5","0.8","0.2","0.6","0.2","","","","","","","","","","","","","","72","H","0","img/none_selected.jpg","true","0","full_practice","",""
"","bandit","63","360519","0.0-32.0-11.0","15958102","wem/bandit_party_1","AZIDXMX2VZOTZ","either","2","356","","","","","","","1","0","0","0.8","","0.5","0.5","0.5","0.5","","","","","0.8","0.2","0.6","0.2","","","","","","","","","","72","H","0","img/none_selected.jpg","true","0","full_practice","",""
"","bandit","64","362379","0.0-32.0-12.0","15958102","wem/bandit_party_1","AZIDXMX2VZOTZ","either","2","313","","","","","","","1","0","0","0.8","","0.5","0.5","0.5","0.5","","","","","0.8","0.2","0.6","0.2","","","","","","","","","","72","H","0","img/none_selected.jpg","true","0","full_practice","",""
"","bandit","65","364273","0.0-32.0-13.0","15958102","wem/bandit_party_1","AZIDXMX2VZOTZ","either","2","326","","","","","","","0","0","1","","0.8","0.5","0.5","0.5","0.5","0.8","0.2","0.6","0.2","","","","","","","","","","","","","","72","H","0","img/none_selected.jpg","true","0","full_practice","",""
"","bandit","66","366780","0.0-32.0-14.0","15958102","wem/bandit_party_1","AZIDXMX2VZOTZ","either","2","915","","","","","","","0","1","0","","0.8","0.5","0.5","0.5","0.5","0.8","0.2","0.6","0.2","","","","","","","","","","","","","","72","H","0","img/none_selected.jpg","true","0","full_practice","",""
"","bandit","67","368808","0.0-32.0-15.0","15958102","wem/bandit_party_1","AZIDXMX2VZOTZ","either","2","496","","","","","","","0","1","0","","0.8","0.5","0.5","0.5","0.5","0.8","0.2","0.6","0.2","","","","","","","","","","","","","","72","H","0","img/none_selected.jpg","true","0","full_practice","",""
"","bandit","68","370693","0.0-32.0-16.0","15958102","wem/bandit_party_1","AZIDXMX2VZOTZ","either","2","333","","","","","","","0","0","1","0.8","","0.5","0.5","0.5","0.5","","","","","0.8","0.2","0.6","0.2","","","","","","","","","","72","H","0","img/none_selected.jpg","true","0","full_practice","",""
"","bandit","69","372621","0.0-32.0-17.0","15958102","wem/bandit_party_1","AZIDXMX2VZOTZ","either","2","393","","","","","","","0","0","1","","0.8","0.5","0.5","0.5","0.5","0.8","0.2","0.6","0.2","","","","","","","","","","","","","","72","H","0","img/none_selected.jpg","true","0","full_practice","",""
"","bandit","70","374477","0.0-32.0-18.0","15958102","wem/bandit_party_1","AZIDXMX2VZOTZ","either","2","315","","","","","","","0","0","1","","0.8","0.5","0.5","0.5","0.5","0.8","0.2","0.6","0.2","","","","","","","","","","","","","","72","H","0","img/none_selected.jpg","true","0","full_practice","",""
"","bandit","71","376307","0.0-32.0-19.0","15958102","wem/bandit_party_1","AZIDXMX2VZOTZ","either","2","289","","","","","","","1","0","0","0.2","","0.5","0.5","0.5","0.5","","","","","0.8","0.2","0.6","0.2","","","","","","","","","","74","J","1","","true","0","full_practice","",""
"","text","72","380095","0.0-33.0","15958102","wem/bandit_party_1","AZIDXMX2VZOTZ","either","2","3765","","","32","","","","","","","","","","","","","","","","","","","","","","","","","","","","","","","","","","","","","",""
"","text-replacement","73","395729","0.0-34.0","15958102","wem/bandit_party_1","AZIDXMX2VZOTZ","either","2","14623","","","32","","","","","","","","","","","","","","","","","","","","","","","","","","","","","","","","","","","","","",""
"","text-replacement","74","407329","0.0-35.0","15958102","wem/bandit_party_1","AZIDXMX2VZOTZ","either","2","11590","","","32","","","","","","","","","","","","","","","","","","","","","","","","","","","","","","","","","","","","","",""
"","text-replacement","75","413557","0.0-36.0","15958102","wem/bandit_party_1","AZIDXMX2VZOTZ","either","2","6218","","","32","","","","","","","","","","","","","","","","","","","","","","","","","","","","","","","","","","","","","",""
"","text-replacement","76","421746","0.0-37.0","15958102","wem/bandit_party_1","AZIDXMX2VZOTZ","either","2","8180","","","32","","","","","","","","","","","","","","","","","","","","","","","","","","","","","","","","","","","","","",""
"","text-replacement","77","430710","0.0-38.0","15958102","wem/bandit_party_1","AZIDXMX2VZOTZ","either","2","8954","","","32","","","","","","","","","","","","","","","","","","","","","","","","","","","","","","","","","","","","","",""
"","survey-multi-choice-replacement","78","438522","0.0-39.0-0.0","15958102","wem/bandit_party_1","AZIDXMX2VZOTZ","either","2","7780","","","","","","","","","","","","","","","","","","","","","","","","Money will be added to the pool for <span style='color:red;'>REPUBLICANS</span>","","","","","","","attn_check","","","","","","","","","0",""
"","survey-multi-choice-replacement","79","443644","0.0-40.0-0.0","15958102","wem/bandit_party_1","AZIDXMX2VZOTZ","either","2","4069","","","","","","","","","","","","","","","","","","","","","","","","Money will be subtracted from the pool for <span style='color:blue;'>DEMOCRATS</span>","","","","","","","attn_check","","","","","","","","","1",""
"","instructions","80","447380","0.0-40.0-1.0-0.0","15958102","wem/bandit_party_1","AZIDXMX2VZOTZ","either","2","2722","","","","","","","","","","","","","","","","","","","","","","","","","","","","","","","","","","","","","","","","","[{""page_index"":0,""viewing_time"":2721}]"
"","survey-multi-choice-replacement","81","453113","0.0-40.1-0.1","15958102","wem/bandit_party_1","AZIDXMX2VZOTZ","either","2","4703","","","","","","","","","","","","","","","","","","","","","","","","Equal amounts of money will be added to the pool for <span style='color:red;'>REPUBLICANS</span> and subtracted from the pool for <span style='color:blue;'>DEMOCRATS</span>","","","","","","","attn_check","","","","","","","","","2",""
"","survey-multi-choice-replacement","82","459002","0.0-41.0-0.0","15958102","wem/bandit_party_1","AZIDXMX2VZOTZ","either","2","4844","","","","","","","","","","","","","","","","","","","","","","","","No money will be added to either pool","","","","","","","attn_check","","","","","","","","","3",""
"","bandit","83","465776","0.0-42.0-0.0","15958102","wem/bandit_party_1","AZIDXMX2VZOTZ","either","2","4208","","","","","","","0","0","1","","0.4781977867","0.6","0.4","0.8","0.2","0.4781977867","0.3653736811","0.326135308","0.362799796","","","","","","","","","","","","","","72","H","0","img/none_selected.jpg","","1","main_expt","",""
"","bandit","84","468003","0.0-43.0-0.0","15958102","wem/bandit_party_1","AZIDXMX2VZOTZ","either","2","674","","","","","","","0","0","1","","0.3999069229","0.6","0.4","0.8","0.2","0.4765481994","0.3999069229","0.3564958201","0.3891507205","","","","","","","","","","","","","","74","J","1","","","2","main_expt","",""
"","bandit","85","469982","0.0-44.0-0.0","15958102","wem/bandit_party_1","AZIDXMX2VZOTZ","either","2","429","","","","","","","1","0","0","0.3309056029","","0.6","0.4","0.8","0.2","","","","","0.4722158263","0.4363582421","0.3309056029","0.3151339382","","","","","","","","","","75","K","2","","","3","main_expt","",""
"","bandit","86","472443","0.0-45.0-0.0","15958102","wem/bandit_party_1","AZIDXMX2VZOTZ","either","2","933","","","","","","","1","0","0","0.308467875","","0.6","0.4","0.8","0.2","","","","","0.4609570051","0.4300921111","0.308467875","0.250648122","","","","","","","","","","75","K","2","","","4","main_expt","",""
"","bandit","87","474687","0.0-46.0-0.0","15958102","wem/bandit_party_1","AZIDXMX2VZOTZ","either","2","690","","","","","","","0","0","1","0.3349995635","","0.6","0.4","0.8","0.2","","","","","0.4707799186","0.3863220662","0.3349995635","0.2382585344","","","","","","","","","","75","K","2","","","5","main_expt","",""
"","bandit","88","476820","0.0-47.0-0.0","15958102","wem/bandit_party_1","AZIDXMX2VZOTZ","either","2","590","","","","","","","0","0","1","0.3743101545","","0.6","0.4","0.8","0.2","","","","","0.4676743975","0.4192648028","0.3743101545","0.2088101903","","","","","","","","","","75","K","2","","","6","main_expt","",""
"","bandit","89","478691","0.0-48.0-0.0","15958102","wem/bandit_party_1","AZIDXMX2VZOTZ","either","2","332","","","","","","","0","0","1","","0.1884279889","0.6","0.4","0.8","0.2","0.4767364015","0.4218548145","0.377506125","0.1884279889","","","","","","","","","","","","","","76","L","3","","","7","main_expt","",""
"","bandit","90","480657","0.0-49.0-0.0","15958102","wem/bandit_party_1","AZIDXMX2VZOTZ","either","2","419","","","","","","","1","0","0","0.4837409877","","0.6","0.4","0.8","0.2","","","","","0.4837409877","0.4298914749","0.3452849142","0.2297930851","","","","","","","","","","72","H","0","img/none_selected.jpg","","8","main_expt","",""
"","bandit","91","482584","0.0-50.0-0.0","15958102","wem/bandit_party_1","AZIDXMX2VZOTZ","either","2","381","","","","","","","0","0","1","","0.4825212187","0.6","0.4","0.8","0.2","0.4825212187","0.4215440671","0.2713567333","0.2219539873","","","","","","","","","","","","","","72","H","0","img/none_selected.jpg","","9","main_expt","",""
"","bandit","92","484449","0.0-51.0-0.0","15958102","wem/bandit_party_1","AZIDXMX2VZOTZ","either","2","312","","","","","","","0","1","0","","0.4791264729","0.6","0.4","0.8","0.2","0.4791264729","0.3991616263","0.2712708503","0.2398128751","","","","","","","","","","","","","","72","H","0","img/none_selected.jpg","","10","main_expt","",""
"","bandit","93","486473","0.0-52.0-0.0","15958102","wem/bandit_party_1","AZIDXMX2VZOTZ","either","2","485","","","","","","","0","0","1","","0.4762013833","0.6","0.4","0.8","0.2","0.4762013833","0.4002673883","0.2635531688","0.2551733424","","","","","","","","","","","","","","72","H","0","img/none_selected.jpg","","11","main_expt","",""
"","bandit","94","488451","0.0-53.0-0.0","15958102","wem/bandit_party_1","AZIDXMX2VZOTZ","either","2","429","","","","","","","0","0","1","0.2669056975","","0.6","0.4","0.8","0.2","","","","","0.4729837645","0.368629831","0.2669056975","0.2593424883","","","","","","","","","","75","K","2","","","12","main_expt","",""
"","bandit","95","490303","0.0-54.0-0.0","15958102","wem/bandit_party_1","AZIDXMX2VZOTZ","either","2","305","","","","","","","0","0","1","0.3204456557","","0.6","0.4","0.8","0.2","","","","","0.4749786695","0.4189726289","0.3204456557","0.2493591627","","","","","","","","","","75","K","2","","","13","main_expt","",""
"","bandit","96","492201","0.0-55.0-0.0","15958102","wem/bandit_party_1","AZIDXMX2VZOTZ","either","2","360","","","","","","","0","1","0","","0.4352425359","0.6","0.4","0.8","0.2","0.4810115094","0.4352425359","0.3466526728","0.2686446846","","","","","","","","","","","","","","74","J","1","","","14","main_expt","",""
"","bandit","97","494073","0.0-56.0-0.0","15958102","wem/bandit_party_1","AZIDXMX2VZOTZ","either","2","328","","","","","","","0","0","1","","0.3819090161","0.6","0.4","0.8","0.2","0.4705329286","0.3819090161","0.3736671224","0.2690169042","","","","","","","","","","","","","","74","J","1","","","15","main_expt","",""
"","bandit","98","495937","0.0-57.0-0.0","15958102","wem/bandit_party_1","AZIDXMX2VZOTZ","either","2","302","","","","","","","0","0","1","0.3737760256","","0.6","0.4","0.8","0.2","","","","","0.4687419894","0.3737760256","0.3778143907","0.2518303543","","","","","","","","","","74","J","1","","","16","main_expt","",""
"","bandit","99","497789","0.0-58.0-0.0","15958102","wem/bandit_party_1","AZIDXMX2VZOTZ","either","2","282","","","","","","","0","0","1","","0.4594180265","0.6","0.4","0.8","0.2","0.4594180265","0.4151791473","0.3845750066","0.2406549936","","","","","","","","","","","","","","72","H","0","img/none_selected.jpg","","17","main_expt","",""
"","bandit","100","499691","0.0-59.0-0.0","15958102","wem/bandit_party_1","AZIDXMX2VZOTZ","either","2","362","","","","","","","1","0","0","0.425397146","","0.6","0.4","0.8","0.2","","","","","0.425397146","0.4137363134","0.4041286345","0.2670149403","","","","","","","","","","72","H","0","img/none_selected.jpg","","18","main_expt","",""
"","bandit","101","501567","0.0-60.0-0.0","15958102","wem/bandit_party_1","AZIDXMX2VZOTZ","either","2","323","","","","","","","0","0","1","0.4201246927","","0.6","0.4","0.8","0.2","","","","","0.4201246927","0.4084056464","0.4127350431","0.2658482338","","","","","","","","","","72","H","0","img/none_selected.jpg","","19","main_expt","",""
"","bandit","102","503446","0.0-61.0-0.0","15958102","wem/bandit_party_1","AZIDXMX2VZOTZ","either","2","329","","","","","","","1","0","0","0.3954271328","","0.6","0.4","0.8","0.2","","","","","0.3954271328","0.4129175496","0.4107359536","0.2452433766","","","","","","","","","","72","H","0","img/none_selected.jpg","","20","main_expt","",""
"","bandit","103","505295","0.0-62.0-0.0","15958102","wem/bandit_party_1","AZIDXMX2VZOTZ","either","2","292","","","","","","","0","0","1","0.4196431029","","0.6","0.4","0.8","0.2","","","","","0.4196431029","0.3888488162","0.3954861765","0.2298761452","","","","","","","","","","72","H","0","img/none_selected.jpg","","21","main_expt","",""
"","bandit","104","507168","0.0-63.0-0.0","15958102","wem/bandit_party_1","AZIDXMX2VZOTZ","either","2","321","","","","","","","0","0","1","0.3843335182","","0.6","0.4","0.8","0.2","","","","","0.3843335182","0.3873149631","0.3805979297","0.266827693","","","","","","","","","","72","H","0","img/none_selected.jpg","","22","main_expt","",""
"","bandit","105","509019","0.0-64.0-0.0","15958102","wem/bandit_party_1","AZIDXMX2VZOTZ","either","2","271","","","","","","","0","0","1","0.425451992","","0.6","0.4","0.8","0.2","","","","","0.3839977458","0.3659772031","0.425451992","0.2519769849","","","","","","","","","","75","K","2","","","23","main_expt","",""
"","bandit","106","511062","0.0-65.0-0.0","15958102","wem/bandit_party_1","AZIDXMX2VZOTZ","either","2","487","","","","","","","0","0","1","0.4699447661","","0.6","0.4","0.8","0.2","","","","","0.3338939571","0.3594327093","0.4699447661","0.2447613107","","","","","","","","","","75","K","2","","","24","main_expt","",""
"","bandit","107","513068","0.0-66.0-0.0","15958102","wem/bandit_party_1","AZIDXMX2VZOTZ","either","2","467","","","","","","","0","1","0","","0.2350413847","0.6","0.4","0.8","0.2","0.324486952","0.3719143394","0.4484050393","0.2350413847","","","","","","","","","","","","","","76","L","3","","","25","main_expt","",""
"","bandit","108","515543","0.0-67.0-0.0","15958102","wem/bandit_party_1","AZIDXMX2VZOTZ","either","2","935","","","","","","","0","1","0","","0.207774486","0.6","0.4","0.8","0.2","0.3095710384","0.3690014044","0.4190234423","0.207774486","","","","","","","","","","","","","","76","L","3","","","26","main_expt","",""
"","bandit","109","517824","0.0-68.0-0.0","15958102","wem/bandit_party_1","AZIDXMX2VZOTZ","either","2","736","","","","","","","0","0","1","","0.2164182795","0.6","0.4","0.8","0.2","0.3355629191","0.3940030818","0.4251478254","0.2164182795","","","","","","","","","","","","","","76","L","3","","","27","main_expt","",""
"","bandit","110","519740","0.0-69.0-0.0","15958102","wem/bandit_party_1","AZIDXMX2VZOTZ","either","2","352","","","","","","","0","0","1","","0.2164031865","0.6","0.4","0.8","0.2","0.3668681485","0.4111080327","0.4287328697","0.2164031865","","","","","","","","","","","","","","76","L","3","","","28","main_expt","",""
"","bandit","111","521609","0.0-70.0-0.0","15958102","wem/bandit_party_1","AZIDXMX2VZOTZ","either","2","313","","","","","","","1","0","0","0.4106025245","","0.6","0.4","0.8","0.2","","","","","0.343198694","0.41290056","0.4106025245","0.2770000278","","","","","","","","","","75","K","2","","","29","main_expt","",""
"","bandit","112","523812","0.0-71.0-0.0","15958102","wem/bandit_party_1","AZIDXMX2VZOTZ","either","2","659","","","","","","","0","0","1","","0.3942494676","0.6","0.4","0.8","0.2","0.326069126","0.3937480262","0.3942494676","0.2354797847","","","","","","","","","","","","","","75","K","2","","","30","main_expt","",""
"","bandit","113","525661","0.0-72.0-0.0","15958102","wem/bandit_party_1","AZIDXMX2VZOTZ","either","2","316","","","","","","","0","0","1","0.4285056211","","0.6","0.4","0.8","0.2","","","","","0.3390127419","0.3997016236","0.4285056211","0.2692030882","","","","","","","","","","75","K","2","","","31","main_expt","",""
"","bandit","114","527524","0.0-73.0-0.0","15958102","wem/bandit_party_1","AZIDXMX2VZOTZ","either","2","313","","","","","","","0","0","1","","0.3574295763","0.6","0.4","0.8","0.2","0.3360649894","0.3574295763","0.4249454459","0.2471118655","","","","","","","","","","","","","","74","J","1","","","32","main_expt","",""
"","bandit","115","529423","0.0-74.0-0.0","15958102","wem/bandit_party_1","AZIDXMX2VZOTZ","either","2","346","","","","","","","0","0","1","","0.3052602024","0.6","0.4","0.8","0.2","0.3052602024","0.3877818659","0.416417765","0.2879199001","","","","","","","","","","","","","","72","H","0","img/none_selected.jpg","","33","main_expt","",""
"","bandit","116","531296","0.0-75.0-0.0","15958102","wem/bandit_party_1","AZIDXMX2VZOTZ","either","2","320","","","","","","","0","0","1","","0.3594788954","0.6","0.4","0.8","0.2","0.3594788954","0.3799496232","0.4623714429","0.3180115212","","","","","","","","","","","","","","72","H","0","img/none_selected.jpg","","34","main_expt","",""
"","bandit","117","533238","0.0-76.0-0.0","15958102","wem/bandit_party_1","AZIDXMX2VZOTZ","either","2","393","","","","","","","1","0","0","0.4591977302","","0.6","0.4","0.8","0.2","","","","","0.380235832","0.3577573403","0.4591977302","0.2524306687","","","","","","","","","","75","K","2","","","35","main_expt","",""
"","bandit","118","535137","0.0-77.0-0.0","15958102","wem/bandit_party_1","AZIDXMX2VZOTZ","either","2","358","","","","","","","0","0","1","","0.4686235256","0.6","0.4","0.8","0.2","0.3459989602","0.3895375856","0.4686235256","0.2351869563","","","","","","","","","","","","","","75","K","2","","","36","main_expt","",""
"","bandit","119","536982","0.0-78.0-0.0","15958102","wem/bandit_party_1","AZIDXMX2VZOTZ","either","2","310","","","","","","","1","0","0","0.4571547709","","0.6","0.4","0.8","0.2","","","","","0.3320905149","0.3783527007","0.4571547709","0.2629170466","","","","","","","","","","75","K","2","","","37","main_expt","",""
"","bandit","120","538998","0.0-79.0-0.0","15958102","wem/bandit_party_1","AZIDXMX2VZOTZ","either","2","470","","","","","","","0","0","1","","0.4688430709","0.6","0.4","0.8","0.2","0.3471020919","0.284076782","0.4688430709","0.3090194305","","","","","","","","","","","","","","75","K","2","","","38","main_expt","",""
"","bandit","121","540974","0.0-80.0-0.0","15958102","wem/bandit_party_1","AZIDXMX2VZOTZ","either","2","437","","","","","","","1","0","0","0.4612923778","","0.6","0.4","0.8","0.2","","","","","0.3401763967","0.3388972186","0.4612923778","0.2845371228","","","","","","","","","","75","K","2","","","39","main_expt","",""
"","bandit","122","544009","0.0-81.0-0.0","15958102","wem/bandit_party_1","AZIDXMX2VZOTZ","either","2","1486","","","","","","","1","0","0","0.4576194683","","0.6","0.4","0.8","0.2","","","","","0.3260487483","0.2663655232","0.4576194683","0.3076259244","","","","","","","","","","75","K","2","","","40","main_expt","",""
"","bandit","123","547570","0.0-82.0-0.0","15958102","wem/bandit_party_1","AZIDXMX2VZOTZ","either","2","2013","","","","","","","0","1","0","","0.4473921051","0.6","0.4","0.8","0.2","0.3390218734","0.2608266697","0.4473921051","0.2888769276","","","","","","","","","","","","","","75","K","2","","","41","main_expt","",""
"","bandit","124","551111","0.0-83.0-0.0","15958102","wem/bandit_party_1","AZIDXMX2VZOTZ","either","2","1995","","","","","","","0","0","1","0.425470286","","0.6","0.4","0.8","0.2","","","","","0.2889680017","0.2287676803","0.425470286","0.2639198141","","","","","","","","","","75","K","2","","","42","main_expt","",""
"","bandit","125","553391","0.0-84.0-0.0","15958102","wem/bandit_party_1","AZIDXMX2VZOTZ","either","2","730","","","","","","","0","1","0","","0.4030522017","0.6","0.4","0.8","0.2","0.2784828801","0.2043112358","0.4030522017","0.2255441472","","","","","","","","","","","","","","75","K","2","","","43","main_expt","",""
"","bandit","126","555843","0.0-85.0-0.0","15958102","wem/bandit_party_1","AZIDXMX2VZOTZ","either","2","895","","","","","","","1","0","0","0.4106315797","","0.6","0.4","0.8","0.2","","","","","0.2805729819","0.1957049551","0.4106315797","0.2050272072","","","","","","","","","","75","K","2","","","44","main_expt","",""
"","bandit","127","558714","0.0-86.0-0.0","15958102","wem/bandit_party_1","AZIDXMX2VZOTZ","either","2","1323","","","","","","","0","0","1","","0.4258527362","0.6","0.4","0.8","0.2","0.2195119073","0.2207366272","0.4258527362","0.239455925","","","","","","","","","","","","","","75","K","2","","","45","main_expt","",""
"","bandit","128","561176","0.0-87.0-0.0","15958102","wem/bandit_party_1","AZIDXMX2VZOTZ","either","2","913","","","","","","","0","0","1","0.4425966235","","0.6","0.4","0.8","0.2","","","","","0.2657932304","0.1727988076","0.4425966235","0.2414778298","","","","","","","","","","75","K","2","","","46","main_expt","",""
"","bandit","129","563112","0.0-88.0-0.0","15958102","wem/bandit_party_1","AZIDXMX2VZOTZ","either","2","370","","","","","","","0","0","1","","0.1884211613","0.6","0.4","0.8","0.2","0.2678398397","0.1446735631","0.4428977597","0.1884211613","","","","","","","","","","","","","","76","L","3","","","47","main_expt","",""
"","bandit","130","565009","0.0-89.0-0.0","15958102","wem/bandit_party_1","AZIDXMX2VZOTZ","either","2","338","","","","","","","0","0","1","0.1681765936","","0.6","0.4","0.8","0.2","","","","","0.2866904938","0.1681765936","0.4479964269","0.1755274282","","","","","","","","","","74","J","1","","","48","main_expt","",""
"","bandit","131","566892","0.0-90.0-0.0","15958102","wem/bandit_party_1","AZIDXMX2VZOTZ","either","2","326","","","","","","","0","1","0","","0.2803848884","0.6","0.4","0.8","0.2","0.2803848884","0.1473883531","0.4660387519","0.1646396384","","","","","","","","","","","","","","72","H","0","img/none_selected.jpg","","49","main_expt","",""
"","bandit","132","568780","0.0-91.0-0.0","15958102","wem/bandit_party_1","AZIDXMX2VZOTZ","either","2","344","","","","","","","0","1","0","","0.2587411269","0.6","0.4","0.8","0.2","0.2587411269","0.1378170987","0.4345757832","0.2024226619","","","","","","","","","","","","","","72","H","0","img/none_selected.jpg","","50","main_expt","",""
"","bandit","133","570705","0.0-92.0-0.0","15958102","wem/bandit_party_1","AZIDXMX2VZOTZ","either","2","374","","","","","","","0","0","1","","0.2212901065","0.6","0.4","0.8","0.2","0.2212901065","0.1430360168","0.4450950844","0.1976760068","","","","","","","","","","","","","","72","H","0","img/none_selected.jpg","","51","main_expt","",""
"","bandit","134","572607","0.0-93.0-0.0","15958102","wem/bandit_party_1","AZIDXMX2VZOTZ","either","2","351","","","","","","","0","0","1","0.236006857","","0.6","0.4","0.8","0.2","","","","","0.236006857","0.1731798725","0.4475354499","0.1796352224","","","","","","","","","","72","H","0","img/none_selected.jpg","","52","main_expt","",""
"","bandit","135","574514","0.0-94.0-0.0","15958102","wem/bandit_party_1","AZIDXMX2VZOTZ","either","2","351","","","","","","","0","0","1","","0.2660825342","0.6","0.4","0.8","0.2","0.2660825342","0.1312409056","0.4627294295","0.2451732725","","","","","","","","","","","","","","72","H","0","img/none_selected.jpg","","53","main_expt","",""
"","bandit","136","576396","0.0-95.0-0.0","15958102","wem/bandit_party_1","AZIDXMX2VZOTZ","either","2","324","","","","","","","0","0","1","0.44829207","","0.6","0.4","0.8","0.2","","","","","0.2458345041","0.1862053218","0.44829207","0.2621482643","","","","","","","","","","75","K","2","","","54","main_expt","",""
"","bandit","137","578292","0.0-96.0-0.0","15958102","wem/bandit_party_1","AZIDXMX2VZOTZ","either","2","346","","","","","","","0","0","1","0.2265690781","","0.6","0.4","0.8","0.2","","","","","0.2265690781","0.1733563037","0.4505537928","0.2441780383","","","","","","","","","","72","H","0","img/none_selected.jpg","","55","main_expt","",""
"","bandit","138","580369","0.0-97.0-0.0","15958102","wem/bandit_party_1","AZIDXMX2VZOTZ","either","2","527","","","","","","","0","0","1","","0.2741820357","0.6","0.4","0.8","0.2","0.2741820357","0.1728369204","0.4686400132","0.199729785","","","","","","","","","","","","","","72","H","0","img/none_selected.jpg","","56","main_expt","",""
"","bandit","139","582388","0.0-98.0-0.0","15958102","wem/bandit_party_1","AZIDXMX2VZOTZ","either","2","481","","","","","","","0","0","1","0.09176359954","","0.6","0.4","0.8","0.2","","","","","0.2937641054","0.09176359954","0.4572679106","0.1945085845","","","","","","","","","","74","J","1","","","57","main_expt","",""
"","bandit","140","584311","0.0-99.0-0.0","15958102","wem/bandit_party_1","AZIDXMX2VZOTZ","either","2","368","","","","","","","0","0","1","0.2614759052","","0.6","0.4","0.8","0.2","","","","","0.2949827607","0.04991422033","0.4300169527","0.2614759052","","","","","","","","","","76","L","3","","","58","main_expt","",""
"","bandit","141","586241","0.0-100.0-0.0","15958102","wem/bandit_party_1","AZIDXMX2VZOTZ","either","2","371","","","","","","","0","0","1","0.4050829606","","0.6","0.4","0.8","0.2","","","","","0.2710075273","0.053239915","0.4050829606","0.2426118991","","","","","","","","","","75","K","2","","","59","main_expt","",""
"","bandit","142","588031","0.0-101.0-0.0","15958102","wem/bandit_party_1","AZIDXMX2VZOTZ","either","2","247","","","","","","","0","0","1","0.2766623035","","0.6","0.4","0.8","0.2","","","","","0.2766623035","0.06994226662","0.4070720156","0.2623750897","","","","","","","","","","72","H","0","img/none_selected.jpg","","60","main_expt","",""
"","bandit","143","589989","0.0-102.0-0.0","15958102","wem/bandit_party_1","AZIDXMX2VZOTZ","either","2","416","","","","","","","0","0","1","0.3895400789","","0.6","0.4","0.8","0.2","","","","","0.2574592035","0.07064832373","0.3895400789","0.2139103784","","","","","","","","","","75","K","2","","","61","main_expt","",""
"","bandit","144","591836","0.0-103.0-0.0","15958102","wem/bandit_party_1","AZIDXMX2VZOTZ","either","2","288","","","","","","","0","0","1","","0.08925217872","0.6","0.4","0.8","0.2","0.2425209234","0.08925217872","0.4050708951","0.2566580444","","","","","","","","","","","","","","74","J","1","","","62","main_expt","",""
"","bandit","145","593822","0.0-104.0-0.0","15958102","wem/bandit_party_1","AZIDXMX2VZOTZ","either","2","435","","","","","","","1","0","0","0.2393402704","","0.6","0.4","0.8","0.2","","","","","0.2294211584","0.08505035955","0.3765761212","0.2393402704","","","","","","","","","","76","L","3","","","63","main_expt","",""
"","bandit","146","595968","0.0-105.0-0.0","15958102","wem/bandit_party_1","AZIDXMX2VZOTZ","either","2","594","","","","","","","0","0","1","0.300105392","","0.6","0.4","0.8","0.2","","","","","0.2350173232","0.09892528285","0.3859881554","0.300105392","","","","","","","","","","76","L","3","","","64","main_expt","",""
"","bandit","147","597900","0.0-106.0-0.0","15958102","wem/bandit_party_1","AZIDXMX2VZOTZ","either","2","389","","","","","","","0","0","1","","0.2584268813","0.6","0.4","0.8","0.2","0.2775473173","0.1428545766","0.3817039273","0.2584268813","","","","","","","","","","","","","","76","L","3","","","65","main_expt","",""
"","bandit","148","599802","0.0-107.0-0.0","15958102","wem/bandit_party_1","AZIDXMX2VZOTZ","either","2","341","","","","","","","0","1","0","","0.3622232449","0.6","0.4","0.8","0.2","0.298861572","0.120440259","0.3622232449","0.2536378703","","","","","","","","","","","","","","75","K","2","","","66","main_expt","",""
"","bandit","149","601629","0.0-108.0-0.0","15958102","wem/bandit_party_1","AZIDXMX2VZOTZ","either","2","288","","","","","","","0","0","1","0.3768721334","","0.6","0.4","0.8","0.2","","","","","0.3043747659","0.2019700983","0.3768721334","0.2548884231","","","","","","","","","","75","K","2","","","67","main_expt","",""
"","bandit","150","603559","0.0-109.0-0.0","15958102","wem/bandit_party_1","AZIDXMX2VZOTZ","either","2","378","","","","","","","1","0","0","0.3826604183","","0.6","0.4","0.8","0.2","","","","","0.2533072519","0.1467862533","0.3826604183","0.2105458193","","","","","","","","","","75","K","2","","","68","main_expt","",""
"","bandit","151","605385","0.0-110.0-0.0","15958102","wem/bandit_party_1","AZIDXMX2VZOTZ","either","2","264","","","","","","","1","0","0","0.3981811202","","0.6","0.4","0.8","0.2","","","","","0.2451677402","0.09022805221","0.3981811202","0.2901666962","","","","","","","","","","75","K","2","","","69","main_expt","",""
"","bandit","152","607230","0.0-111.0-0.0","15958102","wem/bandit_party_1","AZIDXMX2VZOTZ","either","2","301","","","","","","","0","0","1","","0.3936557204","0.6","0.4","0.8","0.2","0.2403061491","0.1128827508","0.3936557204","0.2973761433","","","","","","","","","","","","","","75","K","2","","","70","main_expt","",""
"","bandit","153","609152","0.0-112.0-0.0","15958102","wem/bandit_party_1","AZIDXMX2VZOTZ","either","2","384","","","","","","","1","0","0","0.3949471057","","0.6","0.4","0.8","0.2","","","","","0.1917576795","0.1184182172","0.3949471057","0.2737706179","","","","","","","","","","75","K","2","","","71","main_expt","",""
"","bandit","154","611459","0.0-113.0-0.0","15958102","wem/bandit_party_1","AZIDXMX2VZOTZ","either","2","769","","","","","","","0","0","1","","0.3888869603","0.6","0.4","0.8","0.2","0.1894079546","0.1038133506","0.3888869603","0.3005227265","","","","","","","","","","","","","","75","K","2","","","72","main_expt","",""
"","bandit","155","613327","0.0-114.0-0.0","15958102","wem/bandit_party_1","AZIDXMX2VZOTZ","either","2","311","","","","","","","0","0","1","0.235909594","","0.6","0.4","0.8","0.2","","","","","0.235909594","0.07830871569","0.4015056825","0.3205676235","","","","","","","","","","72","H","0","img/none_selected.jpg","","73","main_expt","",""
"","bandit","156","615222","0.0-115.0-0.0","15958102","wem/bandit_party_1","AZIDXMX2VZOTZ","either","2","347","","","","","","","0","0","1","","0.2772030277","0.6","0.4","0.8","0.2","0.2772030277","0.09226686474","0.4200542591","0.3040473008","","","","","","","","","","","","","","72","H","0","img/none_selected.jpg","","74","main_expt","",""
"","bandit","157","617314","0.0-116.0-0.0","15958102","wem/bandit_party_1","AZIDXMX2VZOTZ","either","2","549","","","","","","","0","0","1","","0.07948082514","0.6","0.4","0.8","0.2","0.2237268092","0.07948082514","0.4353174817","0.2686744794","","","","","","","","","","","","","","74","J","1","","","75","main_expt","",""
"","bandit","158","619266","0.0-117.0-0.0","15958102","wem/bandit_party_1","AZIDXMX2VZOTZ","either","2","390","","","","","","","0","0","1","0.258707356","","0.6","0.4","0.8","0.2","","","","","0.1739375455","0.1279570505","0.4196821318","0.258707356","","","","","","","","","","76","L","3","","","76","main_expt","",""
"","bandit","159","621419","0.0-118.0-0.0","15958102","wem/bandit_party_1","AZIDXMX2VZOTZ","either","2","592","","","","","","","0","0","1","0.3787369199","","0.6","0.4","0.8","0.2","","","","","0.1648796623","0.1202820049","0.3787369199","0.3010070056","","","","","","","","","","75","K","2","","","77","main_expt","",""
"","bandit","160","623309","0.0-119.0-0.0","15958102","wem/bandit_party_1","AZIDXMX2VZOTZ","either","2","346","","","","","","","0","0","1","","0.4314930014","0.6","0.4","0.8","0.2","0.1637798684","0.1054071572","0.4314930014","0.2648586626","","","","","","","","","","","","","","75","K","2","","","78","main_expt","",""
"","bandit","161","625063","0.0-120.0-0.0","15958102","wem/bandit_party_1","AZIDXMX2VZOTZ","either","2","208","","","","","","","0","0","1","0.1490076182","","0.6","0.4","0.8","0.2","","","","","0.1490076182","0.1403095361","0.4155078174","0.1984114041","","","","","","","","","","72","H","0","img/none_selected.jpg","","79","main_expt","",""
"","bandit","162","626918","0.0-121.0-0.0","15958102","wem/bandit_party_1","AZIDXMX2VZOTZ","either","2","317","","","","","","","0","0","1","0.1093198388","","0.6","0.4","0.8","0.2","","","","","0.1093198388","0.1891235553","0.4226243671","0.180325551","","","","","","","","","","72","H","0","img/none_selected.jpg","","80","main_expt","",""
"","bandit","163","628771","0.0-122.0-0.0","15958102","wem/bandit_party_1","AZIDXMX2VZOTZ","either","2","319","","","","","","","0","0","1","","0.08868186825","0.6","0.4","0.8","0.2","0.08868186825","0.1858030354","0.4474166549","0.224531153","","","","","","","","","","","","","","72","H","0","img/none_selected.jpg","","81","main_expt","",""
"","bandit","164","630331","0.0-123.0-0.0","15958102","wem/bandit_party_1","AZIDXMX2VZOTZ","either","2","11","","","","","","","0","0","1","","0.2476542501","0.6","0.4","0.8","0.2","0.1073880826","0.2476542501","0.4636297045","0.221125015","","","","","","","","","","","","","","74","J","1","","","82","main_expt","",""
"","bandit","165","632251","0.0-124.0-0.0","15958102","wem/bandit_party_1","AZIDXMX2VZOTZ","either","2","372","","","","","","","0","0","1","0.467509749","","0.6","0.4","0.8","0.2","","","","","0.1022587498","0.2188241074","0.467509749","0.2143237207","","","","","","","","","","75","K","2","","","83","main_expt","",""
"","bandit","166","634193","0.0-125.0-0.0","15958102","wem/bandit_party_1","AZIDXMX2VZOTZ","either","2","394","","","","","","","0","0","1","","0.2097367537","0.6","0.4","0.8","0.2","0.1085807699","0.2754771977","0.4551111531","0.2097367537","","","","","","","","","","","","","","76","L","3","","","84","main_expt","",""
"","bandit","167","636209","0.0-126.0-0.0","15958102","wem/bandit_party_1","AZIDXMX2VZOTZ","either","2","475","","","","","","","0","1","0","","0.1661536269","0.6","0.4","0.8","0.2","0.1263918358","0.2965575968","0.4621419017","0.1661536269","","","","","","","","","","","","","","76","L","3","","","85","main_expt","",""
"","bandit","168","638140","0.0-127.0-0.0","15958102","wem/bandit_party_1","AZIDXMX2VZOTZ","either","2","393","","","","","","","0","1","0","","0.1364458955","0.6","0.4","0.8","0.2","0.1481941301","0.257129161","0.4612050897","0.1364458955","","","","","","","","","","","","","","76","L","3","","","86","main_expt","",""
"","bandit","169","640146","0.0-128.0-0.0","15958102","wem/bandit_party_1","AZIDXMX2VZOTZ","either","2","449","","","","","","","0","0","1","","0.08235553135","0.6","0.4","0.8","0.2","0.1447872846","0.2338967043","0.4334675206","0.08235553135","","","","","","","","","","","","","","76","L","3","","","87","main_expt","",""
"","bandit","170","642022","0.0-129.0-0.0","15958102","wem/bandit_party_1","AZIDXMX2VZOTZ","either","2","319","","","","","","","0","0","1","0.0754832669","","0.6","0.4","0.8","0.2","","","","","0.1391637727","0.2161535794","0.4397617206","0.0754832669","","","","","","","","","","76","L","3","","","88","main_expt","",""
"","bandit","171","643973","0.0-130.0-0.0","15958102","wem/bandit_party_1","AZIDXMX2VZOTZ","either","2","396","","","","","","","0","0","1","","0.109361408","0.6","0.4","0.8","0.2","0.1476089376","0.2043146745","0.4635478967","0.109361408","","","","","","","","","","","","","","76","L","3","","","89","main_expt","",""
"","bandit","172","650196","0.0-131.0-0.0","15958102","wem/bandit_party_1","AZIDXMX2VZOTZ","either","2","4675","","","","","","","1","0","0","0.4234969579","","0.6","0.4","0.8","0.2","","","","","0.2081489191","0.2346009907","0.4234969579","0.07391079866","","","","","","","","","","75","K","2","","","90","main_expt","",""
"","bandit","173","652199","0.0-132.0-0.0","15958102","wem/bandit_party_1","AZIDXMX2VZOTZ","either","2","468","","","","","","","1","0","0","0.4267507071","","0.6","0.4","0.8","0.2","","","","","0.1834039029","0.2333967219","0.4267507071","0.1164594673","","","","","","","","","","75","K","2","","","91","main_expt","",""
"","bandit","174","654527","0.0-133.0-0.0","15958102","wem/bandit_party_1","AZIDXMX2VZOTZ","either","2","777","","","","","","","0","0","1","","0.4089505196","0.6","0.4","0.8","0.2","0.2027314649","0.2150480475","0.4089505196","0.113043345","","","","","","","","","","","","","","75","K","2","","","92","main_expt","",""
"","bandit","175","656459","0.0-134.0-0.0","15958102","wem/bandit_party_1","AZIDXMX2VZOTZ","either","2","390","","","","","","","0","0","1","0.4112501448","","0.6","0.4","0.8","0.2","","","","","0.1738894496","0.2588080464","0.4112501448","0.1714352716","","","","","","","","","","75","K","2","","","93","main_expt","",""
"","bandit","176","658318","0.0-135.0-0.0","15958102","wem/bandit_party_1","AZIDXMX2VZOTZ","either","2","309","","","","","","","0","0","1","","0.1253024032","0.6","0.4","0.8","0.2","0.2484708832","0.2748849181","0.452415855","0.1253024032","","","","","","","","","","","","","","76","L","3","","","94","main_expt","",""
"","bandit","177","660000","0.0-136.0-0.0","15958102","wem/bandit_party_1","AZIDXMX2VZOTZ","either","2","126","","","","","","","0","0","1","0.2914685715","","0.6","0.4","0.8","0.2","","","","","0.2914685715","0.2791739054","0.4589197587","0.1401284447","","","","","","","","","","72","H","0","img/none_selected.jpg","","95","main_expt","",""
"","bandit","178","661779","0.0-137.0-0.0","15958102","wem/bandit_party_1","AZIDXMX2VZOTZ","either","2","229","","","","","","","1","0","0","0.3149564315","","0.6","0.4","0.8","0.2","","","","","0.2417524935","0.3149564315","0.4481870348","0.1320491369","","","","","","","","","","74","J","1","","","96","main_expt","",""
"","bandit","179","663781","0.0-138.0-0.0","15958102","wem/bandit_party_1","AZIDXMX2VZOTZ","either","2","453","","","","","","","0","0","1","","0.372564007","0.6","0.4","0.8","0.2","0.2492821404","0.372564007","0.4597072186","0.1518453759","","","","","","","","","","","","","","74","J","1","","","97","main_expt","",""
"","bandit","180","665615","0.0-139.0-0.0","15958102","wem/bandit_party_1","AZIDXMX2VZOTZ","either","2","286","","","","","","","0","0","1","0.393328365","","0.6","0.4","0.8","0.2","","","","","0.3002958449","0.393328365","0.4705619112","0.2173959583","","","","","","","","","","74","J","1","","","98","main_expt","",""
"","bandit","181","667211","0.0-140.0-0.0","15958102","wem/bandit_party_1","AZIDXMX2VZOTZ","either","2","48","","","","","","","0","0","1","0.4800968761","","0.6","0.4","0.8","0.2","","","","","0.3544832656","0.421239771","0.4800968761","0.2618725657","","","","","","","","","","75","K","2","","","99","main_expt","",""
"","bandit","182","669076","0.0-141.0-0.0","15958102","wem/bandit_party_1","AZIDXMX2VZOTZ","either","2","324","","","","","","","1","0","0","0.4780143146","","0.6","0.4","0.8","0.2","","","","","0.3810954338","0.4130759476","0.4780143146","0.2487788848","","","","","","","","","","75","K","2","","","100","main_expt","",""
"","bandit","183","671030","0.0-142.0-0.0","15958102","wem/bandit_party_1","AZIDXMX2VZOTZ","either","2","395","","","","","","","0","0","1","0.4849002763","","0.6","0.4","0.8","0.2","","","","","0.4042362267","0.4089462913","0.4849002763","0.2890792313","","","","","","","","","","75","K","2","","","101","main_expt","",""
"","bandit","184","672969","0.0-143.0-0.0","15958102","wem/bandit_party_1","AZIDXMX2VZOTZ","either","2","388","","","","","","","1","0","0","0.3136369757","","0.6","0.4","0.8","0.2","","","","","0.4594696392","0.370330464","0.4886078379","0.3136369757","","","","","","","","","","76","L","3","","","102","main_expt","",""
"","bandit","185","674893","0.0-144.0-0.0","15958102","wem/bandit_party_1","AZIDXMX2VZOTZ","either","2","380","","","","","","","0","0","1","0.2364671533","","0.6","0.4","0.8","0.2","","","","","0.4588766667","0.3306315663","0.47121906","0.2364671533","","","","","","","","","","76","L","3","","","103","main_expt","",""
"","bandit","186","676896","0.0-145.0-0.0","15958102","wem/bandit_party_1","AZIDXMX2VZOTZ","either","2","441","","","","","","","0","0","1","","0.2202486688","0.6","0.4","0.8","0.2","0.4372785745","0.354634178","0.4760763377","0.2202486688","","","","","","","","","","","","","","76","L","3","","","104","main_expt","",""
"","bandit","187","678664","0.0-146.0-0.0","15958102","wem/bandit_party_1","AZIDXMX2VZOTZ","either","2","216","","","","","","","0","0","1","0.4701389446","","0.6","0.4","0.8","0.2","","","","","0.4063887309","0.3896605338","0.4701389446","0.1854418088","","","","","","","","","","75","K","2","","","105","main_expt","",""
"","bandit","188","680489","0.0-147.0-0.0","15958102","wem/bandit_party_1","AZIDXMX2VZOTZ","either","2","288","","","","","","","0","0","1","","0.414339711","0.6","0.4","0.8","0.2","0.3778019321","0.414339711","0.471324938","0.1596754559","","","","","","","","","","","","","","74","J","1","","","106","main_expt","",""
"","bandit","189","682351","0.0-148.0-0.0","15958102","wem/bandit_party_1","AZIDXMX2VZOTZ","either","2","312","","","","","","","0","0","1","0.3614143111","","0.6","0.4","0.8","0.2","","","","","0.3614143111","0.4164239898","0.4786694594","0.137099288","","","","","","","","","","72","H","0","img/none_selected.jpg","","107","main_expt","",""
"","bandit","190","684224","0.0-149.0-0.0","15958102","wem/bandit_party_1","AZIDXMX2VZOTZ","either","2","339","","","","","","","0","0","1","","0.3836571442","0.6","0.4","0.8","0.2","0.3681250399","0.3836571442","0.4810065258","0.1443984823","","","","","","","","","","","","","","74","J","1","","","108","main_expt","",""
"","bandit","191","685830","0.0-150.0-0.0","15958102","wem/bandit_party_1","AZIDXMX2VZOTZ","either","2","58","","","","","","","0","1","0","","0.4816764674","0.6","0.4","0.8","0.2","0.3446081275","0.3881214568","0.4816764674","0.1409511773","","","","","","","","","","","","","","75","K","2","","","109","main_expt","",""
"","bandit","192","687705","0.0-151.0-0.0","15958102","wem/bandit_party_1","AZIDXMX2VZOTZ","either","2","304","","","","","","","1","0","0","0.4882082215","","0.6","0.4","0.8","0.2","","","","","0.3681270965","0.4266873791","0.4882082215","0.1787750665","","","","","","","","","","75","K","2","","","110","main_expt","",""
"","bandit","193","689636","0.0-152.0-0.0","15958102","wem/bandit_party_1","AZIDXMX2VZOTZ","either","2","368","","","","","","","0","0","1","0.478642168","","0.6","0.4","0.8","0.2","","","","","0.391379093","0.4475699482","0.478642168","0.1862786225","","","","","","","","","","75","K","2","","","111","main_expt","",""
"","bandit","194","691387","0.0-153.0-0.0","15958102","wem/bandit_party_1","AZIDXMX2VZOTZ","either","2","212","","","","","","","0","0","1","","0.1654620982","0.6","0.4","0.8","0.2","0.4131544452","0.4190314983","0.4841415165","0.1654620982","","","","","","","","","","","","","","76","L","3","","","112","main_expt","",""
"","bandit","195","693393","0.0-154.0-0.0","15958102","wem/bandit_party_1","AZIDXMX2VZOTZ","either","2","454","","","","","","","0","0","1","","0.1582981878","0.6","0.4","0.8","0.2","0.3963985948","0.3666128881","0.4883212127","0.1582981878","","","","","","","","","","","","","","76","L","3","","","113","main_expt","",""
"","bandit","196","694961","0.0-155.0-0.0","15958102","wem/bandit_party_1","AZIDXMX2VZOTZ","either","2","19","","","","","","","0","0","1","","0.4883790739","0.6","0.4","0.8","0.2","0.4117985871","0.3866259854","0.4883790739","0.1922757069","","","","","","","","","","","","","","75","K","2","","","114","main_expt","",""
"","bandit","197","697122","0.0-156.0-0.0","15958102","wem/bandit_party_1","AZIDXMX2VZOTZ","either","2","619","","","","","","","0","0","1","0.394381103","","0.6","0.4","0.8","0.2","","","","","0.394381103","0.354161152","0.4902011966","0.185618385","","","","","","","","","","72","H","0","img/none_selected.jpg","","115","main_expt","",""
"","bandit","198","702760","0.0-157.0-0.0","15958102","wem/bandit_party_1","AZIDXMX2VZOTZ","either","2","4089","","","","","","","1","0","0","0.3762408663","","0.6","0.4","0.8","0.2","","","","","0.3762408663","0.3170745426","0.4844723045","0.2057277395","","","","","","","","","","72","H","0","img/none_selected.jpg","","116","main_expt","",""
"","bandit","199","705795","0.0-158.0-0.0","15958102","wem/bandit_party_1","AZIDXMX2VZOTZ","either","2","1473","","","","","","","0","0","1","0.3823674378","","0.6","0.4","0.8","0.2","","","","","0.3823674378","0.304536318","0.4895589844","0.2288411079","","","","","","","","","","72","H","0","img/none_selected.jpg","","117","main_expt","",""
"","bandit","200","707752","0.0-159.0-0.0","15958102","wem/bandit_party_1","AZIDXMX2VZOTZ","either","2","416","","","","","","","0","0","1","0.4050195855","","0.6","0.4","0.8","0.2","","","","","0.4050195855","0.3411026949","0.4899729034","0.2207517482","","","","","","","","","","72","H","0","img/none_selected.jpg","","118","main_expt","",""
"","bandit","201","709639","0.0-160.0-0.0","15958102","wem/bandit_party_1","AZIDXMX2VZOTZ","either","2","325","","","","","","","0","0","1","0.4947041593","","0.6","0.4","0.8","0.2","","","","","0.4227562767","0.3447942488","0.4947041593","0.1955286499","","","","","","","","","","75","K","2","","","119","main_expt","",""
"","bandit","202","711537","0.0-161.0-0.0","15958102","wem/bandit_party_1","AZIDXMX2VZOTZ","either","2","342","","","","","","","0","0","1","","0.3686185352","0.6","0.4","0.8","0.2","0.4163810796","0.3686185352","0.4916865355","0.2427950695","","","","","","","","","","","","","","74","J","1","","","120","main_expt","",""
"","bandit","203","713337","0.0-162.0-0.0","15958102","wem/bandit_party_1","AZIDXMX2VZOTZ","either","2","235","","","","","","","0","0","1","","0.2479682904","0.6","0.4","0.8","0.2","0.406821829","0.3547669752","0.4860386064","0.2479682904","","","","","","","","","","","","","","76","L","3","","","121","main_expt","",""
"","bandit","204","715275","0.0-163.0-0.0","15958102","wem/bandit_party_1","AZIDXMX2VZOTZ","either","2","392","","","","","","","1","0","0","0.483083859","","0.6","0.4","0.8","0.2","","","","","0.3999449125","0.365994073","0.483083859","0.3081985406","","","","","","","","","","75","K","2","","","122","main_expt","",""
"","bandit","205","717335","0.0-164.0-0.0","15958102","wem/bandit_party_1","AZIDXMX2VZOTZ","either","2","508","","","","","","","0","0","1","0.4791491275","","0.6","0.4","0.8","0.2","","","","","0.366626489","0.3120596142","0.4791491275","0.3089359708","","","","","","","","","","75","K","2","","","123","main_expt","",""
"","bandit","206","719217","0.0-165.0-0.0","15958102","wem/bandit_party_1","AZIDXMX2VZOTZ","either","2","327","","","","","","","0","0","1","","0.4776777384","0.6","0.4","0.8","0.2","0.3706278578","0.302161917","0.4776777384","0.3298338218","","","","","","","","","","","","","","75","K","2","","","124","main_expt","",""
"","bandit","207","721111","0.0-166.0-0.0","15958102","wem/bandit_party_1","AZIDXMX2VZOTZ","either","2","328","","","","","","","0","0","1","","0.2795250441","0.6","0.4","0.8","0.2","0.3545504723","0.2794370347","0.478983255","0.2795250441","","","","","","","","","","","","","","76","L","3","","","125","main_expt","",""
"","bandit","208","723007","0.0-167.0-0.0","15958102","wem/bandit_party_1","AZIDXMX2VZOTZ","either","2","349","","","","","","","0","1","0","","0.3106298006","0.6","0.4","0.8","0.2","0.3106298006","0.2466154908","0.4724726719","0.2184127205","","","","","","","","","","","","","","72","H","0","img/none_selected.jpg","","126","main_expt","",""
"","bandit","209","724954","0.0-168.0-0.0","15958102","wem/bandit_party_1","AZIDXMX2VZOTZ","either","2","378","","","","","","","0","1","0","","0.3351405197","0.6","0.4","0.8","0.2","0.3351405197","0.2712823261","0.4796244369","0.2488858907","","","","","","","","","","","","","","72","H","0","img/none_selected.jpg","","127","main_expt","",""
"","bandit","210","726859","0.0-169.0-0.0","15958102","wem/bandit_party_1","AZIDXMX2VZOTZ","either","2","362","","","","","","","1","0","0","0.2984422464","","0.6","0.4","0.8","0.2","","","","","0.2984422464","0.2095517986","0.4825212971","0.2850827173","","","","","","","","","","72","H","0","img/none_selected.jpg","","128","main_expt","",""
"","bandit","211","729008","0.0-170.0-0.0","15958102","wem/bandit_party_1","AZIDXMX2VZOTZ","either","2","602","","","","","","","0","0","1","","0.2027892291","0.6","0.4","0.8","0.2","0.2027892291","0.1986866195","0.4877535013","0.2867242009","","","","","","","","","","","","","","72","H","0","img/none_selected.jpg","","129","main_expt","",""
"","bandit","212","730892","0.0-171.0-0.0","15958102","wem/bandit_party_1","AZIDXMX2VZOTZ","either","2","315","","","","","","","0","0","1","0.13768179","","0.6","0.4","0.8","0.2","","","","","0.13768179","0.172959111","0.4833646461","0.2509552002","","","","","","","","","","72","H","0","img/none_selected.jpg","","130","main_expt","",""
"","bandit","213","732747","0.0-172.0-0.0","15958102","wem/bandit_party_1","AZIDXMX2VZOTZ","either","2","325","","","","","","","0","0","1","0.1352832961","","0.6","0.4","0.8","0.2","","","","","0.1352832961","0.163172462","0.4790990265","0.2172434631","","","","","","","","","","72","H","0","img/none_selected.jpg","","131","main_expt","",""
"","bandit","214","734626","0.0-173.0-0.0","15958102","wem/bandit_party_1","AZIDXMX2VZOTZ","either","2","332","","","","","","","0","0","1","","0.4882311922","0.6","0.4","0.8","0.2","0.08660982753","0.161148659","0.4882311922","0.158295755","","","","","","","","","","","","","","75","K","2","","","132","main_expt","",""
"","bandit","215","736506","0.0-174.0-0.0","15958102","wem/bandit_party_1","AZIDXMX2VZOTZ","either","2","328","","","","","","","0","0","1","0.1735641072","","0.6","0.4","0.8","0.2","","","","","0.1020907376","0.1735641072","0.4889625365","0.185310911","","","","","","","","","","74","J","1","","","133","main_expt","",""
"","bandit","216","738344","0.0-175.0-0.0","15958102","wem/bandit_party_1","AZIDXMX2VZOTZ","either","2","284","","","","","","","0","1","0","","0.1966535246","0.6","0.4","0.8","0.2","0.1231499397","0.1597390633","0.4916783795","0.1966535246","","","","","","","","","","","","","","76","L","3","","","134","main_expt","",""
"","bandit","217","740300","0.0-176.0-0.0","15958102","wem/bandit_party_1","AZIDXMX2VZOTZ","either","2","406","","","","","","","0","0","1","","0.2290191974","0.6","0.4","0.8","0.2","0.1524236556","0.1460070414","0.4904315354","0.2290191974","","","","","","","","","","","","","","76","L","3","","","135","main_expt","",""
"","bandit","218","742174","0.0-177.0-0.0","15958102","wem/bandit_party_1","AZIDXMX2VZOTZ","either","2","324","","","","","","","0","0","1","","0.2929229053","0.6","0.4","0.8","0.2","0.1954247664","0.105474526","0.491666595","0.2929229053","","","","","","","","","","","","","","76","L","3","","","136","main_expt","",""
"","bandit","219","744010","0.0-178.0-0.0","15958102","wem/bandit_party_1","AZIDXMX2VZOTZ","either","2","286","","","","","","","0","0","1","0.1833989084","","0.6","0.4","0.8","0.2","","","","","0.1833989084","0.08835118593","0.4917142499","0.2780805385","","","","","","","","","","72","H","0","img/none_selected.jpg","","137","main_expt","",""
"","bandit","220","745900","0.0-179.0-0.0","15958102","wem/bandit_party_1","AZIDXMX2VZOTZ","either","2","350","","","","","","","1","0","0","0.4870170403","","0.6","0.4","0.8","0.2","","","","","0.1490533902","0.06418360449","0.4870170403","0.217224157","","","","","","","","","","75","K","2","","","138","main_expt","",""
"","bandit","221","747812","0.0-180.0-0.0","15958102","wem/bandit_party_1","AZIDXMX2VZOTZ","either","2","352","","","","","","","1","0","0","0.4834992155","","0.6","0.4","0.8","0.2","","","","","0.1318817547","0.03554325754","0.4834992155","0.2323391466","","","","","","","","","","75","K","2","","","139","main_expt","",""
"","bandit","222","749698","0.0-181.0-0.0","15958102","wem/bandit_party_1","AZIDXMX2VZOTZ","either","2","330","","","","","","","0","0","1","0.4927392517","","0.6","0.4","0.8","0.2","","","","","0.1877412345","0.04477370895","0.4927392517","0.244475209","","","","","","","","","","75","K","2","","","140","main_expt","",""
"","bandit","223","751560","0.0-182.0-0.0","15958102","wem/bandit_party_1","AZIDXMX2VZOTZ","either","2","309","","","","","","","0","1","0","","0.232604034","0.6","0.4","0.8","0.2","0.2363671377","0.03780119019","0.4872377518","0.232604034","","","","","","","","","","","","","","76","L","3","","","141","main_expt","",""
"","bandit","224","753524","0.0-183.0-0.0","15958102","wem/bandit_party_1","AZIDXMX2VZOTZ","either","2","417","","","","","","","0","0","1","0.2447345556","","0.6","0.4","0.8","0.2","","","","","0.2546402356","0.03149913875","0.4846254936","0.2447345556","","","","","","","","","","76","L","3","","","142","main_expt","",""
"","bandit","225","755595","0.0-184.0-0.0","15958102","wem/bandit_party_1","AZIDXMX2VZOTZ","either","2","512","","","","","","","1","0","0","0.4815328815","","0.6","0.4","0.8","0.2","","","","","0.2825544685","0.04191513266","0.4815328815","0.26413271","","","","","","","","","","75","K","2","","","143","main_expt","",""
"","bandit","226","758060","0.0-185.0-0.0","15958102","wem/bandit_party_1","AZIDXMX2VZOTZ","either","2","912","","","","","","","0","0","1","0.4854048375","","0.6","0.4","0.8","0.2","","","","","0.2731230023","0.05613120157","0.4854048375","0.1988203511","","","","","","","","","","75","K","2","","","144","main_expt","",""
"","bandit","227","759922","0.0-186.0-0.0","15958102","wem/bandit_party_1","AZIDXMX2VZOTZ","either","2","302","","","","","","","1","0","0","0.4813029389","","0.6","0.4","0.8","0.2","","","","","0.2943814715","0.03827589539","0.4813029389","0.217822638","","","","","","","","","","75","K","2","","","145","main_expt","",""
"","bandit","228","761862","0.0-187.0-0.0","15958102","wem/bandit_party_1","AZIDXMX2VZOTZ","either","2","384","","","","","","","0","0","1","0.4884824202","","0.6","0.4","0.8","0.2","","","","","0.328634005","0.02861175853","0.4884824202","0.2009042904","","","","","","","","","","75","K","2","","","146","main_expt","",""
"","bandit","229","763744","0.0-188.0-0.0","15958102","wem/bandit_party_1","AZIDXMX2VZOTZ","either","2","331","","","","","","","1","0","0","0.4835291327","","0.6","0.4","0.8","0.2","","","","","0.3511209141","0.02140640811","0.4835291327","0.2080446297","","","","","","","","","","75","K","2","","","147","main_expt","",""
"","bandit","230","765626","0.0-189.0-0.0","15958102","wem/bandit_party_1","AZIDXMX2VZOTZ","either","2","327","","","","","","","1","0","0","0.4716003481","","0.6","0.4","0.8","0.2","","","","","0.3874996206","0.0202041473","0.4716003481","0.1536700415","","","","","","","","","","75","K","2","","","148","main_expt","",""
"","bandit","231","767524","0.0-190.0-0.0","15958102","wem/bandit_party_1","AZIDXMX2VZOTZ","either","2","365","","","","","","","1","0","0","0.4341886607","","0.6","0.4","0.8","0.2","","","","","0.3476646045","0.01154190459","0.4341886607","0.1593661633","","","","","","","","","","75","K","2","","","149","main_expt","",""
"","bandit","232","769403","0.0-191.0-0.0","15958102","wem/bandit_party_1","AZIDXMX2VZOTZ","either","2","329","","","","","","","0","0","1","0.4014438172","","0.6","0.4","0.8","0.2","","","","","0.3323010919","0.01291237021","0.4014438172","0.144955896","","","","","","","","","","75","K","2","","","150","main_expt","",""
"","bandit","233","771266","0.0-192.0-0.0","15958102","wem/bandit_party_1","AZIDXMX2VZOTZ","either","2","315","","","","","","","1","0","0","0.3954477196","","0.6","0.4","0.8","0.2","","","","","0.3954477196","0.0137789916","0.3980713407","0.2123564028","","","","","","","","","","72","H","0","img/none_selected.jpg","","151","main_expt","",""
"","bandit","234","773217","0.0-193.0-0.0","15958102","wem/bandit_party_1","AZIDXMX2VZOTZ","either","2","402","","","","","","","0","0","1","","0.4186327087","0.6","0.4","0.8","0.2","0.4186327087","0.01985271471","0.4002357887","0.2301890466","","","","","","","","","","","","","","72","H","0","img/none_selected.jpg","","152","main_expt","",""
"","bandit","235","775204","0.0-194.0-0.0","15958102","wem/bandit_party_1","AZIDXMX2VZOTZ","either","2","440","","","","","","","0","0","1","0.388677987","","0.6","0.4","0.8","0.2","","","","","0.4029566754","0.02951100453","0.388677987","0.2295153641","","","","","","","","","","75","K","2","","","153","main_expt","",""
"","bandit","236","776944","0.0-195.0-0.0","15958102","wem/bandit_party_1","AZIDXMX2VZOTZ","either","2","189","","","","","","","0","0","1","0.2163321136","","0.6","0.4","0.8","0.2","","","","","0.4037751878","0.02325572033","0.3817747688","0.2163321136","","","","","","","","","","76","L","3","","","154","main_expt","",""
"","bandit","237","778882","0.0-196.0-0.0","15958102","wem/bandit_party_1","AZIDXMX2VZOTZ","either","2","373","","","","","","","0","0","1","","0.03925092562","0.6","0.4","0.8","0.2","0.4078727314","0.03925092562","0.327727533","0.2257858177","","","","","","","","","","","","","","74","J","1","","","155","main_expt","",""
"","bandit","238","780762","0.0-197.0-0.0","15958102","wem/bandit_party_1","AZIDXMX2VZOTZ","either","2","320","","","","","","","0","0","1","0.3941681487","","0.6","0.4","0.8","0.2","","","","","0.3941681487","0.05532081832","0.2821504166","0.2077891775","","","","","","","","","","72","H","0","img/none_selected.jpg","","156","main_expt","",""
"","bandit","239","782644","0.0-198.0-0.0","15958102","wem/bandit_party_1","AZIDXMX2VZOTZ","either","2","318","","","","","","","0","0","1","","0.05983660039","0.6","0.4","0.8","0.2","0.3417147062","0.05983660039","0.2784527126","0.1742908387","","","","","","","","","","","","","","74","J","1","","","157","main_expt","",""
"","bandit","240","784520","0.0-199.0-0.0","15958102","wem/bandit_party_1","AZIDXMX2VZOTZ","either","2","316","","","","","","","0","0","1","0.2857058734","","0.6","0.4","0.8","0.2","","","","","0.2963220618","0.09347744845","0.2857058734","0.162057643","","","","","","","","","","75","K","2","","","158","main_expt","",""
"","bandit","241","786365","0.0-200.0-0.0","15958102","wem/bandit_party_1","AZIDXMX2VZOTZ","either","2","289","","","","","","","0","0","1","","0.1805514511","0.6","0.4","0.8","0.2","0.2961528309","0.09649648717","0.2349295223","0.1805514511","","","","","","","","","","","","","","76","L","3","","","159","main_expt","",""
"","bandit","242","788467","0.0-201.0-0.0","15958102","wem/bandit_party_1","AZIDXMX2VZOTZ","either","2","540","","","","","","","0","0","1","","0.2842772575","0.6","0.4","0.8","0.2","0.2842772575","0.08382429791","0.2275717407","0.1724629995","","","","","","","","","","","","","","72","H","0","img/none_selected.jpg","","160","main_expt","",""
"","bandit","243","790297","0.0-202.0-0.0","15958102","wem/bandit_party_1","AZIDXMX2VZOTZ","either","2","289","","","","","","","0","0","1","0.1466352983","","0.6","0.4","0.8","0.2","","","","","0.2747674873","0.1466352983","0.2559884592","0.1660992999","","","","","","","","","","74","J","1","","","161","main_expt","",""
"","bandit","244","792209","0.0-203.0-0.0","15958102","wem/bandit_party_1","AZIDXMX2VZOTZ","either","2","365","","","","","","","1","0","0","0.2670526618","","0.6","0.4","0.8","0.2","","","","","0.2993190406","0.1569467617","0.2670526618","0.2281832109","","","","","","","","","","75","K","2","","","162","main_expt","",""
"","bandit","245","794094","0.0-204.0-0.0","15958102","wem/bandit_party_1","AZIDXMX2VZOTZ","either","2","329","","","","","","","0","0","1","0.2618894379","","0.6","0.4","0.8","0.2","","","","","0.3102408377","0.1437935099","0.2618894379","0.2144285545","","","","","","","","","","75","K","2","","","163","main_expt","",""
"","bandit","246","795960","0.0-205.0-0.0","15958102","wem/bandit_party_1","AZIDXMX2VZOTZ","either","2","315","","","","","","","1","0","0","0.2977476978","","0.6","0.4","0.8","0.2","","","","","0.2607878409","0.1503677763","0.2977476978","0.2131293933","","","","","","","","","","75","K","2","","","164","main_expt","",""
"","bandit","247","797800","0.0-206.0-0.0","15958102","wem/bandit_party_1","AZIDXMX2VZOTZ","either","2","291","","","","","","","0","0","1","0.3138636066","","0.6","0.4","0.8","0.2","","","","","0.2470054868","0.1574825995","0.3138636066","0.251698227","","","","","","","","","","75","K","2","","","165","main_expt","",""
"","bandit","248","799640","0.0-207.0-0.0","15958102","wem/bandit_party_1","AZIDXMX2VZOTZ","either","2","277","","","","","","","1","0","0","0.3204338644","","0.6","0.4","0.8","0.2","","","","","0.2629624785","0.1500633275","0.3204338644","0.2831539445","","","","","","","","","","75","K","2","","","166","main_expt","",""
"","bandit","249","801554","0.0-208.0-0.0","15958102","wem/bandit_party_1","AZIDXMX2VZOTZ","either","2","356","","","","","","","0","0","1","","0.3600517585","0.6","0.4","0.8","0.2","0.2745713682","0.1137242654","0.3600517585","0.2496169508","","","","","","","","","","","","","","75","K","2","","","167","main_expt","",""
"","bandit","250","803487","0.0-209.0-0.0","15958102","wem/bandit_party_1","AZIDXMX2VZOTZ","either","2","365","","","","","","","1","0","0","0.3678373827","","0.6","0.4","0.8","0.2","","","","","0.2557249153","0.145192941","0.3678373827","0.2315540067","","","","","","","","","","75","K","2","","","168","main_expt","",""
"","bandit","251","805422","0.0-210.0-0.0","15958102","wem/bandit_party_1","AZIDXMX2VZOTZ","either","2","377","","","","","","","0","0","1","0.3421512568","","0.6","0.4","0.8","0.2","","","","","0.2016321063","0.1863479632","0.3421512568","0.1825517174","","","","","","","","","","75","K","2","","","169","main_expt","",""
"","bandit","252","807240","0.0-211.0-0.0","15958102","wem/bandit_party_1","AZIDXMX2VZOTZ","either","2","271","","","","","","","0","0","1","0.3917895485","","0.6","0.4","0.8","0.2","","","","","0.2210696627","0.142304713","0.3917895485","0.2535959064","","","","","","","","","","75","K","2","","","170","main_expt","",""
"","bandit","253","809111","0.0-212.0-0.0","15958102","wem/bandit_party_1","AZIDXMX2VZOTZ","either","2","323","","","","","","","0","0","1","0.3206692194","","0.6","0.4","0.8","0.2","","","","","0.1627904758","0.1739768979","0.3206692194","0.3004284576","","","","","","","","","","75","K","2","","","171","main_expt","",""
"","bandit","254","811024","0.0-213.0-0.0","15958102","wem/bandit_party_1","AZIDXMX2VZOTZ","either","2","360","","","","","","","0","1","0","","0.2716191145","0.6","0.4","0.8","0.2","0.1421076649","0.2172659048","0.3198600846","0.2716191145","","","","","","","","","","","","","","76","L","3","","","172","main_expt","",""
"","bandit","255","812899","0.0-214.0-0.0","15958102","wem/bandit_party_1","AZIDXMX2VZOTZ","either","2","317","","","","","","","0","0","1","0.3253138029","","0.6","0.4","0.8","0.2","","","","","0.165050165","0.2419731025","0.2641483633","0.3253138029","","","","","","","","","","76","L","3","","","173","main_expt","",""
"","bandit","256","814759","0.0-215.0-0.0","15958102","wem/bandit_party_1","AZIDXMX2VZOTZ","either","2","299","","","","","","","0","0","1","0.1406738207","","0.6","0.4","0.8","0.2","","","","","0.1406738207","0.2239571331","0.2248062597","0.3419591401","","","","","","","","","","72","H","0","img/none_selected.jpg","","174","main_expt","",""
"","bandit","257","816645","0.0-216.0-0.0","15958102","wem/bandit_party_1","AZIDXMX2VZOTZ","either","2","341","","","","","","","1","0","0","0.2311410243","","0.6","0.4","0.8","0.2","","","","","0.138310495","0.2311410243","0.2370379408","0.3442692367","","","","","","","","","","74","J","1","","","175","main_expt","",""
"","bandit","258","818541","0.0-217.0-0.0","15958102","wem/bandit_party_1","AZIDXMX2VZOTZ","either","2","349","","","","","","","0","0","1","","0.2610077479","0.6","0.4","0.8","0.2","0.1675243642","0.2610077479","0.2157433706","0.3397266539","","","","","","","","","","","","","","74","J","1","","","176","main_expt","",""
"","bandit","259","820437","0.0-218.0-0.0","15958102","wem/bandit_party_1","AZIDXMX2VZOTZ","either","2","323","","","","","","","0","0","1","0.2780938204","","0.6","0.4","0.8","0.2","","","","","0.1919885971","0.2780938204","0.2014791824","0.2997078274","","","","","","","","","","74","J","1","","","177","main_expt","",""
"","bandit","260","822380","0.0-219.0-0.0","15958102","wem/bandit_party_1","AZIDXMX2VZOTZ","either","2","389","","","","","","","0","0","1","","0.1913564418","0.6","0.4","0.8","0.2","0.2365392944","0.3151752793","0.1913564418","0.3064007527","","","","","","","","","","","","","","75","K","2","","","178","main_expt","",""
"","bandit","261","824319","0.0-220.0-0.0","15958102","wem/bandit_party_1","AZIDXMX2VZOTZ","either","2","380","","","","","","","0","0","1","","0.3533432679","0.6","0.4","0.8","0.2","0.2509455726","0.2799621139","0.1980728016","0.3533432679","","","","","","","","","","","","","","76","L","3","","","179","main_expt","",""
"","bandit","262","826202","0.0-221.0-0.0","15958102","wem/bandit_party_1","AZIDXMX2VZOTZ","either","2","333","","","","","","","0","0","1","","0.2767223981","0.6","0.4","0.8","0.2","0.2767223981","0.3170936092","0.1833491223","0.3652522579","","","","","","","","","","","","","","72","H","0","img/none_selected.jpg","","180","main_expt","",""
"","bandit","263","828069","0.0-222.0-0.0","15958102","wem/bandit_party_1","AZIDXMX2VZOTZ","either","2","316","","","","","","","0","0","1","","0.28101752","0.6","0.4","0.8","0.2","0.314600373","0.28101752","0.1342686697","0.3383156657","","","","","","","","","","","","","","74","J","1","","","181","main_expt","",""
"","bandit","264","829884","0.0-223.0-0.0","15958102","wem/bandit_party_1","AZIDXMX2VZOTZ","either","2","270","","","","","","","1","0","0","0.1636660304","","0.6","0.4","0.8","0.2","","","","","0.3943610609","0.3043342224","0.1636660304","0.2902116232","","","","","","","","","","75","K","2","","","182","main_expt","",""
"","bandit","265","831755","0.0-224.0-0.0","15958102","wem/bandit_party_1","AZIDXMX2VZOTZ","either","2","297","","","","","","","0","0","1","0.136761637","","0.6","0.4","0.8","0.2","","","","","0.3586422101","0.3192524042","0.136761637","0.3026157476","","","","","","","","","","75","K","2","","","183","main_expt","",""
"","bandit","266","833854","0.0-225.0-0.0","15958102","wem/bandit_party_1","AZIDXMX2VZOTZ","either","2","532","","","","","","","1","0","0","0.1685989701","","0.6","0.4","0.8","0.2","","","","","0.3879999062","0.3332516821","0.1685989701","0.3360229169","","","","","","","","","","75","K","2","","","184","main_expt","",""
"","bandit","267","836391","0.0-226.0-0.0","15958102","wem/bandit_party_1","AZIDXMX2VZOTZ","either","2","979","","","","","","","0","0","1","0.1663529744","","0.6","0.4","0.8","0.2","","","","","0.3831340227","0.3228184693","0.1663529744","0.3336456265","","","","","","","","","","75","K","2","","","185","main_expt","",""
"","bandit","268","838154","0.0-227.0-0.0","15958102","wem/bandit_party_1","AZIDXMX2VZOTZ","either","2","209","","","","","","","0","1","0","","0.3308881938","0.6","0.4","0.8","0.2","0.3999004662","0.3111703144","0.1916836285","0.3308881938","","","","","","","","","","","","","","76","L","3","","","186","main_expt","",""
"","bandit","269","840059","0.0-228.0-0.0","15958102","wem/bandit_party_1","AZIDXMX2VZOTZ","either","2","357","","","","","","","0","0","1","0.325530054","","0.6","0.4","0.8","0.2","","","","","0.3875363153","0.3353611299","0.1686829448","0.325530054","","","","","","","","","","76","L","3","","","187","main_expt","",""
"","bandit","270","842026","0.0-229.0-0.0","15958102","wem/bandit_party_1","AZIDXMX2VZOTZ","either","2","399","","","","","","","0","1","0","","0.3055482451","0.6","0.4","0.8","0.2","0.3875691392","0.3646937268","0.1461675531","0.3055482451","","","","","","","","","","","","","","76","L","3","","","188","main_expt","",""
"","bandit","271","843939","0.0-230.0-0.0","15958102","wem/bandit_party_1","AZIDXMX2VZOTZ","either","2","359","","","","","","","0","0","1","","0.3002345065","0.6","0.4","0.8","0.2","0.4166866882","0.3891323825","0.1382971047","0.3002345065","","","","","","","","","","","","","","76","L","3","","","189","main_expt","",""
"","bandit","272","845842","0.0-231.0-0.0","15958102","wem/bandit_party_1","AZIDXMX2VZOTZ","either","2","339","","","","","","","0","1","0","","0.2693931213","0.6","0.4","0.8","0.2","0.4124474499","0.3860741766","0.1898135375","0.2693931213","","","","","","","","","","","","","","76","L","3","","","190","main_expt","",""
"","bandit","273","847769","0.0-232.0-0.0","15958102","wem/bandit_party_1","AZIDXMX2VZOTZ","either","2","371","","","","","","","0","0","1","","0.3009284261","0.6","0.4","0.8","0.2","0.3638199534","0.3864243721","0.1264917812","0.3009284261","","","","","","","","","","","","","","76","L","3","","","191","main_expt","",""
"","bandit","274","849633","0.0-233.0-0.0","15958102","wem/bandit_party_1","AZIDXMX2VZOTZ","either","2","317","","","","","","","0","0","1","","0.3157917784","0.6","0.4","0.8","0.2","0.3711146034","0.400448014","0.1185409567","0.3157917784","","","","","","","","","","","","","","76","L","3","","","192","main_expt","",""
"","bandit","275","851512","0.0-234.0-0.0","15958102","wem/bandit_party_1","AZIDXMX2VZOTZ","either","2","326","","","","","","","0","0","1","0.3895367297","","0.6","0.4","0.8","0.2","","","","","0.3654165885","0.3895367297","0.09837948322","0.2999212614","","","","","","","","","","74","J","1","","","193","main_expt","",""
"","bandit","276","853130","0.0-235.0-0.0","15958102","wem/bandit_party_1","AZIDXMX2VZOTZ","either","2","55","","","","","","","0","0","1","0.137690802","","0.6","0.4","0.8","0.2","","","","","0.3537818584","0.4032313792","0.137690802","0.3287494418","","","","","","","","","","75","K","2","","","194","main_expt","",""
"","bandit","277","855027","0.0-236.0-0.0","15958102","wem/bandit_party_1","AZIDXMX2VZOTZ","either","2","345","","","","","","","1","0","0","0.3597494918","","0.6","0.4","0.8","0.2","","","","","0.3597494918","0.337234763","0.1683354775","0.3031978913","","","","","","","","","","72","H","0","img/none_selected.jpg","","195","main_expt","",""
"","bandit","278","856883","0.0-237.0-0.0","15958102","wem/bandit_party_1","AZIDXMX2VZOTZ","either","2","288","","","","","","","0","0","1","","0.3479121901","0.6","0.4","0.8","0.2","0.3479121901","0.3950764453","0.1561951964","0.2901303692","","","","","","","","","","","","","","72","H","0","img/none_selected.jpg","","196","main_expt","",""
"","bandit","279","858914","0.0-238.0-0.0","15958102","wem/bandit_party_1","AZIDXMX2VZOTZ","either","2","473","","","","","","","0","1","0","","0.3596292454","0.6","0.4","0.8","0.2","0.3596292454","0.4193743727","0.1329868482","0.2444781728","","","","","","","","","","","","","","72","H","0","img/none_selected.jpg","","197","main_expt","",""
"","bandit","280","861035","0.0-239.0-0.0","15958102","wem/bandit_party_1","AZIDXMX2VZOTZ","either","2","581","","","","","","","1","0","0","0.3555371828","","0.6","0.4","0.8","0.2","","","","","0.3555371828","0.4375347816","0.1730826789","0.2140047665","","","","","","","","","","72","H","0","img/none_selected.jpg","","198","main_expt","",""
"","bandit","281","863112","0.0-240.0-0.0","15958102","wem/bandit_party_1","AZIDXMX2VZOTZ","either","2","527","","","","","","","0","0","1","","0.4016486285","0.6","0.4","0.8","0.2","0.4016486285","0.4315030007","0.1385649096","0.2077842613","","","","","","","","","","","","","","72","H","0","img/none_selected.jpg","","199","main_expt","",""
"","bandit","282","864738","0.0-241.0-0.0","15958102","wem/bandit_party_1","AZIDXMX2VZOTZ","either","2","99","","","","","","","0","0","1","0.1941139053","","0.6","0.4","0.8","0.2","","","","","0.3871107612","0.4340108373","0.1941139053","0.180488049","","","","","","","","","","75","K","2","","","200","main_expt","",""
"","bandit","283","866642","0.0-242.0-0.0","15958102","wem/bandit_party_1","AZIDXMX2VZOTZ","either","2","350","","","","","","","0","0","1","","0.441078118","0.6","0.4","0.8","0.2","0.3856539452","0.441078118","0.1825013029","0.2084987087","","","","","","","","","","","","","","74","J","1","","","201","main_expt","",""
"","bandit","284","868371","0.0-243.0-0.0","15958102","wem/bandit_party_1","AZIDXMX2VZOTZ","either","2","160","","","","","","","0","0","1","","0.1869669721","0.6","0.4","0.8","0.2","0.358588673","0.4143682719","0.162440572","0.1869669721","","","","","","","","","","","","","","76","L","3","","","202","main_expt","",""
"","bandit","285","870200","0.0-244.0-0.0","15958102","wem/bandit_party_1","AZIDXMX2VZOTZ","either","2","289","","","","","","","1","0","0","0.3460881607","","0.6","0.4","0.8","0.2","","","","","0.3460881607","0.4280720422","0.1914238456","0.1383076553","","","","","","","","","","72","H","0","img/none_selected.jpg","","203","main_expt","",""
"","bandit","286","872194","0.0-245.0-0.0","15958102","wem/bandit_party_1","AZIDXMX2VZOTZ","either","2","441","","","","","","","0","0","1","0.3091432968","","0.6","0.4","0.8","0.2","","","","","0.3091432968","0.4113524858","0.1849793247","0.1656187697","","","","","","","","","","72","H","0","img/none_selected.jpg","","204","main_expt","",""
"","bandit","287","874033","0.0-246.0-0.0","15958102","wem/bandit_party_1","AZIDXMX2VZOTZ","either","2","283","","","","","","","0","0","1","0.4151465815","","0.6","0.4","0.8","0.2","","","","","0.3016396897","0.4151465815","0.1722293799","0.1699285253","","","","","","","","","","74","J","1","","","205","main_expt","",""
"","bandit","288","875839","0.0-247.0-0.0","15958102","wem/bandit_party_1","AZIDXMX2VZOTZ","either","2","270","","","","","","","0","0","1","0.1625694713","","0.6","0.4","0.8","0.2","","","","","0.3300702997","0.4002359997","0.1625694713","0.161732949","","","","","","","","","","75","K","2","","","206","main_expt","",""
"","bandit","289","877638","0.0-248.0-0.0","15958102","wem/bandit_party_1","AZIDXMX2VZOTZ","either","2","236","","","","","","","0","0","1","","0.1699017951","0.6","0.4","0.8","0.2","0.2648848683","0.3692387261","0.1079769143","0.1699017951","","","","","","","","","","","","","","76","L","3","","","207","main_expt","",""
"","bandit","290","879513","0.0-249.0-0.0","15958102","wem/bandit_party_1","AZIDXMX2VZOTZ","either","2","314","","","","","","","0","0","1","0.2502792914","","0.6","0.4","0.8","0.2","","","","","0.2502792914","0.3283471685","0.1380178959","0.1592107695","","","","","","","","","","72","H","0","img/none_selected.jpg","","208","main_expt","",""
"","bandit","291","881342","0.0-250.0-0.0","15958102","wem/bandit_party_1","AZIDXMX2VZOTZ","either","2","260","","","","","","","0","0","1","","0.2924758898","0.6","0.4","0.8","0.2","0.2770073026","0.2924758898","0.1538506734","0.1659907122","","","","","","","","","","","","","","74","J","1","","","209","main_expt","",""
"","bandit","292","883250","0.0-251.0-0.0","15958102","wem/bandit_party_1","AZIDXMX2VZOTZ","either","2","348","","","","","","","0","0","1","0.1406222791","","0.6","0.4","0.8","0.2","","","","","0.3451435735","0.2279470939","0.1406222791","0.229525517","","","","","","","","","","75","K","2","","","210","main_expt","",""
"","bandit","293","885210","0.0-252.0-0.0","15958102","wem/bandit_party_1","AZIDXMX2VZOTZ","either","2","398","","","","","","","0","0","1","","0.2434605193","0.6","0.4","0.8","0.2","0.3514478275","0.2131844406","0.08987887408","0.2434605193","","","","","","","","","","","","","","76","L","3","","","211","main_expt","",""
"","bandit","294","887156","0.0-253.0-0.0","15958102","wem/bandit_party_1","AZIDXMX2VZOTZ","either","2","402","","","","","","","0","0","1","0.3579324364","","0.6","0.4","0.8","0.2","","","","","0.3579324364","0.1601793481","0.1277875359","0.1633214123","","","","","","","","","","72","H","0","img/none_selected.jpg","","212","main_expt","",""
"","bandit","295","889051","0.0-254.0-0.0","15958102","wem/bandit_party_1","AZIDXMX2VZOTZ","either","2","353","","","","","","","0","0","1","","0.1354109392","0.6","0.4","0.8","0.2","0.3231243524","0.1354109392","0.134271297","0.1014835246","","","","","","","","","","","","","","74","J","1","","","213","main_expt","",""
"","bandit","296","890871","0.0-255.0-0.0","15958102","wem/bandit_party_1","AZIDXMX2VZOTZ","either","2","269","","","","","","","0","0","1","0.1385204111","","0.6","0.4","0.8","0.2","","","","","0.2798540136","0.1142105534","0.1385204111","0.09587264096","","","","","","","","","","75","K","2","","","214","main_expt","",""
"","bandit","297","892763","0.0-256.0-0.0","15958102","wem/bandit_party_1","AZIDXMX2VZOTZ","either","2","329","","","","","","","0","0","1","","0.08342689115","0.6","0.4","0.8","0.2","0.2469391402","0.1031311673","0.1089132689","0.08342689115","","","","","","","","","","","","","","76","L","3","","","215","main_expt","",""
"","bandit","298","894666","0.0-257.0-0.0","15958102","wem/bandit_party_1","AZIDXMX2VZOTZ","either","2","342","","","","","","","0","0","1","0.3211823944","","0.6","0.4","0.8","0.2","","","","","0.3211823944","0.1031732366","0.1299508563","0.05361264496","","","","","","","","","","72","H","0","img/none_selected.jpg","","216","main_expt","",""
"","bandit","299","896509","0.0-258.0-0.0","15958102","wem/bandit_party_1","AZIDXMX2VZOTZ","either","2","296","","","","","","","0","0","1","0.1188097379","","0.6","0.4","0.8","0.2","","","","","0.3545519007","0.1188097379","0.131109262","0.09912420903","","","","","","","","","","74","J","1","","","217","main_expt","",""
"","bandit","300","898359","0.0-259.0-0.0","15958102","wem/bandit_party_1","AZIDXMX2VZOTZ","either","2","292","","","","","","","0","0","1","0.1039495344","","0.6","0.4","0.8","0.2","","","","","0.3781539282","0.1096623481","0.1039495344","0.1021137889","","","","","","","","","","75","K","2","","","218","main_expt","",""
"","bandit","301","900180","0.0-260.0-0.0","15958102","wem/bandit_party_1","AZIDXMX2VZOTZ","either","2","275","","","","","","","0","0","1","","0.1025207236","0.6","0.4","0.8","0.2","0.3674409598","0.08679630722","0.09488552944","0.1025207236","","","","","","","","","","","","","","76","L","3","","","219","main_expt","",""
"","bandit","302","902095","0.0-261.0-0.0","15958102","wem/bandit_party_1","AZIDXMX2VZOTZ","either","2","344","","","","","","","0","0","1","0.315237632","","0.6","0.4","0.8","0.2","","","","","0.315237632","0.1482089448","0.1311925698","0.1049734862","","","","","","","","","","72","H","0","img/none_selected.jpg","","220","main_expt","",""
"","bandit","303","904492","0.0-262.0-0.0","15958102","wem/bandit_party_1","AZIDXMX2VZOTZ","either","2","832","","","","","","","1","0","0","0.217172314","","0.6","0.4","0.8","0.2","","","","","0.3572442142","0.217172314","0.08224132258","0.08244295151","","","","","","","","","","74","J","1","","","221","main_expt","",""
"","bandit","304","906396","0.0-263.0-0.0","15958102","wem/bandit_party_1","AZIDXMX2VZOTZ","either","2","333","","","","","","","0","0","1","0.2227738938","","0.6","0.4","0.8","0.2","","","","","0.2796125419","0.2227738938","0.06870998364","0.09815111748","","","","","","","","","","74","J","1","","","222","main_expt","",""
"","bandit","305","908251","0.0-264.0-0.0","15958102","wem/bandit_party_1","AZIDXMX2VZOTZ","either","2","275","","","","","","","0","0","1","0.2768694491","","0.6","0.4","0.8","0.2","","","","","0.2265565182","0.2768694491","0.111762886","0.09925351505","","","","","","","","","","74","J","1","","","223","main_expt","",""
"","bandit","306","910120","0.0-265.0-0.0","15958102","wem/bandit_party_1","AZIDXMX2VZOTZ","either","2","310","","","","","","","1","0","0","0.2895694018","","0.6","0.4","0.8","0.2","","","","","0.1727872262","0.2895694018","0.09652303785","0.07842644678","","","","","","","","","","74","J","1","","","224","main_expt","",""
"","bandit","307","912182","0.0-266.0-0.0","15958102","wem/bandit_party_1","AZIDXMX2VZOTZ","either","2","501","","","","","","","1","0","0","0.3515154126","","0.6","0.4","0.8","0.2","","","","","0.1580797834","0.3515154126","0.09424892582","0.05284632075","","","","","","","","","","74","J","1","","","225","main_expt","",""
"","bandit","308","914049","0.0-267.0-0.0","15958102","wem/bandit_party_1","AZIDXMX2VZOTZ","either","2","323","","","","","","","0","0","1","0.3960872924","","0.6","0.4","0.8","0.2","","","","","0.1206031336","0.3960872924","0.1094697254","0.06788221328","","","","","","","","","","74","J","1","","","226","main_expt","",""
"","bandit","309","916000","0.0-268.0-0.0","15958102","wem/bandit_party_1","AZIDXMX2VZOTZ","either","2","382","","","","","","","0","1","0","","0.3301105445","0.6","0.4","0.8","0.2","0.1218099769","0.3301105445","0.1055794081","0.04226868229","","","","","","","","","","","","","","74","J","1","","","227","main_expt","",""
"","bandit","310","917868","0.0-269.0-0.0","15958102","wem/bandit_party_1","AZIDXMX2VZOTZ","either","2","308","","","","","","","0","0","1","","0.3679650562","0.6","0.4","0.8","0.2","0.08458740206","0.3679650562","0.1210232629","0.06174471126","","","","","","","","","","","","","","74","J","1","","","228","main_expt","",""
"","bandit","311","921083","0.0-270.0-0.0","15958102","wem/bandit_party_1","AZIDXMX2VZOTZ","either","2","1657","","","","","","","0","0","1","","0.3413725311","0.6","0.4","0.8","0.2","0.06311990622","0.3413725311","0.1249199002","0.06122033102","","","","","","","","","","","","","","74","J","1","","","229","main_expt","",""
"","bandit","312","924126","0.0-271.0-0.0","15958102","wem/bandit_party_1","AZIDXMX2VZOTZ","either","2","1486","","","","","","","0","0","1","","0.3652503211","0.6","0.4","0.8","0.2","0.04674316758","0.3652503211","0.1423167866","0.09369367087","","","","","","","","","","","","","","74","J","1","","","230","main_expt","",""
"","bandit","313","926124","0.0-272.0-0.0","15958102","wem/bandit_party_1","AZIDXMX2VZOTZ","either","2","426","","","","","","","0","1","0","","0.1441411413","0.6","0.4","0.8","0.2","0.06697327866","0.3774172636","0.1441411413","0.1378364932","","","","","","","","","","","","","","75","K","2","","","231","main_expt","",""
