"consent","trial_type","trial_index","time_elapsed","internal_node_id","subjID","study","MID","cond","drift","rt","responses","button_pressed","key_press","like","value","connected","gems","bombs","no_reward","GemPrChosen","BombPrChosen","GainOverPainPr_0","GainOverPainPr_1","GainOverPainPr_2","GainOverPainPr_3","LosePr_0","LosePr_1","LosePr_2","LosePr_3","WinPr_0","WinPr_1","WinPr_2","WinPr_3","Q0","Q1","Q2","gender","age","ethnicity","label","expt_phase","target","respCharCode","respKey","respChoiceNum","respChoice","practice","trial_counter","trial_label","Q0_index"
"GDM/GDM_behavioral_consent_30min_online.html","consent","0","11649","0.0-0.0","18638393","wem/bandit_party_1","A1X388C6SDCDEY","either","1","","","","","","","","","","","","","","","","","","","","","","","","","","","","","","","","","","","","","","","","",""
"","survey-text","1","23125","0.0-1.0","18638393","wem/bandit_party_1","A1X388C6SDCDEY","either","1","10448","{""Q0"":""A1X388C6SDCDEY""}","","","","","","","","","","","","","","","","","","","","","","","","","","","","","","","","","","","","","","",""
"","button-response","2","26686","0.0-2.0","18638393","wem/bandit_party_1","A1X388C6SDCDEY","either","1","2543","","1","","","","","","","","","","","","","","","","","","","","","","","","","","","","","","","","","","","","","",""
"","text-replacement","3","42731","0.0-3.0","18638393","wem/bandit_party_1","A1X388C6SDCDEY","either","1","15029","","","32","","","","","","","","","","","","","","","","","","","","","","","","","","","","","","","","","","","","",""
"","text-replacement","4","58216","0.0-4.0","18638393","wem/bandit_party_1","A1X388C6SDCDEY","either","1","15480","","","32","","","","","","","","","","","","","","","","","","","","","","","","","","","","","","","","","","","","",""
"","identification","5","67311","0.0-6.0-0.0","18638393","wem/bandit_party_1","A1X388C6SDCDEY","either","1","8992","","","","1","1","0","","","","","","","","","","","","","","","","","","","","","","","","pre","identification_pre","the Democratic Party","","","","","","","",""
"","identification","6","75515","0.0-6.0-1.0","18638393","wem/bandit_party_1","A1X388C6SDCDEY","either","1","7136","","","","3","3","4","","","","","","","","","","","","","","","","","","","","","","","","pre","identification_pre","the Republican party","","","","","","","",""
"","text-replacement","7","84058","0.0-7.0","18638393","wem/bandit_party_1","A1X388C6SDCDEY","either","1","7531","","","32","","","","","","","","","","","","","","","","","","","","","","","","","","","","","","","","","","","","",""
"","text-replacement","8","95187","0.0-8.0","18638393","wem/bandit_party_1","A1X388C6SDCDEY","either","1","11124","","","32","","","","","","","","","","","","","","","","","","","","","","","","","","","","","","","","","","","","",""
"","text-replacement","9","107589","0.0-9.0","18638393","wem/bandit_party_1","A1X388C6SDCDEY","either","1","12397","","","32","","","","","","","","","","","","","","","","","","","","","","","","","","","","","","","","","","","","",""
"","text-replacement","10","114253","0.0-10.0","18638393","wem/bandit_party_1","A1X388C6SDCDEY","either","1","6658","","","32","","","","","","","","","","","","","","","","","","","","","","","","","","","","","","","","","","","","",""
"","text-replacement","11","119786","0.0-11.0","18638393","wem/bandit_party_1","A1X388C6SDCDEY","either","1","5528","","","32","","","","","","","","","","","","","","","","","","","","","","","","","","","","","","","","","","","","",""
"","bandit","12","124274","0.0-12.0-0.0","18638393","wem/bandit_party_1","A1X388C6SDCDEY","either","1","2872","","","","","","","0","0","1","0","0","","","","","0","","","","0","","","","","","","","","","","","","74","J","0","img/none_selected_demo.jpg","true","0","",""
"","bandit","13","128100","0.0-13.0-0.0","18638393","wem/bandit_party_1","A1X388C6SDCDEY","either","1","2285","","","","","","","0","0","1","0","0","","","","","0","","","","0","","","","","","","","","","","","","75","K","0","img/none_selected_demo.jpg","true","0","",""
"","text-replacement","14","135493","0.0-14.0","18638393","wem/bandit_party_1","A1X388C6SDCDEY","either","1","7387","","","32","","","","","","","","","","","","","","","","","","","","","","","","","","","","","","","","","","","","",""
"","text-replacement","15","142588","0.0-15.0","18638393","wem/bandit_party_1","A1X388C6SDCDEY","either","1","7090","","","32","","","","","","","","","","","","","","","","","","","","","","","","","","","","","","","","","","","","",""
"","text-replacement","16","151163","0.0-16.0","18638393","wem/bandit_party_1","A1X388C6SDCDEY","either","1","8571","","","32","","","","","","","","","","","","","","","","","","","","","","","","","","","","","","","","","","","","",""
"","text-replacement","17","158177","0.0-17.0","18638393","wem/bandit_party_1","A1X388C6SDCDEY","either","1","7009","","","32","","","","","","","","","","","","","","","","","","","","","","","","","","","","","","","","","","","","",""
"","bandit","18","161524","0.0-18.0-0.0","18638393","wem/bandit_party_1","A1X388C6SDCDEY","either","1","1816","","","","","","","0","1","0","","0.8","0.5","0.5","","","0.8","0.2","","","","","","","","","","","","","","","","74","J","0","img/none_selected_demo.jpg","true","0","80_20_practice",""
"","bandit","19","164143","0.0-18.0-1.0","18638393","wem/bandit_party_1","A1X388C6SDCDEY","either","1","1090","","","","","","","0","0","1","0.8","","0.5","0.5","","","","","","","0.8","0.2","","","","","","","","","","","","74","J","0","img/none_selected_demo.jpg","true","0","80_20_practice",""
"","bandit","20","166309","0.0-18.0-2.0","18638393","wem/bandit_party_1","A1X388C6SDCDEY","either","1","630","","","","","","","0","1","0","","0.8","0.5","0.5","","","0.8","0.2","","","","","","","","","","","","","","","","74","J","0","img/none_selected_demo.jpg","true","0","80_20_practice",""
"","bandit","21","169359","0.0-18.0-3.0","18638393","wem/bandit_party_1","A1X388C6SDCDEY","either","1","1520","","","","","","","0","0","1","0.2","","0.5","0.5","","","","","","","0.8","0.2","","","","","","","","","","","","75","K","1","","true","0","80_20_practice",""
"","bandit","22","171476","0.0-18.0-4.0","18638393","wem/bandit_party_1","A1X388C6SDCDEY","either","1","582","","","","","","","0","0","1","0.2","","0.5","0.5","","","","","","","0.8","0.2","","","","","","","","","","","","75","K","1","","true","0","80_20_practice",""
"","bandit","23","173660","0.0-18.0-5.0","18638393","wem/bandit_party_1","A1X388C6SDCDEY","either","1","646","","","","","","","0","0","1","0.2","","0.5","0.5","","","","","","","0.8","0.2","","","","","","","","","","","","75","K","1","","true","0","80_20_practice",""
"","bandit","24","177777","0.0-18.0-6.0","18638393","wem/bandit_party_1","A1X388C6SDCDEY","either","1","2586","","","","","","","0","0","1","","0.8","0.5","0.5","","","0.8","0.2","","","","","","","","","","","","","","","","74","J","0","img/none_selected_demo.jpg","true","0","80_20_practice",""
"","bandit","25","179994","0.0-18.0-7.0","18638393","wem/bandit_party_1","A1X388C6SDCDEY","either","1","663","","","","","","","1","0","0","0.8","","0.5","0.5","","","","","","","0.8","0.2","","","","","","","","","","","","74","J","0","img/none_selected_demo.jpg","true","0","80_20_practice",""
"","bandit","26","182362","0.0-18.0-8.0","18638393","wem/bandit_party_1","A1X388C6SDCDEY","either","1","828","","","","","","","1","0","0","0.8","","0.5","0.5","","","","","","","0.8","0.2","","","","","","","","","","","","74","J","0","img/none_selected_demo.jpg","true","0","80_20_practice",""
"","bandit","27","184479","0.0-18.0-9.0","18638393","wem/bandit_party_1","A1X388C6SDCDEY","either","1","581","","","","","","","1","0","0","0.2","","0.5","0.5","","","","","","","0.8","0.2","","","","","","","","","","","","75","K","1","","true","0","80_20_practice",""
"","bandit","28","186662","0.0-18.0-10.0","18638393","wem/bandit_party_1","A1X388C6SDCDEY","either","1","657","","","","","","","0","0","1","","0.2","0.5","0.5","","","0.8","0.2","","","","","","","","","","","","","","","","75","K","1","","true","0","80_20_practice",""
"","bandit","29","191031","0.0-18.0-11.0","18638393","wem/bandit_party_1","A1X388C6SDCDEY","either","1","2844","","","","","","","0","0","1","","0.2","0.5","0.5","","","0.8","0.2","","","","","","","","","","","","","","","","75","K","1","","true","0","80_20_practice",""
"","bandit","30","199014","0.0-18.0-12.0","18638393","wem/bandit_party_1","A1X388C6SDCDEY","either","1","6448","","","","","","","0","0","1","","0.2","0.5","0.5","","","0.8","0.2","","","","","","","","","","","","","","","","75","K","1","","true","0","80_20_practice",""
"","bandit","31","201099","0.0-18.0-13.0","18638393","wem/bandit_party_1","A1X388C6SDCDEY","either","1","547","","","","","","","0","0","1","","0.8","0.5","0.5","","","0.8","0.2","","","","","","","","","","","","","","","","74","J","0","img/none_selected_demo.jpg","true","0","80_20_practice",""
"","bandit","32","204132","0.0-18.0-14.0","18638393","wem/bandit_party_1","A1X388C6SDCDEY","either","1","1507","","","","","","","0","1","0","","0.8","0.5","0.5","","","0.8","0.2","","","","","","","","","","","","","","","","74","J","0","img/none_selected_demo.jpg","true","0","80_20_practice",""
"","bandit","33","206266","0.0-18.0-15.0","18638393","wem/bandit_party_1","A1X388C6SDCDEY","either","1","620","","","","","","","0","0","1","0.2","","0.5","0.5","","","","","","","0.8","0.2","","","","","","","","","","","","75","K","1","","true","0","80_20_practice",""
"","bandit","34","208255","0.0-18.0-16.0","18638393","wem/bandit_party_1","A1X388C6SDCDEY","either","1","458","","","","","","","0","1","0","","0.8","0.5","0.5","","","0.8","0.2","","","","","","","","","","","","","","","","74","J","0","img/none_selected_demo.jpg","true","0","80_20_practice",""
"","bandit","35","210284","0.0-18.0-17.0","18638393","wem/bandit_party_1","A1X388C6SDCDEY","either","1","498","","","","","","","1","0","0","0.8","","0.5","0.5","","","","","","","0.8","0.2","","","","","","","","","","","","74","J","0","img/none_selected_demo.jpg","true","0","80_20_practice",""
"","bandit","36","213668","0.0-18.0-18.0","18638393","wem/bandit_party_1","A1X388C6SDCDEY","either","1","1851","","","","","","","1","0","0","0.8","","0.5","0.5","","","","","","","0.8","0.2","","","","","","","","","","","","74","J","0","img/none_selected_demo.jpg","true","0","80_20_practice",""
"","bandit","37","215867","0.0-18.0-19.0","18638393","wem/bandit_party_1","A1X388C6SDCDEY","either","1","672","","","","","","","0","1","0","","0.8","0.5","0.5","","","0.8","0.2","","","","","","","","","","","","","","","","74","J","0","img/none_selected_demo.jpg","true","0","80_20_practice",""
"","text-replacement","38","220913","0.0-19.0","18638393","wem/bandit_party_1","A1X388C6SDCDEY","either","1","5040","","","32","","","","","","","","","","","","","","","","","","","","","","","","","","","","","","","","","","","","",""
"","bandit","39","223119","0.0-20.0-0.0","18638393","wem/bandit_party_1","A1X388C6SDCDEY","either","1","667","","","","","","","1","0","0","1","0","","","","","0","1","","","1","0","","","","","","","","","","","","74","J","0","img/none_selected_demo.jpg","true","0","",""
"","text-replacement","40","230092","0.0-21.0","18638393","wem/bandit_party_1","A1X388C6SDCDEY","either","1","6967","","","32","","","","","","","","","","","","","","","","","","","","","","","","","","","","","","","","","","","","",""
"","text-replacement","41","235666","0.0-22.0","18638393","wem/bandit_party_1","A1X388C6SDCDEY","either","1","5568","","","32","","","","","","","","","","","","","","","","","","","","","","","","","","","","","","","","","","","","",""
"","text-replacement","42","239625","0.0-23.0","18638393","wem/bandit_party_1","A1X388C6SDCDEY","either","1","3952","","","32","","","","","","","","","","","","","","","","","","","","","","","","","","","","","","","","","","","","",""
"","text-replacement","43","242940","0.0-24.0","18638393","wem/bandit_party_1","A1X388C6SDCDEY","either","1","3309","","","32","","","","","","","","","","","","","","","","","","","","","","","","","","","","","","","","","","","","",""
"","text-replacement","44","250894","0.0-25.0","18638393","wem/bandit_party_1","A1X388C6SDCDEY","either","1","7948","","","32","","","","","","","","","","","","","","","","","","","","","","","","","","","","","","","","","","","","",""
"","text-replacement","45","254235","0.0-26.0","18638393","wem/bandit_party_1","A1X388C6SDCDEY","either","1","3335","","","32","","","","","","","","","","","","","","","","","","","","","","","","","","","","","","","","","","","","",""
"","text-replacement","46","258676","0.0-27.0","18638393","wem/bandit_party_1","A1X388C6SDCDEY","either","1","4435","","","32","","","","","","","","","","","","","","","","","","","","","","","","","","","","","","","","","","","","",""
"","text-replacement","47","263362","0.0-28.0","18638393","wem/bandit_party_1","A1X388C6SDCDEY","either","1","4680","","","32","","","","","","","","","","","","","","","","","","","","","","","","","","","","","","","","","","","","",""
"","text-replacement","48","268428","0.0-29.0","18638393","wem/bandit_party_1","A1X388C6SDCDEY","either","1","5061","","","32","","","","","","","","","","","","","","","","","","","","","","","","","","","","","","","","","","","","",""
"","text-replacement","49","271065","0.0-30.0","18638393","wem/bandit_party_1","A1X388C6SDCDEY","either","1","2631","","","32","","","","","","","","","","","","","","","","","","","","","","","","","","","","","","","","","","","","",""
"","text-replacement","50","276374","0.0-31.0","18638393","wem/bandit_party_1","A1X388C6SDCDEY","either","1","5303","","","32","","","","","","","","","","","","","","","","","","","","","","","","","","","","","","","","","","","","",""
"","bandit","51","278745","0.0-32.0-0.0","18638393","wem/bandit_party_1","A1X388C6SDCDEY","either","1","838","","","","","","","0","1","0","","0.8","0.5","0.5","0.5","0.5","0.8","0.2","0.6","0.2","","","","","","","","","","","","","","72","H","0","img/none_selected.jpg","true","0","full_practice",""
"","bandit","52","281113","0.0-32.0-1.0","18638393","wem/bandit_party_1","A1X388C6SDCDEY","either","1","818","","","","","","","1","0","0","0.8","","0.5","0.5","0.5","0.5","","","","","0.8","0.2","0.6","0.2","","","","","","","","","","72","H","0","img/none_selected.jpg","true","0","full_practice",""
"","bandit","53","283197","0.0-32.0-2.0","18638393","wem/bandit_party_1","A1X388C6SDCDEY","either","1","551","","","","","","","1","0","0","0.8","","0.5","0.5","0.5","0.5","","","","","0.8","0.2","0.6","0.2","","","","","","","","","","72","H","0","img/none_selected.jpg","true","0","full_practice",""
"","bandit","54","285347","0.0-32.0-3.0","18638393","wem/bandit_party_1","A1X388C6SDCDEY","either","1","608","","","","","","","0","1","0","","0.8","0.5","0.5","0.5","0.5","0.8","0.2","0.6","0.2","","","","","","","","","","","","","","72","H","0","img/none_selected.jpg","true","0","full_practice",""
"","bandit","55","287614","0.0-32.0-4.0","18638393","wem/bandit_party_1","A1X388C6SDCDEY","either","1","732","","","","","","","1","0","0","0.8","","0.5","0.5","0.5","0.5","","","","","0.8","0.2","0.6","0.2","","","","","","","","","","72","H","0","img/none_selected.jpg","true","0","full_practice",""
"","bandit","56","289764","0.0-32.0-5.0","18638393","wem/bandit_party_1","A1X388C6SDCDEY","either","1","621","","","","","","","0","0","1","0.8","","0.5","0.5","0.5","0.5","","","","","0.8","0.2","0.6","0.2","","","","","","","","","","72","H","0","img/none_selected.jpg","true","0","full_practice",""
"","bandit","57","292448","0.0-32.0-6.0","18638393","wem/bandit_party_1","A1X388C6SDCDEY","either","1","1157","","","","","","","0","0","1","0.2","","0.5","0.5","0.5","0.5","","","","","0.8","0.2","0.6","0.2","","","","","","","","","","74","J","1","","true","0","full_practice",""
"","bandit","58","294566","0.0-32.0-7.0","18638393","wem/bandit_party_1","A1X388C6SDCDEY","either","1","592","","","","","","","0","0","1","0.2","","0.5","0.5","0.5","0.5","","","","","0.8","0.2","0.6","0.2","","","","","","","","","","74","J","1","","true","0","full_practice",""
"","bandit","59","296549","0.0-32.0-8.0","18638393","wem/bandit_party_1","A1X388C6SDCDEY","either","1","449","","","","","","","0","0","1","0.2","","0.5","0.5","0.5","0.5","","","","","0.8","0.2","0.6","0.2","","","","","","","","","","74","J","1","","true","0","full_practice",""
"","bandit","60","298533","0.0-32.0-9.0","18638393","wem/bandit_party_1","A1X388C6SDCDEY","either","1","444","","","","","","","0","0","1","0.2","","0.5","0.5","0.5","0.5","","","","","0.8","0.2","0.6","0.2","","","","","","","","","","74","J","1","","true","0","full_practice",""
"","bandit","61","300618","0.0-32.0-10.0","18638393","wem/bandit_party_1","A1X388C6SDCDEY","either","1","542","","","","","","","0","0","1","","0.2","0.5","0.5","0.5","0.5","0.8","0.2","0.6","0.2","","","","","","","","","","","","","","74","J","1","","true","0","full_practice",""
"","bandit","62","303449","0.0-32.0-11.0","18638393","wem/bandit_party_1","A1X388C6SDCDEY","either","1","1287","","","","","","","1","0","0","0.6","","0.5","0.5","0.5","0.5","","","","","0.8","0.2","0.6","0.2","","","","","","","","","","75","K","2","","true","0","full_practice",""
"","bandit","63","305836","0.0-32.0-12.0","18638393","wem/bandit_party_1","A1X388C6SDCDEY","either","1","844","","","","","","","0","0","1","0.6","","0.5","0.5","0.5","0.5","","","","","0.8","0.2","0.6","0.2","","","","","","","","","","75","K","2","","true","0","full_practice",""
"","bandit","64","308752","0.0-32.0-13.0","18638393","wem/bandit_party_1","A1X388C6SDCDEY","either","1","1373","","","","","","","1","0","0","0.6","","0.5","0.5","0.5","0.5","","","","","0.8","0.2","0.6","0.2","","","","","","","","","","75","K","2","","true","0","full_practice",""
"","bandit","65","310886","0.0-32.0-14.0","18638393","wem/bandit_party_1","A1X388C6SDCDEY","either","1","598","","","","","","","1","0","0","0.6","","0.5","0.5","0.5","0.5","","","","","0.8","0.2","0.6","0.2","","","","","","","","","","75","K","2","","true","0","full_practice",""
"","bandit","66","313069","0.0-32.0-15.0","18638393","wem/bandit_party_1","A1X388C6SDCDEY","either","1","639","","","","","","","0","1","0","","0.6","0.5","0.5","0.5","0.5","0.8","0.2","0.6","0.2","","","","","","","","","","","","","","75","K","2","","true","0","full_practice",""
"","bandit","67","317186","0.0-32.0-16.0","18638393","wem/bandit_party_1","A1X388C6SDCDEY","either","1","2574","","","","","","","0","0","1","","0.2","0.5","0.5","0.5","0.5","0.8","0.2","0.6","0.2","","","","","","","","","","","","","","76","L","3","","true","0","full_practice",""
"","bandit","68","319404","0.0-32.0-17.0","18638393","wem/bandit_party_1","A1X388C6SDCDEY","either","1","689","","","","","","","0","0","1","0.2","","0.5","0.5","0.5","0.5","","","","","0.8","0.2","0.6","0.2","","","","","","","","","","76","L","3","","true","0","full_practice",""
"","bandit","69","321602","0.0-32.0-18.0","18638393","wem/bandit_party_1","A1X388C6SDCDEY","either","1","638","","","","","","","0","0","1","","0.2","0.5","0.5","0.5","0.5","0.8","0.2","0.6","0.2","","","","","","","","","","","","","","76","L","3","","true","0","full_practice",""
"","bandit","70","323803","0.0-32.0-19.0","18638393","wem/bandit_party_1","A1X388C6SDCDEY","either","1","667","","","","","","","0","0","1","","0.2","0.5","0.5","0.5","0.5","0.8","0.2","0.6","0.2","","","","","","","","","","","","","","76","L","3","","true","0","full_practice",""
"","text","71","328465","0.0-33.0","18638393","wem/bandit_party_1","A1X388C6SDCDEY","either","1","4649","","","32","","","","","","","","","","","","","","","","","","","","","","","","","","","","","","","","","","","","",""
"","text-replacement","72","343645","0.0-34.0","18638393","wem/bandit_party_1","A1X388C6SDCDEY","either","1","14172","","","32","","","","","","","","","","","","","","","","","","","","","","","","","","","","","","","","","","","","",""
"","text-replacement","73","358509","0.0-35.0","18638393","wem/bandit_party_1","A1X388C6SDCDEY","either","1","14857","","","32","","","","","","","","","","","","","","","","","","","","","","","","","","","","","","","","","","","","",""
"","text-replacement","74","363861","0.0-36.0","18638393","wem/bandit_party_1","A1X388C6SDCDEY","either","1","5343","","","32","","","","","","","","","","","","","","","","","","","","","","","","","","","","","","","","","","","","",""
"","text-replacement","75","370990","0.0-37.0","18638393","wem/bandit_party_1","A1X388C6SDCDEY","either","1","7122","","","32","","","","","","","","","","","","","","","","","","","","","","","","","","","","","","","","","","","","",""
"","text-replacement","76","378069","0.0-38.0","18638393","wem/bandit_party_1","A1X388C6SDCDEY","either","1","7072","","","32","","","","","","","","","","","","","","","","","","","","","","","","","","","","","","","","","","","","",""
"","survey-multi-choice-replacement","77","387833","0.0-39.0-0.0","18638393","wem/bandit_party_1","A1X388C6SDCDEY","either","1","9734","","","","","","","","","","","","","","","","","","","","","","","","Money will be added to the pool for <span style='color:blue;'>DEMOCRATS</span>","","","","","","","attn_check","","","","","","","","","0"
"","survey-multi-choice-replacement","78","402805","0.0-40.0-0.0","18638393","wem/bandit_party_1","A1X388C6SDCDEY","either","1","13934","","","","","","","","","","","","","","","","","","","","","","","","Equal amounts of money will be added to the pool for <span style='color:blue;'>DEMOCRATS</span> and subtracted from the pool for <span style='color:red;'>REPUBLICANS</span>","","","","","","","attn_check","","","","","","","","","2"
"","survey-multi-choice-replacement","79","409614","0.0-41.0-0.0","18638393","wem/bandit_party_1","A1X388C6SDCDEY","either","1","5768","","","","","","","","","","","","","","","","","","","","","","","","No money will be added to either pool","","","","","","","attn_check","","","","","","","","","3"
"","bandit","80","416804","0.0-42.0-0.0","18638393","wem/bandit_party_1","A1X388C6SDCDEY","either","1","4635","","","","","","","0","0","1","0.4269289603","","0.8","0.4","0.6","0.2","","","","","0.4269289603","0.3592836462","0.02943109976","0.0798457429","","","","","","","","","","72","H","0","img/none_selected.jpg","","1","main_expt",""
"","bandit","81","419271","0.0-43.0-0.0","18638393","wem/bandit_party_1","A1X388C6SDCDEY","either","1","948","","","","","","","1","0","0","0.3454903542","","0.8","0.4","0.6","0.2","","","","","0.4660243271","0.3454903542","0.06336112212","0.07621336767","","","","","","","","","","74","J","1","","","2","main_expt",""
"","bandit","82","421372","0.0-44.0-0.0","18638393","wem/bandit_party_1","A1X388C6SDCDEY","either","1","572","","","","","","","0","0","1","0.2941512374","","0.8","0.4","0.6","0.2","","","","","0.4738503749","0.2941512374","0.07335687118","0.07476295528","","","","","","","","","","74","J","1","","","3","main_expt",""
"","bandit","83","423372","0.0-45.0-0.0","18638393","wem/bandit_party_1","A1X388C6SDCDEY","either","1","468","","","","","","","0","0","1","0.06156305515","","0.8","0.4","0.6","0.2","","","","","0.4618500418","0.2851241965","0.06156305515","0.06526985361","","","","","","","","","","75","K","2","","","4","main_expt",""
"","bandit","84","425739","0.0-46.0-0.0","18638393","wem/bandit_party_1","A1X388C6SDCDEY","either","1","848","","","","","","","0","0","1","","0.05487735528","0.8","0.4","0.6","0.2","0.4488935273","0.3172925843","0.08141194251","0.05487735528","","","","","","","","","","","","","","76","L","3","","","5","main_expt",""
"","bandit","85","427424","0.0-47.0-0.0","18638393","wem/bandit_party_1","A1X388C6SDCDEY","either","1","131","","","","","","","0","0","1","","0.04340015571","0.8","0.4","0.6","0.2","0.4437832297","0.3319153021","0.1104821702","0.04340015571","","","","","","","","","","","","","","76","L","3","","","6","main_expt",""
"","bandit","86","430507","0.0-48.0-0.0","18638393","wem/bandit_party_1","A1X388C6SDCDEY","either","1","1555","","","","","","","0","0","1","","0.1191408541","0.8","0.4","0.6","0.2","0.4310077805","0.3553039772","0.1191408541","0.04575060371","","","","","","","","","","","","","","75","K","2","","","7","main_expt",""
"","bandit","87","433125","0.0-49.0-0.0","18638393","wem/bandit_party_1","A1X388C6SDCDEY","either","1","1083","","","","","","","0","1","0","","0.3868093767","0.8","0.4","0.6","0.2","0.4480386191","0.3868093767","0.1517570037","0.06112087539","","","","","","","","","","","","","","74","J","1","","","8","main_expt",""
"","bandit","88","435959","0.0-50.0-0.0","18638393","wem/bandit_party_1","A1X388C6SDCDEY","either","1","1304","","","","","","","1","0","0","0.3754406694","","0.8","0.4","0.6","0.2","","","","","0.4460224538","0.3754406694","0.1738087075","0.07854191076","","","","","","","","","","74","J","1","","","9","main_expt",""
"","bandit","89","438409","0.0-51.0-0.0","18638393","wem/bandit_party_1","A1X388C6SDCDEY","either","1","910","","","","","","","1","0","0","0.3537433427","","0.8","0.4","0.6","0.2","","","","","0.3954493452","0.3537433427","0.2033535465","0.06865483858","","","","","","","","","","74","J","1","","","10","main_expt",""
"","bandit","90","440560","0.0-52.0-0.0","18638393","wem/bandit_party_1","A1X388C6SDCDEY","either","1","619","","","","","","","0","0","1","","0.3793358735","0.8","0.4","0.6","0.2","0.4064238371","0.3793358735","0.1751631116","0.05083805298","","","","","","","","","","","","","","74","J","1","","","11","main_expt",""
"","bandit","91","442791","0.0-53.0-0.0","18638393","wem/bandit_party_1","A1X388C6SDCDEY","either","1","674","","","","","","","1","0","0","0.3800839449","","0.8","0.4","0.6","0.2","","","","","0.3800839449","0.3800428212","0.1787487179","0.1038792476","","","","","","","","","","72","H","0","img/none_selected.jpg","","12","main_expt",""
"","bandit","92","444927","0.0-54.0-0.0","18638393","wem/bandit_party_1","A1X388C6SDCDEY","either","1","608","","","","","","","0","1","0","","0.3866628193","0.8","0.4","0.6","0.2","0.3866628193","0.3647981021","0.1794712961","0.1197284353","","","","","","","","","","","","","","72","H","0","img/none_selected.jpg","","13","main_expt",""
"","bandit","93","447127","0.0-55.0-0.0","18638393","wem/bandit_party_1","A1X388C6SDCDEY","either","1","658","","","","","","","0","0","1","0.326509825","","0.8","0.4","0.6","0.2","","","","","0.326509825","0.3646471907","0.2482140722","0.135681701","","","","","","","","","","72","H","0","img/none_selected.jpg","","14","main_expt",""
"","bandit","94","449294","0.0-56.0-0.0","18638393","wem/bandit_party_1","A1X388C6SDCDEY","either","1","634","","","","","","","0","0","1","0.3549291363","","0.8","0.4","0.6","0.2","","","","","0.2428529647","0.3549291363","0.2859415589","0.125153919","","","","","","","","","","74","J","1","","","15","main_expt",""
"","bandit","95","451545","0.0-57.0-0.0","18638393","wem/bandit_party_1","A1X388C6SDCDEY","either","1","719","","","","","","","0","0","1","0.26587149","","0.8","0.4","0.6","0.2","","","","","0.2332962783","0.3727350689","0.26587149","0.1096891688","","","","","","","","","","75","K","2","","","16","main_expt",""
"","bandit","96","453945","0.0-58.0-0.0","18638393","wem/bandit_party_1","A1X388C6SDCDEY","either","1","866","","","","","","","0","0","1","","0.1051581447","0.8","0.4","0.6","0.2","0.2271032234","0.3112083829","0.2776265896","0.1051581447","","","","","","","","","","","","","","76","L","3","","","17","main_expt",""
"","bandit","97","456729","0.0-59.0-0.0","18638393","wem/bandit_party_1","A1X388C6SDCDEY","either","1","1244","","","","","","","0","1","0","","0.2403081055","0.8","0.4","0.6","0.2","0.1701710303","0.2403081055","0.3223387563","0.1437943492","","","","","","","","","","","","","","74","J","1","","","18","main_expt",""
"","bandit","98","458944","0.0-60.0-0.0","18638393","wem/bandit_party_1","A1X388C6SDCDEY","either","1","669","","","","","","","0","0","1","","0.2377482675","0.8","0.4","0.6","0.2","0.2070198111","0.2377482675","0.3192918255","0.1405615485","","","","","","","","","","","","","","74","J","1","","","19","main_expt",""
"","bandit","99","461380","0.0-61.0-0.0","18638393","wem/bandit_party_1","A1X388C6SDCDEY","either","1","898","","","","","","","0","0","1","0.2412547966","","0.8","0.4","0.6","0.2","","","","","0.2412547966","0.2607530295","0.2739159796","0.1063334751","","","","","","","","","","72","H","0","img/none_selected.jpg","","20","main_expt",""
"","bandit","100","463479","0.0-62.0-0.0","18638393","wem/bandit_party_1","A1X388C6SDCDEY","either","1","565","","","","","","","1","0","0","0.2919400674","","0.8","0.4","0.6","0.2","","","","","0.2184758186","0.2919400674","0.2454385858","0.07848250716","","","","","","","","","","74","J","1","","","21","main_expt",""
"","bandit","101","465800","0.0-63.0-0.0","18638393","wem/bandit_party_1","A1X388C6SDCDEY","either","1","783","","","","","","","0","0","1","","0.2995681058","0.8","0.4","0.6","0.2","0.1849325376","0.2995681058","0.2340842041","0.1005082742","","","","","","","","","","","","","","74","J","1","","","22","main_expt",""
"","bandit","102","468631","0.0-64.0-0.0","18638393","wem/bandit_party_1","A1X388C6SDCDEY","either","1","1293","","","","","","","0","1","0","","0.292554742","0.8","0.4","0.6","0.2","0.1521197653","0.292554742","0.1840173947","0.0792694407","","","","","","","","","","","","","","74","J","1","","","23","main_expt",""
"","bandit","103","471451","0.0-65.0-0.0","18638393","wem/bandit_party_1","A1X388C6SDCDEY","either","1","1285","","","","","","","0","0","1","","0.3616894364","0.8","0.4","0.6","0.2","0.1759403195","0.3616894364","0.1745529383","0.07358699385","","","","","","","","","","","","","","74","J","1","","","24","main_expt",""
"","bandit","104","473733","0.0-66.0-0.0","18638393","wem/bandit_party_1","A1X388C6SDCDEY","either","1","740","","","","","","","0","0","1","","0.3575757263","0.8","0.4","0.6","0.2","0.09479311865","0.3575757263","0.1756582033","0.142208116","","","","","","","","","","","","","","74","J","1","","","25","main_expt",""
"","bandit","105","475849","0.0-67.0-0.0","18638393","wem/bandit_party_1","A1X388C6SDCDEY","either","1","587","","","","","","","0","0","1","0.08156123497","","0.8","0.4","0.6","0.2","","","","","0.08156123497","0.3635346368","0.2086365416","0.1245113583","","","","","","","","","","72","H","0","img/none_selected.jpg","","26","main_expt",""
"","bandit","106","477900","0.0-68.0-0.0","18638393","wem/bandit_party_1","A1X388C6SDCDEY","either","1","517","","","","","","","1","0","0","0.1102307873","","0.8","0.4","0.6","0.2","","","","","0.1102307873","0.4109801844","0.2139763749","0.118364605","","","","","","","","","","72","H","0","img/none_selected.jpg","","27","main_expt",""
"","bandit","107","480017","0.0-69.0-0.0","18638393","wem/bandit_party_1","A1X388C6SDCDEY","either","1","573","","","","","","","0","0","1","0.08274430796","","0.8","0.4","0.6","0.2","","","","","0.08274430796","0.3772962545","0.1613483267","0.1105930361","","","","","","","","","","72","H","0","img/none_selected.jpg","","28","main_expt",""
"","bandit","108","482018","0.0-70.0-0.0","18638393","wem/bandit_party_1","A1X388C6SDCDEY","either","1","469","","","","","","","0","0","1","","0.1086911099","0.8","0.4","0.6","0.2","0.1086911099","0.3875745016","0.1712488152","0.1118713044","","","","","","","","","","","","","","72","H","0","img/none_selected.jpg","","29","main_expt",""
"","bandit","109","484017","0.0-71.0-0.0","18638393","wem/bandit_party_1","A1X388C6SDCDEY","either","1","465","","","","","","","0","0","1","0.3780019893","","0.8","0.4","0.6","0.2","","","","","0.1116575632","0.3780019893","0.1675524316","0.1914750456","","","","","","","","","","74","J","1","","","30","main_expt",""
"","bandit","110","486084","0.0-72.0-0.0","18638393","wem/bandit_party_1","A1X388C6SDCDEY","either","1","529","","","","","","","0","1","0","","0.416860241","0.8","0.4","0.6","0.2","0.07828091442","0.416860241","0.140325158","0.2367730164","","","","","","","","","","","","","","74","J","1","","","31","main_expt",""
"","bandit","111","488168","0.0-73.0-0.0","18638393","wem/bandit_party_1","A1X388C6SDCDEY","either","1","538","","","","","","","0","0","1","0.4242573056","","0.8","0.4","0.6","0.2","","","","","0.07550395781","0.4242573056","0.1553940025","0.2109574779","","","","","","","","","","74","J","1","","","32","main_expt",""
"","bandit","112","490202","0.0-74.0-0.0","18638393","wem/bandit_party_1","A1X388C6SDCDEY","either","1","507","","","","","","","0","0","1","0.1925614924","","0.8","0.4","0.6","0.2","","","","","0.1445529326","0.4185546122","0.1925614924","0.2005542758","","","","","","","","","","75","K","2","","","33","main_expt",""
"","bandit","113","492185","0.0-75.0-0.0","18638393","wem/bandit_party_1","A1X388C6SDCDEY","either","1","448","","","","","","","0","0","1","0.2150530123","","0.8","0.4","0.6","0.2","","","","","0.1091775744","0.4268308419","0.2150530123","0.180377021","","","","","","","","","","75","K","2","","","34","main_expt",""
"","bandit","114","494253","0.0-76.0-0.0","18638393","wem/bandit_party_1","A1X388C6SDCDEY","either","1","535","","","","","","","0","0","1","","0.2111187229","0.8","0.4","0.6","0.2","0.1297995116","0.4265642185","0.2688968874","0.2111187229","","","","","","","","","","","","","","76","L","3","","","35","main_expt",""
"","bandit","115","496335","0.0-77.0-0.0","18638393","wem/bandit_party_1","A1X388C6SDCDEY","either","1","548","","","","","","","0","0","1","","0.2119332756","0.8","0.4","0.6","0.2","0.09468550628","0.4066287969","0.2977459964","0.2119332756","","","","","","","","","","","","","","76","L","3","","","36","main_expt",""
"","bandit","116","498520","0.0-78.0-0.0","18638393","wem/bandit_party_1","A1X388C6SDCDEY","either","1","650","","","","","","","0","1","0","","0.4611471687","0.8","0.4","0.6","0.2","0.09396978408","0.4611471687","0.2684429955","0.2256131965","","","","","","","","","","","","","","74","J","1","","","37","main_expt",""
"","bandit","117","500605","0.0-79.0-0.0","18638393","wem/bandit_party_1","A1X388C6SDCDEY","either","1","546","","","","","","","0","1","0","","0.4482708269","0.8","0.4","0.6","0.2","0.1062257399","0.4482708269","0.2490186117","0.1975147253","","","","","","","","","","","","","","74","J","1","","","38","main_expt",""
"","bandit","118","502638","0.0-80.0-0.0","18638393","wem/bandit_party_1","A1X388C6SDCDEY","either","1","488","","","","","","","0","0","1","","0.4402774387","0.8","0.4","0.6","0.2","0.09676453159","0.4402774387","0.2548033483","0.1595648847","","","","","","","","","","","","","","74","J","1","","","39","main_expt",""
"","bandit","119","504707","0.0-81.0-0.0","18638393","wem/bandit_party_1","A1X388C6SDCDEY","either","1","536","","","","","","","0","0","1","0.4385128538","","0.8","0.4","0.6","0.2","","","","","0.08197179495","0.4385128538","0.2688720753","0.1626610004","","","","","","","","","","74","J","1","","","40","main_expt",""
"","bandit","120","506838","0.0-82.0-0.0","18638393","wem/bandit_party_1","A1X388C6SDCDEY","either","1","585","","","","","","","1","0","0","0.14416382","","0.8","0.4","0.6","0.2","","","","","0.14416382","0.4380640779","0.297778532","0.1982402655","","","","","","","","","","72","H","0","img/none_selected.jpg","","41","main_expt",""
"","bandit","121","509005","0.0-83.0-0.0","18638393","wem/bandit_party_1","A1X388C6SDCDEY","either","1","619","","","","","","","0","0","1","","0.1070927036","0.8","0.4","0.6","0.2","0.1070927036","0.4265224768","0.2449207522","0.1863610343","","","","","","","","","","","","","","72","H","0","img/none_selected.jpg","","42","main_expt",""
"","bandit","122","511022","0.0-84.0-0.0","18638393","wem/bandit_party_1","A1X388C6SDCDEY","either","1","484","","","","","","","0","0","1","","0.1214526226","0.8","0.4","0.6","0.2","0.1214526226","0.435880106","0.2457567503","0.2418389683","","","","","","","","","","","","","","72","H","0","img/none_selected.jpg","","43","main_expt",""
"","bandit","123","513038","0.0-85.0-0.0","18638393","wem/bandit_party_1","A1X388C6SDCDEY","either","1","483","","","","","","","0","0","1","0.4450576882","","0.8","0.4","0.6","0.2","","","","","0.1450738833","0.4450576882","0.2432732657","0.1943491227","","","","","","","","","","74","J","1","","","44","main_expt",""
"","bandit","124","515025","0.0-86.0-0.0","18638393","wem/bandit_party_1","A1X388C6SDCDEY","either","1","442","","","","","","","0","0","1","","0.4382030275","0.8","0.4","0.6","0.2","0.09632230927","0.4382030275","0.2656772236","0.1543250971","","","","","","","","","","","","","","74","J","1","","","45","main_expt",""
"","bandit","125","517157","0.0-87.0-0.0","18638393","wem/bandit_party_1","A1X388C6SDCDEY","either","1","591","","","","","","","0","0","1","0.2432112423","","0.8","0.4","0.6","0.2","","","","","0.103211431","0.4412369426","0.2432112423","0.09719433791","","","","","","","","","","75","K","2","","","46","main_expt",""
"","bandit","126","519106","0.0-88.0-0.0","18638393","wem/bandit_party_1","A1X388C6SDCDEY","either","1","416","","","","","","","0","0","1","0.2992745976","","0.8","0.4","0.6","0.2","","","","","0.09916324924","0.4588863431","0.2992745976","0.1228880329","","","","","","","","","","75","K","2","","","47","main_expt",""
"","bandit","127","521090","0.0-89.0-0.0","18638393","wem/bandit_party_1","A1X388C6SDCDEY","either","1","451","","","","","","","0","1","0","","0.1068532567","0.8","0.4","0.6","0.2","0.1090242341","0.4408788818","0.2594611615","0.1068532567","","","","","","","","","","","","","","76","L","3","","","48","main_expt",""
"","bandit","128","523424","0.0-90.0-0.0","18638393","wem/bandit_party_1","A1X388C6SDCDEY","either","1","798","","","","","","","0","0","1","","0.1044048509","0.8","0.4","0.6","0.2","0.1265186769","0.4232064109","0.2767916858","0.1044048509","","","","","","","","","","","","","","76","L","3","","","49","main_expt",""
"","bandit","129","525625","0.0-91.0-0.0","18638393","wem/bandit_party_1","A1X388C6SDCDEY","either","1","662","","","","","","","0","0","1","","0.1072026782","0.8","0.4","0.6","0.2","0.1397440907","0.4210883962","0.2762534014","0.1072026782","","","","","","","","","","","","","","76","L","3","","","50","main_expt",""
"","bandit","130","527659","0.0-92.0-0.0","18638393","wem/bandit_party_1","A1X388C6SDCDEY","either","1","489","","","","","","","0","1","0","","0.3379376541","0.8","0.4","0.6","0.2","0.153600331","0.4225635581","0.3379376541","0.1287882573","","","","","","","","","","","","","","75","K","2","","","51","main_expt",""
"","bandit","131","529809","0.0-93.0-0.0","18638393","wem/bandit_party_1","A1X388C6SDCDEY","either","1","617","","","","","","","1","0","0","0.3395267946","","0.8","0.4","0.6","0.2","","","","","0.1718407591","0.4146237098","0.3395267946","0.1298059469","","","","","","","","","","75","K","2","","","52","main_expt",""
"","bandit","132","531910","0.0-94.0-0.0","18638393","wem/bandit_party_1","A1X388C6SDCDEY","either","1","555","","","","","","","0","0","1","0.29674647","","0.8","0.4","0.6","0.2","","","","","0.1945727614","0.3763623321","0.29674647","0.07423060895","","","","","","","","","","75","K","2","","","53","main_expt",""
"","bandit","133","533993","0.0-95.0-0.0","18638393","wem/bandit_party_1","A1X388C6SDCDEY","either","1","541","","","","","","","1","0","0","0.3372955831","","0.8","0.4","0.6","0.2","","","","","0.2450542523","0.3289081181","0.3372955831","0.08562383645","","","","","","","","","","75","K","2","","","54","main_expt",""
"","bandit","134","536026","0.0-96.0-0.0","18638393","wem/bandit_party_1","A1X388C6SDCDEY","either","1","493","","","","","","","1","0","0","0.3506099842","","0.8","0.4","0.6","0.2","","","","","0.2547241938","0.3025984711","0.3506099842","0.0757818623","","","","","","","","","","75","K","2","","","55","main_expt",""
"","bandit","135","538127","0.0-97.0-0.0","18638393","wem/bandit_party_1","A1X388C6SDCDEY","either","1","568","","","","","","","0","0","1","0.3418029788","","0.8","0.4","0.6","0.2","","","","","0.2595112895","0.2921333137","0.3418029788","0.09897923035","","","","","","","","","","75","K","2","","","56","main_expt",""
"","bandit","136","540195","0.0-98.0-0.0","18638393","wem/bandit_party_1","A1X388C6SDCDEY","either","1","532","","","","","","","0","0","1","","0.3162475816","0.8","0.4","0.6","0.2","0.2610276213","0.3317177772","0.3162475816","0.1160875525","","","","","","","","","","","","","","75","K","2","","","57","main_expt",""
"","bandit","137","542179","0.0-99.0-0.0","18638393","wem/bandit_party_1","A1X388C6SDCDEY","either","1","441","","","","","","","1","0","0","0.3240244649","","0.8","0.4","0.6","0.2","","","","","0.2354201416","0.3240244649","0.3269881105","0.1134641846","","","","","","","","","","74","J","1","","","58","main_expt",""
"","bandit","138","544194","0.0-100.0-0.0","18638393","wem/bandit_party_1","A1X388C6SDCDEY","either","1","481","","","","","","","0","0","1","","0.2988076671","0.8","0.4","0.6","0.2","0.2346370837","0.2988076671","0.2901324944","0.1177083384","","","","","","","","","","","","","","74","J","1","","","59","main_expt",""
"","bandit","139","546212","0.0-101.0-0.0","18638393","wem/bandit_party_1","A1X388C6SDCDEY","either","1","472","","","","","","","0","1","0","","0.3096792726","0.8","0.4","0.6","0.2","0.2315637733","0.3096792726","0.289588464","0.1125723432","","","","","","","","","","","","","","74","J","1","","","60","main_expt",""
"","bandit","140","548363","0.0-102.0-0.0","18638393","wem/bandit_party_1","A1X388C6SDCDEY","either","1","611","","","","","","","0","1","0","","0.2821336973","0.8","0.4","0.6","0.2","0.2599537756","0.2821336973","0.2782845563","0.09911093426","","","","","","","","","","","","","","74","J","1","","","61","main_expt",""
"","bandit","141","550797","0.0-103.0-0.0","18638393","wem/bandit_party_1","A1X388C6SDCDEY","either","1","899","","","","","","","1","0","0","0.2414244345","","0.8","0.4","0.6","0.2","","","","","0.2594941563","0.2414244345","0.3165490401","0.09440438105","","","","","","","","","","74","J","1","","","62","main_expt",""
"","bandit","142","553113","0.0-104.0-0.0","18638393","wem/bandit_party_1","A1X388C6SDCDEY","either","1","772","","","","","","","0","0","1","","0.213639373","0.8","0.4","0.6","0.2","0.2660839385","0.213639373","0.3034564924","0.1015409351","","","","","","","","","","","","","","74","J","1","","","63","main_expt",""
"","bandit","143","555347","0.0-105.0-0.0","18638393","wem/bandit_party_1","A1X388C6SDCDEY","either","1","690","","","","","","","0","0","1","0.1876308072","","0.8","0.4","0.6","0.2","","","","","0.2426585031","0.1876308072","0.2506654962","0.07049798599","","","","","","","","","","74","J","1","","","64","main_expt",""
"","bandit","144","557430","0.0-106.0-0.0","18638393","wem/bandit_party_1","A1X388C6SDCDEY","either","1","541","","","","","","","0","0","1","0.2581047566","","0.8","0.4","0.6","0.2","","","","","0.2581047566","0.1841803182","0.253414466","0.05735603507","","","","","","","","","","72","H","0","img/none_selected.jpg","","65","main_expt",""
"","bandit","145","559548","0.0-107.0-0.0","18638393","wem/bandit_party_1","A1X388C6SDCDEY","either","1","578","","","","","","","0","0","1","0.2872127433","","0.8","0.4","0.6","0.2","","","","","0.2872127433","0.187417598","0.2836500186","0.0621258055","","","","","","","","","","72","H","0","img/none_selected.jpg","","66","main_expt",""
"","bandit","146","561582","0.0-108.0-0.0","18638393","wem/bandit_party_1","A1X388C6SDCDEY","either","1","497","","","","","","","0","0","1","","0.1395950637","0.8","0.4","0.6","0.2","0.3232337643","0.1395950637","0.3217852231","0.06966106928","","","","","","","","","","","","","","74","J","1","","","67","main_expt",""
"","bandit","147","563599","0.0-109.0-0.0","18638393","wem/bandit_party_1","A1X388C6SDCDEY","either","1","472","","","","","","","0","0","1","","0.1363519197","0.8","0.4","0.6","0.2","0.3376006622","0.1363519197","0.3574581916","0.09965709916","","","","","","","","","","","","","","74","J","1","","","68","main_expt",""
"","bandit","148","565948","0.0-110.0-0.0","18638393","wem/bandit_party_1","A1X388C6SDCDEY","either","1","796","","","","","","","1","0","0","0.3884563005","","0.8","0.4","0.6","0.2","","","","","0.2917609244","0.1117144852","0.3884563005","0.1428217854","","","","","","","","","","75","K","2","","","69","main_expt",""
"","bandit","149","568050","0.0-111.0-0.0","18638393","wem/bandit_party_1","A1X388C6SDCDEY","either","1","559","","","","","","","0","0","1","0.3920047773","","0.8","0.4","0.6","0.2","","","","","0.2218665627","0.09667493602","0.3920047773","0.1866845388","","","","","","","","","","75","K","2","","","70","main_expt",""
"","bandit","150","570133","0.0-112.0-0.0","18638393","wem/bandit_party_1","A1X388C6SDCDEY","either","1","546","","","","","","","1","0","0","0.4066376731","","0.8","0.4","0.6","0.2","","","","","0.2409383839","0.09186933139","0.4066376731","0.1702545286","","","","","","","","","","75","K","2","","","71","main_expt",""
"","bandit","151","572167","0.0-113.0-0.0","18638393","wem/bandit_party_1","A1X388C6SDCDEY","either","1","492","","","","","","","0","0","1","0.3443789926","","0.8","0.4","0.6","0.2","","","","","0.1920783453","0.09472009463","0.3443789926","0.1836279043","","","","","","","","","","75","K","2","","","72","main_expt",""
"","bandit","152","574250","0.0-114.0-0.0","18638393","wem/bandit_party_1","A1X388C6SDCDEY","either","1","553","","","","","","","0","1","0","","0.3227553012","0.8","0.4","0.6","0.2","0.1905254877","0.1167805336","0.3227553012","0.1644348242","","","","","","","","","","","","","","75","K","2","","","73","main_expt",""
"","bandit","153","576418","0.0-115.0-0.0","18638393","wem/bandit_party_1","A1X388C6SDCDEY","either","1","634","","","","","","","0","0","1","0.3336652139","","0.8","0.4","0.6","0.2","","","","","0.184198213","0.1465151254","0.3336652139","0.1833421201","","","","","","","","","","75","K","2","","","74","main_expt",""
"","bandit","154","578433","0.0-116.0-0.0","18638393","wem/bandit_party_1","A1X388C6SDCDEY","either","1","453","","","","","","","0","0","1","0.2890150868","","0.8","0.4","0.6","0.2","","","","","0.1881920243","0.123285719","0.2890150868","0.1519653276","","","","","","","","","","75","K","2","","","75","main_expt",""
"","bandit","155","580584","0.0-117.0-0.0","18638393","wem/bandit_party_1","A1X388C6SDCDEY","either","1","617","","","","","","","0","0","1","","0.1506622639","0.8","0.4","0.6","0.2","0.1988930589","0.1392606081","0.2673490463","0.1506622639","","","","","","","","","","","","","","76","L","3","","","76","main_expt",""
"","bandit","156","584635","0.0-118.0-0.0","18638393","wem/bandit_party_1","A1X388C6SDCDEY","either","1","2507","","","","","","","0","0","1","0.1860897766","","0.8","0.4","0.6","0.2","","","","","0.2255968657","0.099337717","0.2858541315","0.1860897766","","","","","","","","","","76","L","3","","","77","main_expt",""
"","bandit","157","587037","0.0-119.0-0.0","18638393","wem/bandit_party_1","A1X388C6SDCDEY","either","1","864","","","","","","","0","0","1","0.2639968829","","0.8","0.4","0.6","0.2","","","","","0.1917014014","0.09666605973","0.2639968829","0.1618556875","","","","","","","","","","75","K","2","","","78","main_expt",""
"","bandit","158","589020","0.0-120.0-0.0","18638393","wem/bandit_party_1","A1X388C6SDCDEY","either","1","452","","","","","","","0","0","1","","0.2304888896","0.8","0.4","0.6","0.2","0.2092129429","0.09639353985","0.2304888896","0.1976853889","","","","","","","","","","","","","","75","K","2","","","79","main_expt",""
"","bandit","159","591004","0.0-121.0-0.0","18638393","wem/bandit_party_1","A1X388C6SDCDEY","either","1","446","","","","","","","0","0","1","","0.09566996791","0.8","0.4","0.6","0.2","0.1974306726","0.09566996791","0.1991809665","0.2198838985","","","","","","","","","","","","","","74","J","1","","","80","main_expt",""
"","bandit","160","593154","0.0-122.0-0.0","18638393","wem/bandit_party_1","A1X388C6SDCDEY","either","1","609","","","","","","","0","0","1","","0.07958501382","0.8","0.4","0.6","0.2","0.1414754506","0.07958501382","0.1627434897","0.2167005254","","","","","","","","","","","","","","74","J","1","","","81","main_expt",""
"","bandit","161","595286","0.0-123.0-0.0","18638393","wem/bandit_party_1","A1X388C6SDCDEY","either","1","568","","","","","","","0","0","1","","0.1422587364","0.8","0.4","0.6","0.2","0.1422587364","0.08833774835","0.1624637972","0.2527486409","","","","","","","","","","","","","","72","H","0","img/none_selected.jpg","","82","main_expt",""
"","bandit","162","597321","0.0-124.0-0.0","18638393","wem/bandit_party_1","A1X388C6SDCDEY","either","1","492","","","","","","","0","0","1","0.1079415531","","0.8","0.4","0.6","0.2","","","","","0.1079415531","0.09109006352","0.1900332","0.2569721607","","","","","","","","","","72","H","0","img/none_selected.jpg","","83","main_expt",""
"","bandit","163","599321","0.0-125.0-0.0","18638393","wem/bandit_party_1","A1X388C6SDCDEY","either","1","469","","","","","","","0","0","1","0.07696487024","","0.8","0.4","0.6","0.2","","","","","0.07696487024","0.05321730921","0.1705646391","0.2535394321","","","","","","","","","","72","H","0","img/none_selected.jpg","","84","main_expt",""
"","bandit","164","601337","0.0-126.0-0.0","18638393","wem/bandit_party_1","A1X388C6SDCDEY","either","1","456","","","","","","","0","0","1","0.08313016423","","0.8","0.4","0.6","0.2","","","","","0.08313016423","0.03321009489","0.2053302659","0.2255799186","","","","","","","","","","72","H","0","img/none_selected.jpg","","85","main_expt",""
"","bandit","165","603373","0.0-127.0-0.0","18638393","wem/bandit_party_1","A1X388C6SDCDEY","either","1","497","","","","","","","0","0","1","0.04864990798","","0.8","0.4","0.6","0.2","","","","","0.102083396","0.04864990798","0.2128685413","0.2197080914","","","","","","","","","","74","J","1","","","86","main_expt",""
"","bandit","166","605322","0.0-128.0-0.0","18638393","wem/bandit_party_1","A1X388C6SDCDEY","either","1","414","","","","","","","0","0","1","","0.07919268752","0.8","0.4","0.6","0.2","0.09067070718","0.07919268752","0.213778815","0.2230338057","","","","","","","","","","","","","","74","J","1","","","87","main_expt",""
"","bandit","167","607473","0.0-129.0-0.0","18638393","wem/bandit_party_1","A1X388C6SDCDEY","either","1","615","","","","","","","0","0","1","","0.2102340809","0.8","0.4","0.6","0.2","0.1421970704","0.05835116993","0.2102340809","0.2484269739","","","","","","","","","","","","","","75","K","2","","","88","main_expt",""
"","bandit","168","609491","0.0-130.0-0.0","18638393","wem/bandit_party_1","A1X388C6SDCDEY","either","1","487","","","","","","","1","0","0","0.1809358483","","0.8","0.4","0.6","0.2","","","","","0.219142046","0.05115519592","0.1809358483","0.2733562597","","","","","","","","","","75","K","2","","","89","main_expt",""
"","bandit","169","611526","0.0-131.0-0.0","18638393","wem/bandit_party_1","A1X388C6SDCDEY","either","1","493","","","","","","","1","0","0","0.1293356972","","0.8","0.4","0.6","0.2","","","","","0.2806923657","0.07819273649","0.1293356972","0.2973868449","","","","","","","","","","75","K","2","","","90","main_expt",""
"","bandit","170","615876","0.0-132.0-0.0","18638393","wem/bandit_party_1","A1X388C6SDCDEY","either","1","2805","","","","","","","0","0","1","","0.1136224352","0.8","0.4","0.6","0.2","0.2819660137","0.05564661524","0.1136224352","0.3067689268","","","","","","","","","","","","","","75","K","2","","","91","main_expt",""
"","bandit","171","618275","0.0-133.0-0.0","18638393","wem/bandit_party_1","A1X388C6SDCDEY","either","1","869","","","","","","","0","0","1","0.07539152519","","0.8","0.4","0.6","0.2","","","","","0.3370305887","0.05914103421","0.07539152519","0.2719776188","","","","","","","","","","75","K","2","","","92","main_expt",""
"","bandit","172","620626","0.0-134.0-0.0","18638393","wem/bandit_party_1","A1X388C6SDCDEY","either","1","813","","","","","","","0","1","0","","0.3081791896","0.8","0.4","0.6","0.2","0.3722719914","0.03944324463","0.08243558305","0.3081791896","","","","","","","","","","","","","","76","L","3","","","93","main_expt",""
"","bandit","173","623260","0.0-135.0-0.0","18638393","wem/bandit_party_1","A1X388C6SDCDEY","either","1","1102","","","","","","","0","0","1","","0.356667856","0.8","0.4","0.6","0.2","0.3840030774","0.05023017475","0.09807673793","0.356667856","","","","","","","","","","","","","","76","L","3","","","94","main_expt",""
"","bandit","174","625394","0.0-136.0-0.0","18638393","wem/bandit_party_1","A1X388C6SDCDEY","either","1","606","","","","","","","1","0","0","0.3300765204","","0.8","0.4","0.6","0.2","","","","","0.4050844552","0.07311956304","0.09746204728","0.3300765204","","","","","","","","","","76","L","3","","","95","main_expt",""
"","bandit","175","627761","0.0-137.0-0.0","18638393","wem/bandit_party_1","A1X388C6SDCDEY","either","1","819","","","","","","","0","0","1","0.3642735905","","0.8","0.4","0.6","0.2","","","","","0.4081076376","0.09573717159","0.08559835745","0.3642735905","","","","","","","","","","76","L","3","","","96","main_expt",""
"","bandit","176","629828","0.0-138.0-0.0","18638393","wem/bandit_party_1","A1X388C6SDCDEY","either","1","521","","","","","","","0","0","1","","0.3885664579","0.8","0.4","0.6","0.2","0.4142780263","0.1235519285","0.0732645996","0.3885664579","","","","","","","","","","","","","","76","L","3","","","97","main_expt",""
"","bandit","177","632045","0.0-139.0-0.0","18638393","wem/bandit_party_1","A1X388C6SDCDEY","either","1","672","","","","","","","0","0","1","","0.4162912028","0.8","0.4","0.6","0.2","0.4131193208","0.1274282425","0.05343209845","0.4162912028","","","","","","","","","","","","","","76","L","3","","","98","main_expt",""
"","bandit","178","634495","0.0-140.0-0.0","18638393","wem/bandit_party_1","A1X388C6SDCDEY","either","1","910","","","","","","","0","0","1","0.05144299931","","0.8","0.4","0.6","0.2","","","","","0.428944851","0.1457321849","0.05144299931","0.4074153657","","","","","","","","","","75","K","2","","","99","main_expt",""
"","bandit","179","636763","0.0-141.0-0.0","18638393","wem/bandit_party_1","A1X388C6SDCDEY","either","1","725","","","","","","","0","0","1","","0.03934302155","0.8","0.4","0.6","0.2","0.4279797645","0.1492128348","0.03934302155","0.3349137267","","","","","","","","","","","","","","75","K","2","","","100","main_expt",""
"","bandit","180","638946","0.0-142.0-0.0","18638393","wem/bandit_party_1","A1X388C6SDCDEY","either","1","649","","","","","","","0","0","1","","0.05783306622","0.8","0.4","0.6","0.2","0.4189249443","0.125019219","0.05783306622","0.2732947861","","","","","","","","","","","","","","75","K","2","","","101","main_expt",""
"","bandit","181","641096","0.0-143.0-0.0","18638393","wem/bandit_party_1","A1X388C6SDCDEY","either","1","618","","","","","","","0","0","1","0.1008510245","","0.8","0.4","0.6","0.2","","","","","0.4279241466","0.1008510245","0.06484492547","0.2584454073","","","","","","","","","","74","J","1","","","102","main_expt",""
"","bandit","182","643181","0.0-144.0-0.0","18638393","wem/bandit_party_1","A1X388C6SDCDEY","either","1","549","","","","","","","0","0","1","","0.1087281004","0.8","0.4","0.6","0.2","0.419390052","0.1087281004","0.0701259157","0.2143891894","","","","","","","","","","","","","","74","J","1","","","103","main_expt",""
"","bandit","183","645163","0.0-145.0-0.0","18638393","wem/bandit_party_1","A1X388C6SDCDEY","either","1","439","","","","","","","0","0","1","","0.143855427","0.8","0.4","0.6","0.2","0.3761202226","0.143855427","0.06922647753","0.1354346047","","","","","","","","","","","","","","74","J","1","","","104","main_expt",""
"","bandit","184","647146","0.0-146.0-0.0","18638393","wem/bandit_party_1","A1X388C6SDCDEY","either","1","453","","","","","","","0","0","1","0.4229881466","","0.8","0.4","0.6","0.2","","","","","0.4229881466","0.1606853024","0.07802312096","0.1615963473","","","","","","","","","","72","H","0","img/none_selected.jpg","","105","main_expt",""
"","bandit","185","649165","0.0-147.0-0.0","18638393","wem/bandit_party_1","A1X388C6SDCDEY","either","1","474","","","","","","","0","0","1","0.4110558218","","0.8","0.4","0.6","0.2","","","","","0.4110558218","0.1612939645","0.08930313369","0.1738621023","","","","","","","","","","72","H","0","img/none_selected.jpg","","106","main_expt",""
"","bandit","186","651232","0.0-148.0-0.0","18638393","wem/bandit_party_1","A1X388C6SDCDEY","either","1","523","","","","","","","0","0","1","0.4176599015","","0.8","0.4","0.6","0.2","","","","","0.4176599015","0.1778053335","0.1397733654","0.1799671425","","","","","","","","","","72","H","0","img/none_selected.jpg","","107","main_expt",""
"","bandit","187","653414","0.0-149.0-0.0","18638393","wem/bandit_party_1","A1X388C6SDCDEY","either","1","649","","","","","","","0","0","1","0.4210396584","","0.8","0.4","0.6","0.2","","","","","0.4210396584","0.1826465361","0.1505899732","0.1844274074","","","","","","","","","","72","H","0","img/none_selected.jpg","","108","main_expt",""
"","bandit","188","655432","0.0-150.0-0.0","18638393","wem/bandit_party_1","A1X388C6SDCDEY","either","1","485","","","","","","","0","1","0","","0.4328015469","0.8","0.4","0.6","0.2","0.4328015469","0.1737022726","0.1162436109","0.1702708828","","","","","","","","","","","","","","72","H","0","img/none_selected.jpg","","109","main_expt",""
"","bandit","189","657749","0.0-151.0-0.0","18638393","wem/bandit_party_1","A1X388C6SDCDEY","either","1","774","","","","","","","0","0","1","0.4495585744","","0.8","0.4","0.6","0.2","","","","","0.4495585744","0.1658344406","0.08267976014","0.1964407335","","","","","","","","","","72","H","0","img/none_selected.jpg","","110","main_expt",""
"","bandit","190","660250","0.0-152.0-0.0","18638393","wem/bandit_party_1","A1X388C6SDCDEY","either","1","957","","","","","","","0","0","1","","0.240619448","0.8","0.4","0.6","0.2","0.4237631325","0.240619448","0.09389793805","0.1777579569","","","","","","","","","","","","","","74","J","1","","","111","main_expt",""
"","bandit","191","662183","0.0-153.0-0.0","18638393","wem/bandit_party_1","A1X388C6SDCDEY","either","1","388","","","","","","","0","0","1","","0.1927397719","0.8","0.4","0.6","0.2","0.4521571561","0.1927397719","0.07903418564","0.1395994444","","","","","","","","","","","","","","74","J","1","","","112","main_expt",""
"","bandit","192","664267","0.0-154.0-0.0","18638393","wem/bandit_party_1","A1X388C6SDCDEY","either","1","542","","","","","","","0","1","0","","0.234725565","0.8","0.4","0.6","0.2","0.4350762846","0.234725565","0.05501139052","0.1205999431","","","","","","","","","","","","","","74","J","1","","","113","main_expt",""
"","bandit","193","666351","0.0-155.0-0.0","18638393","wem/bandit_party_1","A1X388C6SDCDEY","either","1","547","","","","","","","0","0","1","","0.1950215869","0.8","0.4","0.6","0.2","0.4315824664","0.1950215869","0.07627702456","0.09123355482","","","","","","","","","","","","","","74","J","1","","","114","main_expt",""
"","bandit","194","668535","0.0-156.0-0.0","18638393","wem/bandit_party_1","A1X388C6SDCDEY","either","1","630","","","","","","","0","1","0","","0.03985247356","0.8","0.4","0.6","0.2","0.4127349624","0.2575833325","0.03985247356","0.09554471192","","","","","","","","","","","","","","75","K","2","","","115","main_expt",""
"","bandit","195","670585","0.0-157.0-0.0","18638393","wem/bandit_party_1","A1X388C6SDCDEY","either","1","505","","","","","","","0","0","1","0.0683792979","","0.8","0.4","0.6","0.2","","","","","0.4468356006","0.2296468005","0.0683792979","0.1942182492","","","","","","","","","","75","K","2","","","116","main_expt",""
"","bandit","196","672551","0.0-158.0-0.0","18638393","wem/bandit_party_1","A1X388C6SDCDEY","either","1","419","","","","","","","0","0","1","0.03956212276","","0.8","0.4","0.6","0.2","","","","","0.4458703805","0.2816483341","0.03956212276","0.2208250117","","","","","","","","","","75","K","2","","","117","main_expt",""
"","bandit","197","674485","0.0-159.0-0.0","18638393","wem/bandit_party_1","A1X388C6SDCDEY","either","1","391","","","","","","","0","0","1","0.04459229253","","0.8","0.4","0.6","0.2","","","","","0.4500370674","0.2626769985","0.04459229253","0.1687975443","","","","","","","","","","75","K","2","","","118","main_expt",""
"","bandit","198","676603","0.0-160.0-0.0","18638393","wem/bandit_party_1","A1X388C6SDCDEY","either","1","567","","","","","","","0","0","1","","0.1546105485","0.8","0.4","0.6","0.2","0.4704359259","0.2418090277","0.03386957434","0.1546105485","","","","","","","","","","","","","","76","L","3","","","119","main_expt",""
"","bandit","199","678670","0.0-161.0-0.0","18638393","wem/bandit_party_1","A1X388C6SDCDEY","either","1","517","","","","","","","0","0","1","0.143668411","","0.8","0.4","0.6","0.2","","","","","0.4578798539","0.2603236095","0.03305427522","0.143668411","","","","","","","","","","76","L","3","","","120","main_expt",""
"","bandit","200","680704","0.0-162.0-0.0","18638393","wem/bandit_party_1","A1X388C6SDCDEY","either","1","492","","","","","","","0","1","0","","0.1098317425","0.8","0.4","0.6","0.2","0.4591190262","0.2381785671","0.03146098963","0.1098317425","","","","","","","","","","","","","","76","L","3","","","121","main_expt",""
"","bandit","201","682954","0.0-163.0-0.0","18638393","wem/bandit_party_1","A1X388C6SDCDEY","either","1","706","","","","","","","0","0","1","","0.1097832873","0.8","0.4","0.6","0.2","0.4643737298","0.2388462554","0.02311797033","0.1097832873","","","","","","","","","","","","","","76","L","3","","","122","main_expt",""
"","bandit","202","685271","0.0-164.0-0.0","18638393","wem/bandit_party_1","A1X388C6SDCDEY","either","1","779","","","","","","","0","0","1","0.1145900252","","0.8","0.4","0.6","0.2","","","","","0.451586091","0.2079929623","0.0171261738","0.1145900252","","","","","","","","","","76","L","3","","","123","main_expt",""
"","bandit","203","687338","0.0-165.0-0.0","18638393","wem/bandit_party_1","A1X388C6SDCDEY","either","1","520","","","","","","","0","0","1","","0.1137783892","0.8","0.4","0.6","0.2","0.4456906556","0.2148400852","0.03468299263","0.1137783892","","","","","","","","","","","","","","76","L","3","","","124","main_expt",""
"","bandit","204","689289","0.0-166.0-0.0","18638393","wem/bandit_party_1","A1X388C6SDCDEY","either","1","408","","","","","","","0","0","1","0.2185056602","","0.8","0.4","0.6","0.2","","","","","0.4240876494","0.2185056602","0.02544516396","0.145605256","","","","","","","","","","74","J","1","","","125","main_expt",""
"","bandit","205","691323","0.0-167.0-0.0","18638393","wem/bandit_party_1","A1X388C6SDCDEY","either","1","485","","","","","","","0","0","1","","0.2152323899","0.8","0.4","0.6","0.2","0.4008501573","0.2152323899","0.03059506073","0.1443839055","","","","","","","","","","","","","","74","J","1","","","126","main_expt",""
"","bandit","206","693255","0.0-168.0-0.0","18638393","wem/bandit_party_1","A1X388C6SDCDEY","either","1","393","","","","","","","0","0","1","","0.1699446714","0.8","0.4","0.6","0.2","0.4066073101","0.1699446714","0.0339638967","0.1434222382","","","","","","","","","","","","","","74","J","1","","","127","main_expt",""
"","bandit","207","695290","0.0-169.0-0.0","18638393","wem/bandit_party_1","A1X388C6SDCDEY","either","1","489","","","","","","","0","0","1","0.1299446217","","0.8","0.4","0.6","0.2","","","","","0.4270302575","0.1299446217","0.02632978063","0.1412168693","","","","","","","","","","74","J","1","","","128","main_expt",""
"","bandit","208","697572","0.0-170.0-0.0","18638393","wem/bandit_party_1","A1X388C6SDCDEY","either","1","736","","","","","","","0","0","1","","0.1299487573","0.8","0.4","0.6","0.2","0.4401824822","0.1299487573","0.02640977482","0.1086871361","","","","","","","","","","","","","","74","J","1","","","129","main_expt",""
"","bandit","209","699874","0.0-171.0-0.0","18638393","wem/bandit_party_1","A1X388C6SDCDEY","either","1","760","","","","","","","0","0","1","","0.03646961518","0.8","0.4","0.6","0.2","0.4160959849","0.1172580566","0.03646961518","0.1672766288","","","","","","","","","","","","","","75","K","2","","","130","main_expt",""
"","bandit","210","701889","0.0-172.0-0.0","18638393","wem/bandit_party_1","A1X388C6SDCDEY","either","1","448","","","","","","","0","1","0","","0.02171712127","0.8","0.4","0.6","0.2","0.4374535298","0.1289979545","0.02171712127","0.157110596","","","","","","","","","","","","","","75","K","2","","","131","main_expt",""
"","bandit","211","704008","0.0-173.0-0.0","18638393","wem/bandit_party_1","A1X388C6SDCDEY","either","1","571","","","","","","","0","0","1","","0.01004766493","0.8","0.4","0.6","0.2","0.4382483821","0.1243754988","0.01004766493","0.1338697581","","","","","","","","","","","","","","75","K","2","","","132","main_expt",""
"","bandit","212","706076","0.0-174.0-0.0","18638393","wem/bandit_party_1","A1X388C6SDCDEY","either","1","537","","","","","","","0","0","1","","0.005153708139","0.8","0.4","0.6","0.2","0.3913946914","0.1189203389","0.005153708139","0.1101669797","","","","","","","","","","","","","","75","K","2","","","133","main_expt",""
"","bandit","213","708177","0.0-175.0-0.0","18638393","wem/bandit_party_1","A1X388C6SDCDEY","either","1","550","","","","","","","0","0","1","","0.01308543257","0.8","0.4","0.6","0.2","0.4280120537","0.07075860378","0.01308543257","0.060775537","","","","","","","","","","","","","","75","K","2","","","134","main_expt",""
"","bandit","214","710276","0.0-176.0-0.0","18638393","wem/bandit_party_1","A1X388C6SDCDEY","either","1","561","","","","","","","0","0","1","","0.02634180281","0.8","0.4","0.6","0.2","0.4385213509","0.1073185777","0.02634180281","0.0714416082","","","","","","","","","","","","","","75","K","2","","","135","main_expt",""
"","bandit","215","713325","0.0-177.0-0.0","18638393","wem/bandit_party_1","A1X388C6SDCDEY","either","1","1511","","","","","","","0","0","1","0.1115096907","","0.8","0.4","0.6","0.2","","","","","0.4605212521","0.1001442491","0.04122629063","0.1115096907","","","","","","","","","","76","L","3","","","136","main_expt",""
"","bandit","216","715260","0.0-178.0-0.0","18638393","wem/bandit_party_1","A1X388C6SDCDEY","either","1","385","","","","","","","0","0","1","","0.1307091067","0.8","0.4","0.6","0.2","0.4729500637","0.1736681681","0.05517648788","0.1307091067","","","","","","","","","","","","","","76","L","3","","","137","main_expt",""
"","bandit","217","717292","0.0-179.0-0.0","18638393","wem/bandit_party_1","A1X388C6SDCDEY","either","1","478","","","","","","","0","0","1","0.1289533412","","0.8","0.4","0.6","0.2","","","","","0.4705425907","0.1839908368","0.05929415862","0.1289533412","","","","","","","","","","76","L","3","","","138","main_expt",""
"","bandit","218","719362","0.0-180.0-0.0","18638393","wem/bandit_party_1","A1X388C6SDCDEY","either","1","518","","","","","","","0","0","1","","0.1215972271","0.8","0.4","0.6","0.2","0.465423541","0.1500833973","0.05470710098","0.1215972271","","","","","","","","","","","","","","76","L","3","","","139","main_expt",""
"","bandit","219","721378","0.0-181.0-0.0","18638393","wem/bandit_party_1","A1X388C6SDCDEY","either","1","464","","","","","","","0","1","0","","0.1158179575","0.8","0.4","0.6","0.2","0.4486857012","0.1718879457","0.06062538604","0.1158179575","","","","","","","","","","","","","","76","L","3","","","140","main_expt",""
"","bandit","220","723478","0.0-182.0-0.0","18638393","wem/bandit_party_1","A1X388C6SDCDEY","either","1","566","","","","","","","0","0","1","","0.08691297649","0.8","0.4","0.6","0.2","0.4053061298","0.2025036279","0.05819772386","0.08691297649","","","","","","","","","","","","","","76","L","3","","","141","main_expt",""
"","bandit","221","725328","0.0-183.0-0.0","18638393","wem/bandit_party_1","A1X388C6SDCDEY","either","1","313","","","","","","","0","0","1","0.05329701838","","0.8","0.4","0.6","0.2","","","","","0.3989731656","0.1872564568","0.05329701838","0.1425267255","","","","","","","","","","75","K","2","","","142","main_expt",""
"","bandit","222","727329","0.0-184.0-0.0","18638393","wem/bandit_party_1","A1X388C6SDCDEY","either","1","459","","","","","","","0","0","1","0.1676641842","","0.8","0.4","0.6","0.2","","","","","0.3783570596","0.1676641842","0.06209903385","0.1425141192","","","","","","","","","","74","J","1","","","143","main_expt",""
"","bandit","223","729546","0.0-185.0-0.0","18638393","wem/bandit_party_1","A1X388C6SDCDEY","either","1","679","","","","","","","0","0","1","0.3485663762","","0.8","0.4","0.6","0.2","","","","","0.3485663762","0.1502987652","0.06954729647","0.1362652721","","","","","","","","","","72","H","0","img/none_selected.jpg","","144","main_expt",""
"","bandit","224","731647","0.0-186.0-0.0","18638393","wem/bandit_party_1","A1X388C6SDCDEY","either","1","550","","","","","","","1","0","0","0.3534190037","","0.8","0.4","0.6","0.2","","","","","0.3534190037","0.1050568962","0.062760129","0.1335650053","","","","","","","","","","72","H","0","img/none_selected.jpg","","145","main_expt",""
"","bandit","225","733796","0.0-187.0-0.0","18638393","wem/bandit_party_1","A1X388C6SDCDEY","either","1","608","","","","","","","0","0","1","0.342282706","","0.8","0.4","0.6","0.2","","","","","0.342282706","0.1266784727","0.05014677947","0.1392461982","","","","","","","","","","72","H","0","img/none_selected.jpg","","146","main_expt",""
"","bandit","226","736013","0.0-188.0-0.0","18638393","wem/bandit_party_1","A1X388C6SDCDEY","either","1","663","","","","","","","0","0","1","0.1121887101","","0.8","0.4","0.6","0.2","","","","","0.3497384939","0.1121887101","0.04801868921","0.1060810453","","","","","","","","","","74","J","1","","","147","main_expt",""
"","bandit","227","739648","0.0-189.0-0.0","18638393","wem/bandit_party_1","A1X388C6SDCDEY","either","1","2094","","","","","","","0","0","1","","0.1050077765","0.8","0.4","0.6","0.2","0.3507348305","0.1050077765","0.05298179562","0.1076054289","","","","","","","","","","","","","","74","J","1","","","148","main_expt",""
"","bandit","228","742431","0.0-190.0-0.0","18638393","wem/bandit_party_1","A1X388C6SDCDEY","either","1","1233","","","","","","","0","0","1","0.05271587927","","0.8","0.4","0.6","0.2","","","","","0.306786392","0.08725679698","0.05271587927","0.09143227578","","","","","","","","","","75","K","2","","","149","main_expt",""
"","bandit","229","744799","0.0-191.0-0.0","18638393","wem/bandit_party_1","A1X388C6SDCDEY","either","1","823","","","","","","","0","0","1","","0.08361181256","0.8","0.4","0.6","0.2","0.3289077467","0.04813781364","0.06153260368","0.08361181256","","","","","","","","","","","","","","76","L","3","","","150","main_expt",""
"","bandit","230","746981","0.0-192.0-0.0","18638393","wem/bandit_party_1","A1X388C6SDCDEY","either","1","614","","","","","","","0","0","1","0.1038450747","","0.8","0.4","0.6","0.2","","","","","0.2844912386","0.04690393958","0.07716317934","0.1038450747","","","","","","","","","","76","L","3","","","151","main_expt",""
"","bandit","231","748932","0.0-193.0-0.0","18638393","wem/bandit_party_1","A1X388C6SDCDEY","either","1","407","","","","","","","0","0","1","0.08370894892","","0.8","0.4","0.6","0.2","","","","","0.3221551402","0.05051779207","0.08370894892","0.1311897928","","","","","","","","","","75","K","2","","","152","main_expt",""
"","bandit","232","750767","0.0-194.0-0.0","18638393","wem/bandit_party_1","A1X388C6SDCDEY","either","1","307","","","","","","","0","0","1","0.0417019452","","0.8","0.4","0.6","0.2","","","","","0.288581716","0.0417019452","0.06235129306","0.1106636196","","","","","","","","","","74","J","1","","","153","main_expt",""
"","bandit","233","753383","0.0-195.0-0.0","18638393","wem/bandit_party_1","A1X388C6SDCDEY","either","1","1071","","","","","","","1","0","0","0.3674714493","","0.8","0.4","0.6","0.2","","","","","0.3674714493","0.04565059468","0.08808261531","0.08044616817","","","","","","","","","","72","H","0","img/none_selected.jpg","","154","main_expt",""
"","bandit","234","755400","0.0-196.0-0.0","18638393","wem/bandit_party_1","A1X388C6SDCDEY","either","1","472","","","","","","","0","0","1","0.3836765626","","0.8","0.4","0.6","0.2","","","","","0.3836765626","0.0249337719","0.08415746701","0.09849608375","","","","","","","","","","72","H","0","img/none_selected.jpg","","155","main_expt",""
"","bandit","235","757686","0.0-197.0-0.0","18638393","wem/bandit_party_1","A1X388C6SDCDEY","either","1","741","","","","","","","0","0","1","","0.0207568711","0.8","0.4","0.6","0.2","0.3499766022","0.0207568711","0.1363215429","0.0679626842","","","","","","","","","","","","","","74","J","1","","","156","main_expt",""
"","bandit","236","759653","0.0-198.0-0.0","18638393","wem/bandit_party_1","A1X388C6SDCDEY","either","1","428","","","","","","","0","0","1","0.176329139","","0.8","0.4","0.6","0.2","","","","","0.3083455354","0.01044871803","0.176329139","0.06316877849","","","","","","","","","","75","K","2","","","157","main_expt",""
"","bandit","237","765754","0.0-199.0-0.0","18638393","wem/bandit_party_1","A1X388C6SDCDEY","either","1","4548","","","","","","","0","0","1","","0.06381796224","0.8","0.4","0.6","0.2","0.2780985587","0.008486032171","0.2239815039","0.06381796224","","","","","","","","","","","","","","76","L","3","","","158","main_expt",""
"","bandit","238","768301","0.0-200.0-0.0","18638393","wem/bandit_party_1","A1X388C6SDCDEY","either","1","990","","","","","","","0","0","1","","0.09986374221","0.8","0.4","0.6","0.2","0.2721424699","0.006770001311","0.1754735631","0.09986374221","","","","","","","","","","","","","","76","L","3","","","159","main_expt",""
"","bandit","239","770287","0.0-201.0-0.0","18638393","wem/bandit_party_1","A1X388C6SDCDEY","either","1","437","","","","","","","1","0","0","0.1820859676","","0.8","0.4","0.6","0.2","","","","","0.3005636977","0.005009972043","0.1820859676","0.08334790929","","","","","","","","","","75","K","2","","","160","main_expt",""
"","bandit","240","772338","0.0-202.0-0.0","18638393","wem/bandit_party_1","A1X388C6SDCDEY","either","1","502","","","","","","","1","0","0","0.1771527669","","0.8","0.4","0.6","0.2","","","","","0.2481613967","0.003825417776","0.1771527669","0.1094566723","","","","","","","","","","75","K","2","","","161","main_expt",""
"","bandit","241","774638","0.0-203.0-0.0","18638393","wem/bandit_party_1","A1X388C6SDCDEY","either","1","756","","","","","","","0","0","1","0.209245514","","0.8","0.4","0.6","0.2","","","","","0.2040880477","0.006458278423","0.209245514","0.1287108975","","","","","","","","","","75","K","2","","","162","main_expt",""
"","bandit","242","777054","0.0-204.0-0.0","18638393","wem/bandit_party_1","A1X388C6SDCDEY","either","1","869","","","","","","","0","0","1","","0.01344146107","0.8","0.4","0.6","0.2","0.256608811","0.01344146107","0.1864252411","0.1811808859","","","","","","","","","","","","","","74","J","1","","","163","main_expt",""
"","bandit","243","782854","0.0-205.0-0.0","18638393","wem/bandit_party_1","A1X388C6SDCDEY","either","1","4247","","","","","","","1","0","0","0.2798468236","","0.8","0.4","0.6","0.2","","","","","0.2798468236","0.004940614731","0.1662237337","0.1374611454","","","","","","","","","","72","H","0","img/none_selected.jpg","","164","main_expt",""
"","bandit","244","784939","0.0-206.0-0.0","18638393","wem/bandit_party_1","A1X388C6SDCDEY","either","1","555","","","","","","","0","0","1","0.2689568899","","0.8","0.4","0.6","0.2","","","","","0.2689568899","0.007349038951","0.1375661656","0.1640313333","","","","","","","","","","72","H","0","img/none_selected.jpg","","165","main_expt",""
"","bandit","245","787040","0.0-207.0-0.0","18638393","wem/bandit_party_1","A1X388C6SDCDEY","either","1","561","","","","","","","0","0","1","","0.2786045926","0.8","0.4","0.6","0.2","0.2786045926","0.005679103294","0.1416727521","0.20052236","","","","","","","","","","","","","","72","H","0","img/none_selected.jpg","","166","main_expt",""
"","bandit","246","789049","0.0-208.0-0.0","18638393","wem/bandit_party_1","A1X388C6SDCDEY","either","1","474","","","","","","","0","0","1","0.2507583434","","0.8","0.4","0.6","0.2","","","","","0.2507583434","0.004037182679","0.1497541138","0.1945206589","","","","","","","","","","72","H","0","img/none_selected.jpg","","167","main_expt",""
"","bandit","247","791049","0.0-209.0-0.0","18638393","wem/bandit_party_1","A1X388C6SDCDEY","either","1","435","","","","","","","0","0","1","0.007111326723","","0.8","0.4","0.6","0.2","","","","","0.1827624484","0.007111326723","0.1761460581","0.1902154162","","","","","","","","","","74","J","1","","","168","main_expt",""
"","bandit","248","793008","0.0-210.0-0.0","18638393","wem/bandit_party_1","A1X388C6SDCDEY","either","1","413","","","","","","","0","0","1","","0.01708305062","0.8","0.4","0.6","0.2","0.1558723634","0.01708305062","0.2248215173","0.1931964682","","","","","","","","","","","","","","74","J","1","","","169","main_expt",""
"","bandit","249","795109","0.0-211.0-0.0","18638393","wem/bandit_party_1","A1X388C6SDCDEY","either","1","552","","","","","","","0","0","1","0.2503105048","","0.8","0.4","0.6","0.2","","","","","0.1757164868","0.02105388628","0.2503105048","0.236179436","","","","","","","","","","75","K","2","","","170","main_expt",""
"","bandit","250","797140","0.0-212.0-0.0","18638393","wem/bandit_party_1","A1X388C6SDCDEY","either","1","474","","","","","","","0","1","0","","0.2515708499","0.8","0.4","0.6","0.2","0.1985597056","0.01477187034","0.2515708499","0.2229285478","","","","","","","","","","","","","","75","K","2","","","171","main_expt",""
"","bandit","251","799775","0.0-213.0-0.0","18638393","wem/bandit_party_1","A1X388C6SDCDEY","either","1","1099","","","","","","","0","0","1","0.2601117771","","0.8","0.4","0.6","0.2","","","","","0.1725269859","0.00639283578","0.2601117771","0.1805811295","","","","","","","","","","75","K","2","","","172","main_expt",""
"","bandit","252","802343","0.0-214.0-0.0","18638393","wem/bandit_party_1","A1X388C6SDCDEY","either","1","1018","","","","","","","0","0","1","","0.2203049146","0.8","0.4","0.6","0.2","0.1955807132","0.008503536177","0.2277859889","0.2203049146","","","","","","","","","","","","","","76","L","3","","","173","main_expt",""
"","bandit","253","805276","0.0-215.0-0.0","18638393","wem/bandit_party_1","A1X388C6SDCDEY","either","1","1378","","","","","","","0","0","1","","0.2079245196","0.8","0.4","0.6","0.2","0.1712969398","0.01512836446","0.204090619","0.2079245196","","","","","","","","","","","","","","76","L","3","","","174","main_expt",""
"","bandit","254","808077","0.0-216.0-0.0","18638393","wem/bandit_party_1","A1X388C6SDCDEY","either","1","1252","","","","","","","0","0","1","","0.1904909119","0.8","0.4","0.6","0.2","0.2145566876","0.034550241","0.2264282848","0.1904909119","","","","","","","","","","","","","","76","L","3","","","175","main_expt",""
"","bandit","255","810194","0.0-217.0-0.0","18638393","wem/bandit_party_1","A1X388C6SDCDEY","either","1","575","","","","","","","0","0","1","","0.1611975006","0.8","0.4","0.6","0.2","0.1987050603","0.01969997198","0.2263436383","0.1611975006","","","","","","","","","","","","","","76","L","3","","","176","main_expt",""
"","bandit","256","812195","0.0-218.0-0.0","18638393","wem/bandit_party_1","A1X388C6SDCDEY","either","1","464","","","","","","","0","0","1","","0.2449632337","0.8","0.4","0.6","0.2","0.2161967517","0.02558747067","0.2449632337","0.1747210449","","","","","","","","","","","","","","75","K","2","","","177","main_expt",""
"","bandit","257","814578","0.0-219.0-0.0","18638393","wem/bandit_party_1","A1X388C6SDCDEY","either","1","838","","","","","","","0","0","1","","0.1923885174","0.8","0.4","0.6","0.2","0.1790488899","0.02865462312","0.1923885174","0.1667690144","","","","","","","","","","","","","","75","K","2","","","178","main_expt",""
"","bandit","258","816579","0.0-220.0-0.0","18638393","wem/bandit_party_1","A1X388C6SDCDEY","either","1","453","","","","","","","0","0","1","0.05873937836","","0.8","0.4","0.6","0.2","","","","","0.1254539317","0.05873937836","0.1791230597","0.248539666","","","","","","","","","","74","J","1","","","179","main_expt",""
"","bandit","259","819312","0.0-221.0-0.0","18638393","wem/bandit_party_1","A1X388C6SDCDEY","either","1","1174","","","","","","","0","0","1","","0.04996702027","0.8","0.4","0.6","0.2","0.1761702366","0.04996702027","0.1641305094","0.2393284063","","","","","","","","","","","","","","74","J","1","","","180","main_expt",""
"","bandit","260","821663","0.0-222.0-0.0","18638393","wem/bandit_party_1","A1X388C6SDCDEY","either","1","815","","","","","","","0","0","1","0.2307221343","","0.8","0.4","0.6","0.2","","","","","0.2307221343","0.06192223509","0.1567194189","0.2450765022","","","","","","","","","","72","H","0","img/none_selected.jpg","","181","main_expt",""
"","bandit","261","823740","0.0-223.0-0.0","18638393","wem/bandit_party_1","A1X388C6SDCDEY","either","1","523","","","","","","","0","0","1","0.1656926355","","0.8","0.4","0.6","0.2","","","","","0.1656926355","0.07865608963","0.1805899487","0.2898963007","","","","","","","","","","72","H","0","img/none_selected.jpg","","182","main_expt",""
"","bandit","262","825880","0.0-224.0-0.0","18638393","wem/bandit_party_1","A1X388C6SDCDEY","either","1","563","","","","","","","1","0","0","0.0695036973","","0.8","0.4","0.6","0.2","","","","","0.1997223474","0.0695036973","0.1381226487","0.337419987","","","","","","","","","","74","J","1","","","183","main_expt",""
"","bandit","263","828881","0.0-225.0-0.0","18638393","wem/bandit_party_1","A1X388C6SDCDEY","either","1","1453","","","","","","","0","0","1","","0.09883674892","0.8","0.4","0.6","0.2","0.1936006223","0.09883674892","0.1157029232","0.3334404967","","","","","","","","","","","","","","74","J","1","","","184","main_expt",""
"","bandit","264","831114","0.0-226.0-0.0","18638393","wem/bandit_party_1","A1X388C6SDCDEY","either","1","686","","","","","","","0","0","1","","0.1344132801","0.8","0.4","0.6","0.2","0.1794548994","0.1344132801","0.09007466759","0.3049781316","","","","","","","","","","","","","","74","J","1","","","185","main_expt",""
"","bandit","265","833199","0.0-227.0-0.0","18638393","wem/bandit_party_1","A1X388C6SDCDEY","either","1","540","","","","","","","0","0","1","","0.1194183803","0.8","0.4","0.6","0.2","0.1679588243","0.1194183803","0.07784091677","0.322039184","","","","","","","","","","","","","","74","J","1","","","186","main_expt",""
"","bandit","266","835249","0.0-228.0-0.0","18638393","wem/bandit_party_1","A1X388C6SDCDEY","either","1","514","","","","","","","0","0","1","","0.1456002269","0.8","0.4","0.6","0.2","0.1692259204","0.1456002269","0.1332261693","0.2898485093","","","","","","","","","","","","","","74","J","1","","","187","main_expt",""
"","bandit","267","838049","0.0-229.0-0.0","18638393","wem/bandit_party_1","A1X388C6SDCDEY","either","1","1251","","","","","","","0","0","1","","0.1008589119","0.8","0.4","0.6","0.2","0.1796926114","0.1008589119","0.1302169342","0.3046836684","","","","","","","","","","","","","","74","J","1","","","188","main_expt",""
"","bandit","268","840183","0.0-230.0-0.0","18638393","wem/bandit_party_1","A1X388C6SDCDEY","either","1","577","","","","","","","0","0","1","","0.09109327247","0.8","0.4","0.6","0.2","0.1463090895","0.09109327247","0.1459867673","0.3437642557","","","","","","","","","","","","","","74","J","1","","","189","main_expt",""
"","bandit","269","842434","0.0-231.0-0.0","18638393","wem/bandit_party_1","A1X388C6SDCDEY","either","1","695","","","","","","","0","0","1","","0.133333279","0.8","0.4","0.6","0.2","0.1670442817","0.133333279","0.1930387326","0.3685715368","","","","","","","","","","","","","","74","J","1","","","190","main_expt",""
"","bandit","270","844584","0.0-232.0-0.0","18638393","wem/bandit_party_1","A1X388C6SDCDEY","either","1","598","","","","","","","0","0","1","0.1253338948","","0.8","0.4","0.6","0.2","","","","","0.2148667481","0.1253338948","0.1447045196","0.4063368095","","","","","","","","","","74","J","1","","","191","main_expt",""
"","bandit","271","846784","0.0-233.0-0.0","18638393","wem/bandit_party_1","A1X388C6SDCDEY","either","1","657","","","","","","","0","0","1","0.1371372983","","0.8","0.4","0.6","0.2","","","","","0.1891029698","0.1371372983","0.1521301445","0.4194789623","","","","","","","","","","74","J","1","","","192","main_expt",""
"","bandit","272","850985","0.0-234.0-0.0","18638393","wem/bandit_party_1","A1X388C6SDCDEY","either","1","2653","","","","","","","0","0","1","0.1818436489","","0.8","0.4","0.6","0.2","","","","","0.1818436489","0.1269519223","0.1216552598","0.3914453041","","","","","","","","","","72","H","0","img/none_selected.jpg","","193","main_expt",""
"","bandit","273","853202","0.0-235.0-0.0","18638393","wem/bandit_party_1","A1X388C6SDCDEY","either","1","671","","","","","","","0","0","1","0.2036833838","","0.8","0.4","0.6","0.2","","","","","0.2036833838","0.1253972088","0.07681554104","0.3988429791","","","","","","","","","","72","H","0","img/none_selected.jpg","","194","main_expt",""
"","bandit","274","855204","0.0-236.0-0.0","18638393","wem/bandit_party_1","A1X388C6SDCDEY","either","1","455","","","","","","","0","0","1","0.2189502041","","0.8","0.4","0.6","0.2","","","","","0.2189502041","0.1231557279","0.07468822185","0.4212514022","","","","","","","","","","72","H","0","img/none_selected.jpg","","195","main_expt",""
"","bandit","275","857220","0.0-237.0-0.0","18638393","wem/bandit_party_1","A1X388C6SDCDEY","either","1","461","","","","","","","0","0","1","0.2011136523","","0.8","0.4","0.6","0.2","","","","","0.2011136523","0.2304226507","0.07634526252","0.4128950903","","","","","","","","","","72","H","0","img/none_selected.jpg","","196","main_expt",""
"","bandit","276","859238","0.0-238.0-0.0","18638393","wem/bandit_party_1","A1X388C6SDCDEY","either","1","473","","","","","","","0","0","1","0.2295646827","","0.8","0.4","0.6","0.2","","","","","0.2295646827","0.3102822931","0.06680697181","0.3979973083","","","","","","","","","","72","H","0","img/none_selected.jpg","","197","main_expt",""
"","bandit","277","861487","0.0-239.0-0.0","18638393","wem/bandit_party_1","A1X388C6SDCDEY","either","1","695","","","","","","","0","0","1","0.2570874699","","0.8","0.4","0.6","0.2","","","","","0.2570874699","0.3222054514","0.05107679344","0.3153467244","","","","","","","","","","72","H","0","img/none_selected.jpg","","198","main_expt",""
"","bandit","278","863755","0.0-240.0-0.0","18638393","wem/bandit_party_1","A1X388C6SDCDEY","either","1","730","","","","","","","1","0","0","0.2215013189","","0.8","0.4","0.6","0.2","","","","","0.2215013189","0.3416159467","0.06140804873","0.3121882746","","","","","","","","","","72","H","0","img/none_selected.jpg","","199","main_expt",""
"","bandit","279","867255","0.0-241.0-0.0","18638393","wem/bandit_party_1","A1X388C6SDCDEY","either","1","1944","","","","","","","0","0","1","0.1681318695","","0.8","0.4","0.6","0.2","","","","","0.1681318695","0.3826655938","0.05697288244","0.3789620948","","","","","","","","","","72","H","0","img/none_selected.jpg","","200","main_expt",""
"","bandit","280","869870","0.0-242.0-0.0","18638393","wem/bandit_party_1","A1X388C6SDCDEY","either","1","1036","","","","","","","0","0","1","0.1787039029","","0.8","0.4","0.6","0.2","","","","","0.1787039029","0.4117435103","0.04802221103","0.3575696279","","","","","","","","","","72","H","0","img/none_selected.jpg","","201","main_expt",""
"","bandit","281","872406","0.0-243.0-0.0","18638393","wem/bandit_party_1","A1X388C6SDCDEY","either","1","998","","","","","","","1","0","0","0.2180442152","","0.8","0.4","0.6","0.2","","","","","0.2180442152","0.4023622846","0.04583536071","0.3937046418","","","","","","","","","","72","H","0","img/none_selected.jpg","","202","main_expt",""
"","bandit","282","875140","0.0-244.0-0.0","18638393","wem/bandit_party_1","A1X388C6SDCDEY","either","1","1182","","","","","","","1","0","0","0.262784421","","0.8","0.4","0.6","0.2","","","","","0.262784421","0.4225273878","0.03655969434","0.3901943722","","","","","","","","","","72","H","0","img/none_selected.jpg","","203","main_expt",""
"","bandit","283","877722","0.0-245.0-0.0","18638393","wem/bandit_party_1","A1X388C6SDCDEY","either","1","1036","","","","","","","0","0","1","0.2843732649","","0.8","0.4","0.6","0.2","","","","","0.2843732649","0.4151046429","0.05773518339","0.4099131859","","","","","","","","","","72","H","0","img/none_selected.jpg","","204","main_expt",""
"","bandit","284","880525","0.0-246.0-0.0","18638393","wem/bandit_party_1","A1X388C6SDCDEY","either","1","1266","","","","","","","0","0","1","0.06616346658","","0.8","0.4","0.6","0.2","","","","","0.2549063301","0.4288165897","0.06616346658","0.4238238901","","","","","","","","","","75","K","2","","","205","main_expt",""
"","bandit","285","882791","0.0-247.0-0.0","18638393","wem/bandit_party_1","A1X388C6SDCDEY","either","1","725","","","","","","","0","0","1","","0.09055598832","0.8","0.4","0.6","0.2","0.2982701688","0.436745712","0.09055598832","0.4139837541","","","","","","","","","","","","","","75","K","2","","","206","main_expt",""
"","bandit","286","885275","0.0-248.0-0.0","18638393","wem/bandit_party_1","A1X388C6SDCDEY","either","1","937","","","","","","","0","0","1","","0.07583085731","0.8","0.4","0.6","0.2","0.3423773839","0.4484652972","0.07583085731","0.3544894801","","","","","","","","","","","","","","75","K","2","","","207","main_expt",""
"","bandit","287","887592","0.0-249.0-0.0","18638393","wem/bandit_party_1","A1X388C6SDCDEY","either","1","778","","","","","","","0","0","1","0.09768014643","","0.8","0.4","0.6","0.2","","","","","0.3321535101","0.4516947584","0.09768014643","0.3703609936","","","","","","","","","","75","K","2","","","208","main_expt",""
"","bandit","288","889992","0.0-250.0-0.0","18638393","wem/bandit_party_1","A1X388C6SDCDEY","either","1","842","","","","","","","0","0","1","0.08389795445","","0.8","0.4","0.6","0.2","","","","","0.3467721984","0.4590139285","0.08389795445","0.3590511704","","","","","","","","","","75","K","2","","","209","main_expt",""
"","bandit","289","892126","0.0-251.0-0.0","18638393","wem/bandit_party_1","A1X388C6SDCDEY","either","1","582","","","","","","","0","0","1","","0.07846525543","0.8","0.4","0.6","0.2","0.3513447539","0.4378910613","0.07846525543","0.3781523972","","","","","","","","","","","","","","75","K","2","","","210","main_expt",""
"","bandit","290","894461","0.0-252.0-0.0","18638393","wem/bandit_party_1","A1X388C6SDCDEY","either","1","787","","","","","","","0","0","1","0.05906932722","","0.8","0.4","0.6","0.2","","","","","0.4003692624","0.4139384991","0.05906932722","0.3895188655","","","","","","","","","","75","K","2","","","211","main_expt",""
"","bandit","291","896677","0.0-253.0-0.0","18638393","wem/bandit_party_1","A1X388C6SDCDEY","either","1","678","","","","","","","0","1","0","","0.04754192311","0.8","0.4","0.6","0.2","0.3949660502","0.3659234609","0.04754192311","0.4075098947","","","","","","","","","","","","","","75","K","2","","","212","main_expt",""
"","bandit","292","899211","0.0-254.0-0.0","18638393","wem/bandit_party_1","A1X388C6SDCDEY","either","1","984","","","","","","","0","0","1","","0.05481920189","0.8","0.4","0.6","0.2","0.4233479157","0.3180572988","0.05481920189","0.4191075236","","","","","","","","","","","","","","75","K","2","","","213","main_expt",""
"","bandit","293","901411","0.0-255.0-0.0","18638393","wem/bandit_party_1","A1X388C6SDCDEY","either","1","649","","","","","","","0","0","1","","0.07954578011","0.8","0.4","0.6","0.2","0.4182751871","0.2611162072","0.07954578011","0.3799529118","","","","","","","","","","","","","","75","K","2","","","214","main_expt",""
"","bandit","294","904212","0.0-256.0-0.0","18638393","wem/bandit_party_1","A1X388C6SDCDEY","either","1","1247","","","","","","","0","0","1","","0.3924699069","0.8","0.4","0.6","0.2","0.3745823719","0.2331309726","0.1078137614","0.3924699069","","","","","","","","","","","","","","76","L","3","","","215","main_expt",""
"","bandit","295","907612","0.0-257.0-0.0","18638393","wem/bandit_party_1","A1X388C6SDCDEY","either","1","1844","","","","","","","0","0","1","","0.3556657658","0.8","0.4","0.6","0.2","0.3809837923","0.2428402293","0.1269525553","0.3556657658","","","","","","","","","","","","","","76","L","3","","","216","main_expt",""
"","bandit","296","909795","0.0-258.0-0.0","18638393","wem/bandit_party_1","A1X388C6SDCDEY","either","1","632","","","","","","","1","0","0","0.3870416945","","0.8","0.4","0.6","0.2","","","","","0.4144294186","0.2317762644","0.1849794572","0.3870416945","","","","","","","","","","76","L","3","","","217","main_expt",""
"","bandit","297","912280","0.0-259.0-0.0","18638393","wem/bandit_party_1","A1X388C6SDCDEY","either","1","934","","","","","","","0","0","1","","0.3944581396","0.8","0.4","0.6","0.2","0.4090742927","0.204309912","0.1903787706","0.3944581396","","","","","","","","","","","","","","76","L","3","","","218","main_expt",""
"","bandit","298","914746","0.0-260.0-0.0","18638393","wem/bandit_party_1","A1X388C6SDCDEY","either","1","909","","","","","","","0","0","1","","0.4256173987","0.8","0.4","0.6","0.2","0.3869695378","0.1685596251","0.1768508397","0.4256173987","","","","","","","","","","","","","","76","L","3","","","219","main_expt",""
"","bandit","299","920814","0.0-261.0-0.0","18638393","wem/bandit_party_1","A1X388C6SDCDEY","either","1","4522","","","","","","","0","1","0","","0.4240862242","0.8","0.4","0.6","0.2","0.3814250035","0.2488487331","0.2176561852","0.4240862242","","","","","","","","","","","","","","76","L","3","","","220","main_expt",""
"","bandit","300","923197","0.0-262.0-0.0","18638393","wem/bandit_party_1","A1X388C6SDCDEY","either","1","815","","","","","","","0","1","0","","0.4364702466","0.8","0.4","0.6","0.2","0.3560431311","0.2789816034","0.2075488201","0.4364702466","","","","","","","","","","","","","","76","L","3","","","221","main_expt",""
"","bandit","301","925280","0.0-263.0-0.0","18638393","wem/bandit_party_1","A1X388C6SDCDEY","either","1","503","","","","","","","0","0","1","","0.4512924842","0.8","0.4","0.6","0.2","0.3424215647","0.242729834","0.2260831429","0.4512924842","","","","","","","","","","","","","","76","L","3","","","222","main_expt",""
"","bandit","302","927564","0.0-264.0-0.0","18638393","wem/bandit_party_1","A1X388C6SDCDEY","either","1","722","","","","","","","1","0","0","0.4649948574","","0.8","0.4","0.6","0.2","","","","","0.3118962833","0.196538567","0.2512075751","0.4649948574","","","","","","","","","","76","L","3","","","223","main_expt",""
"","bandit","303","930083","0.0-265.0-0.0","18638393","wem/bandit_party_1","A1X388C6SDCDEY","either","1","969","","","","","","","0","0","1","","0.4692106987","0.8","0.4","0.6","0.2","0.261290028","0.2189223785","0.3072691987","0.4692106987","","","","","","","","","","","","","","76","L","3","","","224","main_expt",""
"","bandit","304","931634","0.0-266.0-0.0","18638393","wem/bandit_party_1","A1X388C6SDCDEY","either","1","4","","","","","","","0","0","1","","0.4772226815","0.8","0.4","0.6","0.2","0.2748104332","0.2131207899","0.3358063032","0.4772226815","","","","","","","","","","","","","","76","L","3","","","225","main_expt",""
"","bandit","305","933434","0.0-267.0-0.0","18638393","wem/bandit_party_1","A1X388C6SDCDEY","either","1","252","","","","","","","0","0","1","","0.4828013869","0.8","0.4","0.6","0.2","0.2112523614","0.187439681","0.2994610032","0.4828013869","","","","","","","","","","","","","","76","L","3","","","226","main_expt",""
"","bandit","306","935450","0.0-268.0-0.0","18638393","wem/bandit_party_1","A1X388C6SDCDEY","either","1","476","","","","","","","0","0","1","0.4805292857","","0.8","0.4","0.6","0.2","","","","","0.1879164098","0.1522087394","0.2719992041","0.4805292857","","","","","","","","","","76","L","3","","","227","main_expt",""
"","bandit","307","938018","0.0-269.0-0.0","18638393","wem/bandit_party_1","A1X388C6SDCDEY","either","1","1010","","","","","","","0","0","1","","0.4770879938","0.8","0.4","0.6","0.2","0.1857646906","0.1975586059","0.2601066631","0.4770879938","","","","","","","","","","","","","","76","L","3","","","228","main_expt",""
"","bandit","308","941151","0.0-270.0-0.0","18638393","wem/bandit_party_1","A1X388C6SDCDEY","either","1","1585","","","","","","","0","1","0","","0.4830225504","0.8","0.4","0.6","0.2","0.1608888173","0.2280604414","0.2333982712","0.4830225504","","","","","","","","","","","","","","76","L","3","","","229","main_expt",""
"","bandit","309","944652","0.0-271.0-0.0","18638393","wem/bandit_party_1","A1X388C6SDCDEY","either","1","1963","","","","","","","1","0","0","0.4827210916","","0.8","0.4","0.6","0.2","","","","","0.1139945837","0.2120359748","0.2179366985","0.4827210916","","","","","","","","","","76","L","3","","","230","main_expt",""
"","bandit","310","947386","0.0-272.0-0.0","18638393","wem/bandit_party_1","A1X388C6SDCDEY","either","1","1178","","","","","","","0","1","0","","0.4764813513","0.8","0.4","0.6","0.2","0.1071229599","0.2260377558","0.210335649","0.4764813513","","","","","","","","","","","","","","76","L","3","","","231","main_expt",""
"","bandit","311","949953","0.0-273.0-0.0","18638393","wem/bandit_party_1","A1X388C6SDCDEY","either","1","1015","","","","","","","0","0","1","","0.4794978353","0.8","0.4","0.6","0.2","0.1250262501","0.2810037348","0.2154905401","0.4794978353","","","","","","","","","","","","","","76","L","3","","","232","main_expt",""
"","bandit","312","952854","0.0-274.0-0.0","18638393","wem/bandit_party_1","A1X388C6SDCDEY","either","1","1353","","","","","","","1","0","0","0.4717583679","","0.8","0.4","0.6","0.2","","","","","0.1262657767","0.3371590923","0.2199054097","0.4717583679","","","","","","","","","","76","L","3","","","233","main_expt",""
"","bandit","313","956071","0.0-275.0-0.0","18638393","wem/bandit_party_1","A1X388C6SDCDEY","either","1","1664","","","","","","","0","0","1","","0.4801470087","0.8","0.4","0.6","0.2","0.1436583916","0.2614597929","0.2116885818","0.4801470087","","","","","","","","","","","","","","76","L","3","","","234","main_expt",""
"","bandit","314","958321","0.0-276.0-0.0","18638393","wem/bandit_party_1","A1X388C6SDCDEY","either","1","700","","","","","","","0","0","1","","0.4698449305","0.8","0.4","0.6","0.2","0.1776605917","0.2855471023","0.2037112673","0.4698449305","","","","","","","","","","","","","","76","L","3","","","235","main_expt",""
"","bandit","315","961005","0.0-277.0-0.0","18638393","wem/bandit_party_1","A1X388C6SDCDEY","either","1","1129","","","","","","","0","1","0","","0.4750890902","0.8","0.4","0.6","0.2","0.2039581082","0.2806831757","0.2295670059","0.4750890902","","","","","","","","","","","","","","76","L","3","","","236","main_expt",""
"","bandit","316","963204","0.0-278.0-0.0","18638393","wem/bandit_party_1","A1X388C6SDCDEY","either","1","623","","","","","","","0","0","1","","0.490873849","0.8","0.4","0.6","0.2","0.1898025468","0.3314479917","0.2602584061","0.490873849","","","","","","","","","","","","","","76","L","3","","","237","main_expt",""
