"consent","trial_type","trial_index","time_elapsed","internal_node_id","subjID","study","MID","cond","drift","rt","responses","button_pressed","key_press","like","value","connected","gems","bombs","no_reward","GemPrChosen","BombPrChosen","GainOverPainPr_0","GainOverPainPr_1","GainOverPainPr_2","GainOverPainPr_3","LosePr_0","LosePr_1","LosePr_2","LosePr_3","WinPr_0","WinPr_1","WinPr_2","WinPr_3","Q0","Q1","Q2","gender","age","ethnicity","label","expt_phase","target","respCharCode","respKey","respChoiceNum","respChoice","practice","trial_counter","trial_label","Q0_index"
"GDM/GDM_behavioral_consent_30min_online.html","consent","0","10885","0.0-0.0","19002654","wem/bandit_party_1","A3749CB7HBP2WR","either","8","","","","","","","","","","","","","","","","","","","","","","","","","","","","","","","","","","","","","","","","",""
"","survey-text","1","16115","0.0-1.0","19002654","wem/bandit_party_1","A3749CB7HBP2WR","either","8","4199","{""Q0"":""A3749CB7HBP2WR""}","","","","","","","","","","","","","","","","","","","","","","","","","","","","","","","","","","","","","","",""
"","button-response","2","18800","0.0-2.0","19002654","wem/bandit_party_1","A3749CB7HBP2WR","either","8","1668","","1","","","","","","","","","","","","","","","","","","","","","","","","","","","","","","","","","","","","","",""
"","text-replacement","3","68523","0.0-3.0","19002654","wem/bandit_party_1","A3749CB7HBP2WR","either","8","48715","","","32","","","","","","","","","","","","","","","","","","","","","","","","","","","","","","","","","","","","",""
"","text-replacement","4","75408","0.0-4.0","19002654","wem/bandit_party_1","A3749CB7HBP2WR","either","8","6880","","","32","","","","","","","","","","","","","","","","","","","","","","","","","","","","","","","","","","","","",""
"","identification","5","82247","0.0-6.0-0.0","19002654","wem/bandit_party_1","A3749CB7HBP2WR","either","8","6782","","","","3","3","3","","","","","","","","","","","","","","","","","","","","","","","","pre","identification_pre","the Republican party","","","","","","","",""
"","identification","6","87228","0.0-6.0-1.0","19002654","wem/bandit_party_1","A3749CB7HBP2WR","either","8","3939","","","","6","6","6","","","","","","","","","","","","","","","","","","","","","","","","pre","identification_pre","the Democratic Party","","","","","","","",""
"","text-replacement","7","96212","0.0-7.0","19002654","wem/bandit_party_1","A3749CB7HBP2WR","either","8","7976","","","32","","","","","","","","","","","","","","","","","","","","","","","","","","","","","","","","","","","","",""
"","text-replacement","8","103743","0.0-8.0","19002654","wem/bandit_party_1","A3749CB7HBP2WR","either","8","7522","","","32","","","","","","","","","","","","","","","","","","","","","","","","","","","","","","","","","","","","",""
"","text-replacement","9","114085","0.0-9.0","19002654","wem/bandit_party_1","A3749CB7HBP2WR","either","8","10334","","","32","","","","","","","","","","","","","","","","","","","","","","","","","","","","","","","","","","","","",""
"","text-replacement","10","120155","0.0-10.0","19002654","wem/bandit_party_1","A3749CB7HBP2WR","either","8","6066","","","32","","","","","","","","","","","","","","","","","","","","","","","","","","","","","","","","","","","","",""
"","text-replacement","11","126221","0.0-11.0","19002654","wem/bandit_party_1","A3749CB7HBP2WR","either","8","6062","","","32","","","","","","","","","","","","","","","","","","","","","","","","","","","","","","","","","","","","",""
"","bandit","12","129400","0.0-12.0-0.0","19002654","wem/bandit_party_1","A3749CB7HBP2WR","either","8","1659","","","","","","","0","0","1","0","0","","","","","0","","","","0","","","","","","","","","","","","","74","J","0","img/none_selected_demo.jpg","true","0","",""
"","bandit","13","131102","0.0-13.0-0.0","19002654","wem/bandit_party_1","A3749CB7HBP2WR","either","8","186","","","","","","","0","0","1","0","0","","","","","0","","","","0","","","","","","","","","","","","","75","K","0","img/none_selected_demo.jpg","true","0","",""
"","text-replacement","14","135866","0.0-14.0","19002654","wem/bandit_party_1","A3749CB7HBP2WR","either","8","4759","","","32","","","","","","","","","","","","","","","","","","","","","","","","","","","","","","","","","","","","",""
"","text-replacement","15","141961","0.0-15.0","19002654","wem/bandit_party_1","A3749CB7HBP2WR","either","8","6091","","","32","","","","","","","","","","","","","","","","","","","","","","","","","","","","","","","","","","","","",""
"","text-replacement","16","147727","0.0-16.0","19002654","wem/bandit_party_1","A3749CB7HBP2WR","either","8","5761","","","32","","","","","","","","","","","","","","","","","","","","","","","","","","","","","","","","","","","","",""
"","text-replacement","17","149736","0.0-17.0","19002654","wem/bandit_party_1","A3749CB7HBP2WR","either","8","2006","","","32","","","","","","","","","","","","","","","","","","","","","","","","","","","","","","","","","","","","",""
"","bandit","18","151864","0.0-18.0-0.0","19002654","wem/bandit_party_1","A3749CB7HBP2WR","either","8","614","","","","","","","1","0","0","0.8","","0.5","0.5","","","","","","","0.8","0.2","","","","","","","","","","","","74","J","0","img/none_selected_demo.jpg","true","0","80_20_practice",""
"","bandit","19","153681","0.0-18.0-1.0","19002654","wem/bandit_party_1","A3749CB7HBP2WR","either","8","302","","","","","","","0","0","1","","0.2","0.5","0.5","","","0.8","0.2","","","","","","","","","","","","","","","","75","K","1","","true","0","80_20_practice",""
"","bandit","20","155450","0.0-18.0-2.0","19002654","wem/bandit_party_1","A3749CB7HBP2WR","either","8","253","","","","","","","1","0","0","0.8","","0.5","0.5","","","","","","","0.8","0.2","","","","","","","","","","","","74","J","0","img/none_selected_demo.jpg","true","0","80_20_practice",""
"","bandit","21","157246","0.0-18.0-3.0","19002654","wem/bandit_party_1","A3749CB7HBP2WR","either","8","279","","","","","","","1","0","0","0.8","","0.5","0.5","","","","","","","0.8","0.2","","","","","","","","","","","","74","J","0","img/none_selected_demo.jpg","true","0","80_20_practice",""
"","bandit","22","159023","0.0-18.0-4.0","19002654","wem/bandit_party_1","A3749CB7HBP2WR","either","8","263","","","","","","","0","1","0","","0.8","0.5","0.5","","","0.8","0.2","","","","","","","","","","","","","","","","74","J","0","img/none_selected_demo.jpg","true","0","80_20_practice",""
"","bandit","23","160704","0.0-18.0-5.0","19002654","wem/bandit_party_1","A3749CB7HBP2WR","either","8","165","","","","","","","1","0","0","0.8","","0.5","0.5","","","","","","","0.8","0.2","","","","","","","","","","","","74","J","0","img/none_selected_demo.jpg","true","0","80_20_practice",""
"","bandit","24","162505","0.0-18.0-6.0","19002654","wem/bandit_party_1","A3749CB7HBP2WR","either","8","285","","","","","","","0","0","1","","0.8","0.5","0.5","","","0.8","0.2","","","","","","","","","","","","","","","","74","J","0","img/none_selected_demo.jpg","true","0","80_20_practice",""
"","bandit","25","164512","0.0-18.0-7.0","19002654","wem/bandit_party_1","A3749CB7HBP2WR","either","8","492","","","","","","","0","0","1","","0.2","0.5","0.5","","","0.8","0.2","","","","","","","","","","","","","","","","75","K","1","","true","0","80_20_practice",""
"","bandit","26","166225","0.0-18.0-8.0","19002654","wem/bandit_party_1","A3749CB7HBP2WR","either","8","195","","","","","","","0","0","1","0.8","","0.5","0.5","","","","","","","0.8","0.2","","","","","","","","","","","","74","J","0","img/none_selected_demo.jpg","true","0","80_20_practice",""
"","bandit","27","167973","0.0-18.0-9.0","19002654","wem/bandit_party_1","A3749CB7HBP2WR","either","8","236","","","","","","","0","0","1","0.8","","0.5","0.5","","","","","","","0.8","0.2","","","","","","","","","","","","74","J","0","img/none_selected_demo.jpg","true","0","80_20_practice",""
"","bandit","28","169512","0.0-18.0-10.0","19002654","wem/bandit_party_1","A3749CB7HBP2WR","either","8","23","","","","","","","0","1","0","","0.2","0.5","0.5","","","0.8","0.2","","","","","","","","","","","","","","","","75","K","1","","true","0","80_20_practice",""
"","bandit","29","171201","0.0-18.0-11.0","19002654","wem/bandit_party_1","A3749CB7HBP2WR","either","8","169","","","","","","","0","0","1","","0.2","0.5","0.5","","","0.8","0.2","","","","","","","","","","","","","","","","75","K","1","","true","0","80_20_practice",""
"","bandit","30","172988","0.0-18.0-12.0","19002654","wem/bandit_party_1","A3749CB7HBP2WR","either","8","274","","","","","","","0","0","1","0.8","","0.5","0.5","","","","","","","0.8","0.2","","","","","","","","","","","","74","J","0","img/none_selected_demo.jpg","true","0","80_20_practice",""
"","bandit","31","174857","0.0-18.0-13.0","19002654","wem/bandit_party_1","A3749CB7HBP2WR","either","8","351","","","","","","","0","0","1","","0.8","0.5","0.5","","","0.8","0.2","","","","","","","","","","","","","","","","74","J","0","img/none_selected_demo.jpg","true","0","80_20_practice",""
"","bandit","32","176468","0.0-18.0-14.0","19002654","wem/bandit_party_1","A3749CB7HBP2WR","either","8","96","","","","","","","0","0","1","0.2","","0.5","0.5","","","","","","","0.8","0.2","","","","","","","","","","","","75","K","1","","true","0","80_20_practice",""
"","bandit","33","178248","0.0-18.0-15.0","19002654","wem/bandit_party_1","A3749CB7HBP2WR","either","8","265","","","","","","","1","0","0","0.8","","0.5","0.5","","","","","","","0.8","0.2","","","","","","","","","","","","74","J","0","img/none_selected_demo.jpg","true","0","80_20_practice",""
"","bandit","34","180072","0.0-18.0-16.0","19002654","wem/bandit_party_1","A3749CB7HBP2WR","either","8","308","","","","","","","1","0","0","0.8","","0.5","0.5","","","","","","","0.8","0.2","","","","","","","","","","","","74","J","0","img/none_selected_demo.jpg","true","0","80_20_practice",""
"","bandit","35","182286","0.0-18.0-17.0","19002654","wem/bandit_party_1","A3749CB7HBP2WR","either","8","699","","","","","","","1","0","0","0.8","","0.5","0.5","","","","","","","0.8","0.2","","","","","","","","","","","","74","J","0","img/none_selected_demo.jpg","true","0","80_20_practice",""
"","bandit","36","184221","0.0-18.0-18.0","19002654","wem/bandit_party_1","A3749CB7HBP2WR","either","8","420","","","","","","","1","0","0","0.8","","0.5","0.5","","","","","","","0.8","0.2","","","","","","","","","","","","74","J","0","img/none_selected_demo.jpg","true","0","80_20_practice",""
"","bandit","37","186001","0.0-18.0-19.0","19002654","wem/bandit_party_1","A3749CB7HBP2WR","either","8","266","","","","","","","0","0","1","","0.8","0.5","0.5","","","0.8","0.2","","","","","","","","","","","","","","","","74","J","0","img/none_selected_demo.jpg","true","0","80_20_practice",""
"","text-replacement","38","189003","0.0-19.0","19002654","wem/bandit_party_1","A3749CB7HBP2WR","either","8","2998","","","32","","","","","","","","","","","","","","","","","","","","","","","","","","","","","","","","","","","","",""
"","bandit","39","191177","0.0-20.0-0.0","19002654","wem/bandit_party_1","A3749CB7HBP2WR","either","8","661","","","","","","","1","0","0","1","0","","","","","0","1","","","1","0","","","","","","","","","","","","74","J","0","img/none_selected_demo.jpg","true","0","",""
"","text-replacement","40","195737","0.0-21.0","19002654","wem/bandit_party_1","A3749CB7HBP2WR","either","8","4554","","","32","","","","","","","","","","","","","","","","","","","","","","","","","","","","","","","","","","","","",""
"","text-replacement","41","200495","0.0-22.0","19002654","wem/bandit_party_1","A3749CB7HBP2WR","either","8","4752","","","32","","","","","","","","","","","","","","","","","","","","","","","","","","","","","","","","","","","","",""
"","text-replacement","42","202180","0.0-23.0","19002654","wem/bandit_party_1","A3749CB7HBP2WR","either","8","1678","","","32","","","","","","","","","","","","","","","","","","","","","","","","","","","","","","","","","","","","",""
"","text-replacement","43","205429","0.0-24.0","19002654","wem/bandit_party_1","A3749CB7HBP2WR","either","8","3242","","","32","","","","","","","","","","","","","","","","","","","","","","","","","","","","","","","","","","","","",""
"","text-replacement","44","207584","0.0-25.0","19002654","wem/bandit_party_1","A3749CB7HBP2WR","either","8","2152","","","32","","","","","","","","","","","","","","","","","","","","","","","","","","","","","","","","","","","","",""
"","text-replacement","45","208343","0.0-26.0","19002654","wem/bandit_party_1","A3749CB7HBP2WR","either","8","753","","","32","","","","","","","","","","","","","","","","","","","","","","","","","","","","","","","","","","","","",""
"","text-replacement","46","209764","0.0-27.0","19002654","wem/bandit_party_1","A3749CB7HBP2WR","either","8","1415","","","32","","","","","","","","","","","","","","","","","","","","","","","","","","","","","","","","","","","","",""
"","text-replacement","47","211725","0.0-28.0","19002654","wem/bandit_party_1","A3749CB7HBP2WR","either","8","1955","","","32","","","","","","","","","","","","","","","","","","","","","","","","","","","","","","","","","","","","",""
"","text-replacement","48","212817","0.0-29.0","19002654","wem/bandit_party_1","A3749CB7HBP2WR","either","8","1087","","","32","","","","","","","","","","","","","","","","","","","","","","","","","","","","","","","","","","","","",""
"","text-replacement","49","213678","0.0-30.0","19002654","wem/bandit_party_1","A3749CB7HBP2WR","either","8","852","","","32","","","","","","","","","","","","","","","","","","","","","","","","","","","","","","","","","","","","",""
"","text-replacement","50","214737","0.0-31.0","19002654","wem/bandit_party_1","A3749CB7HBP2WR","either","8","1052","","","32","","","","","","","","","","","","","","","","","","","","","","","","","","","","","","","","","","","","",""
"","bandit","51","217012","0.0-32.0-0.0","19002654","wem/bandit_party_1","A3749CB7HBP2WR","either","8","758","","","","","","","0","0","1","0.2","","0.5","0.5","0.5","0.5","","","","","0.8","0.2","0.6","0.2","","","","","","","","","","74","J","1","","true","0","full_practice",""
"","bandit","52","218833","0.0-32.0-1.0","19002654","wem/bandit_party_1","A3749CB7HBP2WR","either","8","304","","","","","","","0","0","1","0.8","","0.5","0.5","0.5","0.5","","","","","0.8","0.2","0.6","0.2","","","","","","","","","","72","H","0","img/none_selected.jpg","true","0","full_practice",""
"","bandit","53","221064","0.0-32.0-2.0","19002654","wem/bandit_party_1","A3749CB7HBP2WR","either","8","714","","","","","","","0","1","0","","0.6","0.5","0.5","0.5","0.5","0.8","0.2","0.6","0.2","","","","","","","","","","","","","","75","K","2","","true","0","full_practice",""
"","bandit","54","222872","0.0-32.0-3.0","19002654","wem/bandit_party_1","A3749CB7HBP2WR","either","8","289","","","","","","","0","0","1","0.2","","0.5","0.5","0.5","0.5","","","","","0.8","0.2","0.6","0.2","","","","","","","","","","76","L","3","","true","0","full_practice",""
"","bandit","55","224683","0.0-32.0-4.0","19002654","wem/bandit_party_1","A3749CB7HBP2WR","either","8","297","","","","","","","1","0","0","0.6","","0.5","0.5","0.5","0.5","","","","","0.8","0.2","0.6","0.2","","","","","","","","","","75","K","2","","true","0","full_practice",""
"","bandit","56","226494","0.0-32.0-5.0","19002654","wem/bandit_party_1","A3749CB7HBP2WR","either","8","295","","","","","","","1","0","0","0.6","","0.5","0.5","0.5","0.5","","","","","0.8","0.2","0.6","0.2","","","","","","","","","","75","K","2","","true","0","full_practice",""
"","bandit","57","228432","0.0-32.0-6.0","19002654","wem/bandit_party_1","A3749CB7HBP2WR","either","8","422","","","","","","","1","0","0","0.6","","0.5","0.5","0.5","0.5","","","","","0.8","0.2","0.6","0.2","","","","","","","","","","75","K","2","","true","0","full_practice",""
"","bandit","58","230146","0.0-32.0-7.0","19002654","wem/bandit_party_1","A3749CB7HBP2WR","either","8","199","","","","","","","0","0","1","0.6","","0.5","0.5","0.5","0.5","","","","","0.8","0.2","0.6","0.2","","","","","","","","","","75","K","2","","true","0","full_practice",""
"","bandit","59","232078","0.0-32.0-8.0","19002654","wem/bandit_party_1","A3749CB7HBP2WR","either","8","411","","","","","","","0","0","1","","0.2","0.5","0.5","0.5","0.5","0.8","0.2","0.6","0.2","","","","","","","","","","","","","","74","J","1","","true","0","full_practice",""
"","bandit","60","233625","0.0-32.0-9.0","19002654","wem/bandit_party_1","A3749CB7HBP2WR","either","8","27","","","","","","","1","0","0","0.8","","0.5","0.5","0.5","0.5","","","","","0.8","0.2","0.6","0.2","","","","","","","","","","72","H","0","img/none_selected.jpg","true","0","full_practice",""
"","bandit","61","235414","0.0-32.0-10.0","19002654","wem/bandit_party_1","A3749CB7HBP2WR","either","8","273","","","","","","","0","1","0","","0.8","0.5","0.5","0.5","0.5","0.8","0.2","0.6","0.2","","","","","","","","","","","","","","72","H","0","img/none_selected.jpg","true","0","full_practice",""
"","bandit","62","236992","0.0-32.0-11.0","19002654","wem/bandit_party_1","A3749CB7HBP2WR","either","8","63","","","","","","","0","1","0","","0.8","0.5","0.5","0.5","0.5","0.8","0.2","0.6","0.2","","","","","","","","","","","","","","72","H","0","img/none_selected.jpg","true","0","full_practice",""
"","bandit","63","239526","0.0-32.0-12.0","19002654","wem/bandit_party_1","A3749CB7HBP2WR","either","8","1014","","","","","","","0","1","0","","0.8","0.5","0.5","0.5","0.5","0.8","0.2","0.6","0.2","","","","","","","","","","","","","","72","H","0","img/none_selected.jpg","true","0","full_practice",""
"","bandit","64","242044","0.0-32.0-13.0","19002654","wem/bandit_party_1","A3749CB7HBP2WR","either","8","1000","","","","","","","0","1","0","","0.8","0.5","0.5","0.5","0.5","0.8","0.2","0.6","0.2","","","","","","","","","","","","","","72","H","0","img/none_selected.jpg","true","0","full_practice",""
"","bandit","65","243842","0.0-32.0-14.0","19002654","wem/bandit_party_1","A3749CB7HBP2WR","either","8","282","","","","","","","1","0","0","0.8","","0.5","0.5","0.5","0.5","","","","","0.8","0.2","0.6","0.2","","","","","","","","","","72","H","0","img/none_selected.jpg","true","0","full_practice",""
"","bandit","66","245542","0.0-32.0-15.0","19002654","wem/bandit_party_1","A3749CB7HBP2WR","either","8","182","","","","","","","0","0","1","","0.8","0.5","0.5","0.5","0.5","0.8","0.2","0.6","0.2","","","","","","","","","","","","","","72","H","0","img/none_selected.jpg","true","0","full_practice",""
"","bandit","67","247245","0.0-32.0-16.0","19002654","wem/bandit_party_1","A3749CB7HBP2WR","either","8","183","","","","","","","0","1","0","","0.8","0.5","0.5","0.5","0.5","0.8","0.2","0.6","0.2","","","","","","","","","","","","","","72","H","0","img/none_selected.jpg","true","0","full_practice",""
"","bandit","68","249136","0.0-32.0-17.0","19002654","wem/bandit_party_1","A3749CB7HBP2WR","either","8","375","","","","","","","0","1","0","","0.8","0.5","0.5","0.5","0.5","0.8","0.2","0.6","0.2","","","","","","","","","","","","","","72","H","0","img/none_selected.jpg","true","0","full_practice",""
"","bandit","69","251019","0.0-32.0-18.0","19002654","wem/bandit_party_1","A3749CB7HBP2WR","either","8","364","","","","","","","1","0","0","0.8","","0.5","0.5","0.5","0.5","","","","","0.8","0.2","0.6","0.2","","","","","","","","","","72","H","0","img/none_selected.jpg","true","0","full_practice",""
"","bandit","70","252868","0.0-32.0-19.0","19002654","wem/bandit_party_1","A3749CB7HBP2WR","either","8","331","","","","","","","0","0","1","","0.8","0.5","0.5","0.5","0.5","0.8","0.2","0.6","0.2","","","","","","","","","","","","","","72","H","0","img/none_selected.jpg","true","0","full_practice",""
"","text","71","257407","0.0-33.0","19002654","wem/bandit_party_1","A3749CB7HBP2WR","either","8","4501","","","32","","","","","","","","","","","","","","","","","","","","","","","","","","","","","","","","","","","","",""
"","text-replacement","72","267659","0.0-34.0","19002654","wem/bandit_party_1","A3749CB7HBP2WR","either","8","9242","","","32","","","","","","","","","","","","","","","","","","","","","","","","","","","","","","","","","","","","",""
"","text-replacement","73","282017","0.0-35.0","19002654","wem/bandit_party_1","A3749CB7HBP2WR","either","8","14348","","","32","","","","","","","","","","","","","","","","","","","","","","","","","","","","","","","","","","","","",""
"","text-replacement","74","288574","0.0-36.0","19002654","wem/bandit_party_1","A3749CB7HBP2WR","either","8","6549","","","32","","","","","","","","","","","","","","","","","","","","","","","","","","","","","","","","","","","","",""
"","text-replacement","75","296757","0.0-37.0","19002654","wem/bandit_party_1","A3749CB7HBP2WR","either","8","8175","","","32","","","","","","","","","","","","","","","","","","","","","","","","","","","","","","","","","","","","",""
"","text-replacement","76","298978","0.0-38.0","19002654","wem/bandit_party_1","A3749CB7HBP2WR","either","8","2213","","","32","","","","","","","","","","","","","","","","","","","","","","","","","","","","","","","","","","","","",""
"","survey-multi-choice-replacement","77","304754","0.0-39.0-0.0","19002654","wem/bandit_party_1","A3749CB7HBP2WR","either","8","5738","","","","","","","","","","","","","","","","","","","","","","","","Money will be added to the pool for <span style='color:blue;'>DEMOCRATS</span>","","","","","","","attn_check","","","","","","","","","0"
"","survey-multi-choice-replacement","78","310177","0.0-40.0-0.0","19002654","wem/bandit_party_1","A3749CB7HBP2WR","either","8","4394","","","","","","","","","","","","","","","","","","","","","","","","Equal amounts of money will be added to the pool for <span style='color:blue;'>DEMOCRATS</span> and subtracted from the pool for <span style='color:red;'>REPUBLICANS</span>","","","","","","","attn_check","","","","","","","","","2"
"","survey-multi-choice-replacement","79","313956","0.0-41.0-0.0","19002654","wem/bandit_party_1","A3749CB7HBP2WR","either","8","2749","","","","","","","","","","","","","","","","","","","","","","","","No money will be added to either pool","","","","","","","attn_check","","","","","","","","","3"
"","bandit","80","317424","0.0-42.0-0.0","19002654","wem/bandit_party_1","A3749CB7HBP2WR","either","8","936","","","","","","","0","0","1","0.3540548627","","0.8","0.4","0.6","0.2","","","","","0.3540548627","0.2637293772","0.2928194041","0.1351790469","","","","","","","","","","72","H","0","img/none_selected.jpg","","1","main_expt",""
"","bandit","81","318982","0.0-43.0-0.0","19002654","wem/bandit_party_1","A3749CB7HBP2WR","either","8","36","","","","","","","0","1","0","","0.2760013096","0.8","0.4","0.6","0.2","0.3812516843","0.2760013096","0.3040419902","0.125602744","","","","","","","","","","","","","","74","J","1","","","2","main_expt",""
"","bandit","82","320509","0.0-44.0-0.0","19002654","wem/bandit_party_1","A3749CB7HBP2WR","either","8","3","","","","","","","1","0","0","0.3240499928","","0.8","0.4","0.6","0.2","","","","","0.3901316494","0.3240499928","0.2875251023","0.09574082279","","","","","","","","","","74","J","1","","","3","main_expt",""
"","bandit","83","322432","0.0-45.0-0.0","19002654","wem/bandit_party_1","A3749CB7HBP2WR","either","8","400","","","","","","","0","0","1","","0.3510822359","0.8","0.4","0.6","0.2","0.3945399471","0.3510822359","0.2965567903","0.0913382225","","","","","","","","","","","","","","74","J","1","","","4","main_expt",""
"","bandit","84","324254","0.0-46.0-0.0","19002654","wem/bandit_party_1","A3749CB7HBP2WR","either","8","307","","","","","","","1","0","0","0.2681113314","","0.8","0.4","0.6","0.2","","","","","0.3997977613","0.3522827721","0.2681113314","0.106177601","","","","","","","","","","75","K","2","","","5","main_expt",""
"","bandit","85","326027","0.0-47.0-0.0","19002654","wem/bandit_party_1","A3749CB7HBP2WR","either","8","252","","","","","","","0","1","0","","0.382674005","0.8","0.4","0.6","0.2","0.390783501","0.382674005","0.2330443498","0.08998955495","","","","","","","","","","","","","","74","J","1","","","6","main_expt",""
"","bandit","86","327859","0.0-48.0-0.0","19002654","wem/bandit_party_1","A3749CB7HBP2WR","either","8","309","","","","","","","0","1","0","","0.3998463606","0.8","0.4","0.6","0.2","0.3305693427","0.3998463606","0.1630509172","0.1077526668","","","","","","","","","","","","","","74","J","1","","","7","main_expt",""
"","bandit","87","329862","0.0-49.0-0.0","19002654","wem/bandit_party_1","A3749CB7HBP2WR","either","8","483","","","","","","","0","0","1","0.3832029687","","0.8","0.4","0.6","0.2","","","","","0.3056545716","0.3832029687","0.2002468685","0.1243697388","","","","","","","","","","74","J","1","","","8","main_expt",""
"","bandit","88","331418","0.0-50.0-0.0","19002654","wem/bandit_party_1","A3749CB7HBP2WR","either","8","38","","","","","","","0","1","0","","0.3796681134","0.8","0.4","0.6","0.2","0.3278889804","0.3796681134","0.1835034381","0.1698108096","","","","","","","","","","","","","","74","J","1","","","9","main_expt",""
"","bandit","89","334447","0.0-51.0-0.0","19002654","wem/bandit_party_1","A3749CB7HBP2WR","either","8","1496","","","","","","","0","1","0","","0.3614311416","0.8","0.4","0.6","0.2","0.3137855556","0.3614311416","0.1939723001","0.221757114","","","","","","","","","","","","","","74","J","1","","","10","main_expt",""
"","bandit","90","336267","0.0-52.0-0.0","19002654","wem/bandit_party_1","A3749CB7HBP2WR","either","8","296","","","","","","","0","0","1","","0.3938737051","0.8","0.4","0.6","0.2","0.3253079181","0.3938737051","0.1949806013","0.1961062924","","","","","","","","","","","","","","74","J","1","","","11","main_expt",""
"","bandit","91","338082","0.0-53.0-0.0","19002654","wem/bandit_party_1","A3749CB7HBP2WR","either","8","292","","","","","","","1","0","0","0.2587943474","","0.8","0.4","0.6","0.2","","","","","0.3298150516","0.3810544723","0.2587943474","0.1907056259","","","","","","","","","","75","K","2","","","12","main_expt",""
"","bandit","92","339970","0.0-54.0-0.0","19002654","wem/bandit_party_1","A3749CB7HBP2WR","either","8","363","","","","","","","0","0","1","","0.3085985727","0.8","0.4","0.6","0.2","0.3673307406","0.3707046684","0.3085985727","0.2162865666","","","","","","","","","","","","","","75","K","2","","","13","main_expt",""
"","bandit","93","341534","0.0-55.0-0.0","19002654","wem/bandit_party_1","A3749CB7HBP2WR","either","8","43","","","","","","","0","0","1","0.3486531997","","0.8","0.4","0.6","0.2","","","","","0.3679224674","0.3486531997","0.2464992766","0.2399362825","","","","","","","","","","74","J","1","","","14","main_expt",""
"","bandit","94","343378","0.0-56.0-0.0","19002654","wem/bandit_party_1","A3749CB7HBP2WR","either","8","324","","","","","","","0","0","1","","0.1986859052","0.8","0.4","0.6","0.2","0.3062507314","0.3263578384","0.2474611475","0.1986859052","","","","","","","","","","","","","","76","L","3","","","15","main_expt",""
"","bandit","95","345194","0.0-57.0-0.0","19002654","wem/bandit_party_1","A3749CB7HBP2WR","either","8","295","","","","","","","0","0","1","","0.2892976033","0.8","0.4","0.6","0.2","0.2892976033","0.3514189979","0.2835538477","0.1865641621","","","","","","","","","","","","","","72","H","0","img/none_selected.jpg","","16","main_expt",""
"","bandit","96","346972","0.0-58.0-0.0","19002654","wem/bandit_party_1","A3749CB7HBP2WR","either","8","255","","","","","","","0","0","1","","0.2035525071","0.8","0.4","0.6","0.2","0.2861796528","0.3532592314","0.3256112075","0.2035525071","","","","","","","","","","","","","","76","L","3","","","17","main_expt",""
"","bandit","97","348813","0.0-59.0-0.0","19002654","wem/bandit_party_1","A3749CB7HBP2WR","either","8","320","","","","","","","1","0","0","0.3802227677","","0.8","0.4","0.6","0.2","","","","","0.2958570682","0.3858608091","0.3802227677","0.2039336531","","","","","","","","","","75","K","2","","","18","main_expt",""
"","bandit","98","350689","0.0-60.0-0.0","19002654","wem/bandit_party_1","A3749CB7HBP2WR","either","8","354","","","","","","","0","0","1","0.360566968","","0.8","0.4","0.6","0.2","","","","","0.3353028819","0.3837638756","0.360566968","0.1598579642","","","","","","","","","","75","K","2","","","19","main_expt",""
"","bandit","99","352505","0.0-61.0-0.0","19002654","wem/bandit_party_1","A3749CB7HBP2WR","either","8","293","","","","","","","0","0","1","","0.2872100501","0.8","0.4","0.6","0.2","0.3139704528","0.2872100501","0.3696799013","0.1437622327","","","","","","","","","","","","","","74","J","1","","","20","main_expt",""
"","bandit","100","354205","0.0-62.0-0.0","19002654","wem/bandit_party_1","A3749CB7HBP2WR","either","8","180","","","","","","","0","0","1","","0.2524707143","0.8","0.4","0.6","0.2","0.2524707143","0.2975414498","0.4006907501","0.07974703335","","","","","","","","","","","","","","72","H","0","img/none_selected.jpg","","21","main_expt",""
"","bandit","101","356043","0.0-63.0-0.0","19002654","wem/bandit_party_1","A3749CB7HBP2WR","either","8","321","","","","","","","0","0","1","0.4081217326","","0.8","0.4","0.6","0.2","","","","","0.248326021","0.2741965999","0.4081217326","0.1361132429","","","","","","","","","","75","K","2","","","22","main_expt",""
"","bandit","102","357718","0.0-64.0-0.0","19002654","wem/bandit_party_1","A3749CB7HBP2WR","either","8","156","","","","","","","0","0","1","","0.1705973249","0.8","0.4","0.6","0.2","0.2937153481","0.2379064449","0.3740207531","0.1705973249","","","","","","","","","","","","","","76","L","3","","","23","main_expt",""
"","bandit","103","359465","0.0-65.0-0.0","19002654","wem/bandit_party_1","A3749CB7HBP2WR","either","8","228","","","","","","","0","0","1","","0.1392759225","0.8","0.4","0.6","0.2","0.2625315469","0.2078598572","0.3913756451","0.1392759225","","","","","","","","","","","","","","76","L","3","","","24","main_expt",""
"","bandit","104","361212","0.0-66.0-0.0","19002654","wem/bandit_party_1","A3749CB7HBP2WR","either","8","227","","","","","","","0","0","1","0.2764850733","","0.8","0.4","0.6","0.2","","","","","0.2405651368","0.2764850733","0.4100905738","0.1800538527","","","","","","","","","","74","J","1","","","25","main_expt",""
"","bandit","105","362828","0.0-67.0-0.0","19002654","wem/bandit_party_1","A3749CB7HBP2WR","either","8","87","","","","","","","0","1","0","","0.3600668969","0.8","0.4","0.6","0.2","0.2503350336","0.3080191348","0.3600668969","0.2146400533","","","","","","","","","","","","","","75","K","2","","","26","main_expt",""
"","bandit","106","364450","0.0-68.0-0.0","19002654","wem/bandit_party_1","A3749CB7HBP2WR","either","8","99","","","","","","","1","0","0","0.3703096079","","0.8","0.4","0.6","0.2","","","","","0.354091838","0.3606197488","0.3703096079","0.1948367851","","","","","","","","","","75","K","2","","","27","main_expt",""
"","bandit","107","366413","0.0-69.0-0.0","19002654","wem/bandit_party_1","A3749CB7HBP2WR","either","8","443","","","","","","","0","0","1","0.3527269899","","0.8","0.4","0.6","0.2","","","","","0.3419366675","0.3696097963","0.3527269899","0.2282666016","","","","","","","","","","75","K","2","","","28","main_expt",""
"","bandit","108","368045","0.0-70.0-0.0","19002654","wem/bandit_party_1","A3749CB7HBP2WR","either","8","110","","","","","","","0","0","1","0.361896517","","0.8","0.4","0.6","0.2","","","","","0.361896517","0.3434444954","0.2854860911","0.1842618798","","","","","","","","","","72","H","0","img/none_selected.jpg","","29","main_expt",""
"","bandit","109","369729","0.0-71.0-0.0","19002654","wem/bandit_party_1","A3749CB7HBP2WR","either","8","167","","","","","","","1","0","0","0.3528183973","","0.8","0.4","0.6","0.2","","","","","0.3701160785","0.3528183973","0.2971434158","0.1930267653","","","","","","","","","","74","J","1","","","30","main_expt",""
"","bandit","110","371488","0.0-72.0-0.0","19002654","wem/bandit_party_1","A3749CB7HBP2WR","either","8","234","","","","","","","1","0","0","0.3436926249","","0.8","0.4","0.6","0.2","","","","","0.3602312343","0.3436926249","0.3192935598","0.2279264959","","","","","","","","","","74","J","1","","","31","main_expt",""
"","bandit","111","373628","0.0-73.0-0.0","19002654","wem/bandit_party_1","A3749CB7HBP2WR","either","8","618","","","","","","","0","0","1","","0.3392376576","0.8","0.4","0.6","0.2","0.3550043818","0.3392376576","0.2910845839","0.1922668126","","","","","","","","","","","","","","74","J","1","","","32","main_expt",""
"","bandit","112","375389","0.0-74.0-0.0","19002654","wem/bandit_party_1","A3749CB7HBP2WR","either","8","239","","","","","","","0","1","0","","0.2956883229","0.8","0.4","0.6","0.2","0.3927862597","0.2524106513","0.2956883229","0.1503247695","","","","","","","","","","","","","","75","K","2","","","33","main_expt",""
"","bandit","113","377222","0.0-75.0-0.0","19002654","wem/bandit_party_1","A3749CB7HBP2WR","either","8","304","","","","","","","1","0","0","0.2918182698","","0.8","0.4","0.6","0.2","","","","","0.4185963197","0.2378308988","0.2918182698","0.1875072744","","","","","","","","","","75","K","2","","","34","main_expt",""
"","bandit","114","378916","0.0-76.0-0.0","19002654","wem/bandit_party_1","A3749CB7HBP2WR","either","8","161","","","","","","","0","0","1","","0.3063909307","0.8","0.4","0.6","0.2","0.441983755","0.2683654211","0.3063909307","0.2135507624","","","","","","","","","","","","","","75","K","2","","","35","main_expt",""
"","bandit","115","380538","0.0-77.0-0.0","19002654","wem/bandit_party_1","A3749CB7HBP2WR","either","8","99","","","","","","","0","0","1","","0.2042402853","0.8","0.4","0.6","0.2","0.4352827683","0.2645223933","0.2820805085","0.2042402853","","","","","","","","","","","","","","76","L","3","","","36","main_expt",""
"","bandit","116","382403","0.0-78.0-0.0","19002654","wem/bandit_party_1","A3749CB7HBP2WR","either","8","344","","","","","","","1","0","0","0.450520142","","0.8","0.4","0.6","0.2","","","","","0.450520142","0.2360561858","0.2610370824","0.2024605481","","","","","","","","","","72","H","0","img/none_selected.jpg","","37","main_expt",""
"","bandit","117","384250","0.0-79.0-0.0","19002654","wem/bandit_party_1","A3749CB7HBP2WR","either","8","324","","","","","","","0","0","1","0.4681224698","","0.8","0.4","0.6","0.2","","","","","0.4681224698","0.2001865083","0.1896233007","0.1677713785","","","","","","","","","","72","H","0","img/none_selected.jpg","","38","main_expt",""
"","bandit","118","386256","0.0-80.0-0.0","19002654","wem/bandit_party_1","A3749CB7HBP2WR","either","8","483","","","","","","","0","1","0","","0.4711022053","0.8","0.4","0.6","0.2","0.4711022053","0.1687915361","0.168851025","0.221779122","","","","","","","","","","","","","","72","H","0","img/none_selected.jpg","","39","main_expt",""
"","bandit","119","388230","0.0-81.0-0.0","19002654","wem/bandit_party_1","A3749CB7HBP2WR","either","8","451","","","","","","","1","0","0","0.4559447699","","0.8","0.4","0.6","0.2","","","","","0.4559447699","0.1503151413","0.1615787635","0.2722397218","","","","","","","","","","72","H","0","img/none_selected.jpg","","40","main_expt",""
"","bandit","120","390053","0.0-82.0-0.0","19002654","wem/bandit_party_1","A3749CB7HBP2WR","either","8","303","","","","","","","0","1","0","","0.4412687596","0.8","0.4","0.6","0.2","0.4412687596","0.08168262283","0.1472326003","0.3298230943","","","","","","","","","","","","","","72","H","0","img/none_selected.jpg","","41","main_expt",""
"","bandit","121","391973","0.0-83.0-0.0","19002654","wem/bandit_party_1","A3749CB7HBP2WR","either","8","397","","","","","","","0","1","0","","0.4457751761","0.8","0.4","0.6","0.2","0.4457751761","0.07668629145","0.1533480506","0.3104885444","","","","","","","","","","","","","","72","H","0","img/none_selected.jpg","","42","main_expt",""
"","bandit","122","394168","0.0-84.0-0.0","19002654","wem/bandit_party_1","A3749CB7HBP2WR","either","8","671","","","","","","","0","1","0","","0.4298378352","0.8","0.4","0.6","0.2","0.4298378352","0.07394587158","0.1414351437","0.3005355489","","","","","","","","","","","","","","72","H","0","img/none_selected.jpg","","43","main_expt",""
"","bandit","123","396326","0.0-85.0-0.0","19002654","wem/bandit_party_1","A3749CB7HBP2WR","either","8","636","","","","","","","0","0","1","0.4416915379","","0.8","0.4","0.6","0.2","","","","","0.4416915379","0.1192337685","0.1067646429","0.2456242138","","","","","","","","","","72","H","0","img/none_selected.jpg","","44","main_expt",""
"","bandit","124","398466","0.0-86.0-0.0","19002654","wem/bandit_party_1","A3749CB7HBP2WR","either","8","615","","","","","","","0","0","1","","0.1250796286","0.8","0.4","0.6","0.2","0.3915522423","0.1285724119","0.1250796286","0.2839901561","","","","","","","","","","","","","","75","K","2","","","45","main_expt",""
"","bandit","125","400527","0.0-87.0-0.0","19002654","wem/bandit_party_1","A3749CB7HBP2WR","either","8","533","","","","","","","0","0","1","0.1112684106","","0.8","0.4","0.6","0.2","","","","","0.4318427431","0.1112684106","0.1927264636","0.2353621531","","","","","","","","","","74","J","1","","","46","main_expt",""
"","bandit","126","402367","0.0-88.0-0.0","19002654","wem/bandit_party_1","A3749CB7HBP2WR","either","8","320","","","","","","","1","0","0","0.4395998441","","0.8","0.4","0.6","0.2","","","","","0.4395998441","0.1207340475","0.1804488412","0.2405257196","","","","","","","","","","72","H","0","img/none_selected.jpg","","47","main_expt",""
"","bandit","127","404352","0.0-89.0-0.0","19002654","wem/bandit_party_1","A3749CB7HBP2WR","either","8","461","","","","","","","1","0","0","0.4630443269","","0.8","0.4","0.6","0.2","","","","","0.4630443269","0.1182533935","0.168268176","0.2629408555","","","","","","","","","","72","H","0","img/none_selected.jpg","","48","main_expt",""
"","bandit","128","406481","0.0-90.0-0.0","19002654","wem/bandit_party_1","A3749CB7HBP2WR","either","8","608","","","","","","","1","0","0","0.4794982466","","0.8","0.4","0.6","0.2","","","","","0.4794982466","0.1460801474","0.1466838001","0.2902453213","","","","","","","","","","72","H","0","img/none_selected.jpg","","49","main_expt",""
"","bandit","129","408556","0.0-91.0-0.0","19002654","wem/bandit_party_1","A3749CB7HBP2WR","either","8","553","","","","","","","1","0","0","0.4562783041","","0.8","0.4","0.6","0.2","","","","","0.4562783041","0.1765155983","0.1336340117","0.3033715012","","","","","","","","","","72","H","0","img/none_selected.jpg","","50","main_expt",""
"","bandit","130","411160","0.0-92.0-0.0","19002654","wem/bandit_party_1","A3749CB7HBP2WR","either","8","1081","","","","","","","0","0","1","0.4515646323","","0.8","0.4","0.6","0.2","","","","","0.4515646323","0.1614266163","0.1067821754","0.3536831403","","","","","","","","","","72","H","0","img/none_selected.jpg","","51","main_expt",""
"","bandit","131","413050","0.0-93.0-0.0","19002654","wem/bandit_party_1","A3749CB7HBP2WR","either","8","368","","","","","","","0","1","0","","0.1938643747","0.8","0.4","0.6","0.2","0.4344137529","0.1938643747","0.07294577227","0.3058792917","","","","","","","","","","","","","","74","J","1","","","52","main_expt",""
"","bandit","132","415146","0.0-94.0-0.0","19002654","wem/bandit_party_1","A3749CB7HBP2WR","either","8","574","","","","","","","0","0","1","0.07676454597","","0.8","0.4","0.6","0.2","","","","","0.4421766306","0.1721886996","0.07676454597","0.3466820038","","","","","","","","","","75","K","2","","","53","main_expt",""
"","bandit","133","416779","0.0-95.0-0.0","19002654","wem/bandit_party_1","A3749CB7HBP2WR","either","8","106","","","","","","","0","1","0","","0.1542880765","0.8","0.4","0.6","0.2","0.4591875032","0.1542880765","0.07707135067","0.3159173384","","","","","","","","","","","","","","74","J","1","","","54","main_expt",""
"","bandit","134","418600","0.0-96.0-0.0","19002654","wem/bandit_party_1","A3749CB7HBP2WR","either","8","300","","","","","","","0","0","1","0.2155598061","","0.8","0.4","0.6","0.2","","","","","0.4455250987","0.2155598061","0.08227932488","0.3205246683","","","","","","","","","","74","J","1","","","55","main_expt",""
"","bandit","135","420283","0.0-97.0-0.0","19002654","wem/bandit_party_1","A3749CB7HBP2WR","either","8","158","","","","","","","0","0","1","0.199350645","","0.8","0.4","0.6","0.2","","","","","0.4200701886","0.199350645","0.09013031375","0.3067659888","","","","","","","","","","74","J","1","","","56","main_expt",""
"","bandit","136","422145","0.0-98.0-0.0","19002654","wem/bandit_party_1","A3749CB7HBP2WR","either","8","342","","","","","","","0","0","1","","0.106866739","0.8","0.4","0.6","0.2","0.3635567377","0.1991981904","0.106866739","0.3786279545","","","","","","","","","","","","","","75","K","2","","","57","main_expt",""
"","bandit","137","424081","0.0-99.0-0.0","19002654","wem/bandit_party_1","A3749CB7HBP2WR","either","8","411","","","","","","","0","0","1","0.3796022377","","0.8","0.4","0.6","0.2","","","","","0.3647217687","0.1307276253","0.0915584437","0.3796022377","","","","","","","","","","76","L","3","","","58","main_expt",""
"","bandit","138","425895","0.0-100.0-0.0","19002654","wem/bandit_party_1","A3749CB7HBP2WR","either","8","296","","","","","","","0","0","1","0.3975499765","","0.8","0.4","0.6","0.2","","","","","0.3975499765","0.1540949786","0.1036540812","0.3570845549","","","","","","","","","","72","H","0","img/none_selected.jpg","","59","main_expt",""
"","bandit","139","428844","0.0-101.0-0.0","19002654","wem/bandit_party_1","A3749CB7HBP2WR","either","8","1422","","","","","","","0","0","1","","0.1187181044","0.8","0.4","0.6","0.2","0.376383165","0.1187181044","0.07948280662","0.398525789","","","","","","","","","","","","","","74","J","1","","","60","main_expt",""
"","bandit","140","430728","0.0-102.0-0.0","19002654","wem/bandit_party_1","A3749CB7HBP2WR","either","8","365","","","","","","","0","0","1","0.3384437455","","0.8","0.4","0.6","0.2","","","","","0.3384437455","0.1734870435","0.0685056185","0.380986593","","","","","","","","","","72","H","0","img/none_selected.jpg","","61","main_expt",""
"","bandit","141","432254","0.0-103.0-0.0","19002654","wem/bandit_party_1","A3749CB7HBP2WR","either","8","12","","","","","","","0","0","1","0.04196312691","","0.8","0.4","0.6","0.2","","","","","0.3086389155","0.2056999461","0.04196312691","0.3928002855","","","","","","","","","","75","K","2","","","62","main_expt",""
"","bandit","142","433851","0.0-104.0-0.0","19002654","wem/bandit_party_1","A3749CB7HBP2WR","either","8","73","","","","","","","0","0","1","","0.4097838671","0.8","0.4","0.6","0.2","0.3098998428","0.2421495796","0.06524357318","0.4097838671","","","","","","","","","","","","","","76","L","3","","","63","main_expt",""
"","bandit","143","435651","0.0-105.0-0.0","19002654","wem/bandit_party_1","A3749CB7HBP2WR","either","8","274","","","","","","","0","0","1","0.2859800092","","0.8","0.4","0.6","0.2","","","","","0.2859800092","0.2678986655","0.04599317762","0.3942475769","","","","","","","","","","72","H","0","img/none_selected.jpg","","64","main_expt",""
"","bandit","144","437280","0.0-106.0-0.0","19002654","wem/bandit_party_1","A3749CB7HBP2WR","either","8","100","","","","","","","0","0","1","","0.2780805564","0.8","0.4","0.6","0.2","0.2780623804","0.2780805564","0.04738713632","0.3756823908","","","","","","","","","","","","","","74","J","1","","","65","main_expt",""
"","bandit","145","439718","0.0-107.0-0.0","19002654","wem/bandit_party_1","A3749CB7HBP2WR","either","8","922","","","","","","","0","0","1","0.02873144913","","0.8","0.4","0.6","0.2","","","","","0.2740889186","0.2923516192","0.02873144913","0.3780323226","","","","","","","","","","75","K","2","","","66","main_expt",""
"","bandit","146","441724","0.0-108.0-0.0","19002654","wem/bandit_party_1","A3749CB7HBP2WR","either","8","482","","","","","","","0","0","1","0.382091886","","0.8","0.4","0.6","0.2","","","","","0.3122756929","0.3481747094","0.0355516853","0.382091886","","","","","","","","","","76","L","3","","","67","main_expt",""
"","bandit","147","443281","0.0-109.0-0.0","19002654","wem/bandit_party_1","A3749CB7HBP2WR","either","8","31","","","","","","","0","0","1","0.3540590834","","0.8","0.4","0.6","0.2","","","","","0.3004294993","0.3540590834","0.04483006882","0.4080562953","","","","","","","","","","74","J","1","","","68","main_expt",""
"","bandit","148","445084","0.0-110.0-0.0","19002654","wem/bandit_party_1","A3749CB7HBP2WR","either","8","282","","","","","","","1","0","0","0.3312842332","","0.8","0.4","0.6","0.2","","","","","0.3312842332","0.3348318208","0.04300650393","0.419826639","","","","","","","","","","72","H","0","img/none_selected.jpg","","69","main_expt",""
"","bandit","149","446654","0.0-111.0-0.0","19002654","wem/bandit_party_1","A3749CB7HBP2WR","either","8","41","","","","","","","1","0","0","0.2362018798","","0.8","0.4","0.6","0.2","","","","","0.2362018798","0.3844983113","0.03960880855","0.3889643965","","","","","","","","","","72","H","0","img/none_selected.jpg","","70","main_expt",""
"","bandit","150","448675","0.0-112.0-0.0","19002654","wem/bandit_party_1","A3749CB7HBP2WR","either","8","493","","","","","","","0","0","1","0.1838323472","","0.8","0.4","0.6","0.2","","","","","0.1838323472","0.3753843975","0.02401392238","0.3492343966","","","","","","","","","","72","H","0","img/none_selected.jpg","","71","main_expt",""
"","bandit","151","450779","0.0-113.0-0.0","19002654","wem/bandit_party_1","A3749CB7HBP2WR","either","8","573","","","","","","","0","0","1","0.1749810972","","0.8","0.4","0.6","0.2","","","","","0.1749810972","0.3861429343","0.008756159955","0.3502155883","","","","","","","","","","72","H","0","img/none_selected.jpg","","72","main_expt",""
"","bandit","152","453102","0.0-114.0-0.0","19002654","wem/bandit_party_1","A3749CB7HBP2WR","either","8","797","","","","","","","0","0","1","","0.1664097112","0.8","0.4","0.6","0.2","0.1664097112","0.3978436086","0.006257651783","0.3568691787","","","","","","","","","","","","","","72","H","0","img/none_selected.jpg","","73","main_expt",""
"","bandit","153","455709","0.0-115.0-0.0","19002654","wem/bandit_party_1","A3749CB7HBP2WR","either","8","1082","","","","","","","0","0","1","","0.2001176207","0.8","0.4","0.6","0.2","0.2001176207","0.3847979518","0.004732084297","0.3303653739","","","","","","","","","","","","","","72","H","0","img/none_selected.jpg","","74","main_expt",""
"","bandit","154","457424","0.0-116.0-0.0","19002654","wem/bandit_party_1","A3749CB7HBP2WR","either","8","190","","","","","","","0","0","1","","0.006967558871","0.8","0.4","0.6","0.2","0.1848717924","0.3974319157","0.006967558871","0.3353283381","","","","","","","","","","","","","","75","K","2","","","75","main_expt",""
"","bandit","155","459210","0.0-117.0-0.0","19002654","wem/bandit_party_1","A3749CB7HBP2WR","either","8","259","","","","","","","0","0","1","","0.3987985884","0.8","0.4","0.6","0.2","0.1510178238","0.3987985884","0.004525860487","0.3009524994","","","","","","","","","","","","","","74","J","1","","","76","main_expt",""
"","bandit","156","460805","0.0-118.0-0.0","19002654","wem/bandit_party_1","A3749CB7HBP2WR","either","8","70","","","","","","","0","0","1","","0.3316028908","0.8","0.4","0.6","0.2","0.2089633591","0.4127312768","0.007245535115","0.3316028908","","","","","","","","","","","","","","76","L","3","","","77","main_expt",""
"","bandit","157","462453","0.0-119.0-0.0","19002654","wem/bandit_party_1","A3749CB7HBP2WR","either","8","125","","","","","","","0","1","0","","0.4257675477","0.8","0.4","0.6","0.2","0.2285147345","0.4257675477","0.00483057751","0.3571024926","","","","","","","","","","","","","","74","J","1","","","78","main_expt",""
"","bandit","158","464206","0.0-120.0-0.0","19002654","wem/bandit_party_1","A3749CB7HBP2WR","either","8","232","","","","","","","0","0","1","0.4331167668","","0.8","0.4","0.6","0.2","","","","","0.2246975601","0.4331167668","0.005956317848","0.3542776451","","","","","","","","","","74","J","1","","","79","main_expt",""
"","bandit","159","466228","0.0-121.0-0.0","19002654","wem/bandit_party_1","A3749CB7HBP2WR","either","8","497","","","","","","","1","0","0","0.4294395537","","0.8","0.4","0.6","0.2","","","","","0.1878766281","0.4294395537","0.0076590047","0.3201174307","","","","","","","","","","74","J","1","","","80","main_expt",""
"","bandit","160","468755","0.0-122.0-0.0","19002654","wem/bandit_party_1","A3749CB7HBP2WR","either","8","1002","","","","","","","0","0","1","","0.4234249918","0.8","0.4","0.6","0.2","0.2436254364","0.4234249918","0.009115568074","0.3503003334","","","","","","","","","","","","","","74","J","1","","","81","main_expt",""
"","bandit","161","471189","0.0-123.0-0.0","19002654","wem/bandit_party_1","A3749CB7HBP2WR","either","8","908","","","","","","","1","0","0","0.2627531714","","0.8","0.4","0.6","0.2","","","","","0.2627531714","0.3956977209","0.01382977225","0.3509066846","","","","","","","","","","72","H","0","img/none_selected.jpg","","82","main_expt",""
"","bandit","162","473066","0.0-124.0-0.0","19002654","wem/bandit_party_1","A3749CB7HBP2WR","either","8","348","","","","","","","0","0","1","0.2672212524","","0.8","0.4","0.6","0.2","","","","","0.2672212524","0.4248650233","0.01500629599","0.3951868033","","","","","","","","","","72","H","0","img/none_selected.jpg","","83","main_expt",""
"","bandit","163","474863","0.0-125.0-0.0","19002654","wem/bandit_party_1","A3749CB7HBP2WR","either","8","271","","","","","","","0","0","1","0.02310127573","","0.8","0.4","0.6","0.2","","","","","0.2817484998","0.4196907627","0.02310127573","0.4131477378","","","","","","","","","","75","K","2","","","84","main_expt",""
"","bandit","164","476542","0.0-126.0-0.0","19002654","wem/bandit_party_1","A3749CB7HBP2WR","either","8","152","","","","","","","0","1","0","","0.435633498","0.8","0.4","0.6","0.2","0.3074775227","0.435633498","0.02639065846","0.3889697292","","","","","","","","","","","","","","74","J","1","","","85","main_expt",""
"","bandit","165","478364","0.0-127.0-0.0","19002654","wem/bandit_party_1","A3749CB7HBP2WR","either","8","299","","","","","","","0","0","1","0.4322222521","","0.8","0.4","0.6","0.2","","","","","0.2717847629","0.4322222521","0.01746441632","0.3885636443","","","","","","","","","","74","J","1","","","86","main_expt",""
"","bandit","166","480179","0.0-128.0-0.0","19002654","wem/bandit_party_1","A3749CB7HBP2WR","either","8","292","","","","","","","0","0","1","","0.4476119451","0.8","0.4","0.6","0.2","0.2183858348","0.4476119451","0.01256144444","0.4028282504","","","","","","","","","","","","","","74","J","1","","","87","main_expt",""
"","bandit","167","481862","0.0-129.0-0.0","19002654","wem/bandit_party_1","A3749CB7HBP2WR","either","8","154","","","","","","","0","1","0","","0.4306890759","0.8","0.4","0.6","0.2","0.2054961256","0.4073123198","0.01178158386","0.4306890759","","","","","","","","","","","","","","76","L","3","","","88","main_expt",""
"","bandit","168","483390","0.0-130.0-0.0","19002654","wem/bandit_party_1","A3749CB7HBP2WR","either","8","2","","","","","","","1","0","0","0.4103738654","","0.8","0.4","0.6","0.2","","","","","0.1452714398","0.3862301724","0.008722555822","0.4103738654","","","","","","","","","","76","L","3","","","89","main_expt",""
"","bandit","169","485232","0.0-131.0-0.0","19002654","wem/bandit_party_1","A3749CB7HBP2WR","either","8","316","","","","","","","0","0","1","","0.3980827974","0.8","0.4","0.6","0.2","0.1077779513","0.3596745144","0.008232471735","0.3980827974","","","","","","","","","","","","","","76","L","3","","","90","main_expt",""
"","bandit","170","487241","0.0-132.0-0.0","19002654","wem/bandit_party_1","A3749CB7HBP2WR","either","8","485","","","","","","","0","0","1","0.01249180717","","0.8","0.4","0.6","0.2","","","","","0.1308407065","0.3082854458","0.01249180717","0.4040531024","","","","","","","","","","75","K","2","","","91","main_expt",""
"","bandit","171","488768","0.0-133.0-0.0","19002654","wem/bandit_party_1","A3749CB7HBP2WR","either","8","2","","","","","","","0","0","1","","0.3462944796","0.8","0.4","0.6","0.2","0.1652322036","0.312225492","0.01470986316","0.3462944796","","","","","","","","","","","","","","76","L","3","","","92","main_expt",""
"","bandit","172","490305","0.0-134.0-0.0","19002654","wem/bandit_party_1","A3749CB7HBP2WR","either","8","13","","","","","","","0","0","1","0.1344678182","","0.8","0.4","0.6","0.2","","","","","0.1344678182","0.3671658277","0.02655281846","0.3411451966","","","","","","","","","","72","H","0","img/none_selected.jpg","","93","main_expt",""
"","bandit","173","492055","0.0-135.0-0.0","19002654","wem/bandit_party_1","A3749CB7HBP2WR","either","8","216","","","","","","","0","1","0","","0.3401731108","0.8","0.4","0.6","0.2","0.1301314301","0.3401731108","0.02575246025","0.3384154489","","","","","","","","","","","","","","74","J","1","","","94","main_expt",""
"","bandit","174","495204","0.0-136.0-0.0","19002654","wem/bandit_party_1","A3749CB7HBP2WR","either","8","1626","","","","","","","0","0","1","","0.3413923724","0.8","0.4","0.6","0.2","0.1746055711","0.3413923724","0.02262355665","0.3126988266","","","","","","","","","","","","","","74","J","1","","","95","main_expt",""
"","bandit","175","497265","0.0-137.0-0.0","19002654","wem/bandit_party_1","A3749CB7HBP2WR","either","8","536","","","","","","","0","0","1","0.3570420485","","0.8","0.4","0.6","0.2","","","","","0.1994244555","0.3570420485","0.02047181149","0.3800019137","","","","","","","","","","74","J","1","","","96","main_expt",""
"","bandit","176","499503","0.0-138.0-0.0","19002654","wem/bandit_party_1","A3749CB7HBP2WR","either","8","710","","","","","","","0","0","1","0.3435474977","","0.8","0.4","0.6","0.2","","","","","0.1834602947","0.3435474977","0.0207754381","0.3328121005","","","","","","","","","","74","J","1","","","97","main_expt",""
"","bandit","177","501088","0.0-139.0-0.0","19002654","wem/bandit_party_1","A3749CB7HBP2WR","either","8","59","","","","","","","1","0","0","0.1719221531","","0.8","0.4","0.6","0.2","","","","","0.1719221531","0.3614714926","0.02955834597","0.332228596","","","","","","","","","","72","H","0","img/none_selected.jpg","","98","main_expt",""
"","bandit","178","503705","0.0-140.0-0.0","19002654","wem/bandit_party_1","A3749CB7HBP2WR","either","8","1085","","","","","","","0","0","1","0.1183399241","","0.8","0.4","0.6","0.2","","","","","0.1183399241","0.3176405447","0.0383131093","0.2843854285","","","","","","","","","","72","H","0","img/none_selected.jpg","","99","main_expt",""
"","bandit","179","505881","0.0-141.0-0.0","19002654","wem/bandit_party_1","A3749CB7HBP2WR","either","8","649","","","","","","","0","0","1","0.1558635017","","0.8","0.4","0.6","0.2","","","","","0.1558635017","0.3586553183","0.03580757471","0.309751149","","","","","","","","","","72","H","0","img/none_selected.jpg","","100","main_expt",""
"","bandit","180","507563","0.0-142.0-0.0","19002654","wem/bandit_party_1","A3749CB7HBP2WR","either","8","160","","","","","","","0","0","1","","0.04899620691","0.8","0.4","0.6","0.2","0.1389665978","0.2951503345","0.04899620691","0.2993195944","","","","","","","","","","","","","","75","K","2","","","101","main_expt",""
"","bandit","181","509273","0.0-143.0-0.0","19002654","wem/bandit_party_1","A3749CB7HBP2WR","either","8","184","","","","","","","0","1","0","","0.3551890872","0.8","0.4","0.6","0.2","0.1377203561","0.2998391809","0.08055650644","0.3551890872","","","","","","","","","","","","","","76","L","3","","","102","main_expt",""
"","bandit","182","511166","0.0-144.0-0.0","19002654","wem/bandit_party_1","A3749CB7HBP2WR","either","8","365","","","","","","","0","0","1","","0.3148404956","0.8","0.4","0.6","0.2","0.1285548106","0.2791823827","0.1040447627","0.3148404956","","","","","","","","","","","","","","76","L","3","","","103","main_expt",""
"","bandit","183","514470","0.0-145.0-0.0","19002654","wem/bandit_party_1","A3749CB7HBP2WR","either","8","1780","","","","","","","0","0","1","","0.3286912191","0.8","0.4","0.6","0.2","0.1555523735","0.3382769334","0.1143547335","0.3286912191","","","","","","","","","","","","","","76","L","3","","","104","main_expt",""
"","bandit","184","516319","0.0-146.0-0.0","19002654","wem/bandit_party_1","A3749CB7HBP2WR","either","8","322","","","","","","","0","0","1","0.1487676438","","0.8","0.4","0.6","0.2","","","","","0.1775592141","0.3339697125","0.1487676438","0.298340497","","","","","","","","","","75","K","2","","","105","main_expt",""
"","bandit","185","519390","0.0-147.0-0.0","19002654","wem/bandit_party_1","A3749CB7HBP2WR","either","8","1542","","","","","","","0","0","1","0.2263451353","","0.8","0.4","0.6","0.2","","","","","0.2263451353","0.3124129253","0.152088545","0.3504464386","","","","","","","","","","72","H","0","img/none_selected.jpg","","106","main_expt",""
"","bandit","186","522604","0.0-148.0-0.0","19002654","wem/bandit_party_1","A3749CB7HBP2WR","either","8","1688","","","","","","","0","0","1","","0.3400683723","0.8","0.4","0.6","0.2","0.1679769802","0.3400683723","0.2406734145","0.3510410077","","","","","","","","","","","","","","74","J","1","","","107","main_expt",""
"","bandit","187","524227","0.0-149.0-0.0","19002654","wem/bandit_party_1","A3749CB7HBP2WR","either","8","101","","","","","","","1","0","0","0.3048040024","","0.8","0.4","0.6","0.2","","","","","0.1999870147","0.3557340834","0.3048040024","0.3282766846","","","","","","","","","","75","K","2","","","108","main_expt",""
"","bandit","188","526134","0.0-150.0-0.0","19002654","wem/bandit_party_1","A3749CB7HBP2WR","either","8","380","","","","","","","0","1","0","","0.3418503096","0.8","0.4","0.6","0.2","0.208992856","0.3846418901","0.3418503096","0.3561186451","","","","","","","","","","","","","","75","K","2","","","109","main_expt",""
"","bandit","189","528081","0.0-151.0-0.0","19002654","wem/bandit_party_1","A3749CB7HBP2WR","either","8","425","","","","","","","0","0","1","","0.3198501315","0.8","0.4","0.6","0.2","0.1716040471","0.4057962062","0.3198501315","0.3576445865","","","","","","","","","","","","","","75","K","2","","","110","main_expt",""
"","bandit","190","530119","0.0-152.0-0.0","19002654","wem/bandit_party_1","A3749CB7HBP2WR","either","8","509","","","","","","","0","0","1","","0.3377543854","0.8","0.4","0.6","0.2","0.08984071331","0.3692451483","0.3681534847","0.3377543854","","","","","","","","","","","","","","76","L","3","","","111","main_expt",""
"","bandit","191","531722","0.0-153.0-0.0","19002654","wem/bandit_party_1","A3749CB7HBP2WR","either","8","80","","","","","","","1","0","0","0.1243463141","","0.8","0.4","0.6","0.2","","","","","0.1243463141","0.3577317973","0.3757830796","0.286234052","","","","","","","","","","72","H","0","img/none_selected.jpg","","112","main_expt",""
"","bandit","192","534152","0.0-154.0-0.0","19002654","wem/bandit_party_1","A3749CB7HBP2WR","either","8","907","","","","","","","0","0","1","0.1433440675","","0.8","0.4","0.6","0.2","","","","","0.1433440675","0.3328808086","0.3838999828","0.1932674395","","","","","","","","","","72","H","0","img/none_selected.jpg","","113","main_expt",""
"","bandit","193","535975","0.0-155.0-0.0","19002654","wem/bandit_party_1","A3749CB7HBP2WR","either","8","299","","","","","","","0","1","0","","0.4157938717","0.8","0.4","0.6","0.2","0.1510662198","0.3416979579","0.4157938717","0.2403040534","","","","","","","","","","","","","","75","K","2","","","114","main_expt",""
"","bandit","194","537861","0.0-156.0-0.0","19002654","wem/bandit_party_1","A3749CB7HBP2WR","either","8","354","","","","","","","0","0","1","","0.4055870595","0.8","0.4","0.6","0.2","0.09845245139","0.3377137281","0.4055870595","0.254937398","","","","","","","","","","","","","","75","K","2","","","115","main_expt",""
"","bandit","195","539624","0.0-157.0-0.0","19002654","wem/bandit_party_1","A3749CB7HBP2WR","either","8","239","","","","","","","0","0","1","","0.3039448029","0.8","0.4","0.6","0.2","0.107393795","0.3039448029","0.4161015278","0.2605063941","","","","","","","","","","","","","","74","J","1","","","116","main_expt",""
"","bandit","196","541443","0.0-158.0-0.0","19002654","wem/bandit_party_1","A3749CB7HBP2WR","either","8","297","","","","","","","0","0","1","","0.2161328783","0.8","0.4","0.6","0.2","0.07879800556","0.2974336912","0.414877819","0.2161328783","","","","","","","","","","","","","","76","L","3","","","117","main_expt",""
"","bandit","197","543076","0.0-159.0-0.0","19002654","wem/bandit_party_1","A3749CB7HBP2WR","either","8","108","","","","","","","0","0","1","0.3968259953","","0.8","0.4","0.6","0.2","","","","","0.08383735875","0.2651867246","0.3968259953","0.1931197841","","","","","","","","","","75","K","2","","","118","main_expt",""
"","bandit","198","544935","0.0-160.0-0.0","19002654","wem/bandit_party_1","A3749CB7HBP2WR","either","8","333","","","","","","","0","0","1","","0.3131666206","0.8","0.4","0.6","0.2","0.1392474383","0.3131666206","0.4198241006","0.1638183597","","","","","","","","","","","","","","74","J","1","","","119","main_expt",""
"","bandit","199","546640","0.0-161.0-0.0","19002654","wem/bandit_party_1","A3749CB7HBP2WR","either","8","170","","","","","","","0","1","0","","0.358829095","0.8","0.4","0.6","0.2","0.1649404926","0.358829095","0.4286088018","0.1893282748","","","","","","","","","","","","","","74","J","1","","","120","main_expt",""
"","bandit","200","548591","0.0-162.0-0.0","19002654","wem/bandit_party_1","A3749CB7HBP2WR","either","8","420","","","","","","","0","0","1","0.3189860171","","0.8","0.4","0.6","0.2","","","","","0.1764152442","0.3189860171","0.4253829576","0.2290368179","","","","","","","","","","74","J","1","","","121","main_expt",""
"","bandit","201","550120","0.0-163.0-0.0","19002654","wem/bandit_party_1","A3749CB7HBP2WR","either","8","4","","","","","","","0","0","1","","0.3011672979","0.8","0.4","0.6","0.2","0.2092397698","0.3011672979","0.4235175979","0.2445441383","","","","","","","","","","","","","","74","J","1","","","122","main_expt",""
"","bandit","202","552147","0.0-164.0-0.0","19002654","wem/bandit_party_1","A3749CB7HBP2WR","either","8","508","","","","","","","1","0","0","0.1884058447","","0.8","0.4","0.6","0.2","","","","","0.1884058447","0.3037948063","0.4182090072","0.2091075756","","","","","","","","","","72","H","0","img/none_selected.jpg","","123","main_expt",""
"","bandit","203","554248","0.0-165.0-0.0","19002654","wem/bandit_party_1","A3749CB7HBP2WR","either","8","571","","","","","","","0","0","1","0.1876417206","","0.8","0.4","0.6","0.2","","","","","0.1876417206","0.2446200253","0.4356016004","0.2216111921","","","","","","","","","","72","H","0","img/none_selected.jpg","","124","main_expt",""
"","bandit","204","556184","0.0-166.0-0.0","19002654","wem/bandit_party_1","A3749CB7HBP2WR","either","8","405","","","","","","","1","0","0","0.2464628806","","0.8","0.4","0.6","0.2","","","","","0.1890564589","0.2464628806","0.403953628","0.1622020501","","","","","","","","","","74","J","1","","","125","main_expt",""
"","bandit","205","558121","0.0-167.0-0.0","19002654","wem/bandit_party_1","A3749CB7HBP2WR","either","8","414","","","","","","","0","0","1","","0.281169445","0.8","0.4","0.6","0.2","0.1659850756","0.281169445","0.4020675328","0.173533554","","","","","","","","","","","","","","74","J","1","","","126","main_expt",""
"","bandit","206","559812","0.0-168.0-0.0","19002654","wem/bandit_party_1","A3749CB7HBP2WR","either","8","166","","","","","","","1","0","0","0.338443572","","0.8","0.4","0.6","0.2","","","","","0.2006343121","0.290080064","0.338443572","0.189829559","","","","","","","","","","75","K","2","","","127","main_expt",""
"","bandit","207","561613","0.0-169.0-0.0","19002654","wem/bandit_party_1","A3749CB7HBP2WR","either","8","271","","","","","","","0","0","1","0.323123489","","0.8","0.4","0.6","0.2","","","","","0.2637444583","0.3280989756","0.323123489","0.1764696366","","","","","","","","","","75","K","2","","","128","main_expt",""
"","bandit","208","563251","0.0-170.0-0.0","19002654","wem/bandit_party_1","A3749CB7HBP2WR","either","8","102","","","","","","","0","0","1","0.3615310162","","0.8","0.4","0.6","0.2","","","","","0.2783394686","0.3052704822","0.3615310162","0.172709194","","","","","","","","","","75","K","2","","","129","main_expt",""
"","bandit","209","564794","0.0-171.0-0.0","19002654","wem/bandit_party_1","A3749CB7HBP2WR","either","8","13","","","","","","","0","0","1","0.1407460215","","0.8","0.4","0.6","0.2","","","","","0.2674474002","0.314718742","0.3667448715","0.1407460215","","","","","","","","","","76","L","3","","","130","main_expt",""
"","bandit","210","566659","0.0-172.0-0.0","19002654","wem/bandit_party_1","A3749CB7HBP2WR","either","8","339","","","","","","","0","0","1","0.2492347367","","0.8","0.4","0.6","0.2","","","","","0.2122920843","0.2492347367","0.341745941","0.143826562","","","","","","","","","","74","J","1","","","131","main_expt",""
"","bandit","211","568366","0.0-173.0-0.0","19002654","wem/bandit_party_1","A3749CB7HBP2WR","either","8","182","","","","","","","0","0","1","0.1969346152","","0.8","0.4","0.6","0.2","","","","","0.1969346152","0.2495736985","0.2615325727","0.1862992663","","","","","","","","","","72","H","0","img/none_selected.jpg","","132","main_expt",""
"","bandit","212","569966","0.0-174.0-0.0","19002654","wem/bandit_party_1","A3749CB7HBP2WR","either","8","76","","","","","","","0","1","0","","0.2487120015","0.8","0.4","0.6","0.2","0.1390835973","0.2487120015","0.27905624","0.185648564","","","","","","","","","","","","","","74","J","1","","","133","main_expt",""
"","bandit","213","571864","0.0-175.0-0.0","19002654","wem/bandit_party_1","A3749CB7HBP2WR","either","8","371","","","","","","","0","0","1","0.3239420422","","0.8","0.4","0.6","0.2","","","","","0.1437640715","0.3239420422","0.2751163123","0.2002276213","","","","","","","","","","74","J","1","","","134","main_expt",""
"","bandit","214","573919","0.0-176.0-0.0","19002654","wem/bandit_party_1","A3749CB7HBP2WR","either","8","525","","","","","","","0","1","0","","0.3903525049","0.8","0.4","0.6","0.2","0.1175999949","0.3903525049","0.2586507773","0.2474552851","","","","","","","","","","","","","","74","J","1","","","135","main_expt",""
"","bandit","215","575986","0.0-177.0-0.0","19002654","wem/bandit_party_1","A3749CB7HBP2WR","either","8","536","","","","","","","0","0","1","","0.3703049055","0.8","0.4","0.6","0.2","0.1108499649","0.3703049055","0.2385277364","0.2454982057","","","","","","","","","","","","","","74","J","1","","","136","main_expt",""
"","bandit","216","577942","0.0-178.0-0.0","19002654","wem/bandit_party_1","A3749CB7HBP2WR","either","8","422","","","","","","","0","0","1","","0.3657944308","0.8","0.4","0.6","0.2","0.1208727618","0.3657944308","0.1935782534","0.2708690816","","","","","","","","","","","","","","74","J","1","","","137","main_expt",""
"","bandit","217","579721","0.0-179.0-0.0","19002654","wem/bandit_party_1","A3749CB7HBP2WR","either","8","250","","","","","","","1","0","0","0.14087624","","0.8","0.4","0.6","0.2","","","","","0.1098805161","0.3452946514","0.14087624","0.2219039101","","","","","","","","","","75","K","2","","","138","main_expt",""
"","bandit","218","581982","0.0-180.0-0.0","19002654","wem/bandit_party_1","A3749CB7HBP2WR","either","8","735","","","","","","","0","0","1","0.1340930794","","0.8","0.4","0.6","0.2","","","","","0.1359731218","0.3225052804","0.1340930794","0.2485571535","","","","","","","","","","75","K","2","","","139","main_expt",""
"","bandit","219","584203","0.0-181.0-0.0","19002654","wem/bandit_party_1","A3749CB7HBP2WR","either","8","693","","","","","","","0","0","1","0.2605640439","","0.8","0.4","0.6","0.2","","","","","0.1419248406","0.2997250911","0.1170750994","0.2605640439","","","","","","","","","","76","L","3","","","140","main_expt",""
"","bandit","220","585866","0.0-182.0-0.0","19002654","wem/bandit_party_1","A3749CB7HBP2WR","either","8","137","","","","","","","0","0","1","0.311933389","","0.8","0.4","0.6","0.2","","","","","0.1269577117","0.311933389","0.1316830279","0.2260680923","","","","","","","","","","74","J","1","","","141","main_expt",""
"","bandit","221","587480","0.0-183.0-0.0","19002654","wem/bandit_party_1","A3749CB7HBP2WR","either","8","86","","","","","","","0","0","1","0.1073819056","","0.8","0.4","0.6","0.2","","","","","0.1073819056","0.3442568425","0.09490366034","0.2354846983","","","","","","","","","","72","H","0","img/none_selected.jpg","","142","main_expt",""
"","bandit","222","589129","0.0-184.0-0.0","19002654","wem/bandit_party_1","A3749CB7HBP2WR","either","8","122","","","","","","","0","0","1","","0.1246024154","0.8","0.4","0.6","0.2","0.1152767294","0.3117203045","0.1246024154","0.2089358464","","","","","","","","","","","","","","75","K","2","","","143","main_expt",""
"","bandit","223","590661","0.0-185.0-0.0","19002654","wem/bandit_party_1","A3749CB7HBP2WR","either","8","0","","","","","","","0","0","1","","0.3080771123","0.8","0.4","0.6","0.2","0.1317444946","0.3080771123","0.1179874238","0.1844607625","","","","","","","","","","","","","","74","J","1","","","144","main_expt",""
"","bandit","224","592465","0.0-186.0-0.0","19002654","wem/bandit_party_1","A3749CB7HBP2WR","either","8","278","","","","","","","0","0","1","","0.1211842963","0.8","0.4","0.6","0.2","0.1058600218","0.3146876691","0.1211842963","0.1940384654","","","","","","","","","","","","","","75","K","2","","","145","main_expt",""
"","bandit","225","594622","0.0-187.0-0.0","19002654","wem/bandit_party_1","A3749CB7HBP2WR","either","8","629","","","","","","","0","0","1","","0.2532022814","0.8","0.4","0.6","0.2","0.1862633901","0.3526806189","0.06212451067","0.2532022814","","","","","","","","","","","","","","76","L","3","","","146","main_expt",""
"","bandit","226","596679","0.0-188.0-0.0","19002654","wem/bandit_party_1","A3749CB7HBP2WR","either","8","524","","","","","","","0","0","1","0.3859334927","","0.8","0.4","0.6","0.2","","","","","0.1944793183","0.3859334927","0.05826033827","0.272856749","","","","","","","","","","74","J","1","","","147","main_expt",""
"","bandit","227","598292","0.0-189.0-0.0","19002654","wem/bandit_party_1","A3749CB7HBP2WR","either","8","86","","","","","","","0","0","1","0.04847575149","","0.8","0.4","0.6","0.2","","","","","0.1572605535","0.4089873985","0.04847575149","0.2441255329","","","","","","","","","","75","K","2","","","148","main_expt",""
"","bandit","228","599925","0.0-190.0-0.0","19002654","wem/bandit_party_1","A3749CB7HBP2WR","either","8","107","","","","","","","0","0","1","0.1632070519","","0.8","0.4","0.6","0.2","","","","","0.1632070519","0.3317076441","0.07397138717","0.2304797635","","","","","","","","","","72","H","0","img/none_selected.jpg","","149","main_expt",""
"","bandit","229","601962","0.0-191.0-0.0","19002654","wem/bandit_party_1","A3749CB7HBP2WR","either","8","505","","","","","","","0","0","1","","0.1178437277","0.8","0.4","0.6","0.2","0.2162169298","0.2514439341","0.1178437277","0.2645424191","","","","","","","","","","","","","","75","K","2","","","150","main_expt",""
"","bandit","230","603850","0.0-192.0-0.0","19002654","wem/bandit_party_1","A3749CB7HBP2WR","either","8","365","","","","","","","0","0","1","0.1116740648","","0.8","0.4","0.6","0.2","","","","","0.2806681102","0.2209696772","0.1116740648","0.2919476008","","","","","","","","","","75","K","2","","","151","main_expt",""
"","bandit","231","605679","0.0-193.0-0.0","19002654","wem/bandit_party_1","A3749CB7HBP2WR","either","8","296","","","","","","","0","0","1","","0.3004198658","0.8","0.4","0.6","0.2","0.25223767","0.2004300668","0.09681320826","0.3004198658","","","","","","","","","","","","","","76","L","3","","","152","main_expt",""
"","bandit","232","609528","0.0-194.0-0.0","19002654","wem/bandit_party_1","A3749CB7HBP2WR","either","8","2327","","","","","","","0","0","1","","0.2259503681","0.8","0.4","0.6","0.2","0.2259503681","0.1803159607","0.1162344283","0.2910243242","","","","","","","","","","","","","","72","H","0","img/none_selected.jpg","","153","main_expt",""
"","bandit","233","611160","0.0-195.0-0.0","19002654","wem/bandit_party_1","A3749CB7HBP2WR","either","8","97","","","","","","","0","0","1","","0.1793353988","0.8","0.4","0.6","0.2","0.2520515582","0.1793353988","0.1441765144","0.2858680692","","","","","","","","","","","","","","74","J","1","","","154","main_expt",""
"","bandit","234","613002","0.0-196.0-0.0","19002654","wem/bandit_party_1","A3749CB7HBP2WR","either","8","312","","","","","","","0","0","1","","0.1506434262","0.8","0.4","0.6","0.2","0.246895917","0.175125938","0.1506434262","0.276906037","","","","","","","","","","","","","","75","K","2","","","155","main_expt",""
"","bandit","235","614959","0.0-197.0-0.0","19002654","wem/bandit_party_1","A3749CB7HBP2WR","either","8","424","","","","","","","0","1","0","","0.3087514371","0.8","0.4","0.6","0.2","0.2067462234","0.19004546","0.1691825384","0.3087514371","","","","","","","","","","","","","","76","L","3","","","156","main_expt",""
"","bandit","236","616881","0.0-198.0-0.0","19002654","wem/bandit_party_1","A3749CB7HBP2WR","either","8","390","","","","","","","0","0","1","","0.3400763937","0.8","0.4","0.6","0.2","0.1736677602","0.1538528063","0.1465267651","0.3400763937","","","","","","","","","","","","","","76","L","3","","","157","main_expt",""
"","bandit","237","618905","0.0-199.0-0.0","19002654","wem/bandit_party_1","A3749CB7HBP2WR","either","8","491","","","","","","","0","0","1","0.1517260174","","0.8","0.4","0.6","0.2","","","","","0.2437422656","0.1624419901","0.1517260174","0.3388441277","","","","","","","","","","75","K","2","","","158","main_expt",""
"","bandit","238","620722","0.0-200.0-0.0","19002654","wem/bandit_party_1","A3749CB7HBP2WR","either","8","289","","","","","","","0","0","1","0.3496437485","","0.8","0.4","0.6","0.2","","","","","0.2627628197","0.1749682205","0.143579764","0.3496437485","","","","","","","","","","76","L","3","","","159","main_expt",""
"","bandit","239","622303","0.0-201.0-0.0","19002654","wem/bandit_party_1","A3749CB7HBP2WR","either","8","53","","","","","","","1","0","0","0.2227833177","","0.8","0.4","0.6","0.2","","","","","0.2532756584","0.2227833177","0.1701049762","0.3347491532","","","","","","","","","","74","J","1","","","160","main_expt",""
"","bandit","240","624345","0.0-202.0-0.0","19002654","wem/bandit_party_1","A3749CB7HBP2WR","either","8","511","","","","","","","0","0","1","","0.1616195486","0.8","0.4","0.6","0.2","0.2846030245","0.1616195486","0.1596038406","0.3036625801","","","","","","","","","","","","","","74","J","1","","","161","main_expt",""
"","bandit","241","626241","0.0-203.0-0.0","19002654","wem/bandit_party_1","A3749CB7HBP2WR","either","8","366","","","","","","","0","0","1","0.2480450928","","0.8","0.4","0.6","0.2","","","","","0.2480450928","0.1440802068","0.1186271452","0.2735804545","","","","","","","","","","72","H","0","img/none_selected.jpg","","162","main_expt",""
"","bandit","242","628279","0.0-204.0-0.0","19002654","wem/bandit_party_1","A3749CB7HBP2WR","either","8","513","","","","","","","0","0","1","","0.1349250059","0.8","0.4","0.6","0.2","0.3217860246","0.1349250059","0.1460830151","0.2219233964","","","","","","","","","","","","","","74","J","1","","","163","main_expt",""
"","bandit","243","629892","0.0-205.0-0.0","19002654","wem/bandit_party_1","A3749CB7HBP2WR","either","8","84","","","","","","","1","0","0","0.3528623486","","0.8","0.4","0.6","0.2","","","","","0.3528623486","0.1482528248","0.1924179555","0.2489701673","","","","","","","","","","72","H","0","img/none_selected.jpg","","164","main_expt",""
"","bandit","244","631604","0.0-206.0-0.0","19002654","wem/bandit_party_1","A3749CB7HBP2WR","either","8","179","","","","","","","0","0","1","0.3113737792","","0.8","0.4","0.6","0.2","","","","","0.3113737792","0.1444116863","0.1909643941","0.2424219606","","","","","","","","","","72","H","0","img/none_selected.jpg","","165","main_expt",""
"","bandit","245","633560","0.0-207.0-0.0","19002654","wem/bandit_party_1","A3749CB7HBP2WR","either","8","410","","","","","","","0","0","1","","0.1917506842","0.8","0.4","0.6","0.2","0.2820045276","0.1621449425","0.1917506842","0.1899742571","","","","","","","","","","","","","","75","K","2","","","166","main_expt",""
"","bandit","246","636895","0.0-208.0-0.0","19002654","wem/bandit_party_1","A3749CB7HBP2WR","either","8","1810","","","","","","","0","0","1","","0.2298880826","0.8","0.4","0.6","0.2","0.2539690707","0.1695256229","0.2238056512","0.2298880826","","","","","","","","","","","","","","76","L","3","","","167","main_expt",""
"","bandit","247","638775","0.0-209.0-0.0","19002654","wem/bandit_party_1","A3749CB7HBP2WR","either","8","347","","","","","","","0","0","1","0.1712445676","","0.8","0.4","0.6","0.2","","","","","0.2177565821","0.1712445676","0.2132240521","0.241220494","","","","","","","","","","74","J","1","","","168","main_expt",""
"","bandit","248","640497","0.0-210.0-0.0","19002654","wem/bandit_party_1","A3749CB7HBP2WR","either","8","193","","","","","","","0","0","1","0.1363713625","","0.8","0.4","0.6","0.2","","","","","0.183214586","0.191079104","0.1363713625","0.2113351254","","","","","","","","","","75","K","2","","","169","main_expt",""
"","bandit","249","642207","0.0-211.0-0.0","19002654","wem/bandit_party_1","A3749CB7HBP2WR","either","8","181","","","","","","","0","0","1","0.1757282231","","0.8","0.4","0.6","0.2","","","","","0.1757282231","0.2227666825","0.2007690262","0.2224744884","","","","","","","","","","72","H","0","img/none_selected.jpg","","170","main_expt",""
"","bandit","250","644110","0.0-212.0-0.0","19002654","wem/bandit_party_1","A3749CB7HBP2WR","either","8","370","","","","","","","0","0","1","","0.1238998316","0.8","0.4","0.6","0.2","0.1679331046","0.2719914804","0.1238998316","0.262177911","","","","","","","","","","","","","","75","K","2","","","171","main_expt",""
"","bandit","251","646223","0.0-213.0-0.0","19002654","wem/bandit_party_1","A3749CB7HBP2WR","either","8","584","","","","","","","0","0","1","","0.2822992514","0.8","0.4","0.6","0.2","0.14560319","0.2330128459","0.09746419185","0.2822992514","","","","","","","","","","","","","","76","L","3","","","172","main_expt",""
"","bandit","252","648158","0.0-214.0-0.0","19002654","wem/bandit_party_1","A3749CB7HBP2WR","either","8","401","","","","","","","0","0","1","","0.1018164217","0.8","0.4","0.6","0.2","0.1341549344","0.2840251313","0.1018164217","0.2545762091","","","","","","","","","","","","","","75","K","2","","","173","main_expt",""
"","bandit","253","649799","0.0-215.0-0.0","19002654","wem/bandit_party_1","A3749CB7HBP2WR","either","8","111","","","","","","","0","0","1","0.2739042306","","0.8","0.4","0.6","0.2","","","","","0.1471305278","0.2739042306","0.1401689619","0.2838184637","","","","","","","","","","74","J","1","","","174","main_expt",""
"","bandit","254","651445","0.0-216.0-0.0","19002654","wem/bandit_party_1","A3749CB7HBP2WR","either","8","117","","","","","","","1","0","0","0.173963405","","0.8","0.4","0.6","0.2","","","","","0.173963405","0.3444735506","0.1697524679","0.3002790513","","","","","","","","","","72","H","0","img/none_selected.jpg","","175","main_expt",""
"","bandit","255","653443","0.0-217.0-0.0","19002654","wem/bandit_party_1","A3749CB7HBP2WR","either","8","464","","","","","","","0","0","1","","0.1821857965","0.8","0.4","0.6","0.2","0.1821857965","0.3223017316","0.1896898672","0.3771690292","","","","","","","","","","","","","","72","H","0","img/none_selected.jpg","","176","main_expt",""
"","bandit","256","655202","0.0-218.0-0.0","19002654","wem/bandit_party_1","A3749CB7HBP2WR","either","8","222","","","","","","","0","0","1","0.1444884472","","0.8","0.4","0.6","0.2","","","","","0.1444884472","0.2964924158","0.2441254625","0.4047809956","","","","","","","","","","72","H","0","img/none_selected.jpg","","177","main_expt",""
"","bandit","257","657064","0.0-219.0-0.0","19002654","wem/bandit_party_1","A3749CB7HBP2WR","either","8","331","","","","","","","0","0","1","0.1207783293","","0.8","0.4","0.6","0.2","","","","","0.1207783293","0.2780576925","0.2427722412","0.4344960837","","","","","","","","","","72","H","0","img/none_selected.jpg","","178","main_expt",""
"","bandit","258","658879","0.0-220.0-0.0","19002654","wem/bandit_party_1","A3749CB7HBP2WR","either","8","278","","","","","","","0","1","0","","0.4287912686","0.8","0.4","0.6","0.2","0.111585665","0.2859751729","0.2284650367","0.4287912686","","","","","","","","","","","","","","76","L","3","","","179","main_expt",""
"","bandit","259","660668","0.0-221.0-0.0","19002654","wem/bandit_party_1","A3749CB7HBP2WR","either","8","249","","","","","","","0","0","1","","0.4294180747","0.8","0.4","0.6","0.2","0.06891525065","0.283533164","0.2694081366","0.4294180747","","","","","","","","","","","","","","76","L","3","","","180","main_expt",""
"","bandit","260","662688","0.0-222.0-0.0","19002654","wem/bandit_party_1","A3749CB7HBP2WR","either","8","490","","","","","","","1","0","0","0.3887332701","","0.8","0.4","0.6","0.2","","","","","0.07407739619","0.2430023428","0.2471628034","0.3887332701","","","","","","","","","","76","L","3","","","181","main_expt",""
"","bandit","261","664429","0.0-223.0-0.0","19002654","wem/bandit_party_1","A3749CB7HBP2WR","either","8","205","","","","","","","0","0","1","0.3910635387","","0.8","0.4","0.6","0.2","","","","","0.07501704201","0.223254837","0.275372354","0.3910635387","","","","","","","","","","76","L","3","","","182","main_expt",""
"","bandit","262","666855","0.0-224.0-0.0","19002654","wem/bandit_party_1","A3749CB7HBP2WR","either","8","889","","","","","","","0","0","1","0.2378950907","","0.8","0.4","0.6","0.2","","","","","0.09354103142","0.2274286797","0.2378950907","0.3957792538","","","","","","","","","","75","K","2","","","183","main_expt",""
"","bandit","263","668653","0.0-225.0-0.0","19002654","wem/bandit_party_1","A3749CB7HBP2WR","either","8","261","","","","","","","1","0","0","0.2485964068","","0.8","0.4","0.6","0.2","","","","","0.06673830493","0.2485964068","0.2611999536","0.3777829694","","","","","","","","","","74","J","1","","","184","main_expt",""
"","bandit","264","671470","0.0-226.0-0.0","19002654","wem/bandit_party_1","A3749CB7HBP2WR","either","8","1291","","","","","","","0","0","1","0.2080173303","","0.8","0.4","0.6","0.2","","","","","0.08617836821","0.2080173303","0.2799245071","0.4130939835","","","","","","","","","","74","J","1","","","185","main_expt",""
"","bandit","265","674245","0.0-227.0-0.0","19002654","wem/bandit_party_1","A3749CB7HBP2WR","either","8","1229","","","","","","","1","0","0","0.376930599","","0.8","0.4","0.6","0.2","","","","","0.05054014018","0.2538883687","0.2275386122","0.376930599","","","","","","","","","","76","L","3","","","186","main_expt",""
"","bandit","266","676233","0.0-228.0-0.0","19002654","wem/bandit_party_1","A3749CB7HBP2WR","either","8","446","","","","","","","0","0","1","","0.3934592684","0.8","0.4","0.6","0.2","0.1101456656","0.2267652077","0.2558518805","0.3934592684","","","","","","","","","","","","","","76","L","3","","","187","main_expt",""
"","bandit","267","678133","0.0-229.0-0.0","19002654","wem/bandit_party_1","A3749CB7HBP2WR","either","8","372","","","","","","","0","0","1","","0.2583789709","0.8","0.4","0.6","0.2","0.1076418148","0.2583789709","0.2757393749","0.4086060551","","","","","","","","","","","","","","74","J","1","","","188","main_expt",""
"","bandit","268","679668","0.0-230.0-0.0","19002654","wem/bandit_party_1","A3749CB7HBP2WR","either","8","2","","","","","","","0","0","1","","0.1230456027","0.8","0.4","0.6","0.2","0.1230456027","0.2329768584","0.3326758055","0.447145564","","","","","","","","","","","","","","72","H","0","img/none_selected.jpg","","189","main_expt",""
"","bandit","269","681253","0.0-231.0-0.0","19002654","wem/bandit_party_1","A3749CB7HBP2WR","either","8","54","","","","","","","0","0","1","","0.332927569","0.8","0.4","0.6","0.2","0.1872873117","0.2002510669","0.332927569","0.386091063","","","","","","","","","","","","","","75","K","2","","","190","main_expt",""
"","bandit","270","683184","0.0-232.0-0.0","19002654","wem/bandit_party_1","A3749CB7HBP2WR","either","8","388","","","","","","","0","0","1","","0.2182600554","0.8","0.4","0.6","0.2","0.1413073252","0.2182600554","0.3859199101","0.4221145333","","","","","","","","","","","","","","74","J","1","","","191","main_expt",""
"","bandit","271","684799","0.0-233.0-0.0","19002654","wem/bandit_party_1","A3749CB7HBP2WR","either","8","79","","","","","","","0","0","1","","0.3913199708","0.8","0.4","0.6","0.2","0.1868627967","0.2681613901","0.392668484","0.3913199708","","","","","","","","","","","","","","76","L","3","","","192","main_expt",""
"","bandit","272","686479","0.0-234.0-0.0","19002654","wem/bandit_party_1","A3749CB7HBP2WR","either","8","151","","","","","","","0","0","1","0.3789843676","","0.8","0.4","0.6","0.2","","","","","0.2312719224","0.3035027483","0.3789843676","0.4013624592","","","","","","","","","","75","K","2","","","193","main_expt",""
"","bandit","273","688932","0.0-235.0-0.0","19002654","wem/bandit_party_1","A3749CB7HBP2WR","either","8","910","","","","","","","0","0","1","","0.275531754","0.8","0.4","0.6","0.2","0.2585201677","0.275531754","0.3689216281","0.3668237699","","","","","","","","","","","","","","74","J","1","","","194","main_expt",""
"","bandit","274","690563","0.0-236.0-0.0","19002654","wem/bandit_party_1","A3749CB7HBP2WR","either","8","89","","","","","","","0","0","1","0.2786104129","","0.8","0.4","0.6","0.2","","","","","0.2786104129","0.2716401532","0.4136905162","0.3856266791","","","","","","","","","","72","H","0","img/none_selected.jpg","","195","main_expt",""
"","bandit","275","692165","0.0-237.0-0.0","19002654","wem/bandit_party_1","A3749CB7HBP2WR","either","8","72","","","","","","","0","0","1","0.2814611543","","0.8","0.4","0.6","0.2","","","","","0.2407834285","0.2814611543","0.4258575101","0.3702439493","","","","","","","","","","74","J","1","","","196","main_expt",""
"","bandit","276","694563","0.0-238.0-0.0","19002654","wem/bandit_party_1","A3749CB7HBP2WR","either","8","861","","","","","","","1","0","0","0.3976178043","","0.8","0.4","0.6","0.2","","","","","0.2550568011","0.2588010394","0.3976178043","0.3665926528","","","","","","","","","","75","K","2","","","197","main_expt",""
"","bandit","277","696394","0.0-239.0-0.0","19002654","wem/bandit_party_1","A3749CB7HBP2WR","either","8","296","","","","","","","0","0","1","0.3802378075","","0.8","0.4","0.6","0.2","","","","","0.3094863904","0.3094610495","0.3802378075","0.3432124584","","","","","","","","","","75","K","2","","","198","main_expt",""
"","bandit","278","698194","0.0-240.0-0.0","19002654","wem/bandit_party_1","A3749CB7HBP2WR","either","8","261","","","","","","","0","1","0","","0.4096574544","0.8","0.4","0.6","0.2","0.3012985694","0.3139278769","0.3926800246","0.4096574544","","","","","","","","","","","","","","76","L","3","","","199","main_expt",""
"","bandit","279","700072","0.0-241.0-0.0","19002654","wem/bandit_party_1","A3749CB7HBP2WR","either","8","339","","","","","","","0","0","1","","0.3799023259","0.8","0.4","0.6","0.2","0.3149132519","0.3459706187","0.3814844917","0.3799023259","","","","","","","","","","","","","","76","L","3","","","200","main_expt",""
"","bandit","280","701793","0.0-242.0-0.0","19002654","wem/bandit_party_1","A3749CB7HBP2WR","either","8","189","","","","","","","0","0","1","","0.3831630738","0.8","0.4","0.6","0.2","0.3236307962","0.3038365479","0.3831630738","0.3513783521","","","","","","","","","","","","","","75","K","2","","","201","main_expt",""
"","bandit","281","703585","0.0-243.0-0.0","19002654","wem/bandit_party_1","A3749CB7HBP2WR","either","8","253","","","","","","","0","0","1","0.3163717903","","0.8","0.4","0.6","0.2","","","","","0.3163717903","0.2964599608","0.3957430938","0.3439351057","","","","","","","","","","72","H","0","img/none_selected.jpg","","202","main_expt",""
"","bandit","282","706706","0.0-244.0-0.0","19002654","wem/bandit_party_1","A3749CB7HBP2WR","either","8","1576","","","","","","","1","0","0","0.280336616","","0.8","0.4","0.6","0.2","","","","","0.3165936227","0.280336616","0.4175506619","0.2615327891","","","","","","","","","","74","J","1","","","203","main_expt",""
"","bandit","283","708916","0.0-245.0-0.0","19002654","wem/bandit_party_1","A3749CB7HBP2WR","either","8","673","","","","","","","0","0","1","","0.262900641","0.8","0.4","0.6","0.2","0.3166231072","0.262900641","0.4356800279","0.2211517471","","","","","","","","","","","","","","74","J","1","","","204","main_expt",""
"","bandit","284","710464","0.0-246.0-0.0","19002654","wem/bandit_party_1","A3749CB7HBP2WR","either","8","2","","","","","","","1","0","0","0.4342993254","","0.8","0.4","0.6","0.2","","","","","0.2983153058","0.3403150927","0.4342993254","0.1955747294","","","","","","","","","","75","K","2","","","205","main_expt",""
"","bandit","285","712506","0.0-247.0-0.0","19002654","wem/bandit_party_1","A3749CB7HBP2WR","either","8","506","","","","","","","0","1","0","","0.4515967499","0.8","0.4","0.6","0.2","0.255573156","0.3407188883","0.4515967499","0.3137251184","","","","","","","","","","","","","","75","K","2","","","206","main_expt",""
"","bandit","286","714389","0.0-248.0-0.0","19002654","wem/bandit_party_1","A3749CB7HBP2WR","either","8","346","","","","","","","0","0","1","0.4559700358","","0.8","0.4","0.6","0.2","","","","","0.2816724171","0.2955601217","0.4559700358","0.2982459604","","","","","","","","","","75","K","2","","","207","main_expt",""
"","bandit","287","715939","0.0-249.0-0.0","19002654","wem/bandit_party_1","A3749CB7HBP2WR","either","8","2","","","","","","","0","0","1","0.2462622089","","0.8","0.4","0.6","0.2","","","","","0.2462622089","0.2832193826","0.4711787588","0.2359404152","","","","","","","","","","72","H","0","img/none_selected.jpg","","208","main_expt",""
"","bandit","288","718108","0.0-250.0-0.0","19002654","wem/bandit_party_1","A3749CB7HBP2WR","either","8","629","","","","","","","0","0","1","","0.2608633631","0.8","0.4","0.6","0.2","0.2608633631","0.25637755","0.4859779177","0.2396635106","","","","","","","","","","","","","","72","H","0","img/none_selected.jpg","","209","main_expt",""
"","bandit","289","729503","0.0-251.0-0.0","19002654","wem/bandit_party_1","A3749CB7HBP2WR","either","8","9852","","","","","","","0","0","1","0.2649708152","","0.8","0.4","0.6","0.2","","","","","0.2649708152","0.2500912527","0.4798195452","0.2320506775","","","","","","","","","","72","H","0","img/none_selected.jpg","","210","main_expt",""
"","bandit","290","731275","0.0-252.0-0.0","19002654","wem/bandit_party_1","A3749CB7HBP2WR","either","8","233","","","","","","","1","0","0","0.2481129288","","0.8","0.4","0.6","0.2","","","","","0.2658594566","0.2481129288","0.4754072522","0.1894847828","","","","","","","","","","74","J","1","","","211","main_expt",""
"","bandit","291","734245","0.0-253.0-0.0","19002654","wem/bandit_party_1","A3749CB7HBP2WR","either","8","1434","","","","","","","0","1","0","","0.3192168596","0.8","0.4","0.6","0.2","0.2648449814","0.3192168596","0.4780703898","0.2330804604","","","","","","","","","","","","","","74","J","1","","","212","main_expt",""
"","bandit","292","736074","0.0-254.0-0.0","19002654","wem/bandit_party_1","A3749CB7HBP2WR","either","8","295","","","","","","","0","1","0","","0.2361953268","0.8","0.4","0.6","0.2","0.286492297","0.2361953268","0.4883488692","0.2484053244","","","","","","","","","","","","","","74","J","1","","","213","main_expt",""
"","bandit","293","737916","0.0-255.0-0.0","19002654","wem/bandit_party_1","A3749CB7HBP2WR","either","8","302","","","","","","","0","0","1","0.2308921763","","0.8","0.4","0.6","0.2","","","","","0.2540339129","0.2308921763","0.4872562331","0.2182548364","","","","","","","","","","74","J","1","","","214","main_expt",""
"","bandit","294","739889","0.0-256.0-0.0","19002654","wem/bandit_party_1","A3749CB7HBP2WR","either","8","438","","","","","","","0","0","1","","0.4749609167","0.8","0.4","0.6","0.2","0.254651127","0.2161033537","0.4749609167","0.1824073789","","","","","","","","","","","","","","75","K","2","","","215","main_expt",""
"","bandit","295","741780","0.0-257.0-0.0","19002654","wem/bandit_party_1","A3749CB7HBP2WR","either","8","354","","","","","","","0","0","1","","0.1923730387","0.8","0.4","0.6","0.2","0.3140517816","0.1896756427","0.4798413464","0.1923730387","","","","","","","","","","","","","","76","L","3","","","216","main_expt",""
"","bandit","296","743617","0.0-258.0-0.0","19002654","wem/bandit_party_1","A3749CB7HBP2WR","either","8","302","","","","","","","0","0","1","0.3338676317","","0.8","0.4","0.6","0.2","","","","","0.3338676317","0.1724286307","0.4865144435","0.2266612446","","","","","","","","","","72","H","0","img/none_selected.jpg","","217","main_expt",""
"","bandit","297","745463","0.0-259.0-0.0","19002654","wem/bandit_party_1","A3749CB7HBP2WR","either","8","307","","","","","","","0","0","1","","0.161168334","0.8","0.4","0.6","0.2","0.3397001125","0.161168334","0.4789145001","0.1702705737","","","","","","","","","","","","","","74","J","1","","","218","main_expt",""
"","bandit","298","747443","0.0-260.0-0.0","19002654","wem/bandit_party_1","A3749CB7HBP2WR","either","8","445","","","","","","","0","0","1","0.4834748692","","0.8","0.4","0.6","0.2","","","","","0.2982528089","0.2021763003","0.4834748692","0.1159766116","","","","","","","","","","75","K","2","","","219","main_expt",""
"","bandit","299","749458","0.0-261.0-0.0","19002654","wem/bandit_party_1","A3749CB7HBP2WR","either","8","480","","","","","","","0","0","1","","0.09529473055","0.8","0.4","0.6","0.2","0.2770934022","0.2142164272","0.4722371777","0.09529473055","","","","","","","","","","","","","","76","L","3","","","220","main_expt",""
"","bandit","300","751299","0.0-262.0-0.0","19002654","wem/bandit_party_1","A3749CB7HBP2WR","either","8","297","","","","","","","0","1","0","","0.189068297","0.8","0.4","0.6","0.2","0.2696770889","0.189068297","0.4654689219","0.09060922323","","","","","","","","","","","","","","74","J","1","","","221","main_expt",""
"","bandit","301","753148","0.0-263.0-0.0","19002654","wem/bandit_party_1","A3749CB7HBP2WR","either","8","316","","","","","","","0","0","1","","0.2120997892","0.8","0.4","0.6","0.2","0.3103502417","0.2120997892","0.4533789701","0.1250772464","","","","","","","","","","","","","","74","J","1","","","222","main_expt",""
"","bandit","302","754930","0.0-264.0-0.0","19002654","wem/bandit_party_1","A3749CB7HBP2WR","either","8","245","","","","","","","0","1","0","","0.3477728299","0.8","0.4","0.6","0.2","0.3477728299","0.1937664477","0.4473019993","0.1177235221","","","","","","","","","","","","","","72","H","0","img/none_selected.jpg","","223","main_expt",""
"","bandit","303","756789","0.0-265.0-0.0","19002654","wem/bandit_party_1","A3749CB7HBP2WR","either","8","325","","","","","","","1","0","0","0.3230244909","","0.8","0.4","0.6","0.2","","","","","0.3230244909","0.2195846313","0.4651086175","0.1589673504","","","","","","","","","","72","H","0","img/none_selected.jpg","","224","main_expt",""
"","bandit","304","758606","0.0-266.0-0.0","19002654","wem/bandit_party_1","A3749CB7HBP2WR","either","8","279","","","","","","","1","0","0","0.3641913847","","0.8","0.4","0.6","0.2","","","","","0.3641913847","0.1973587738","0.4704934375","0.1582937281","","","","","","","","","","72","H","0","img/none_selected.jpg","","225","main_expt",""
"","bandit","305","760487","0.0-267.0-0.0","19002654","wem/bandit_party_1","A3749CB7HBP2WR","either","8","342","","","","","","","0","0","1","0.3211822138","","0.8","0.4","0.6","0.2","","","","","0.3211822138","0.2029059012","0.4545632724","0.1585786296","","","","","","","","","","72","H","0","img/none_selected.jpg","","226","main_expt",""
"","bandit","306","762294","0.0-268.0-0.0","19002654","wem/bandit_party_1","A3749CB7HBP2WR","either","8","273","","","","","","","0","0","1","0.1677618241","","0.8","0.4","0.6","0.2","","","","","0.3318596792","0.1677618241","0.4313330006","0.1614007709","","","","","","","","","","74","J","1","","","227","main_expt",""
"","bandit","307","764086","0.0-269.0-0.0","19002654","wem/bandit_party_1","A3749CB7HBP2WR","either","8","251","","","","","","","0","0","1","0.4253897179","","0.8","0.4","0.6","0.2","","","","","0.3715738924","0.2079318551","0.4253897179","0.1160982884","","","","","","","","","","75","K","2","","","228","main_expt",""
"","bandit","308","766015","0.0-270.0-0.0","19002654","wem/bandit_party_1","A3749CB7HBP2WR","either","8","389","","","","","","","0","0","1","","0.1327168588","0.8","0.4","0.6","0.2","0.3571583743","0.1860779256","0.4416009531","0.1327168588","","","","","","","","","","","","","","76","L","3","","","229","main_expt",""
"","bandit","309","767844","0.0-271.0-0.0","19002654","wem/bandit_party_1","A3749CB7HBP2WR","either","8","294","","","","","","","0","0","1","","0.4612445757","0.8","0.4","0.6","0.2","0.3455313741","0.1294985144","0.4612445757","0.1751239199","","","","","","","","","","","","","","75","K","2","","","230","main_expt",""
"","bandit","310","769509","0.0-272.0-0.0","19002654","wem/bandit_party_1","A3749CB7HBP2WR","either","8","129","","","","","","","0","0","1","","0.1424139305","0.8","0.4","0.6","0.2","0.3114256563","0.1424139305","0.4455927364","0.2080149414","","","","","","","","","","","","","","74","J","1","","","231","main_expt",""
"","bandit","311","771293","0.0-273.0-0.0","19002654","wem/bandit_party_1","A3749CB7HBP2WR","either","8","243","","","","","","","0","0","1","0.3127001645","","0.8","0.4","0.6","0.2","","","","","0.3127001645","0.1777617008","0.4449483857","0.2305008548","","","","","","","","","","72","H","0","img/none_selected.jpg","","232","main_expt",""
"","bandit","312","773752","0.0-274.0-0.0","19002654","wem/bandit_party_1","A3749CB7HBP2WR","either","8","913","","","","","","","0","0","1","","0.1408291819","0.8","0.4","0.6","0.2","0.2953609795","0.1408291819","0.4570404202","0.2331895239","","","","","","","","","","","","","","74","J","1","","","233","main_expt",""
"","bandit","313","777040","0.0-275.0-0.0","19002654","wem/bandit_party_1","A3749CB7HBP2WR","either","8","1749","","","","","","","1","0","0","0.4785018613","","0.8","0.4","0.6","0.2","","","","","0.2743769666","0.09563300426","0.4785018613","0.2007149185","","","","","","","","","","75","K","2","","","234","main_expt",""
"","bandit","314","779107","0.0-276.0-0.0","19002654","wem/bandit_party_1","A3749CB7HBP2WR","either","8","526","","","","","","","0","0","1","","0.1428876463","0.8","0.4","0.6","0.2","0.2842570603","0.06508254785","0.4708517218","0.1428876463","","","","","","","","","","","","","","76","L","3","","","235","main_expt",""
"","bandit","315","780709","0.0-277.0-0.0","19002654","wem/bandit_party_1","A3749CB7HBP2WR","either","8","55","","","","","","","0","0","1","","0.4721911582","0.8","0.4","0.6","0.2","0.3536106974","0.05272484418","0.4721911582","0.1327756685","","","","","","","","","","","","","","75","K","2","","","236","main_expt",""
