"consent","trial_type","trial_index","time_elapsed","internal_node_id","subjID","study","MID","cond","drift","rt","responses","button_pressed","key_press","like","value","connected","gems","bombs","no_reward","GemPrChosen","BombPrChosen","GainOverPainPr_0","GainOverPainPr_1","GainOverPainPr_2","GainOverPainPr_3","LosePr_0","LosePr_1","LosePr_2","LosePr_3","WinPr_0","WinPr_1","WinPr_2","WinPr_3","Q0","Q1","Q2","gender","age","ethnicity","label","expt_phase","target","respCharCode","respKey","respChoiceNum","respChoice","practice","trial_counter","trial_label","Q0_index"
"GDM/GDM_behavioral_consent_30min_online.html","consent","0","19540","0.0-0.0","19592128","wem/bandit_party_1","A279YSE7NB16M0","either","8","","","","","","","","","","","","","","","","","","","","","","","","","","","","","","","","","","","","","","","","",""
"","survey-text","1","29236","0.0-1.0","19592128","wem/bandit_party_1","A279YSE7NB16M0","either","8","8691","{""Q0"":""A279YSE7NB16M0""}","","","","","","","","","","","","","","","","","","","","","","","","","","","","","","","","","","","","","","",""
"","button-response","2","33371","0.0-2.0","19592128","wem/bandit_party_1","A279YSE7NB16M0","either","8","3132","","2","","","","","","","","","","","","","","","","","","","","","","","","","","","","","","","","","","","","","",""
"","text-replacement","3","54654","0.0-3.0","19592128","wem/bandit_party_1","A279YSE7NB16M0","either","8","20280","","","32","","","","","","","","","","","","","","","","","","","","","","","","","","","","","","","","","","","","",""
"","text-replacement","4","80261","0.0-4.0","19592128","wem/bandit_party_1","A279YSE7NB16M0","either","8","25607","","","32","","","","","","","","","","","","","","","","","","","","","","","","","","","","","","","","","","","","",""
"","text-replacement","5","98621","0.0-5.0-0.0","19592128","wem/bandit_party_1","A279YSE7NB16M0","either","8","18359","","","32","","","","","","","","","","","","","","","","","","","","","","","","","","","","","","","","","","","","",""
"","identification","6","115515","0.0-6.0-0.0","19592128","wem/bandit_party_1","A279YSE7NB16M0","either","8","16882","","","","0","0","0","","","","","","","","","","","","","","","","","","","","","","","","pre","identification_pre","the Republican party","","","","","","","",""
"","identification","7","123324","0.0-6.0-1.0","19592128","wem/bandit_party_1","A279YSE7NB16M0","either","8","6797","","","","2","2","0","","","","","","","","","","","","","","","","","","","","","","","","pre","identification_pre","the Democratic Party","","","","","","","",""
"","text-replacement","8","135109","0.0-7.0","19592128","wem/bandit_party_1","A279YSE7NB16M0","either","8","10783","","","32","","","","","","","","","","","","","","","","","","","","","","","","","","","","","","","","","","","","",""
"","text-replacement","9","144892","0.0-8.0","19592128","wem/bandit_party_1","A279YSE7NB16M0","either","8","9782","","","32","","","","","","","","","","","","","","","","","","","","","","","","","","","","","","","","","","","","",""
"","text-replacement","10","157780","0.0-9.0","19592128","wem/bandit_party_1","A279YSE7NB16M0","either","8","12887","","","32","","","","","","","","","","","","","","","","","","","","","","","","","","","","","","","","","","","","",""
"","text-replacement","11","163804","0.0-10.0","19592128","wem/bandit_party_1","A279YSE7NB16M0","either","8","6022","","","32","","","","","","","","","","","","","","","","","","","","","","","","","","","","","","","","","","","","",""
"","text-replacement","12","177245","0.0-11.0","19592128","wem/bandit_party_1","A279YSE7NB16M0","either","8","13440","","","32","","","","","","","","","","","","","","","","","","","","","","","","","","","","","","","","","","","","",""
"","bandit","13","181682","0.0-12.0-0.0","19592128","wem/bandit_party_1","A279YSE7NB16M0","either","8","2931","","","","","","","0","0","1","0","0","","","","","0","","","","0","","","","","","","","","","","","","74","J","0","img/none_selected_demo.jpg","true","0","",""
"","bandit","14","185026","0.0-13.0-0.0","19592128","wem/bandit_party_1","A279YSE7NB16M0","either","8","1840","","","","","","","0","0","1","0","0","","","","","0","","","","0","","","","","","","","","","","","","75","K","0","img/none_selected_demo.jpg","true","0","",""
"","text-replacement","15","192980","0.0-14.0","19592128","wem/bandit_party_1","A279YSE7NB16M0","either","8","7952","","","32","","","","","","","","","","","","","","","","","","","","","","","","","","","","","","","","","","","","",""
"","text-replacement","16","201884","0.0-15.0","19592128","wem/bandit_party_1","A279YSE7NB16M0","either","8","8902","","","32","","","","","","","","","","","","","","","","","","","","","","","","","","","","","","","","","","","","",""
"","text-replacement","17","214149","0.0-16.0","19592128","wem/bandit_party_1","A279YSE7NB16M0","either","8","12263","","","32","","","","","","","","","","","","","","","","","","","","","","","","","","","","","","","","","","","","",""
"","text-replacement","18","219484","0.0-17.0","19592128","wem/bandit_party_1","A279YSE7NB16M0","either","8","5334","","","32","","","","","","","","","","","","","","","","","","","","","","","","","","","","","","","","","","","","",""
"","bandit","19","221961","0.0-18.0-0.0","19592128","wem/bandit_party_1","A279YSE7NB16M0","either","8","974","","","","","","","1","0","0","0.8","","0.5","0.5","","","","","","","0.8","0.2","","","","","","","","","","","","74","J","0","img/none_selected_demo.jpg","true","0","80_20_practice",""
"","bandit","20","224120","0.0-18.0-1.0","19592128","wem/bandit_party_1","A279YSE7NB16M0","either","8","656","","","","","","","0","1","0","","0.8","0.5","0.5","","","0.8","0.2","","","","","","","","","","","","","","","","74","J","0","img/none_selected_demo.jpg","true","0","80_20_practice",""
"","bandit","21","226393","0.0-18.0-2.0","19592128","wem/bandit_party_1","A279YSE7NB16M0","either","8","769","","","","","","","0","0","1","0.2","","0.5","0.5","","","","","","","0.8","0.2","","","","","","","","","","","","75","K","1","","true","0","80_20_practice",""
"","bandit","22","229161","0.0-18.0-3.0","19592128","wem/bandit_party_1","A279YSE7NB16M0","either","8","1263","","","","","","","0","0","1","","0.2","0.5","0.5","","","0.8","0.2","","","","","","","","","","","","","","","","75","K","1","","true","0","80_20_practice",""
"","bandit","23","231209","0.0-18.0-4.0","19592128","wem/bandit_party_1","A279YSE7NB16M0","either","8","545","","","","","","","0","1","0","","0.8","0.5","0.5","","","0.8","0.2","","","","","","","","","","","","","","","","74","J","0","img/none_selected_demo.jpg","true","0","80_20_practice",""
"","bandit","24","233171","0.0-18.0-5.0","19592128","wem/bandit_party_1","A279YSE7NB16M0","either","8","456","","","","","","","0","1","0","","0.8","0.5","0.5","","","0.8","0.2","","","","","","","","","","","","","","","","74","J","0","img/none_selected_demo.jpg","true","0","80_20_practice",""
"","bandit","25","235169","0.0-18.0-6.0","19592128","wem/bandit_party_1","A279YSE7NB16M0","either","8","495","","","","","","","0","0","1","0.8","","0.5","0.5","","","","","","","0.8","0.2","","","","","","","","","","","","74","J","0","img/none_selected_demo.jpg","true","0","80_20_practice",""
"","bandit","26","239424","0.0-18.0-7.0","19592128","wem/bandit_party_1","A279YSE7NB16M0","either","8","2752","","","","","","","1","0","0","0.2","","0.5","0.5","","","","","","","0.8","0.2","","","","","","","","","","","","75","K","1","","true","0","80_20_practice",""
"","bandit","27","241370","0.0-18.0-8.0","19592128","wem/bandit_party_1","A279YSE7NB16M0","either","8","442","","","","","","","0","0","1","0.2","","0.5","0.5","","","","","","","0.8","0.2","","","","","","","","","","","","75","K","1","","true","0","80_20_practice",""
"","bandit","28","243472","0.0-18.0-9.0","19592128","wem/bandit_party_1","A279YSE7NB16M0","either","8","600","","","","","","","1","0","0","0.8","","0.5","0.5","","","","","","","0.8","0.2","","","","","","","","","","","","74","J","0","img/none_selected_demo.jpg","true","0","80_20_practice",""
"","bandit","29","245425","0.0-18.0-10.0","19592128","wem/bandit_party_1","A279YSE7NB16M0","either","8","450","","","","","","","0","0","1","0.8","","0.5","0.5","","","","","","","0.8","0.2","","","","","","","","","","","","74","J","0","img/none_selected_demo.jpg","true","0","80_20_practice",""
"","bandit","30","249058","0.0-18.0-11.0","19592128","wem/bandit_party_1","A279YSE7NB16M0","either","8","2129","","","","","","","0","1","0","","0.8","0.5","0.5","","","0.8","0.2","","","","","","","","","","","","","","","","74","J","0","img/none_selected_demo.jpg","true","0","80_20_practice",""
"","bandit","31","251273","0.0-18.0-12.0","19592128","wem/bandit_party_1","A279YSE7NB16M0","either","8","711","","","","","","","0","0","1","0.8","","0.5","0.5","","","","","","","0.8","0.2","","","","","","","","","","","","74","J","0","img/none_selected_demo.jpg","true","0","80_20_practice",""
"","bandit","32","255241","0.0-18.0-13.0","19592128","wem/bandit_party_1","A279YSE7NB16M0","either","8","2464","","","","","","","0","0","1","","0.2","0.5","0.5","","","0.8","0.2","","","","","","","","","","","","","","","","75","K","1","","true","0","80_20_practice",""
"","bandit","33","257866","0.0-18.0-14.0","19592128","wem/bandit_party_1","A279YSE7NB16M0","either","8","1120","","","","","","","1","0","0","0.2","","0.5","0.5","","","","","","","0.8","0.2","","","","","","","","","","","","75","K","1","","true","0","80_20_practice",""
"","bandit","34","260641","0.0-18.0-15.0","19592128","wem/bandit_party_1","A279YSE7NB16M0","either","8","1272","","","","","","","0","0","1","0.2","","0.5","0.5","","","","","","","0.8","0.2","","","","","","","","","","","","75","K","1","","true","0","80_20_practice",""
"","bandit","35","262673","0.0-18.0-16.0","19592128","wem/bandit_party_1","A279YSE7NB16M0","either","8","528","","","","","","","1","0","0","0.8","","0.5","0.5","","","","","","","0.8","0.2","","","","","","","","","","","","74","J","0","img/none_selected_demo.jpg","true","0","80_20_practice",""
"","bandit","36","265416","0.0-18.0-17.0","19592128","wem/bandit_party_1","A279YSE7NB16M0","either","8","1241","","","","","","","1","0","0","0.8","","0.5","0.5","","","","","","","0.8","0.2","","","","","","","","","","","","74","J","0","img/none_selected_demo.jpg","true","0","80_20_practice",""
"","bandit","37","268600","0.0-18.0-18.0","19592128","wem/bandit_party_1","A279YSE7NB16M0","either","8","1682","","","","","","","1","0","0","0.8","","0.5","0.5","","","","","","","0.8","0.2","","","","","","","","","","","","74","J","0","img/none_selected_demo.jpg","true","0","80_20_practice",""
"","bandit","38","270482","0.0-18.0-19.0","19592128","wem/bandit_party_1","A279YSE7NB16M0","either","8","378","","","","","","","0","1","0","","0.8","0.5","0.5","","","0.8","0.2","","","","","","","","","","","","","","","","74","J","0","img/none_selected_demo.jpg","true","0","80_20_practice",""
"","text-replacement","39","286301","0.0-19.0","19592128","wem/bandit_party_1","A279YSE7NB16M0","either","8","15817","","","32","","","","","","","","","","","","","","","","","","","","","","","","","","","","","","","","","","","","",""
"","bandit","40","288586","0.0-20.0-0.0","19592128","wem/bandit_party_1","A279YSE7NB16M0","either","8","781","","","","","","","1","0","0","1","0","","","","","0","1","","","1","0","","","","","","","","","","","","74","J","0","img/none_selected_demo.jpg","true","0","",""
"","text-replacement","41","298260","0.0-21.0","19592128","wem/bandit_party_1","A279YSE7NB16M0","either","8","9671","","","32","","","","","","","","","","","","","","","","","","","","","","","","","","","","","","","","","","","","",""
"","text-replacement","42","305148","0.0-22.0","19592128","wem/bandit_party_1","A279YSE7NB16M0","either","8","6886","","","32","","","","","","","","","","","","","","","","","","","","","","","","","","","","","","","","","","","","",""
"","text-replacement","43","308956","0.0-23.0","19592128","wem/bandit_party_1","A279YSE7NB16M0","either","8","3806","","","32","","","","","","","","","","","","","","","","","","","","","","","","","","","","","","","","","","","","",""
"","text-replacement","44","315388","0.0-24.0","19592128","wem/bandit_party_1","A279YSE7NB16M0","either","8","6430","","","32","","","","","","","","","","","","","","","","","","","","","","","","","","","","","","","","","","","","",""
"","text-replacement","45","329852","0.0-25.0","19592128","wem/bandit_party_1","A279YSE7NB16M0","either","8","14463","","","32","","","","","","","","","","","","","","","","","","","","","","","","","","","","","","","","","","","","",""
"","text-replacement","46","331955","0.0-26.0","19592128","wem/bandit_party_1","A279YSE7NB16M0","either","8","2102","","","32","","","","","","","","","","","","","","","","","","","","","","","","","","","","","","","","","","","","",""
"","text-replacement","47","338683","0.0-27.0","19592128","wem/bandit_party_1","A279YSE7NB16M0","either","8","6727","","","32","","","","","","","","","","","","","","","","","","","","","","","","","","","","","","","","","","","","",""
"","text-replacement","48","343500","0.0-28.0","19592128","wem/bandit_party_1","A279YSE7NB16M0","either","8","4815","","","32","","","","","","","","","","","","","","","","","","","","","","","","","","","","","","","","","","","","",""
"","text-replacement","49","350741","0.0-29.0","19592128","wem/bandit_party_1","A279YSE7NB16M0","either","8","7239","","","32","","","","","","","","","","","","","","","","","","","","","","","","","","","","","","","","","","","","",""
"","text-replacement","50","356317","0.0-30.0","19592128","wem/bandit_party_1","A279YSE7NB16M0","either","8","5574","","","32","","","","","","","","","","","","","","","","","","","","","","","","","","","","","","","","","","","","",""
"","text-replacement","51","361820","0.0-31.0","19592128","wem/bandit_party_1","A279YSE7NB16M0","either","8","5501","","","32","","","","","","","","","","","","","","","","","","","","","","","","","","","","","","","","","","","","",""
"","bandit","52","364394","0.0-32.0-0.0","19592128","wem/bandit_party_1","A279YSE7NB16M0","either","8","1070","","","","","","","0","0","1","","0.2","0.5","0.5","0.5","0.5","0.8","0.2","0.6","0.2","","","","","","","","","","","","","","74","J","1","","true","0","full_practice",""
"","bandit","53","367330","0.0-32.0-1.0","19592128","wem/bandit_party_1","A279YSE7NB16M0","either","8","1431","","","","","","","1","0","0","0.6","","0.5","0.5","0.5","0.5","","","","","0.8","0.2","0.6","0.2","","","","","","","","","","75","K","2","","true","0","full_practice",""
"","bandit","54","369696","0.0-32.0-2.0","19592128","wem/bandit_party_1","A279YSE7NB16M0","either","8","862","","","","","","","0","1","0","","0.6","0.5","0.5","0.5","0.5","0.8","0.2","0.6","0.2","","","","","","","","","","","","","","75","K","2","","true","0","full_practice",""
"","bandit","55","372011","0.0-32.0-3.0","19592128","wem/bandit_party_1","A279YSE7NB16M0","either","8","809","","","","","","","0","1","0","","0.6","0.5","0.5","0.5","0.5","0.8","0.2","0.6","0.2","","","","","","","","","","","","","","75","K","2","","true","0","full_practice",""
"","bandit","56","374355","0.0-32.0-4.0","19592128","wem/bandit_party_1","A279YSE7NB16M0","either","8","839","","","","","","","0","0","1","","0.6","0.5","0.5","0.5","0.5","0.8","0.2","0.6","0.2","","","","","","","","","","","","","","75","K","2","","true","0","full_practice",""
"","bandit","57","376643","0.0-32.0-5.0","19592128","wem/bandit_party_1","A279YSE7NB16M0","either","8","783","","","","","","","1","0","0","0.6","","0.5","0.5","0.5","0.5","","","","","0.8","0.2","0.6","0.2","","","","","","","","","","75","K","2","","true","0","full_practice",""
"","bandit","58","378793","0.0-32.0-6.0","19592128","wem/bandit_party_1","A279YSE7NB16M0","either","8","646","","","","","","","0","1","0","","0.6","0.5","0.5","0.5","0.5","0.8","0.2","0.6","0.2","","","","","","","","","","","","","","75","K","2","","true","0","full_practice",""
"","bandit","59","380665","0.0-32.0-7.0","19592128","wem/bandit_party_1","A279YSE7NB16M0","either","8","369","","","","","","","1","0","0","0.6","","0.5","0.5","0.5","0.5","","","","","0.8","0.2","0.6","0.2","","","","","","","","","","75","K","2","","true","0","full_practice",""
"","bandit","60","382721","0.0-32.0-8.0","19592128","wem/bandit_party_1","A279YSE7NB16M0","either","8","551","","","","","","","0","0","1","0.6","","0.5","0.5","0.5","0.5","","","","","0.8","0.2","0.6","0.2","","","","","","","","","","75","K","2","","true","0","full_practice",""
"","bandit","61","384770","0.0-32.0-9.0","19592128","wem/bandit_party_1","A279YSE7NB16M0","either","8","543","","","","","","","0","1","0","","0.6","0.5","0.5","0.5","0.5","0.8","0.2","0.6","0.2","","","","","","","","","","","","","","75","K","2","","true","0","full_practice",""
"","bandit","62","386640","0.0-32.0-10.0","19592128","wem/bandit_party_1","A279YSE7NB16M0","either","8","367","","","","","","","0","1","0","","0.6","0.5","0.5","0.5","0.5","0.8","0.2","0.6","0.2","","","","","","","","","","","","","","75","K","2","","true","0","full_practice",""
"","bandit","63","388561","0.0-32.0-11.0","19592128","wem/bandit_party_1","A279YSE7NB16M0","either","8","416","","","","","","","0","0","1","0.6","","0.5","0.5","0.5","0.5","","","","","0.8","0.2","0.6","0.2","","","","","","","","","","75","K","2","","true","0","full_practice",""
"","bandit","64","390593","0.0-32.0-12.0","19592128","wem/bandit_party_1","A279YSE7NB16M0","either","8","528","","","","","","","1","0","0","0.2","","0.5","0.5","0.5","0.5","","","","","0.8","0.2","0.6","0.2","","","","","","","","","","76","L","3","","true","0","full_practice",""
"","bandit","65","392601","0.0-32.0-13.0","19592128","wem/bandit_party_1","A279YSE7NB16M0","either","8","504","","","","","","","0","0","1","","0.2","0.5","0.5","0.5","0.5","0.8","0.2","0.6","0.2","","","","","","","","","","","","","","76","L","3","","true","0","full_practice",""
"","bandit","66","394659","0.0-32.0-14.0","19592128","wem/bandit_party_1","A279YSE7NB16M0","either","8","552","","","","","","","0","0","1","","0.2","0.5","0.5","0.5","0.5","0.8","0.2","0.6","0.2","","","","","","","","","","","","","","76","L","3","","true","0","full_practice",""
"","bandit","67","396897","0.0-32.0-15.0","19592128","wem/bandit_party_1","A279YSE7NB16M0","either","8","734","","","","","","","1","0","0","0.8","","0.5","0.5","0.5","0.5","","","","","0.8","0.2","0.6","0.2","","","","","","","","","","72","H","0","img/none_selected.jpg","true","0","full_practice",""
"","bandit","68","399201","0.0-32.0-16.0","19592128","wem/bandit_party_1","A279YSE7NB16M0","either","8","800","","","","","","","0","1","0","","0.8","0.5","0.5","0.5","0.5","0.8","0.2","0.6","0.2","","","","","","","","","","","","","","72","H","0","img/none_selected.jpg","true","0","full_practice",""
"","bandit","69","401330","0.0-32.0-17.0","19592128","wem/bandit_party_1","A279YSE7NB16M0","either","8","624","","","","","","","1","0","0","0.8","","0.5","0.5","0.5","0.5","","","","","0.8","0.2","0.6","0.2","","","","","","","","","","72","H","0","img/none_selected.jpg","true","0","full_practice",""
"","bandit","70","403601","0.0-32.0-18.0","19592128","wem/bandit_party_1","A279YSE7NB16M0","either","8","768","","","","","","","1","0","0","0.8","","0.5","0.5","0.5","0.5","","","","","0.8","0.2","0.6","0.2","","","","","","","","","","72","H","0","img/none_selected.jpg","true","0","full_practice",""
"","bandit","71","405545","0.0-32.0-19.0","19592128","wem/bandit_party_1","A279YSE7NB16M0","either","8","437","","","","","","","0","1","0","","0.8","0.5","0.5","0.5","0.5","0.8","0.2","0.6","0.2","","","","","","","","","","","","","","72","H","0","img/none_selected.jpg","true","0","full_practice",""
"","text","72","415468","0.0-33.0","19592128","wem/bandit_party_1","A279YSE7NB16M0","either","8","9916","","","32","","","","","","","","","","","","","","","","","","","","","","","","","","","","","","","","","","","","",""
"","text-replacement","73","448828","0.0-34.0","19592128","wem/bandit_party_1","A279YSE7NB16M0","either","8","32358","","","32","","","","","","","","","","","","","","","","","","","","","","","","","","","","","","","","","","","","",""
"","text-replacement","74","452580","0.0-35.0","19592128","wem/bandit_party_1","A279YSE7NB16M0","either","8","3750","","","32","","","","","","","","","","","","","","","","","","","","","","","","","","","","","","","","","","","","",""
"","text-replacement","75","456635","0.0-36.0","19592128","wem/bandit_party_1","A279YSE7NB16M0","either","8","4052","","","32","","","","","","","","","","","","","","","","","","","","","","","","","","","","","","","","","","","","",""
"","text-replacement","76","461116","0.0-37.0","19592128","wem/bandit_party_1","A279YSE7NB16M0","either","8","4480","","","32","","","","","","","","","","","","","","","","","","","","","","","","","","","","","","","","","","","","",""
"","text-replacement","77","462499","0.0-38.0","19592128","wem/bandit_party_1","A279YSE7NB16M0","either","8","1381","","","32","","","","","","","","","","","","","","","","","","","","","","","","","","","","","","","","","","","","",""
"","survey-multi-choice-replacement","78","471389","0.0-39.0-0.0","19592128","wem/bandit_party_1","A279YSE7NB16M0","either","8","8883","","","","","","","","","","","","","","","","","","","","","","","","Money will be added to the pool for <span style='color:blue;'>DEMOCRATS</span>","","","","","","","attn_check","","","","","","","","","0"
"","survey-multi-choice-replacement","79","476833","0.0-40.0-0.0","19592128","wem/bandit_party_1","A279YSE7NB16M0","either","8","4436","","","","","","","","","","","","","","","","","","","","","","","","Equal amounts of money will be added to the pool for <span style='color:blue;'>DEMOCRATS</span> and subtracted from the pool for <span style='color:red;'>REPUBLICANS</span>","","","","","","","attn_check","","","","","","","","","2"
"","survey-multi-choice-replacement","80","482387","0.0-41.0-0.0","19592128","wem/bandit_party_1","A279YSE7NB16M0","either","8","4545","","","","","","","","","","","","","","","","","","","","","","","","No money will be added to either pool","","","","","","","attn_check","","","","","","","","","3"
"","bandit","81","493428","0.0-42.0-0.0","19592128","wem/bandit_party_1","A279YSE7NB16M0","either","8","8532","","","","","","","0","0","1","","0.3540548627","0.8","0.4","0.6","0.2","0.1351790469","0.3540548627","0.2928194041","0.2637293772","","","","","","","","","","","","","","74","J","1","","","1","main_expt",""
"","bandit","82","495792","0.0-43.0-0.0","19592128","wem/bandit_party_1","A279YSE7NB16M0","either","8","861","","","","","","","0","0","1","","0.3040419902","0.8","0.4","0.6","0.2","0.125602744","0.3812516843","0.3040419902","0.2760013096","","","","","","","","","","","","","","75","K","2","","","2","main_expt",""
"","bandit","83","498281","0.0-44.0-0.0","19592128","wem/bandit_party_1","A279YSE7NB16M0","either","8","985","","","","","","","0","0","1","0.3240499928","","0.8","0.4","0.6","0.2","","","","","0.09574082279","0.3901316494","0.2875251023","0.3240499928","","","","","","","","","","76","L","3","","","3","main_expt",""
"","bandit","84","503977","0.0-45.0-0.0","19592128","wem/bandit_party_1","A279YSE7NB16M0","either","8","4191","","","","","","","0","0","1","0.0913382225","","0.8","0.4","0.6","0.2","","","","","0.0913382225","0.3945399471","0.2965567903","0.3510822359","","","","","","","","","","72","H","0","img/none_selected.jpg","","4","main_expt",""
"","bandit","85","506217","0.0-46.0-0.0","19592128","wem/bandit_party_1","A279YSE7NB16M0","either","8","736","","","","","","","0","0","1","","0.3997977613","0.8","0.4","0.6","0.2","0.106177601","0.3997977613","0.2681113314","0.3522827721","","","","","","","","","","","","","","74","J","1","","","5","main_expt",""
"","bandit","86","508225","0.0-47.0-0.0","19592128","wem/bandit_party_1","A279YSE7NB16M0","either","8","504","","","","","","","0","0","1","0.2330443498","","0.8","0.4","0.6","0.2","","","","","0.08998955495","0.390783501","0.2330443498","0.382674005","","","","","","","","","","75","K","2","","","6","main_expt",""
"","bandit","87","510184","0.0-48.0-0.0","19592128","wem/bandit_party_1","A279YSE7NB16M0","either","8","447","","","","","","","0","0","1","0.3998463606","","0.8","0.4","0.6","0.2","","","","","0.1077526668","0.3305693427","0.1630509172","0.3998463606","","","","","","","","","","76","L","3","","","7","main_expt",""
"","bandit","88","512136","0.0-49.0-0.0","19592128","wem/bandit_party_1","A279YSE7NB16M0","either","8","449","","","","","","","0","0","1","","0.2002468685","0.8","0.4","0.6","0.2","0.1243697388","0.3056545716","0.2002468685","0.3832029687","","","","","","","","","","","","","","75","K","2","","","8","main_expt",""
"","bandit","89","514163","0.0-50.0-0.0","19592128","wem/bandit_party_1","A279YSE7NB16M0","either","8","521","","","","","","","0","0","1","0.3278889804","","0.8","0.4","0.6","0.2","","","","","0.1698108096","0.3278889804","0.1835034381","0.3796681134","","","","","","","","","","74","J","1","","","9","main_expt",""
"","bandit","90","516587","0.0-51.0-0.0","19592128","wem/bandit_party_1","A279YSE7NB16M0","either","8","919","","","","","","","0","1","0","","0.3137855556","0.8","0.4","0.6","0.2","0.221757114","0.3137855556","0.1939723001","0.3614311416","","","","","","","","","","","","","","74","J","1","","","10","main_expt",""
"","bandit","91","518656","0.0-52.0-0.0","19592128","wem/bandit_party_1","A279YSE7NB16M0","either","8","566","","","","","","","0","0","1","","0.3253079181","0.8","0.4","0.6","0.2","0.1961062924","0.3253079181","0.1949806013","0.3938737051","","","","","","","","","","","","","","74","J","1","","","11","main_expt",""
"","bandit","92","520634","0.0-53.0-0.0","19592128","wem/bandit_party_1","A279YSE7NB16M0","either","8","472","","","","","","","0","0","1","","0.3298150516","0.8","0.4","0.6","0.2","0.1907056259","0.3298150516","0.2587943474","0.3810544723","","","","","","","","","","","","","","74","J","1","","","12","main_expt",""
"","bandit","93","522833","0.0-54.0-0.0","19592128","wem/bandit_party_1","A279YSE7NB16M0","either","8","694","","","","","","","0","0","1","0.2162865666","","0.8","0.4","0.6","0.2","","","","","0.2162865666","0.3673307406","0.3085985727","0.3707046684","","","","","","","","","","72","H","0","img/none_selected.jpg","","13","main_expt",""
"","bandit","94","524856","0.0-55.0-0.0","19592128","wem/bandit_party_1","A279YSE7NB16M0","either","8","520","","","","","","","0","0","1","0.2399362825","","0.8","0.4","0.6","0.2","","","","","0.2399362825","0.3679224674","0.2464992766","0.3486531997","","","","","","","","","","72","H","0","img/none_selected.jpg","","14","main_expt",""
"","bandit","95","526697","0.0-56.0-0.0","19592128","wem/bandit_party_1","A279YSE7NB16M0","either","8","337","","","","","","","0","0","1","","0.2474611475","0.8","0.4","0.6","0.2","0.1986859052","0.3062507314","0.2474611475","0.3263578384","","","","","","","","","","","","","","75","K","2","","","15","main_expt",""
"","bandit","96","529129","0.0-57.0-0.0","19592128","wem/bandit_party_1","A279YSE7NB16M0","either","8","927","","","","","","","0","0","1","0.2835538477","","0.8","0.4","0.6","0.2","","","","","0.1865641621","0.2892976033","0.2835538477","0.3514189979","","","","","","","","","","75","K","2","","","16","main_expt",""
"","bandit","97","531124","0.0-58.0-0.0","19592128","wem/bandit_party_1","A279YSE7NB16M0","either","8","490","","","","","","","0","0","1","","0.2861796528","0.8","0.4","0.6","0.2","0.2035525071","0.2861796528","0.3256112075","0.3532592314","","","","","","","","","","","","","","74","J","1","","","17","main_expt",""
"","bandit","98","600312","0.0-59.0-0.0","19592128","wem/bandit_party_1","A279YSE7NB16M0","either","8","67681","","","","","","","0","0","1","0.2039336531","","0.8","0.4","0.6","0.2","","","","","0.2039336531","0.2958570682","0.3802227677","0.3858608091","","","","","","","","","","72","H","0","img/none_selected.jpg","","18","main_expt",""
"","bandit","99","602071","0.0-60.0-0.0","19592128","wem/bandit_party_1","A279YSE7NB16M0","either","8","253","","","","","","","0","1","0","","0.3353028819","0.8","0.4","0.6","0.2","0.1598579642","0.3353028819","0.360566968","0.3837638756","","","","","","","","","","","","","","74","J","1","","","19","main_expt",""
"","bandit","100","604367","0.0-61.0-0.0","19592128","wem/bandit_party_1","A279YSE7NB16M0","either","8","791","","","","","","","0","0","1","","0.3139704528","0.8","0.4","0.6","0.2","0.1437622327","0.3139704528","0.3696799013","0.2872100501","","","","","","","","","","","","","","74","J","1","","","20","main_expt",""
"","bandit","101","606576","0.0-62.0-0.0","19592128","wem/bandit_party_1","A279YSE7NB16M0","either","8","702","","","","","","","0","0","1","0.4006907501","","0.8","0.4","0.6","0.2","","","","","0.07974703335","0.2524707143","0.4006907501","0.2975414498","","","","","","","","","","75","K","2","","","21","main_expt",""
"","bandit","102","608978","0.0-63.0-0.0","19592128","wem/bandit_party_1","A279YSE7NB16M0","either","8","895","","","","","","","0","1","0","","0.2741965999","0.8","0.4","0.6","0.2","0.1361132429","0.248326021","0.4081217326","0.2741965999","","","","","","","","","","","","","","76","L","3","","","22","main_expt",""
"","bandit","103","611023","0.0-64.0-0.0","19592128","wem/bandit_party_1","A279YSE7NB16M0","either","8","541","","","","","","","0","1","0","","0.2379064449","0.8","0.4","0.6","0.2","0.1705973249","0.2937153481","0.3740207531","0.2379064449","","","","","","","","","","","","","","76","L","3","","","23","main_expt",""
"","bandit","104","613088","0.0-65.0-0.0","19592128","wem/bandit_party_1","A279YSE7NB16M0","either","8","558","","","","","","","0","0","1","","0.2078598572","0.8","0.4","0.6","0.2","0.1392759225","0.2625315469","0.3913756451","0.2078598572","","","","","","","","","","","","","","76","L","3","","","24","main_expt",""
"","bandit","105","615881","0.0-66.0-0.0","19592128","wem/bandit_party_1","A279YSE7NB16M0","either","8","1287","","","","","","","1","0","0","0.4100905738","","0.8","0.4","0.6","0.2","","","","","0.1800538527","0.2405651368","0.4100905738","0.2764850733","","","","","","","","","","75","K","2","","","25","main_expt",""
"","bandit","106","618063","0.0-67.0-0.0","19592128","wem/bandit_party_1","A279YSE7NB16M0","either","8","679","","","","","","","1","0","0","0.3600668969","","0.8","0.4","0.6","0.2","","","","","0.2146400533","0.2503350336","0.3600668969","0.3080191348","","","","","","","","","","75","K","2","","","26","main_expt",""
"","bandit","107","620247","0.0-68.0-0.0","19592128","wem/bandit_party_1","A279YSE7NB16M0","either","8","679","","","","","","","1","0","0","0.3703096079","","0.8","0.4","0.6","0.2","","","","","0.1948367851","0.354091838","0.3703096079","0.3606197488","","","","","","","","","","75","K","2","","","27","main_expt",""
"","bandit","108","622955","0.0-69.0-0.0","19592128","wem/bandit_party_1","A279YSE7NB16M0","either","8","1199","","","","","","","0","0","1","0.3527269899","","0.8","0.4","0.6","0.2","","","","","0.2282666016","0.3419366675","0.3527269899","0.3696097963","","","","","","","","","","75","K","2","","","28","main_expt",""
"","bandit","109","624935","0.0-70.0-0.0","19592128","wem/bandit_party_1","A279YSE7NB16M0","either","8","476","","","","","","","0","0","1","0.2854860911","","0.8","0.4","0.6","0.2","","","","","0.1842618798","0.361896517","0.2854860911","0.3434444954","","","","","","","","","","75","K","2","","","29","main_expt",""
"","bandit","110","626912","0.0-71.0-0.0","19592128","wem/bandit_party_1","A279YSE7NB16M0","either","8","471","","","","","","","0","0","1","","0.2971434158","0.8","0.4","0.6","0.2","0.1930267653","0.3701160785","0.2971434158","0.3528183973","","","","","","","","","","","","","","75","K","2","","","30","main_expt",""
"","bandit","111","628912","0.0-72.0-0.0","19592128","wem/bandit_party_1","A279YSE7NB16M0","either","8","495","","","","","","","0","1","0","","0.3192935598","0.8","0.4","0.6","0.2","0.2279264959","0.3602312343","0.3192935598","0.3436926249","","","","","","","","","","","","","","75","K","2","","","31","main_expt",""
"","bandit","112","630946","0.0-73.0-0.0","19592128","wem/bandit_party_1","A279YSE7NB16M0","either","8","526","","","","","","","0","0","1","0.2910845839","","0.8","0.4","0.6","0.2","","","","","0.1922668126","0.3550043818","0.2910845839","0.3392376576","","","","","","","","","","75","K","2","","","32","main_expt",""
"","bandit","113","632951","0.0-74.0-0.0","19592128","wem/bandit_party_1","A279YSE7NB16M0","either","8","501","","","","","","","0","0","1","","0.2524106513","0.8","0.4","0.6","0.2","0.1503247695","0.3927862597","0.2956883229","0.2524106513","","","","","","","","","","","","","","76","L","3","","","33","main_expt",""
"","bandit","114","635047","0.0-75.0-0.0","19592128","wem/bandit_party_1","A279YSE7NB16M0","either","8","591","","","","","","","0","1","0","","0.2378308988","0.8","0.4","0.6","0.2","0.1875072744","0.4185963197","0.2918182698","0.2378308988","","","","","","","","","","","","","","76","L","3","","","34","main_expt",""
"","bandit","115","637479","0.0-76.0-0.0","19592128","wem/bandit_party_1","A279YSE7NB16M0","either","8","927","","","","","","","0","0","1","0.2683654211","","0.8","0.4","0.6","0.2","","","","","0.2135507624","0.441983755","0.3063909307","0.2683654211","","","","","","","","","","76","L","3","","","35","main_expt",""
"","bandit","116","639552","0.0-77.0-0.0","19592128","wem/bandit_party_1","A279YSE7NB16M0","either","8","568","","","","","","","0","0","1","","0.2820805085","0.8","0.4","0.6","0.2","0.2042402853","0.4352827683","0.2820805085","0.2645223933","","","","","","","","","","","","","","75","K","2","","","36","main_expt",""
"","bandit","117","641896","0.0-78.0-0.0","19592128","wem/bandit_party_1","A279YSE7NB16M0","either","8","838","","","","","","","1","0","0","0.2610370824","","0.8","0.4","0.6","0.2","","","","","0.2024605481","0.450520142","0.2610370824","0.2360561858","","","","","","","","","","75","K","2","","","37","main_expt",""
"","bandit","118","644433","0.0-79.0-0.0","19592128","wem/bandit_party_1","A279YSE7NB16M0","either","8","1029","","","","","","","0","0","1","0.1896233007","","0.8","0.4","0.6","0.2","","","","","0.1677713785","0.4681224698","0.1896233007","0.2001865083","","","","","","","","","","75","K","2","","","38","main_expt",""
"","bandit","119","646496","0.0-80.0-0.0","19592128","wem/bandit_party_1","A279YSE7NB16M0","either","8","556","","","","","","","0","1","0","","0.1687915361","0.8","0.4","0.6","0.2","0.221779122","0.4711022053","0.168851025","0.1687915361","","","","","","","","","","","","","","76","L","3","","","39","main_expt",""
"","bandit","120","648616","0.0-81.0-0.0","19592128","wem/bandit_party_1","A279YSE7NB16M0","either","8","615","","","","","","","0","0","1","","0.1503151413","0.8","0.4","0.6","0.2","0.2722397218","0.4559447699","0.1615787635","0.1503151413","","","","","","","","","","","","","","76","L","3","","","40","main_expt",""
"","bandit","121","650545","0.0-82.0-0.0","19592128","wem/bandit_party_1","A279YSE7NB16M0","either","8","423","","","","","","","0","0","1","","0.1472326003","0.8","0.4","0.6","0.2","0.3298230943","0.4412687596","0.1472326003","0.08168262283","","","","","","","","","","","","","","75","K","2","","","41","main_expt",""
"","bandit","122","652264","0.0-83.0-0.0","19592128","wem/bandit_party_1","A279YSE7NB16M0","either","8","214","","","","","","","0","0","1","","0.07668629145","0.8","0.4","0.6","0.2","0.3104885444","0.4457751761","0.1533480506","0.07668629145","","","","","","","","","","","","","","76","L","3","","","42","main_expt",""
"","bandit","123","654346","0.0-84.0-0.0","19592128","wem/bandit_party_1","A279YSE7NB16M0","either","8","574","","","","","","","0","0","1","","0.07394587158","0.8","0.4","0.6","0.2","0.3005355489","0.4298378352","0.1414351437","0.07394587158","","","","","","","","","","","","","","76","L","3","","","43","main_expt",""
"","bandit","124","656420","0.0-85.0-0.0","19592128","wem/bandit_party_1","A279YSE7NB16M0","either","8","542","","","","","","","0","0","1","0.1067646429","","0.8","0.4","0.6","0.2","","","","","0.2456242138","0.4416915379","0.1067646429","0.1192337685","","","","","","","","","","75","K","2","","","44","main_expt",""
"","bandit","125","658360","0.0-86.0-0.0","19592128","wem/bandit_party_1","A279YSE7NB16M0","either","8","434","","","","","","","0","0","1","","0.1250796286","0.8","0.4","0.6","0.2","0.2839901561","0.3915522423","0.1250796286","0.1285724119","","","","","","","","","","","","","","75","K","2","","","45","main_expt",""
"","bandit","126","660753","0.0-87.0-0.0","19592128","wem/bandit_party_1","A279YSE7NB16M0","either","8","889","","","","","","","0","0","1","","0.1927264636","0.8","0.4","0.6","0.2","0.2353621531","0.4318427431","0.1927264636","0.1112684106","","","","","","","","","","","","","","75","K","2","","","46","main_expt",""
"","bandit","127","663216","0.0-88.0-0.0","19592128","wem/bandit_party_1","A279YSE7NB16M0","either","8","958","","","","","","","0","0","1","","0.1207340475","0.8","0.4","0.6","0.2","0.2405257196","0.4395998441","0.1804488412","0.1207340475","","","","","","","","","","","","","","76","L","3","","","47","main_expt",""
"","bandit","128","665321","0.0-89.0-0.0","19592128","wem/bandit_party_1","A279YSE7NB16M0","either","8","599","","","","","","","0","0","1","","0.1182533935","0.8","0.4","0.6","0.2","0.2629408555","0.4630443269","0.168268176","0.1182533935","","","","","","","","","","","","","","76","L","3","","","48","main_expt",""
"","bandit","129","667663","0.0-90.0-0.0","19592128","wem/bandit_party_1","A279YSE7NB16M0","either","8","831","","","","","","","1","0","0","0.4794982466","","0.8","0.4","0.6","0.2","","","","","0.2902453213","0.4794982466","0.1466838001","0.1460801474","","","","","","","","","","74","J","1","","","49","main_expt",""
"","bandit","130","669625","0.0-91.0-0.0","19592128","wem/bandit_party_1","A279YSE7NB16M0","either","8","456","","","","","","","0","1","0","","0.4562783041","0.8","0.4","0.6","0.2","0.3033715012","0.4562783041","0.1336340117","0.1765155983","","","","","","","","","","","","","","74","J","1","","","50","main_expt",""
"","bandit","131","671793","0.0-92.0-0.0","19592128","wem/bandit_party_1","A279YSE7NB16M0","either","8","663","","","","","","","1","0","0","0.4515646323","","0.8","0.4","0.6","0.2","","","","","0.3536831403","0.4515646323","0.1067821754","0.1614266163","","","","","","","","","","74","J","1","","","51","main_expt",""
"","bandit","132","674130","0.0-93.0-0.0","19592128","wem/bandit_party_1","A279YSE7NB16M0","either","8","830","","","","","","","0","1","0","","0.4344137529","0.8","0.4","0.6","0.2","0.3058792917","0.4344137529","0.07294577227","0.1938643747","","","","","","","","","","","","","","74","J","1","","","52","main_expt",""
"","bandit","133","676378","0.0-94.0-0.0","19592128","wem/bandit_party_1","A279YSE7NB16M0","either","8","742","","","","","","","0","1","0","","0.4421766306","0.8","0.4","0.6","0.2","0.3466820038","0.4421766306","0.07676454597","0.1721886996","","","","","","","","","","","","","","74","J","1","","","53","main_expt",""
"","bandit","134","678584","0.0-95.0-0.0","19592128","wem/bandit_party_1","A279YSE7NB16M0","either","8","702","","","","","","","0","0","1","0.4591875032","","0.8","0.4","0.6","0.2","","","","","0.3159173384","0.4591875032","0.07707135067","0.1542880765","","","","","","","","","","74","J","1","","","54","main_expt",""
"","bandit","135","680700","0.0-96.0-0.0","19592128","wem/bandit_party_1","A279YSE7NB16M0","either","8","551","","","","","","","0","0","1","","0.3205246683","0.8","0.4","0.6","0.2","0.3205246683","0.4455250987","0.08227932488","0.2155598061","","","","","","","","","","","","","","72","H","0","img/none_selected.jpg","","55","main_expt",""
"","bandit","136","682736","0.0-97.0-0.0","19592128","wem/bandit_party_1","A279YSE7NB16M0","either","8","532","","","","","","","0","0","1","","0.09013031375","0.8","0.4","0.6","0.2","0.3067659888","0.4200701886","0.09013031375","0.199350645","","","","","","","","","","","","","","75","K","2","","","56","main_expt",""
"","bandit","137","684729","0.0-98.0-0.0","19592128","wem/bandit_party_1","A279YSE7NB16M0","either","8","486","","","","","","","0","0","1","","0.1991981904","0.8","0.4","0.6","0.2","0.3786279545","0.3635567377","0.106866739","0.1991981904","","","","","","","","","","","","","","76","L","3","","","57","main_expt",""
"","bandit","138","686522","0.0-99.0-0.0","19592128","wem/bandit_party_1","A279YSE7NB16M0","either","8","285","","","","","","","0","0","1","","0.3647217687","0.8","0.4","0.6","0.2","0.3796022377","0.3647217687","0.0915584437","0.1307276253","","","","","","","","","","","","","","74","J","1","","","58","main_expt",""
"","bandit","139","688552","0.0-100.0-0.0","19592128","wem/bandit_party_1","A279YSE7NB16M0","either","8","526","","","","","","","0","0","1","","0.3975499765","0.8","0.4","0.6","0.2","0.3570845549","0.3975499765","0.1036540812","0.1540949786","","","","","","","","","","","","","","74","J","1","","","59","main_expt",""
"","bandit","140","690279","0.0-101.0-0.0","19592128","wem/bandit_party_1","A279YSE7NB16M0","either","8","222","","","","","","","0","0","1","0.376383165","","0.8","0.4","0.6","0.2","","","","","0.398525789","0.376383165","0.07948280662","0.1187181044","","","","","","","","","","74","J","1","","","60","main_expt",""
"","bandit","141","692596","0.0-102.0-0.0","19592128","wem/bandit_party_1","A279YSE7NB16M0","either","8","811","","","","","","","0","0","1","0.3384437455","","0.8","0.4","0.6","0.2","","","","","0.380986593","0.3384437455","0.0685056185","0.1734870435","","","","","","","","","","74","J","1","","","61","main_expt",""
"","bandit","142","695368","0.0-103.0-0.0","19592128","wem/bandit_party_1","A279YSE7NB16M0","either","8","1267","","","","","","","0","0","1","","0.04196312691","0.8","0.4","0.6","0.2","0.3928002855","0.3086389155","0.04196312691","0.2056999461","","","","","","","","","","","","","","75","K","2","","","62","main_expt",""
"","bandit","143","698472","0.0-104.0-0.0","19592128","wem/bandit_party_1","A279YSE7NB16M0","either","8","1597","","","","","","","0","0","1","","0.2421495796","0.8","0.4","0.6","0.2","0.4097838671","0.3098998428","0.06524357318","0.2421495796","","","","","","","","","","","","","","76","L","3","","","63","main_expt",""
"","bandit","144","701145","0.0-105.0-0.0","19592128","wem/bandit_party_1","A279YSE7NB16M0","either","8","1166","","","","","","","0","0","1","","0.04599317762","0.8","0.4","0.6","0.2","0.3942475769","0.2859800092","0.04599317762","0.2678986655","","","","","","","","","","","","","","75","K","2","","","64","main_expt",""
"","bandit","145","708753","0.0-106.0-0.0","19592128","wem/bandit_party_1","A279YSE7NB16M0","either","8","6102","","","","","","","0","0","1","","0.04738713632","0.8","0.4","0.6","0.2","0.3756823908","0.2780623804","0.04738713632","0.2780805564","","","","","","","","","","","","","","75","K","2","","","65","main_expt",""
"","bandit","146","760890","0.0-107.0-0.0","19592128","wem/bandit_party_1","A279YSE7NB16M0","either","8","50631","","","","","","","0","0","1","","0.2740889186","0.8","0.4","0.6","0.2","0.3780323226","0.2740889186","0.02873144913","0.2923516192","","","","","","","","","","","","","","74","J","1","","","66","main_expt",""
"","bandit","147","762824","0.0-108.0-0.0","19592128","wem/bandit_party_1","A279YSE7NB16M0","either","8","426","","","","","","","0","0","1","","0.0355516853","0.8","0.4","0.6","0.2","0.382091886","0.3122756929","0.0355516853","0.3481747094","","","","","","","","","","","","","","75","K","2","","","67","main_expt",""
"","bandit","148","765072","0.0-109.0-0.0","19592128","wem/bandit_party_1","A279YSE7NB16M0","either","8","743","","","","","","","0","0","1","0.04483006882","","0.8","0.4","0.6","0.2","","","","","0.4080562953","0.3004294993","0.04483006882","0.3540590834","","","","","","","","","","75","K","2","","","68","main_expt",""
"","bandit","149","767586","0.0-110.0-0.0","19592128","wem/bandit_party_1","A279YSE7NB16M0","either","8","1006","","","","","","","0","0","1","0.3348318208","","0.8","0.4","0.6","0.2","","","","","0.419826639","0.3312842332","0.04300650393","0.3348318208","","","","","","","","","","76","L","3","","","69","main_expt",""
"","bandit","150","770583","0.0-111.0-0.0","19592128","wem/bandit_party_1","A279YSE7NB16M0","either","8","1493","","","","","","","0","0","1","0.3889643965","","0.8","0.4","0.6","0.2","","","","","0.3889643965","0.2362018798","0.03960880855","0.3844983113","","","","","","","","","","72","H","0","img/none_selected.jpg","","70","main_expt",""
"","bandit","151","772663","0.0-112.0-0.0","19592128","wem/bandit_party_1","A279YSE7NB16M0","either","8","573","","","","","","","1","0","0","0.1838323472","","0.8","0.4","0.6","0.2","","","","","0.3492343966","0.1838323472","0.02401392238","0.3753843975","","","","","","","","","","74","J","1","","","71","main_expt",""
"","bandit","152","774863","0.0-113.0-0.0","19592128","wem/bandit_party_1","A279YSE7NB16M0","either","8","695","","","","","","","0","0","1","0.1749810972","","0.8","0.4","0.6","0.2","","","","","0.3502155883","0.1749810972","0.008756159955","0.3861429343","","","","","","","","","","74","J","1","","","72","main_expt",""
"","bandit","153","776921","0.0-114.0-0.0","19592128","wem/bandit_party_1","A279YSE7NB16M0","either","8","549","","","","","","","0","0","1","","0.006257651783","0.8","0.4","0.6","0.2","0.3568691787","0.1664097112","0.006257651783","0.3978436086","","","","","","","","","","","","","","75","K","2","","","73","main_expt",""
"","bandit","154","778897","0.0-115.0-0.0","19592128","wem/bandit_party_1","A279YSE7NB16M0","either","8","470","","","","","","","0","0","1","","0.2001176207","0.8","0.4","0.6","0.2","0.3303653739","0.2001176207","0.004732084297","0.3847979518","","","","","","","","","","","","","","74","J","1","","","74","main_expt",""
"","bandit","155","780823","0.0-116.0-0.0","19592128","wem/bandit_party_1","A279YSE7NB16M0","either","8","421","","","","","","","0","0","1","","0.006967558871","0.8","0.4","0.6","0.2","0.3353283381","0.1848717924","0.006967558871","0.3974319157","","","","","","","","","","","","","","75","K","2","","","75","main_expt",""
"","bandit","156","782768","0.0-117.0-0.0","19592128","wem/bandit_party_1","A279YSE7NB16M0","either","8","439","","","","","","","0","1","0","","0.3987985884","0.8","0.4","0.6","0.2","0.3009524994","0.1510178238","0.004525860487","0.3987985884","","","","","","","","","","","","","","76","L","3","","","76","main_expt",""
"","bandit","157","784312","0.0-118.0-0.0","19592128","wem/bandit_party_1","A279YSE7NB16M0","either","8","34","","","","","","","0","0","1","","0.4127312768","0.8","0.4","0.6","0.2","0.3316028908","0.2089633591","0.007245535115","0.4127312768","","","","","","","","","","","","","","76","L","3","","","77","main_expt",""
"","bandit","158","785887","0.0-119.0-0.0","19592128","wem/bandit_party_1","A279YSE7NB16M0","either","8","70","","","","","","","0","1","0","","0.4257675477","0.8","0.4","0.6","0.2","0.3571024926","0.2285147345","0.00483057751","0.4257675477","","","","","","","","","","","","","","76","L","3","","","78","main_expt",""
"","bandit","159","787543","0.0-120.0-0.0","19592128","wem/bandit_party_1","A279YSE7NB16M0","either","8","150","","","","","","","0","0","1","","0.4331167668","0.8","0.4","0.6","0.2","0.3542776451","0.2246975601","0.005956317848","0.4331167668","","","","","","","","","","","","","","76","L","3","","","79","main_expt",""
"","bandit","160","790520","0.0-121.0-0.0","19592128","wem/bandit_party_1","A279YSE7NB16M0","either","8","1470","","","","","","","0","0","1","","0.4294395537","0.8","0.4","0.6","0.2","0.3201174307","0.1878766281","0.0076590047","0.4294395537","","","","","","","","","","","","","","76","L","3","","","80","main_expt",""
"","bandit","161","792672","0.0-122.0-0.0","19592128","wem/bandit_party_1","A279YSE7NB16M0","either","8","644","","","","","","","1","0","0","0.4234249918","","0.8","0.4","0.6","0.2","","","","","0.3503003334","0.2436254364","0.009115568074","0.4234249918","","","","","","","","","","76","L","3","","","81","main_expt",""
"","bandit","162","794843","0.0-123.0-0.0","19592128","wem/bandit_party_1","A279YSE7NB16M0","either","8","662","","","","","","","0","0","1","","0.3956977209","0.8","0.4","0.6","0.2","0.3509066846","0.2627531714","0.01382977225","0.3956977209","","","","","","","","","","","","","","76","L","3","","","82","main_expt",""
"","bandit","163","797423","0.0-124.0-0.0","19592128","wem/bandit_party_1","A279YSE7NB16M0","either","8","1074","","","","","","","0","0","1","","0.4248650233","0.8","0.4","0.6","0.2","0.3951868033","0.2672212524","0.01500629599","0.4248650233","","","","","","","","","","","","","","76","L","3","","","83","main_expt",""
"","bandit","164","799416","0.0-125.0-0.0","19592128","wem/bandit_party_1","A279YSE7NB16M0","either","8","486","","","","","","","0","0","1","","0.02310127573","0.8","0.4","0.6","0.2","0.4131477378","0.2817484998","0.02310127573","0.4196907627","","","","","","","","","","","","","","75","K","2","","","84","main_expt",""
"","bandit","165","801385","0.0-126.0-0.0","19592128","wem/bandit_party_1","A279YSE7NB16M0","either","8","461","","","","","","","0","0","1","0.02639065846","","0.8","0.4","0.6","0.2","","","","","0.3889697292","0.3074775227","0.02639065846","0.435633498","","","","","","","","","","75","K","2","","","85","main_expt",""
"","bandit","166","803063","0.0-127.0-0.0","19592128","wem/bandit_party_1","A279YSE7NB16M0","either","8","172","","","","","","","0","0","1","","0.2717847629","0.8","0.4","0.6","0.2","0.3885636443","0.2717847629","0.01746441632","0.4322222521","","","","","","","","","","","","","","74","J","1","","","86","main_expt",""
"","bandit","167","805104","0.0-128.0-0.0","19592128","wem/bandit_party_1","A279YSE7NB16M0","either","8","535","","","","","","","0","1","0","","0.4476119451","0.8","0.4","0.6","0.2","0.4028282504","0.2183858348","0.01256144444","0.4476119451","","","","","","","","","","","","","","76","L","3","","","87","main_expt",""
"","bandit","168","807087","0.0-129.0-0.0","19592128","wem/bandit_party_1","A279YSE7NB16M0","either","8","476","","","","","","","0","1","0","","0.4073123198","0.8","0.4","0.6","0.2","0.4306890759","0.2054961256","0.01178158386","0.4073123198","","","","","","","","","","","","","","76","L","3","","","88","main_expt",""
"","bandit","169","809087","0.0-130.0-0.0","19592128","wem/bandit_party_1","A279YSE7NB16M0","either","8","493","","","","","","","0","0","1","0.3862301724","","0.8","0.4","0.6","0.2","","","","","0.4103738654","0.1452714398","0.008722555822","0.3862301724","","","","","","","","","","76","L","3","","","89","main_expt",""
"","bandit","170","811591","0.0-131.0-0.0","19592128","wem/bandit_party_1","A279YSE7NB16M0","either","8","998","","","","","","","0","0","1","0.3596745144","","0.8","0.4","0.6","0.2","","","","","0.3980827974","0.1077779513","0.008232471735","0.3596745144","","","","","","","","","","76","L","3","","","90","main_expt",""
"","bandit","171","813746","0.0-132.0-0.0","19592128","wem/bandit_party_1","A279YSE7NB16M0","either","8","646","","","","","","","0","1","0","","0.3082854458","0.8","0.4","0.6","0.2","0.4040531024","0.1308407065","0.01249180717","0.3082854458","","","","","","","","","","","","","","76","L","3","","","91","main_expt",""
"","bandit","172","815298","0.0-133.0-0.0","19592128","wem/bandit_party_1","A279YSE7NB16M0","either","8","44","","","","","","","0","0","1","","0.312225492","0.8","0.4","0.6","0.2","0.3462944796","0.1652322036","0.01470986316","0.312225492","","","","","","","","","","","","","","76","L","3","","","92","main_expt",""
"","bandit","173","817515","0.0-134.0-0.0","19592128","wem/bandit_party_1","A279YSE7NB16M0","either","8","707","","","","","","","0","0","1","","0.3671658277","0.8","0.4","0.6","0.2","0.3411451966","0.1344678182","0.02655281846","0.3671658277","","","","","","","","","","","","","","76","L","3","","","93","main_expt",""
"","bandit","174","819545","0.0-135.0-0.0","19592128","wem/bandit_party_1","A279YSE7NB16M0","either","8","521","","","","","","","0","0","1","","0.3401731108","0.8","0.4","0.6","0.2","0.3384154489","0.1301314301","0.02575246025","0.3401731108","","","","","","","","","","","","","","76","L","3","","","94","main_expt",""
"","bandit","175","821775","0.0-136.0-0.0","19592128","wem/bandit_party_1","A279YSE7NB16M0","either","8","724","","","","","","","0","1","0","","0.3413923724","0.8","0.4","0.6","0.2","0.3126988266","0.1746055711","0.02262355665","0.3413923724","","","","","","","","","","","","","","76","L","3","","","95","main_expt",""
"","bandit","176","823920","0.0-137.0-0.0","19592128","wem/bandit_party_1","A279YSE7NB16M0","either","8","639","","","","","","","0","1","0","","0.3570420485","0.8","0.4","0.6","0.2","0.3800019137","0.1994244555","0.02047181149","0.3570420485","","","","","","","","","","","","","","76","L","3","","","96","main_expt",""
"","bandit","177","825984","0.0-138.0-0.0","19592128","wem/bandit_party_1","A279YSE7NB16M0","either","8","557","","","","","","","0","0","1","","0.3435474977","0.8","0.4","0.6","0.2","0.3328121005","0.1834602947","0.0207754381","0.3435474977","","","","","","","","","","","","","","76","L","3","","","97","main_expt",""
"","bandit","178","828209","0.0-139.0-0.0","19592128","wem/bandit_party_1","A279YSE7NB16M0","either","8","717","","","","","","","0","1","0","","0.3614714926","0.8","0.4","0.6","0.2","0.332228596","0.1719221531","0.02955834597","0.3614714926","","","","","","","","","","","","","","76","L","3","","","98","main_expt",""
"","bandit","179","830111","0.0-140.0-0.0","19592128","wem/bandit_party_1","A279YSE7NB16M0","either","8","396","","","","","","","0","0","1","","0.3176405447","0.8","0.4","0.6","0.2","0.2843854285","0.1183399241","0.0383131093","0.3176405447","","","","","","","","","","","","","","76","L","3","","","99","main_expt",""
"","bandit","180","831874","0.0-141.0-0.0","19592128","wem/bandit_party_1","A279YSE7NB16M0","either","8","254","","","","","","","0","1","0","","0.3586553183","0.8","0.4","0.6","0.2","0.309751149","0.1558635017","0.03580757471","0.3586553183","","","","","","","","","","","","","","76","L","3","","","100","main_expt",""
"","bandit","181","834762","0.0-142.0-0.0","19592128","wem/bandit_party_1","A279YSE7NB16M0","either","8","1380","","","","","","","1","0","0","0.04899620691","","0.8","0.4","0.6","0.2","","","","","0.2993195944","0.1389665978","0.04899620691","0.2951503345","","","","","","","","","","75","K","2","","","101","main_expt",""
"","bandit","182","836752","0.0-143.0-0.0","19592128","wem/bandit_party_1","A279YSE7NB16M0","either","8","486","","","","","","","0","0","1","","0.08055650644","0.8","0.4","0.6","0.2","0.3551890872","0.1377203561","0.08055650644","0.2998391809","","","","","","","","","","","","","","75","K","2","","","102","main_expt",""
"","bandit","183","838938","0.0-144.0-0.0","19592128","wem/bandit_party_1","A279YSE7NB16M0","either","8","677","","","","","","","0","0","1","","0.1040447627","0.8","0.4","0.6","0.2","0.3148404956","0.1285548106","0.1040447627","0.2791823827","","","","","","","","","","","","","","75","K","2","","","103","main_expt",""
"","bandit","184","841884","0.0-145.0-0.0","19592128","wem/bandit_party_1","A279YSE7NB16M0","either","8","1436","","","","","","","0","0","1","","0.3382769334","0.8","0.4","0.6","0.2","0.3286912191","0.1555523735","0.1143547335","0.3382769334","","","","","","","","","","","","","","76","L","3","","","104","main_expt",""
"","bandit","185","843882","0.0-146.0-0.0","19592128","wem/bandit_party_1","A279YSE7NB16M0","either","8","490","","","","","","","0","0","1","","0.1487676438","0.8","0.4","0.6","0.2","0.298340497","0.1775592141","0.1487676438","0.3339697125","","","","","","","","","","","","","","75","K","2","","","105","main_expt",""
"","bandit","186","845836","0.0-147.0-0.0","19592128","wem/bandit_party_1","A279YSE7NB16M0","either","8","445","","","","","","","0","1","0","","0.3124129253","0.8","0.4","0.6","0.2","0.3504464386","0.2263451353","0.152088545","0.3124129253","","","","","","","","","","","","","","76","L","3","","","106","main_expt",""
"","bandit","187","847817","0.0-148.0-0.0","19592128","wem/bandit_party_1","A279YSE7NB16M0","either","8","476","","","","","","","0","0","1","","0.3400683723","0.8","0.4","0.6","0.2","0.3510410077","0.1679769802","0.2406734145","0.3400683723","","","","","","","","","","","","","","76","L","3","","","107","main_expt",""
"","bandit","188","849939","0.0-149.0-0.0","19592128","wem/bandit_party_1","A279YSE7NB16M0","either","8","613","","","","","","","1","0","0","0.3048040024","","0.8","0.4","0.6","0.2","","","","","0.3282766846","0.1999870147","0.3048040024","0.3557340834","","","","","","","","","","75","K","2","","","108","main_expt",""
"","bandit","189","851912","0.0-150.0-0.0","19592128","wem/bandit_party_1","A279YSE7NB16M0","either","8","468","","","","","","","0","0","1","","0.3418503096","0.8","0.4","0.6","0.2","0.3561186451","0.208992856","0.3418503096","0.3846418901","","","","","","","","","","","","","","75","K","2","","","109","main_expt",""
"","bandit","190","854608","0.0-151.0-0.0","19592128","wem/bandit_party_1","A279YSE7NB16M0","either","8","1190","","","","","","","0","1","0","","0.4057962062","0.8","0.4","0.6","0.2","0.3576445865","0.1716040471","0.3198501315","0.4057962062","","","","","","","","","","","","","","76","L","3","","","110","main_expt",""
"","bandit","191","856736","0.0-152.0-0.0","19592128","wem/bandit_party_1","A279YSE7NB16M0","either","8","621","","","","","","","0","0","1","","0.3692451483","0.8","0.4","0.6","0.2","0.3377543854","0.08984071331","0.3681534847","0.3692451483","","","","","","","","","","","","","","76","L","3","","","111","main_expt",""
"","bandit","192","859057","0.0-153.0-0.0","19592128","wem/bandit_party_1","A279YSE7NB16M0","either","8","815","","","","","","","0","0","1","","0.3577317973","0.8","0.4","0.6","0.2","0.286234052","0.1243463141","0.3757830796","0.3577317973","","","","","","","","","","","","","","76","L","3","","","112","main_expt",""
"","bandit","193","864024","0.0-154.0-0.0","19592128","wem/bandit_party_1","A279YSE7NB16M0","either","8","3460","","","","","","","0","0","1","","0.3328808086","0.8","0.4","0.6","0.2","0.1932674395","0.1433440675","0.3838999828","0.3328808086","","","","","","","","","","","","","","76","L","3","","","113","main_expt",""
"","bandit","194","869272","0.0-155.0-0.0","19592128","wem/bandit_party_1","A279YSE7NB16M0","either","8","3742","","","","","","","0","0","1","","0.3416979579","0.8","0.4","0.6","0.2","0.2403040534","0.1510662198","0.4157938717","0.3416979579","","","","","","","","","","","","","","76","L","3","","","114","main_expt",""
"","bandit","195","871152","0.0-156.0-0.0","19592128","wem/bandit_party_1","A279YSE7NB16M0","either","8","373","","","","","","","1","0","0","0.4055870595","","0.8","0.4","0.6","0.2","","","","","0.254937398","0.09845245139","0.4055870595","0.3377137281","","","","","","","","","","75","K","2","","","115","main_expt",""
"","bandit","196","873211","0.0-157.0-0.0","19592128","wem/bandit_party_1","A279YSE7NB16M0","either","8","550","","","","","","","1","0","0","0.4161015278","","0.8","0.4","0.6","0.2","","","","","0.2605063941","0.107393795","0.4161015278","0.3039448029","","","","","","","","","","75","K","2","","","116","main_expt",""
"","bandit","197","875362","0.0-158.0-0.0","19592128","wem/bandit_party_1","A279YSE7NB16M0","either","8","644","","","","","","","0","0","1","0.414877819","","0.8","0.4","0.6","0.2","","","","","0.2161328783","0.07879800556","0.414877819","0.2974336912","","","","","","","","","","75","K","2","","","117","main_expt",""
"","bandit","198","877664","0.0-159.0-0.0","19592128","wem/bandit_party_1","A279YSE7NB16M0","either","8","797","","","","","","","0","0","1","","0.08383735875","0.8","0.4","0.6","0.2","0.1931197841","0.08383735875","0.3968259953","0.2651867246","","","","","","","","","","","","","","74","J","1","","","118","main_expt",""
"","bandit","199","880201","0.0-160.0-0.0","19592128","wem/bandit_party_1","A279YSE7NB16M0","either","8","1029","","","","","","","0","0","1","0.1638183597","","0.8","0.4","0.6","0.2","","","","","0.1638183597","0.1392474383","0.4198241006","0.3131666206","","","","","","","","","","72","H","0","img/none_selected.jpg","","119","main_expt",""
"","bandit","200","882162","0.0-161.0-0.0","19592128","wem/bandit_party_1","A279YSE7NB16M0","either","8","453","","","","","","","1","0","0","0.1649404926","","0.8","0.4","0.6","0.2","","","","","0.1893282748","0.1649404926","0.4286088018","0.358829095","","","","","","","","","","74","J","1","","","120","main_expt",""
"","bandit","201","884250","0.0-162.0-0.0","19592128","wem/bandit_party_1","A279YSE7NB16M0","either","8","579","","","","","","","0","0","1","","0.1764152442","0.8","0.4","0.6","0.2","0.2290368179","0.1764152442","0.4253829576","0.3189860171","","","","","","","","","","","","","","74","J","1","","","121","main_expt",""
"","bandit","202","886249","0.0-163.0-0.0","19592128","wem/bandit_party_1","A279YSE7NB16M0","either","8","492","","","","","","","0","0","1","0.4235175979","","0.8","0.4","0.6","0.2","","","","","0.2445441383","0.2092397698","0.4235175979","0.3011672979","","","","","","","","","","75","K","2","","","122","main_expt",""
"","bandit","203","888272","0.0-164.0-0.0","19592128","wem/bandit_party_1","A279YSE7NB16M0","either","8","516","","","","","","","0","0","1","","0.3037948063","0.8","0.4","0.6","0.2","0.2091075756","0.1884058447","0.4182090072","0.3037948063","","","","","","","","","","","","","","76","L","3","","","123","main_expt",""
"","bandit","204","890775","0.0-165.0-0.0","19592128","wem/bandit_party_1","A279YSE7NB16M0","either","8","998","","","","","","","0","0","1","","0.1876417206","0.8","0.4","0.6","0.2","0.2216111921","0.1876417206","0.4356016004","0.2446200253","","","","","","","","","","","","","","74","J","1","","","124","main_expt",""
"","bandit","205","892687","0.0-166.0-0.0","19592128","wem/bandit_party_1","A279YSE7NB16M0","either","8","405","","","","","","","1","0","0","0.1622020501","","0.8","0.4","0.6","0.2","","","","","0.1622020501","0.1890564589","0.403953628","0.2464628806","","","","","","","","","","72","H","0","img/none_selected.jpg","","125","main_expt",""
"","bandit","206","894719","0.0-167.0-0.0","19592128","wem/bandit_party_1","A279YSE7NB16M0","either","8","525","","","","","","","0","0","1","0.173533554","","0.8","0.4","0.6","0.2","","","","","0.173533554","0.1659850756","0.4020675328","0.281169445","","","","","","","","","","72","H","0","img/none_selected.jpg","","126","main_expt",""
"","bandit","207","896687","0.0-168.0-0.0","19592128","wem/bandit_party_1","A279YSE7NB16M0","either","8","461","","","","","","","0","0","1","0.189829559","","0.8","0.4","0.6","0.2","","","","","0.189829559","0.2006343121","0.338443572","0.290080064","","","","","","","","","","72","H","0","img/none_selected.jpg","","127","main_expt",""
"","bandit","208","898535","0.0-169.0-0.0","19592128","wem/bandit_party_1","A279YSE7NB16M0","either","8","343","","","","","","","0","0","1","","0.3280989756","0.8","0.4","0.6","0.2","0.1764696366","0.2637444583","0.323123489","0.3280989756","","","","","","","","","","","","","","76","L","3","","","128","main_expt",""
"","bandit","209","900439","0.0-170.0-0.0","19592128","wem/bandit_party_1","A279YSE7NB16M0","either","8","397","","","","","","","0","0","1","0.3615310162","","0.8","0.4","0.6","0.2","","","","","0.172709194","0.2783394686","0.3615310162","0.3052704822","","","","","","","","","","75","K","2","","","129","main_expt",""
"","bandit","210","902313","0.0-171.0-0.0","19592128","wem/bandit_party_1","A279YSE7NB16M0","either","8","365","","","","","","","0","0","1","","0.314718742","0.8","0.4","0.6","0.2","0.1407460215","0.2674474002","0.3667448715","0.314718742","","","","","","","","","","","","","","76","L","3","","","130","main_expt",""
"","bandit","211","904881","0.0-172.0-0.0","19592128","wem/bandit_party_1","A279YSE7NB16M0","either","8","1061","","","","","","","0","0","1","","0.2122920843","0.8","0.4","0.6","0.2","0.143826562","0.2122920843","0.341745941","0.2492347367","","","","","","","","","","","","","","74","J","1","","","131","main_expt",""
"","bandit","212","906799","0.0-173.0-0.0","19592128","wem/bandit_party_1","A279YSE7NB16M0","either","8","411","","","","","","","1","0","0","0.1969346152","","0.8","0.4","0.6","0.2","","","","","0.1862992663","0.1969346152","0.2615325727","0.2495736985","","","","","","","","","","74","J","1","","","132","main_expt",""
"","bandit","213","908991","0.0-174.0-0.0","19592128","wem/bandit_party_1","A279YSE7NB16M0","either","8","687","","","","","","","0","0","1","","0.1390835973","0.8","0.4","0.6","0.2","0.185648564","0.1390835973","0.27905624","0.2487120015","","","","","","","","","","","","","","74","J","1","","","133","main_expt",""
"","bandit","214","911041","0.0-175.0-0.0","19592128","wem/bandit_party_1","A279YSE7NB16M0","either","8","540","","","","","","","0","0","1","0.1437640715","","0.8","0.4","0.6","0.2","","","","","0.2002276213","0.1437640715","0.2751163123","0.3239420422","","","","","","","","","","74","J","1","","","134","main_expt",""
"","bandit","215","913015","0.0-176.0-0.0","19592128","wem/bandit_party_1","A279YSE7NB16M0","either","8","469","","","","","","","0","0","1","","0.1175999949","0.8","0.4","0.6","0.2","0.2474552851","0.1175999949","0.2586507773","0.3903525049","","","","","","","","","","","","","","74","J","1","","","135","main_expt",""
"","bandit","216","915079","0.0-177.0-0.0","19592128","wem/bandit_party_1","A279YSE7NB16M0","either","8","557","","","","","","","0","0","1","","0.1108499649","0.8","0.4","0.6","0.2","0.2454982057","0.1108499649","0.2385277364","0.3703049055","","","","","","","","","","","","","","74","J","1","","","136","main_expt",""
"","bandit","217","917095","0.0-178.0-0.0","19592128","wem/bandit_party_1","A279YSE7NB16M0","either","8","509","","","","","","","0","0","1","0.1208727618","","0.8","0.4","0.6","0.2","","","","","0.2708690816","0.1208727618","0.1935782534","0.3657944308","","","","","","","","","","74","J","1","","","137","main_expt",""
"","bandit","218","919280","0.0-179.0-0.0","19592128","wem/bandit_party_1","A279YSE7NB16M0","either","8","676","","","","","","","0","0","1","0.14087624","","0.8","0.4","0.6","0.2","","","","","0.2219039101","0.1098805161","0.14087624","0.3452946514","","","","","","","","","","75","K","2","","","138","main_expt",""
"","bandit","219","921207","0.0-180.0-0.0","19592128","wem/bandit_party_1","A279YSE7NB16M0","either","8","421","","","","","","","0","0","1","","0.1340930794","0.8","0.4","0.6","0.2","0.2485571535","0.1359731218","0.1340930794","0.3225052804","","","","","","","","","","","","","","75","K","2","","","139","main_expt",""
"","bandit","220","922944","0.0-181.0-0.0","19592128","wem/bandit_party_1","A279YSE7NB16M0","either","8","229","","","","","","","0","0","1","0.1170750994","","0.8","0.4","0.6","0.2","","","","","0.2605640439","0.1419248406","0.1170750994","0.2997250911","","","","","","","","","","75","K","2","","","140","main_expt",""
"","bandit","221","924530","0.0-182.0-0.0","19592128","wem/bandit_party_1","A279YSE7NB16M0","either","8","77","","","","","","","0","0","1","0.1316830279","","0.8","0.4","0.6","0.2","","","","","0.2260680923","0.1269577117","0.1316830279","0.311933389","","","","","","","","","","75","K","2","","","141","main_expt",""
"","bandit","222","928361","0.0-183.0-0.0","19592128","wem/bandit_party_1","A279YSE7NB16M0","either","8","2323","","","","","","","0","0","1","0.09490366034","","0.8","0.4","0.6","0.2","","","","","0.2354846983","0.1073819056","0.09490366034","0.3442568425","","","","","","","","","","75","K","2","","","142","main_expt",""
"","bandit","223","930306","0.0-184.0-0.0","19592128","wem/bandit_party_1","A279YSE7NB16M0","either","8","436","","","","","","","0","0","1","","0.1152767294","0.8","0.4","0.6","0.2","0.2089358464","0.1152767294","0.1246024154","0.3117203045","","","","","","","","","","","","","","74","J","1","","","143","main_expt",""
"","bandit","224","932303","0.0-185.0-0.0","19592128","wem/bandit_party_1","A279YSE7NB16M0","either","8","491","","","","","","","0","0","1","0.1844607625","","0.8","0.4","0.6","0.2","","","","","0.1844607625","0.1317444946","0.1179874238","0.3080771123","","","","","","","","","","72","H","0","img/none_selected.jpg","","144","main_expt",""
"","bandit","225","934234","0.0-186.0-0.0","19592128","wem/bandit_party_1","A279YSE7NB16M0","either","8","422","","","","","","","1","0","0","0.3146876691","","0.8","0.4","0.6","0.2","","","","","0.1940384654","0.1058600218","0.1211842963","0.3146876691","","","","","","","","","","76","L","3","","","145","main_expt",""
"","bandit","226","936112","0.0-187.0-0.0","19592128","wem/bandit_party_1","A279YSE7NB16M0","either","8","372","","","","","","","0","0","1","0.3526806189","","0.8","0.4","0.6","0.2","","","","","0.2532022814","0.1862633901","0.06212451067","0.3526806189","","","","","","","","","","76","L","3","","","146","main_expt",""
"","bandit","227","938207","0.0-188.0-0.0","19592128","wem/bandit_party_1","A279YSE7NB16M0","either","8","587","","","","","","","0","0","1","","0.3859334927","0.8","0.4","0.6","0.2","0.272856749","0.1944793183","0.05826033827","0.3859334927","","","","","","","","","","","","","","76","L","3","","","147","main_expt",""
"","bandit","228","940295","0.0-189.0-0.0","19592128","wem/bandit_party_1","A279YSE7NB16M0","either","8","582","","","","","","","0","0","1","","0.04847575149","0.8","0.4","0.6","0.2","0.2441255329","0.1572605535","0.04847575149","0.4089873985","","","","","","","","","","","","","","75","K","2","","","148","main_expt",""
"","bandit","229","942294","0.0-190.0-0.0","19592128","wem/bandit_party_1","A279YSE7NB16M0","either","8","492","","","","","","","0","0","1","","0.1632070519","0.8","0.4","0.6","0.2","0.2304797635","0.1632070519","0.07397138717","0.3317076441","","","","","","","","","","","","","","74","J","1","","","149","main_expt",""
"","bandit","230","944264","0.0-191.0-0.0","19592128","wem/bandit_party_1","A279YSE7NB16M0","either","8","461","","","","","","","0","0","1","","0.2514439341","0.8","0.4","0.6","0.2","0.2645424191","0.2162169298","0.1178437277","0.2514439341","","","","","","","","","","","","","","76","L","3","","","150","main_expt",""
"","bandit","231","945833","0.0-192.0-0.0","19592128","wem/bandit_party_1","A279YSE7NB16M0","either","8","59","","","","","","","0","0","1","","0.2209696772","0.8","0.4","0.6","0.2","0.2919476008","0.2806681102","0.1116740648","0.2209696772","","","","","","","","","","","","","","76","L","3","","","151","main_expt",""
"","bandit","232","947871","0.0-193.0-0.0","19592128","wem/bandit_party_1","A279YSE7NB16M0","either","8","533","","","","","","","0","0","1","0.2004300668","","0.8","0.4","0.6","0.2","","","","","0.3004198658","0.25223767","0.09681320826","0.2004300668","","","","","","","","","","76","L","3","","","152","main_expt",""
"","bandit","233","949760","0.0-194.0-0.0","19592128","wem/bandit_party_1","A279YSE7NB16M0","either","8","381","","","","","","","0","0","1","0.1803159607","","0.8","0.4","0.6","0.2","","","","","0.2910243242","0.2259503681","0.1162344283","0.1803159607","","","","","","","","","","76","L","3","","","153","main_expt",""
"","bandit","234","952048","0.0-195.0-0.0","19592128","wem/bandit_party_1","A279YSE7NB16M0","either","8","780","","","","","","","0","0","1","","0.1793353988","0.8","0.4","0.6","0.2","0.2858680692","0.2520515582","0.1441765144","0.1793353988","","","","","","","","","","","","","","76","L","3","","","154","main_expt",""
"","bandit","235","962305","0.0-196.0-0.0","19592128","wem/bandit_party_1","A279YSE7NB16M0","either","8","8750","","","","","","","0","0","1","0.175125938","","0.8","0.4","0.6","0.2","","","","","0.276906037","0.246895917","0.1506434262","0.175125938","","","","","","","","","","76","L","3","","","155","main_expt",""
"","bandit","236","964448","0.0-197.0-0.0","19592128","wem/bandit_party_1","A279YSE7NB16M0","either","8","634","","","","","","","0","0","1","","0.1691825384","0.8","0.4","0.6","0.2","0.3087514371","0.2067462234","0.1691825384","0.19004546","","","","","","","","","","","","","","75","K","2","","","156","main_expt",""
"","bandit","237","966048","0.0-198.0-0.0","19592128","wem/bandit_party_1","A279YSE7NB16M0","either","8","92","","","","","","","0","0","1","0.1465267651","","0.8","0.4","0.6","0.2","","","","","0.3400763937","0.1736677602","0.1465267651","0.1538528063","","","","","","","","","","75","K","2","","","157","main_expt",""
"","bandit","238","968001","0.0-199.0-0.0","19592128","wem/bandit_party_1","A279YSE7NB16M0","either","8","445","","","","","","","0","1","0","","0.1517260174","0.8","0.4","0.6","0.2","0.3388441277","0.2437422656","0.1517260174","0.1624419901","","","","","","","","","","","","","","75","K","2","","","158","main_expt",""
"","bandit","239","970400","0.0-200.0-0.0","19592128","wem/bandit_party_1","A279YSE7NB16M0","either","8","892","","","","","","","0","0","1","","0.143579764","0.8","0.4","0.6","0.2","0.3496437485","0.2627628197","0.143579764","0.1749682205","","","","","","","","","","","","","","75","K","2","","","159","main_expt",""
"","bandit","240","972417","0.0-201.0-0.0","19592128","wem/bandit_party_1","A279YSE7NB16M0","either","8","510","","","","","","","0","0","1","","0.2227833177","0.8","0.4","0.6","0.2","0.3347491532","0.2532756584","0.1701049762","0.2227833177","","","","","","","","","","","","","","76","L","3","","","160","main_expt",""
"","bandit","241","974399","0.0-202.0-0.0","19592128","wem/bandit_party_1","A279YSE7NB16M0","either","8","476","","","","","","","0","0","1","","0.1616195486","0.8","0.4","0.6","0.2","0.3036625801","0.2846030245","0.1596038406","0.1616195486","","","","","","","","","","","","","","76","L","3","","","161","main_expt",""
"","bandit","242","976466","0.0-203.0-0.0","19592128","wem/bandit_party_1","A279YSE7NB16M0","either","8","558","","","","","","","0","0","1","0.1440802068","","0.8","0.4","0.6","0.2","","","","","0.2735804545","0.2480450928","0.1186271452","0.1440802068","","","","","","","","","","76","L","3","","","162","main_expt",""
"","bandit","243","978497","0.0-204.0-0.0","19592128","wem/bandit_party_1","A279YSE7NB16M0","either","8","523","","","","","","","0","0","1","","0.1349250059","0.8","0.4","0.6","0.2","0.2219233964","0.3217860246","0.1460830151","0.1349250059","","","","","","","","","","","","","","76","L","3","","","163","main_expt",""
"","bandit","244","980615","0.0-205.0-0.0","19592128","wem/bandit_party_1","A279YSE7NB16M0","either","8","611","","","","","","","0","0","1","","0.1924179555","0.8","0.4","0.6","0.2","0.2489701673","0.3528623486","0.1924179555","0.1482528248","","","","","","","","","","","","","","75","K","2","","","164","main_expt",""
"","bandit","245","982706","0.0-206.0-0.0","19592128","wem/bandit_party_1","A279YSE7NB16M0","either","8","582","","","","","","","0","0","1","0.1909643941","","0.8","0.4","0.6","0.2","","","","","0.2424219606","0.3113737792","0.1909643941","0.1444116863","","","","","","","","","","75","K","2","","","165","main_expt",""
"","bandit","246","984968","0.0-207.0-0.0","19592128","wem/bandit_party_1","A279YSE7NB16M0","either","8","754","","","","","","","0","0","1","0.1917506842","","0.8","0.4","0.6","0.2","","","","","0.1899742571","0.2820045276","0.1917506842","0.1621449425","","","","","","","","","","75","K","2","","","166","main_expt",""
"","bandit","247","987073","0.0-208.0-0.0","19592128","wem/bandit_party_1","A279YSE7NB16M0","either","8","598","","","","","","","0","0","1","","0.2539690707","0.8","0.4","0.6","0.2","0.2298880826","0.2539690707","0.2238056512","0.1695256229","","","","","","","","","","","","","","74","J","1","","","167","main_expt",""
"","bandit","248","989176","0.0-209.0-0.0","19592128","wem/bandit_party_1","A279YSE7NB16M0","either","8","597","","","","","","","0","0","1","0.2177565821","","0.8","0.4","0.6","0.2","","","","","0.241220494","0.2177565821","0.2132240521","0.1712445676","","","","","","","","","","74","J","1","","","168","main_expt",""
"","bandit","249","991352","0.0-210.0-0.0","19592128","wem/bandit_party_1","A279YSE7NB16M0","either","8","667","","","","","","","0","0","1","0.2113351254","","0.8","0.4","0.6","0.2","","","","","0.2113351254","0.183214586","0.1363713625","0.191079104","","","","","","","","","","72","H","0","img/none_selected.jpg","","169","main_expt",""
"","bandit","250","993460","0.0-211.0-0.0","19592128","wem/bandit_party_1","A279YSE7NB16M0","either","8","597","","","","","","","0","1","0","","0.2227666825","0.8","0.4","0.6","0.2","0.2224744884","0.1757282231","0.2007690262","0.2227666825","","","","","","","","","","","","","","76","L","3","","","170","main_expt",""
"","bandit","251","995567","0.0-212.0-0.0","19592128","wem/bandit_party_1","A279YSE7NB16M0","either","8","601","","","","","","","0","0","1","","0.2719914804","0.8","0.4","0.6","0.2","0.262177911","0.1679331046","0.1238998316","0.2719914804","","","","","","","","","","","","","","76","L","3","","","171","main_expt",""
"","bandit","252","997520","0.0-213.0-0.0","19592128","wem/bandit_party_1","A279YSE7NB16M0","either","8","445","","","","","","","0","0","1","0.09746419185","","0.8","0.4","0.6","0.2","","","","","0.2822992514","0.14560319","0.09746419185","0.2330128459","","","","","","","","","","75","K","2","","","172","main_expt",""
"","bandit","253","999225","0.0-214.0-0.0","19592128","wem/bandit_party_1","A279YSE7NB16M0","either","8","196","","","","","","","0","0","1","","0.1018164217","0.8","0.4","0.6","0.2","0.2545762091","0.1341549344","0.1018164217","0.2840251313","","","","","","","","","","","","","","75","K","2","","","173","main_expt",""
"","bandit","254","1001042","0.0-215.0-0.0","19592128","wem/bandit_party_1","A279YSE7NB16M0","either","8","306","","","","","","","0","0","1","0.2739042306","","0.8","0.4","0.6","0.2","","","","","0.2838184637","0.1471305278","0.1401689619","0.2739042306","","","","","","","","","","76","L","3","","","174","main_expt",""
"","bandit","255","1004353","0.0-216.0-0.0","19592128","wem/bandit_party_1","A279YSE7NB16M0","either","8","1800","","","","","","","0","1","0","","0.3444735506","0.8","0.4","0.6","0.2","0.3002790513","0.173963405","0.1697524679","0.3444735506","","","","","","","","","","","","","","76","L","3","","","175","main_expt",""
"","bandit","256","1007339","0.0-217.0-0.0","19592128","wem/bandit_party_1","A279YSE7NB16M0","either","8","1476","","","","","","","0","0","1","0.1896898672","","0.8","0.4","0.6","0.2","","","","","0.3771690292","0.1821857965","0.1896898672","0.3223017316","","","","","","","","","","75","K","2","","","176","main_expt",""
"","bandit","257","1008865","0.0-218.0-0.0","19592128","wem/bandit_party_1","A279YSE7NB16M0","either","8","17","","","","","","","0","0","1","0.2441254625","","0.8","0.4","0.6","0.2","","","","","0.4047809956","0.1444884472","0.2441254625","0.2964924158","","","","","","","","","","75","K","2","","","177","main_expt",""
"","bandit","258","1010449","0.0-219.0-0.0","19592128","wem/bandit_party_1","A279YSE7NB16M0","either","8","75","","","","","","","0","0","1","","0.2780576925","0.8","0.4","0.6","0.2","0.4344960837","0.1207783293","0.2427722412","0.2780576925","","","","","","","","","","","","","","76","L","3","","","178","main_expt",""
"","bandit","259","1012130","0.0-220.0-0.0","19592128","wem/bandit_party_1","A279YSE7NB16M0","either","8","171","","","","","","","0","1","0","","0.2859751729","0.8","0.4","0.6","0.2","0.4287912686","0.111585665","0.2284650367","0.2859751729","","","","","","","","","","","","","","76","L","3","","","179","main_expt",""
"","bandit","260","1013703","0.0-221.0-0.0","19592128","wem/bandit_party_1","A279YSE7NB16M0","either","8","65","","","","","","","0","0","1","0.2694081366","","0.8","0.4","0.6","0.2","","","","","0.4294180747","0.06891525065","0.2694081366","0.283533164","","","","","","","","","","75","K","2","","","180","main_expt",""
"","bandit","261","1015606","0.0-222.0-0.0","19592128","wem/bandit_party_1","A279YSE7NB16M0","either","8","356","","","","","","","0","0","1","0.2471628034","","0.8","0.4","0.6","0.2","","","","","0.3887332701","0.07407739619","0.2471628034","0.2430023428","","","","","","","","","","75","K","2","","","181","main_expt",""
"","bandit","262","1017353","0.0-223.0-0.0","19592128","wem/bandit_party_1","A279YSE7NB16M0","either","8","237","","","","","","","0","0","1","0.275372354","","0.8","0.4","0.6","0.2","","","","","0.3910635387","0.07501704201","0.275372354","0.223254837","","","","","","","","","","75","K","2","","","182","main_expt",""
"","bandit","263","1019274","0.0-224.0-0.0","19592128","wem/bandit_party_1","A279YSE7NB16M0","either","8","411","","","","","","","0","0","1","","0.2274286797","0.8","0.4","0.6","0.2","0.3957792538","0.09354103142","0.2378950907","0.2274286797","","","","","","","","","","","","","","76","L","3","","","183","main_expt",""
"","bandit","264","1021216","0.0-225.0-0.0","19592128","wem/bandit_party_1","A279YSE7NB16M0","either","8","433","","","","","","","1","0","0","0.2485964068","","0.8","0.4","0.6","0.2","","","","","0.3777829694","0.06673830493","0.2611999536","0.2485964068","","","","","","","","","","76","L","3","","","184","main_expt",""
"","bandit","265","1024872","0.0-226.0-0.0","19592128","wem/bandit_party_1","A279YSE7NB16M0","either","8","2130","","","","","","","0","1","0","","0.2080173303","0.8","0.4","0.6","0.2","0.4130939835","0.08617836821","0.2799245071","0.2080173303","","","","","","","","","","","","","","76","L","3","","","185","main_expt",""
"","bandit","266","1038041","0.0-227.0-0.0","19592128","wem/bandit_party_1","A279YSE7NB16M0","either","8","11660","","","","","","","0","0","1","0.05054014018","","0.8","0.4","0.6","0.2","","","","","0.376930599","0.05054014018","0.2275386122","0.2538883687","","","","","","","","","","74","J","1","","","186","main_expt",""
"","bandit","267","1040143","0.0-228.0-0.0","19592128","wem/bandit_party_1","A279YSE7NB16M0","either","8","593","","","","","","","0","0","1","","0.2558518805","0.8","0.4","0.6","0.2","0.3934592684","0.1101456656","0.2558518805","0.2267652077","","","","","","","","","","","","","","75","K","2","","","187","main_expt",""
"","bandit","268","1042200","0.0-229.0-0.0","19592128","wem/bandit_party_1","A279YSE7NB16M0","either","8","547","","","","","","","0","0","1","","0.2583789709","0.8","0.4","0.6","0.2","0.4086060551","0.1076418148","0.2757393749","0.2583789709","","","","","","","","","","","","","","76","L","3","","","188","main_expt",""
"","bandit","269","1044262","0.0-230.0-0.0","19592128","wem/bandit_party_1","A279YSE7NB16M0","either","8","555","","","","","","","1","0","0","0.3326758055","","0.8","0.4","0.6","0.2","","","","","0.447145564","0.1230456027","0.3326758055","0.2329768584","","","","","","","","","","75","K","2","","","189","main_expt",""
"","bandit","270","1046263","0.0-231.0-0.0","19592128","wem/bandit_party_1","A279YSE7NB16M0","either","8","492","","","","","","","1","0","0","0.332927569","","0.8","0.4","0.6","0.2","","","","","0.386091063","0.1872873117","0.332927569","0.2002510669","","","","","","","","","","75","K","2","","","190","main_expt",""
"","bandit","271","1048344","0.0-232.0-0.0","19592128","wem/bandit_party_1","A279YSE7NB16M0","either","8","572","","","","","","","0","0","1","0.3859199101","","0.8","0.4","0.6","0.2","","","","","0.4221145333","0.1413073252","0.3859199101","0.2182600554","","","","","","","","","","75","K","2","","","191","main_expt",""
"","bandit","272","1050481","0.0-233.0-0.0","19592128","wem/bandit_party_1","A279YSE7NB16M0","either","8","627","","","","","","","0","0","1","","0.392668484","0.8","0.4","0.6","0.2","0.3913199708","0.1868627967","0.392668484","0.2681613901","","","","","","","","","","","","","","75","K","2","","","192","main_expt",""
"","bandit","273","1052351","0.0-234.0-0.0","19592128","wem/bandit_party_1","A279YSE7NB16M0","either","8","363","","","","","","","0","0","1","0.3789843676","","0.8","0.4","0.6","0.2","","","","","0.4013624592","0.2312719224","0.3789843676","0.3035027483","","","","","","","","","","75","K","2","","","193","main_expt",""
"","bandit","274","1054528","0.0-235.0-0.0","19592128","wem/bandit_party_1","A279YSE7NB16M0","either","8","667","","","","","","","0","0","1","","0.275531754","0.8","0.4","0.6","0.2","0.3668237699","0.2585201677","0.3689216281","0.275531754","","","","","","","","","","","","","","76","L","3","","","194","main_expt",""
"","bandit","275","1056527","0.0-236.0-0.0","19592128","wem/bandit_party_1","A279YSE7NB16M0","either","8","490","","","","","","","0","0","1","","0.2716401532","0.8","0.4","0.6","0.2","0.3856266791","0.2786104129","0.4136905162","0.2716401532","","","","","","","","","","","","","","76","L","3","","","195","main_expt",""
"","bandit","276","1058456","0.0-237.0-0.0","19592128","wem/bandit_party_1","A279YSE7NB16M0","either","8","420","","","","","","","0","0","1","0.4258575101","","0.8","0.4","0.6","0.2","","","","","0.3702439493","0.2407834285","0.4258575101","0.2814611543","","","","","","","","","","75","K","2","","","196","main_expt",""
"","bandit","277","1060423","0.0-238.0-0.0","19592128","wem/bandit_party_1","A279YSE7NB16M0","either","8","458","","","","","","","1","0","0","0.2550568011","","0.8","0.4","0.6","0.2","","","","","0.3665926528","0.2550568011","0.3976178043","0.2588010394","","","","","","","","","","74","J","1","","","197","main_expt",""
"","bandit","278","1062271","0.0-239.0-0.0","19592128","wem/bandit_party_1","A279YSE7NB16M0","either","8","339","","","","","","","0","0","1","0.3094863904","","0.8","0.4","0.6","0.2","","","","","0.3432124584","0.3094863904","0.3802378075","0.3094610495","","","","","","","","","","74","J","1","","","198","main_expt",""
"","bandit","279","1064151","0.0-240.0-0.0","19592128","wem/bandit_party_1","A279YSE7NB16M0","either","8","372","","","","","","","0","1","0","","0.3012985694","0.8","0.4","0.6","0.2","0.4096574544","0.3012985694","0.3926800246","0.3139278769","","","","","","","","","","","","","","74","J","1","","","199","main_expt",""
"","bandit","280","1065714","0.0-241.0-0.0","19592128","wem/bandit_party_1","A279YSE7NB16M0","either","8","51","","","","","","","0","0","1","","0.3149132519","0.8","0.4","0.6","0.2","0.3799023259","0.3149132519","0.3814844917","0.3459706187","","","","","","","","","","","","","","74","J","1","","","200","main_expt",""
"","bandit","281","1067655","0.0-242.0-0.0","19592128","wem/bandit_party_1","A279YSE7NB16M0","either","8","433","","","","","","","0","0","1","","0.3236307962","0.8","0.4","0.6","0.2","0.3513783521","0.3236307962","0.3831630738","0.3038365479","","","","","","","","","","","","","","74","J","1","","","201","main_expt",""
"","bandit","282","1069504","0.0-243.0-0.0","19592128","wem/bandit_party_1","A279YSE7NB16M0","either","8","340","","","","","","","0","0","1","0.3957430938","","0.8","0.4","0.6","0.2","","","","","0.3439351057","0.3163717903","0.3957430938","0.2964599608","","","","","","","","","","75","K","2","","","202","main_expt",""
"","bandit","283","1071745","0.0-244.0-0.0","19592128","wem/bandit_party_1","A279YSE7NB16M0","either","8","729","","","","","","","0","0","1","0.280336616","","0.8","0.4","0.6","0.2","","","","","0.2615327891","0.3165936227","0.4175506619","0.280336616","","","","","","","","","","76","L","3","","","203","main_expt",""
"","bandit","284","1073791","0.0-245.0-0.0","19592128","wem/bandit_party_1","A279YSE7NB16M0","either","8","537","","","","","","","0","0","1","0.4356800279","","0.8","0.4","0.6","0.2","","","","","0.2211517471","0.3166231072","0.4356800279","0.262900641","","","","","","","","","","75","K","2","","","204","main_expt",""
"","bandit","285","1075767","0.0-246.0-0.0","19592128","wem/bandit_party_1","A279YSE7NB16M0","either","8","468","","","","","","","0","1","0","","0.2983153058","0.8","0.4","0.6","0.2","0.1955747294","0.2983153058","0.4342993254","0.3403150927","","","","","","","","","","","","","","74","J","1","","","205","main_expt",""
"","bandit","286","1077847","0.0-247.0-0.0","19592128","wem/bandit_party_1","A279YSE7NB16M0","either","8","572","","","","","","","0","0","1","","0.255573156","0.8","0.4","0.6","0.2","0.3137251184","0.255573156","0.4515967499","0.3407188883","","","","","","","","","","","","","","74","J","1","","","206","main_expt",""
"","bandit","287","1079791","0.0-248.0-0.0","19592128","wem/bandit_party_1","A279YSE7NB16M0","either","8","436","","","","","","","0","0","1","","0.2816724171","0.8","0.4","0.6","0.2","0.2982459604","0.2816724171","0.4559700358","0.2955601217","","","","","","","","","","","","","","74","J","1","","","207","main_expt",""
"","bandit","288","1082010","0.0-249.0-0.0","19592128","wem/bandit_party_1","A279YSE7NB16M0","either","8","707","","","","","","","0","0","1","","0.2462622089","0.8","0.4","0.6","0.2","0.2359404152","0.2462622089","0.4711787588","0.2832193826","","","","","","","","","","","","","","74","J","1","","","208","main_expt",""
"","bandit","289","1084201","0.0-250.0-0.0","19592128","wem/bandit_party_1","A279YSE7NB16M0","either","8","683","","","","","","","0","1","0","","0.2608633631","0.8","0.4","0.6","0.2","0.2396635106","0.2608633631","0.4859779177","0.25637755","","","","","","","","","","","","","","74","J","1","","","209","main_expt",""
"","bandit","290","1085937","0.0-251.0-0.0","19592128","wem/bandit_party_1","A279YSE7NB16M0","either","8","224","","","","","","","0","0","1","","0.2649708152","0.8","0.4","0.6","0.2","0.2320506775","0.2649708152","0.4798195452","0.2500912527","","","","","","","","","","","","","","74","J","1","","","210","main_expt",""
"","bandit","291","1087671","0.0-252.0-0.0","19592128","wem/bandit_party_1","A279YSE7NB16M0","either","8","227","","","","","","","0","1","0","","0.4754072522","0.8","0.4","0.6","0.2","0.1894847828","0.2658594566","0.4754072522","0.2481129288","","","","","","","","","","","","","","75","K","2","","","211","main_expt",""
"","bandit","292","1089640","0.0-253.0-0.0","19592128","wem/bandit_party_1","A279YSE7NB16M0","either","8","460","","","","","","","0","0","1","","0.4780703898","0.8","0.4","0.6","0.2","0.2330804604","0.2648449814","0.4780703898","0.3192168596","","","","","","","","","","","","","","75","K","2","","","212","main_expt",""
"","bandit","293","1091722","0.0-254.0-0.0","19592128","wem/bandit_party_1","A279YSE7NB16M0","either","8","572","","","","","","","0","0","1","","0.4883488692","0.8","0.4","0.6","0.2","0.2484053244","0.286492297","0.4883488692","0.2361953268","","","","","","","","","","","","","","75","K","2","","","213","main_expt",""
"","bandit","294","1093367","0.0-255.0-0.0","19592128","wem/bandit_party_1","A279YSE7NB16M0","either","8","138","","","","","","","0","0","1","","0.2308921763","0.8","0.4","0.6","0.2","0.2182548364","0.2540339129","0.4872562331","0.2308921763","","","","","","","","","","","","","","76","L","3","","","214","main_expt",""
"","bandit","295","1095097","0.0-256.0-0.0","19592128","wem/bandit_party_1","A279YSE7NB16M0","either","8","219","","","","","","","0","0","1","","0.2161033537","0.8","0.4","0.6","0.2","0.1824073789","0.254651127","0.4749609167","0.2161033537","","","","","","","","","","","","","","76","L","3","","","215","main_expt",""
"","bandit","296","1096848","0.0-257.0-0.0","19592128","wem/bandit_party_1","A279YSE7NB16M0","either","8","226","","","","","","","0","0","1","","0.4798413464","0.8","0.4","0.6","0.2","0.1923730387","0.3140517816","0.4798413464","0.1896756427","","","","","","","","","","","","","","75","K","2","","","216","main_expt",""
"","bandit","297","1098743","0.0-258.0-0.0","19592128","wem/bandit_party_1","A279YSE7NB16M0","either","8","385","","","","","","","0","0","1","0.4865144435","","0.8","0.4","0.6","0.2","","","","","0.2266612446","0.3338676317","0.4865144435","0.1724286307","","","","","","","","","","75","K","2","","","217","main_expt",""
"","bandit","298","1100407","0.0-259.0-0.0","19592128","wem/bandit_party_1","A279YSE7NB16M0","either","8","156","","","","","","","0","1","0","","0.4789145001","0.8","0.4","0.6","0.2","0.1702705737","0.3397001125","0.4789145001","0.161168334","","","","","","","","","","","","","","75","K","2","","","218","main_expt",""
"","bandit","299","1105783","0.0-260.0-0.0","19592128","wem/bandit_party_1","A279YSE7NB16M0","either","8","3869","","","","","","","1","0","0","0.4834748692","","0.8","0.4","0.6","0.2","","","","","0.1159766116","0.2982528089","0.4834748692","0.2021763003","","","","","","","","","","75","K","2","","","219","main_expt",""
"","bandit","300","1107782","0.0-261.0-0.0","19592128","wem/bandit_party_1","A279YSE7NB16M0","either","8","492","","","","","","","0","0","1","","0.2142164272","0.8","0.4","0.6","0.2","0.09529473055","0.2770934022","0.4722371777","0.2142164272","","","","","","","","","","","","","","76","L","3","","","220","main_expt",""
"","bandit","301","1109608","0.0-262.0-0.0","19592128","wem/bandit_party_1","A279YSE7NB16M0","either","8","316","","","","","","","0","0","1","","0.2696770889","0.8","0.4","0.6","0.2","0.09060922323","0.2696770889","0.4654689219","0.189068297","","","","","","","","","","","","","","74","J","1","","","221","main_expt",""
"","bandit","302","1111567","0.0-263.0-0.0","19592128","wem/bandit_party_1","A279YSE7NB16M0","either","8","449","","","","","","","0","0","1","0.2120997892","","0.8","0.4","0.6","0.2","","","","","0.1250772464","0.3103502417","0.4533789701","0.2120997892","","","","","","","","","","76","L","3","","","222","main_expt",""
"","bandit","303","1113273","0.0-264.0-0.0","19592128","wem/bandit_party_1","A279YSE7NB16M0","either","8","194","","","","","","","0","0","1","","0.1937664477","0.8","0.4","0.6","0.2","0.1177235221","0.3477728299","0.4473019993","0.1937664477","","","","","","","","","","","","","","76","L","3","","","223","main_expt",""
"","bandit","304","1116346","0.0-265.0-0.0","19592128","wem/bandit_party_1","A279YSE7NB16M0","either","8","1562","","","","","","","0","0","1","0.4651086175","","0.8","0.4","0.6","0.2","","","","","0.1589673504","0.3230244909","0.4651086175","0.2195846313","","","","","","","","","","75","K","2","","","224","main_expt",""
"","bandit","305","1119463","0.0-266.0-0.0","19592128","wem/bandit_party_1","A279YSE7NB16M0","either","8","1611","","","","","","","0","0","1","0.3641913847","","0.8","0.4","0.6","0.2","","","","","0.1582937281","0.3641913847","0.4704934375","0.1973587738","","","","","","","","","","74","J","1","","","225","main_expt",""
"","bandit","306","1121488","0.0-267.0-0.0","19592128","wem/bandit_party_1","A279YSE7NB16M0","either","8","515","","","","","","","0","0","1","","0.3211822138","0.8","0.4","0.6","0.2","0.1585786296","0.3211822138","0.4545632724","0.2029059012","","","","","","","","","","","","","","74","J","1","","","226","main_expt",""
"","bandit","307","1125865","0.0-268.0-0.0","19592128","wem/bandit_party_1","A279YSE7NB16M0","either","8","2867","","","","","","","0","0","1","","0.1614007709","0.8","0.4","0.6","0.2","0.1614007709","0.3318596792","0.4313330006","0.1677618241","","","","","","","","","","","","","","72","H","0","img/none_selected.jpg","","227","main_expt",""
"","bandit","308","1127767","0.0-269.0-0.0","19592128","wem/bandit_party_1","A279YSE7NB16M0","either","8","392","","","","","","","0","0","1","0.3715738924","","0.8","0.4","0.6","0.2","","","","","0.1160982884","0.3715738924","0.4253897179","0.2079318551","","","","","","","","","","74","J","1","","","228","main_expt",""
"","bandit","309","1129711","0.0-270.0-0.0","19592128","wem/bandit_party_1","A279YSE7NB16M0","either","8","434","","","","","","","0","0","1","0.4416009531","","0.8","0.4","0.6","0.2","","","","","0.1327168588","0.3571583743","0.4416009531","0.1860779256","","","","","","","","","","75","K","2","","","229","main_expt",""
"","bandit","310","1131310","0.0-271.0-0.0","19592128","wem/bandit_party_1","A279YSE7NB16M0","either","8","90","","","","","","","0","0","1","","0.1294985144","0.8","0.4","0.6","0.2","0.1751239199","0.3455313741","0.4612445757","0.1294985144","","","","","","","","","","","","","","76","L","3","","","230","main_expt",""
"","bandit","311","1133320","0.0-272.0-0.0","19592128","wem/bandit_party_1","A279YSE7NB16M0","either","8","500","","","","","","","0","0","1","","0.1424139305","0.8","0.4","0.6","0.2","0.2080149414","0.3114256563","0.4455927364","0.1424139305","","","","","","","","","","","","","","76","L","3","","","231","main_expt",""
"","bandit","312","1135103","0.0-273.0-0.0","19592128","wem/bandit_party_1","A279YSE7NB16M0","either","8","273","","","","","","","0","0","1","","0.4449483857","0.8","0.4","0.6","0.2","0.2305008548","0.3127001645","0.4449483857","0.1777617008","","","","","","","","","","","","","","75","K","2","","","232","main_expt",""
"","bandit","313","1136993","0.0-274.0-0.0","19592128","wem/bandit_party_1","A279YSE7NB16M0","either","8","379","","","","","","","0","0","1","","0.2953609795","0.8","0.4","0.6","0.2","0.2331895239","0.2953609795","0.4570404202","0.1408291819","","","","","","","","","","","","","","74","J","1","","","233","main_expt",""
"","bandit","314","1138982","0.0-275.0-0.0","19592128","wem/bandit_party_1","A279YSE7NB16M0","either","8","480","","","","","","","1","0","0","0.4785018613","","0.8","0.4","0.6","0.2","","","","","0.2007149185","0.2743769666","0.4785018613","0.09563300426","","","","","","","","","","75","K","2","","","234","main_expt",""
"","bandit","315","1140951","0.0-276.0-0.0","19592128","wem/bandit_party_1","A279YSE7NB16M0","either","8","461","","","","","","","1","0","0","0.4708517218","","0.8","0.4","0.6","0.2","","","","","0.1428876463","0.2842570603","0.4708517218","0.06508254785","","","","","","","","","","75","K","2","","","235","main_expt",""
"","bandit","316","1142975","0.0-277.0-0.0","19592128","wem/bandit_party_1","A279YSE7NB16M0","either","8","515","","","","","","","0","0","1","0.4721911582","","0.8","0.4","0.6","0.2","","","","","0.1327756685","0.3536106974","0.4721911582","0.05272484418","","","","","","","","","","75","K","2","","","236","main_expt",""
"","bandit","317","1144935","0.0-278.0-0.0","19592128","wem/bandit_party_1","A279YSE7NB16M0","either","8","452","","","","","","","0","0","1","0.05000735717","","0.8","0.4","0.6","0.2","","","","","0.1969646424","0.3777879982","0.4567984566","0.05000735717","","","","","","","","","","76","L","3","","","237","main_expt",""
"","bandit","318","1146914","0.0-279.0-0.0","19592128","wem/bandit_party_1","A279YSE7NB16M0","either","8","467","","","","","","","0","0","1","","0.03409798278","0.8","0.4","0.6","0.2","0.2040955009","0.3819628943","0.4601910044","0.03409798278","","","","","","","","","","","","","","76","L","3","","","238","main_expt",""
"","bandit","319","1148851","0.0-280.0-0.0","19592128","wem/bandit_party_1","A279YSE7NB16M0","either","8","425","","","","","","","0","0","1","","0.3590612953","0.8","0.4","0.6","0.2","0.1885012088","0.3590612953","0.4663275819","0.03555143528","","","","","","","","","","","","","","74","J","1","","","239","main_expt",""
