"consent","trial_type","trial_index","time_elapsed","internal_node_id","subjID","study","MID","cond","drift","rt","responses","button_pressed","key_press","like","value","connected","gems","bombs","no_reward","GemPrChosen","BombPrChosen","GainOverPainPr_0","GainOverPainPr_1","GainOverPainPr_2","GainOverPainPr_3","LosePr_0","LosePr_1","LosePr_2","LosePr_3","WinPr_0","WinPr_1","WinPr_2","WinPr_3","Q0","Q1","Q2","gender","age","ethnicity","label","expt_phase","target","respCharCode","respKey","respChoiceNum","respChoice","practice","trial_counter","trial_label","Q0_index"
"GDM/GDM_behavioral_consent_30min_online.html","consent","0","17479","0.0-0.0","19762982","wem/bandit_party_1","A1YF8WP5IWEWVY","either","1","","","","","","","","","","","","","","","","","","","","","","","","","","","","","","","","","","","","","","","","",""
"","survey-text","1","43564","0.0-1.0","19762982","wem/bandit_party_1","A1YF8WP5IWEWVY","either","1","25079","{""Q0"":""A1YF8WP5IWEWVY""}","","","","","","","","","","","","","","","","","","","","","","","","","","","","","","","","","","","","","","",""
"","button-response","2","46381","0.0-2.0","19762982","wem/bandit_party_1","A1YF8WP5IWEWVY","either","1","1814","","1","","","","","","","","","","","","","","","","","","","","","","","","","","","","","","","","","","","","","",""
"","text-replacement","3","56767","0.0-3.0","19762982","wem/bandit_party_1","A1YF8WP5IWEWVY","either","1","9383","","","32","","","","","","","","","","","","","","","","","","","","","","","","","","","","","","","","","","","","",""
"","text-replacement","4","65199","0.0-4.0","19762982","wem/bandit_party_1","A1YF8WP5IWEWVY","either","1","8430","","","32","","","","","","","","","","","","","","","","","","","","","","","","","","","","","","","","","","","","",""
"","identification","5","78063","0.0-6.0-0.0","19762982","wem/bandit_party_1","A1YF8WP5IWEWVY","either","1","12854","","","","2","1","0","","","","","","","","","","","","","","","","","","","","","","","","pre","identification_pre","the Republican party","","","","","","","",""
"","identification","6","85137","0.0-6.0-1.0","19762982","wem/bandit_party_1","A1YF8WP5IWEWVY","either","1","6063","","","","4","4","4","","","","","","","","","","","","","","","","","","","","","","","","pre","identification_pre","the Democratic Party","","","","","","","",""
"","text-replacement","7","92295","0.0-7.0","19762982","wem/bandit_party_1","A1YF8WP5IWEWVY","either","1","6156","","","32","","","","","","","","","","","","","","","","","","","","","","","","","","","","","","","","","","","","",""
"","text-replacement","8","98694","0.0-8.0","19762982","wem/bandit_party_1","A1YF8WP5IWEWVY","either","1","6399","","","32","","","","","","","","","","","","","","","","","","","","","","","","","","","","","","","","","","","","",""
"","text-replacement","9","105678","0.0-9.0","19762982","wem/bandit_party_1","A1YF8WP5IWEWVY","either","1","6982","","","32","","","","","","","","","","","","","","","","","","","","","","","","","","","","","","","","","","","","",""
"","text-replacement","10","109157","0.0-10.0","19762982","wem/bandit_party_1","A1YF8WP5IWEWVY","either","1","3478","","","32","","","","","","","","","","","","","","","","","","","","","","","","","","","","","","","","","","","","",""
"","text-replacement","11","114133","0.0-11.0","19762982","wem/bandit_party_1","A1YF8WP5IWEWVY","either","1","4974","","","32","","","","","","","","","","","","","","","","","","","","","","","","","","","","","","","","","","","","",""
"","bandit","12","117499","0.0-12.0-0.0","19762982","wem/bandit_party_1","A1YF8WP5IWEWVY","either","1","1862","","","","","","","0","0","1","0","0","","","","","0","","","","0","","","","","","","","","","","","","74","J","0","img/none_selected_demo.jpg","true","0","",""
"","bandit","13","119853","0.0-13.0-0.0","19762982","wem/bandit_party_1","A1YF8WP5IWEWVY","either","1","847","","","","","","","0","0","1","0","0","","","","","0","","","","0","","","","","","","","","","","","","75","K","0","img/none_selected_demo.jpg","true","0","",""
"","text-replacement","14","124877","0.0-14.0","19762982","wem/bandit_party_1","A1YF8WP5IWEWVY","either","1","5023","","","32","","","","","","","","","","","","","","","","","","","","","","","","","","","","","","","","","","","","",""
"","text-replacement","15","130501","0.0-15.0","19762982","wem/bandit_party_1","A1YF8WP5IWEWVY","either","1","5623","","","32","","","","","","","","","","","","","","","","","","","","","","","","","","","","","","","","","","","","",""
"","text-replacement","16","136405","0.0-16.0","19762982","wem/bandit_party_1","A1YF8WP5IWEWVY","either","1","5902","","","32","","","","","","","","","","","","","","","","","","","","","","","","","","","","","","","","","","","","",""
"","text-replacement","17","140884","0.0-17.0","19762982","wem/bandit_party_1","A1YF8WP5IWEWVY","either","1","4479","","","32","","","","","","","","","","","","","","","","","","","","","","","","","","","","","","","","","","","","",""
"","bandit","18","142956","0.0-18.0-0.0","19762982","wem/bandit_party_1","A1YF8WP5IWEWVY","either","1","566","","","","","","","0","0","1","0.8","","0.5","0.5","","","","","","","0.8","0.2","","","","","","","","","","","","74","J","0","img/none_selected_demo.jpg","true","0","80_20_practice",""
"","bandit","19","144851","0.0-18.0-1.0","19762982","wem/bandit_party_1","A1YF8WP5IWEWVY","either","1","391","","","","","","","1","0","0","0.8","","0.5","0.5","","","","","","","0.8","0.2","","","","","","","","","","","","74","J","0","img/none_selected_demo.jpg","true","0","80_20_practice",""
"","bandit","20","146595","0.0-18.0-2.0","19762982","wem/bandit_party_1","A1YF8WP5IWEWVY","either","1","240","","","","","","","0","1","0","","0.8","0.5","0.5","","","0.8","0.2","","","","","","","","","","","","","","","","74","J","0","img/none_selected_demo.jpg","true","0","80_20_practice",""
"","bandit","21","148332","0.0-18.0-3.0","19762982","wem/bandit_party_1","A1YF8WP5IWEWVY","either","1","231","","","","","","","0","1","0","","0.8","0.5","0.5","","","0.8","0.2","","","","","","","","","","","","","","","","74","J","0","img/none_selected_demo.jpg","true","0","80_20_practice",""
"","bandit","22","150052","0.0-18.0-4.0","19762982","wem/bandit_party_1","A1YF8WP5IWEWVY","either","1","215","","","","","","","1","0","0","0.8","","0.5","0.5","","","","","","","0.8","0.2","","","","","","","","","","","","74","J","0","img/none_selected_demo.jpg","true","0","80_20_practice",""
"","bandit","23","151684","0.0-18.0-5.0","19762982","wem/bandit_party_1","A1YF8WP5IWEWVY","either","1","126","","","","","","","0","1","0","","0.8","0.5","0.5","","","0.8","0.2","","","","","","","","","","","","","","","","74","J","0","img/none_selected_demo.jpg","true","0","80_20_practice",""
"","bandit","24","153389","0.0-18.0-6.0","19762982","wem/bandit_party_1","A1YF8WP5IWEWVY","either","1","198","","","","","","","1","0","0","0.8","","0.5","0.5","","","","","","","0.8","0.2","","","","","","","","","","","","74","J","0","img/none_selected_demo.jpg","true","0","80_20_practice",""
"","bandit","25","155099","0.0-18.0-7.0","19762982","wem/bandit_party_1","A1YF8WP5IWEWVY","either","1","205","","","","","","","0","1","0","","0.8","0.5","0.5","","","0.8","0.2","","","","","","","","","","","","","","","","74","J","0","img/none_selected_demo.jpg","true","0","80_20_practice",""
"","bandit","26","156812","0.0-18.0-8.0","19762982","wem/bandit_party_1","A1YF8WP5IWEWVY","either","1","207","","","","","","","1","0","0","0.8","","0.5","0.5","","","","","","","0.8","0.2","","","","","","","","","","","","74","J","0","img/none_selected_demo.jpg","true","0","80_20_practice",""
"","bandit","27","158484","0.0-18.0-9.0","19762982","wem/bandit_party_1","A1YF8WP5IWEWVY","either","1","167","","","","","","","1","0","0","0.8","","0.5","0.5","","","","","","","0.8","0.2","","","","","","","","","","","","74","J","0","img/none_selected_demo.jpg","true","0","80_20_practice",""
"","bandit","28","160131","0.0-18.0-10.0","19762982","wem/bandit_party_1","A1YF8WP5IWEWVY","either","1","142","","","","","","","1","0","0","0.8","","0.5","0.5","","","","","","","0.8","0.2","","","","","","","","","","","","74","J","0","img/none_selected_demo.jpg","true","0","80_20_practice",""
"","bandit","29","161715","0.0-18.0-11.0","19762982","wem/bandit_party_1","A1YF8WP5IWEWVY","either","1","79","","","","","","","0","0","1","0.8","","0.5","0.5","","","","","","","0.8","0.2","","","","","","","","","","","","74","J","0","img/none_selected_demo.jpg","true","0","80_20_practice",""
"","bandit","30","163355","0.0-18.0-12.0","19762982","wem/bandit_party_1","A1YF8WP5IWEWVY","either","1","135","","","","","","","0","1","0","","0.8","0.5","0.5","","","0.8","0.2","","","","","","","","","","","","","","","","74","J","0","img/none_selected_demo.jpg","true","0","80_20_practice",""
"","bandit","31","165068","0.0-18.0-13.0","19762982","wem/bandit_party_1","A1YF8WP5IWEWVY","either","1","207","","","","","","","1","0","0","0.8","","0.5","0.5","","","","","","","0.8","0.2","","","","","","","","","","","","74","J","0","img/none_selected_demo.jpg","true","0","80_20_practice",""
"","bandit","32","166762","0.0-18.0-14.0","19762982","wem/bandit_party_1","A1YF8WP5IWEWVY","either","1","190","","","","","","","0","0","1","0.8","","0.5","0.5","","","","","","","0.8","0.2","","","","","","","","","","","","74","J","0","img/none_selected_demo.jpg","true","0","80_20_practice",""
"","bandit","33","168418","0.0-18.0-15.0","19762982","wem/bandit_party_1","A1YF8WP5IWEWVY","either","1","152","","","","","","","1","0","0","0.8","","0.5","0.5","","","","","","","0.8","0.2","","","","","","","","","","","","74","J","0","img/none_selected_demo.jpg","true","0","80_20_practice",""
"","bandit","34","170131","0.0-18.0-16.0","19762982","wem/bandit_party_1","A1YF8WP5IWEWVY","either","1","208","","","","","","","0","1","0","","0.8","0.5","0.5","","","0.8","0.2","","","","","","","","","","","","","","","","74","J","0","img/none_selected_demo.jpg","true","0","80_20_practice",""
"","bandit","35","171794","0.0-18.0-17.0","19762982","wem/bandit_party_1","A1YF8WP5IWEWVY","either","1","159","","","","","","","1","0","0","0.8","","0.5","0.5","","","","","","","0.8","0.2","","","","","","","","","","","","74","J","0","img/none_selected_demo.jpg","true","0","80_20_practice",""
"","bandit","36","173371","0.0-18.0-18.0","19762982","wem/bandit_party_1","A1YF8WP5IWEWVY","either","1","72","","","","","","","1","0","0","0.8","","0.5","0.5","","","","","","","0.8","0.2","","","","","","","","","","","","74","J","0","img/none_selected_demo.jpg","true","0","80_20_practice",""
"","bandit","37","174995","0.0-18.0-19.0","19762982","wem/bandit_party_1","A1YF8WP5IWEWVY","either","1","119","","","","","","","1","0","0","0.8","","0.5","0.5","","","","","","","0.8","0.2","","","","","","","","","","","","74","J","0","img/none_selected_demo.jpg","true","0","80_20_practice",""
"","text-replacement","38","175204","0.0-19.0","19762982","wem/bandit_party_1","A1YF8WP5IWEWVY","either","1","206","","","32","","","","","","","","","","","","","","","","","","","","","","","","","","","","","","","","","","","","",""
"","bandit","39","178148","0.0-20.0-0.0","19762982","wem/bandit_party_1","A1YF8WP5IWEWVY","either","1","1439","","","","","","","1","0","0","1","0","","","","","0","1","","","1","0","","","","","","","","","","","","74","J","0","img/none_selected_demo.jpg","true","0","",""
"","text-replacement","40","182869","0.0-21.0","19762982","wem/bandit_party_1","A1YF8WP5IWEWVY","either","1","4719","","","32","","","","","","","","","","","","","","","","","","","","","","","","","","","","","","","","","","","","",""
"","text-replacement","41","184404","0.0-22.0","19762982","wem/bandit_party_1","A1YF8WP5IWEWVY","either","1","1535","","","32","","","","","","","","","","","","","","","","","","","","","","","","","","","","","","","","","","","","",""
"","text-replacement","42","186485","0.0-23.0","19762982","wem/bandit_party_1","A1YF8WP5IWEWVY","either","1","2080","","","32","","","","","","","","","","","","","","","","","","","","","","","","","","","","","","","","","","","","",""
"","text-replacement","43","188988","0.0-24.0","19762982","wem/bandit_party_1","A1YF8WP5IWEWVY","either","1","2502","","","32","","","","","","","","","","","","","","","","","","","","","","","","","","","","","","","","","","","","",""
"","text-replacement","44","194285","0.0-25.0","19762982","wem/bandit_party_1","A1YF8WP5IWEWVY","either","1","5295","","","32","","","","","","","","","","","","","","","","","","","","","","","","","","","","","","","","","","","","",""
"","text-replacement","45","196652","0.0-26.0","19762982","wem/bandit_party_1","A1YF8WP5IWEWVY","either","1","2366","","","32","","","","","","","","","","","","","","","","","","","","","","","","","","","","","","","","","","","","",""
"","text-replacement","46","200500","0.0-27.0","19762982","wem/bandit_party_1","A1YF8WP5IWEWVY","either","1","3846","","","32","","","","","","","","","","","","","","","","","","","","","","","","","","","","","","","","","","","","",""
"","text-replacement","47","202996","0.0-28.0","19762982","wem/bandit_party_1","A1YF8WP5IWEWVY","either","1","2495","","","32","","","","","","","","","","","","","","","","","","","","","","","","","","","","","","","","","","","","",""
"","text-replacement","48","205572","0.0-29.0","19762982","wem/bandit_party_1","A1YF8WP5IWEWVY","either","1","2575","","","32","","","","","","","","","","","","","","","","","","","","","","","","","","","","","","","","","","","","",""
"","text-replacement","49","207012","0.0-30.0","19762982","wem/bandit_party_1","A1YF8WP5IWEWVY","either","1","1438","","","32","","","","","","","","","","","","","","","","","","","","","","","","","","","","","","","","","","","","",""
"","text-replacement","50","208580","0.0-31.0","19762982","wem/bandit_party_1","A1YF8WP5IWEWVY","either","1","1566","","","32","","","","","","","","","","","","","","","","","","","","","","","","","","","","","","","","","","","","",""
"","bandit","51","210668","0.0-32.0-0.0","19762982","wem/bandit_party_1","A1YF8WP5IWEWVY","either","1","581","","","","","","","0","1","0","","0.8","0.5","0.5","0.5","0.5","0.8","0.2","0.6","0.2","","","","","","","","","","","","","","72","H","0","img/none_selected.jpg","true","0","full_practice",""
"","bandit","52","212602","0.0-32.0-1.0","19762982","wem/bandit_party_1","A1YF8WP5IWEWVY","either","1","430","","","","","","","0","0","1","","0.2","0.5","0.5","0.5","0.5","0.8","0.2","0.6","0.2","","","","","","","","","","","","","","74","J","1","","true","0","full_practice",""
"","bandit","53","214273","0.0-32.0-2.0","19762982","wem/bandit_party_1","A1YF8WP5IWEWVY","either","1","168","","","","","","","1","0","0","0.8","","0.5","0.5","0.5","0.5","","","","","0.8","0.2","0.6","0.2","","","","","","","","","","72","H","0","img/none_selected.jpg","true","0","full_practice",""
"","bandit","54","216019","0.0-32.0-3.0","19762982","wem/bandit_party_1","A1YF8WP5IWEWVY","either","1","240","","","","","","","0","1","0","","0.8","0.5","0.5","0.5","0.5","0.8","0.2","0.6","0.2","","","","","","","","","","","","","","72","H","0","img/none_selected.jpg","true","0","full_practice",""
"","bandit","55","217715","0.0-32.0-4.0","19762982","wem/bandit_party_1","A1YF8WP5IWEWVY","either","1","191","","","","","","","0","0","1","0.8","","0.5","0.5","0.5","0.5","","","","","0.8","0.2","0.6","0.2","","","","","","","","","","72","H","0","img/none_selected.jpg","true","0","full_practice",""
"","bandit","56","219817","0.0-32.0-5.0","19762982","wem/bandit_party_1","A1YF8WP5IWEWVY","either","1","598","","","","","","","1","0","0","0.8","","0.5","0.5","0.5","0.5","","","","","0.8","0.2","0.6","0.2","","","","","","","","","","72","H","0","img/none_selected.jpg","true","0","full_practice",""
"","bandit","57","221547","0.0-32.0-6.0","19762982","wem/bandit_party_1","A1YF8WP5IWEWVY","either","1","225","","","","","","","0","0","1","","0.8","0.5","0.5","0.5","0.5","0.8","0.2","0.6","0.2","","","","","","","","","","","","","","72","H","0","img/none_selected.jpg","true","0","full_practice",""
"","bandit","58","223322","0.0-32.0-7.0","19762982","wem/bandit_party_1","A1YF8WP5IWEWVY","either","1","272","","","","","","","1","0","0","0.8","","0.5","0.5","0.5","0.5","","","","","0.8","0.2","0.6","0.2","","","","","","","","","","72","H","0","img/none_selected.jpg","true","0","full_practice",""
"","bandit","59","225099","0.0-32.0-8.0","19762982","wem/bandit_party_1","A1YF8WP5IWEWVY","either","1","271","","","","","","","0","1","0","","0.8","0.5","0.5","0.5","0.5","0.8","0.2","0.6","0.2","","","","","","","","","","","","","","72","H","0","img/none_selected.jpg","true","0","full_practice",""
"","bandit","60","226795","0.0-32.0-9.0","19762982","wem/bandit_party_1","A1YF8WP5IWEWVY","either","1","190","","","","","","","0","1","0","","0.8","0.5","0.5","0.5","0.5","0.8","0.2","0.6","0.2","","","","","","","","","","","","","","72","H","0","img/none_selected.jpg","true","0","full_practice",""
"","bandit","61","228518","0.0-32.0-10.0","19762982","wem/bandit_party_1","A1YF8WP5IWEWVY","either","1","216","","","","","","","1","0","0","0.8","","0.5","0.5","0.5","0.5","","","","","0.8","0.2","0.6","0.2","","","","","","","","","","72","H","0","img/none_selected.jpg","true","0","full_practice",""
"","bandit","62","230140","0.0-32.0-11.0","19762982","wem/bandit_party_1","A1YF8WP5IWEWVY","either","1","116","","","","","","","1","0","0","0.8","","0.5","0.5","0.5","0.5","","","","","0.8","0.2","0.6","0.2","","","","","","","","","","72","H","0","img/none_selected.jpg","true","0","full_practice",""
"","bandit","63","231819","0.0-32.0-12.0","19762982","wem/bandit_party_1","A1YF8WP5IWEWVY","either","1","174","","","","","","","1","0","0","0.8","","0.5","0.5","0.5","0.5","","","","","0.8","0.2","0.6","0.2","","","","","","","","","","72","H","0","img/none_selected.jpg","true","0","full_practice",""
"","bandit","64","233533","0.0-32.0-13.0","19762982","wem/bandit_party_1","A1YF8WP5IWEWVY","either","1","207","","","","","","","0","0","1","","0.8","0.5","0.5","0.5","0.5","0.8","0.2","0.6","0.2","","","","","","","","","","","","","","72","H","0","img/none_selected.jpg","true","0","full_practice",""
"","bandit","65","235157","0.0-32.0-14.0","19762982","wem/bandit_party_1","A1YF8WP5IWEWVY","either","1","119","","","","","","","1","0","0","0.8","","0.5","0.5","0.5","0.5","","","","","0.8","0.2","0.6","0.2","","","","","","","","","","72","H","0","img/none_selected.jpg","true","0","full_practice",""
"","bandit","66","236861","0.0-32.0-15.0","19762982","wem/bandit_party_1","A1YF8WP5IWEWVY","either","1","198","","","","","","","1","0","0","0.8","","0.5","0.5","0.5","0.5","","","","","0.8","0.2","0.6","0.2","","","","","","","","","","72","H","0","img/none_selected.jpg","true","0","full_practice",""
"","bandit","67","238507","0.0-32.0-16.0","19762982","wem/bandit_party_1","A1YF8WP5IWEWVY","either","1","141","","","","","","","0","1","0","","0.8","0.5","0.5","0.5","0.5","0.8","0.2","0.6","0.2","","","","","","","","","","","","","","72","H","0","img/none_selected.jpg","true","0","full_practice",""
"","bandit","68","240235","0.0-32.0-17.0","19762982","wem/bandit_party_1","A1YF8WP5IWEWVY","either","1","224","","","","","","","0","0","1","0.8","","0.5","0.5","0.5","0.5","","","","","0.8","0.2","0.6","0.2","","","","","","","","","","72","H","0","img/none_selected.jpg","true","0","full_practice",""
"","bandit","69","241854","0.0-32.0-18.0","19762982","wem/bandit_party_1","A1YF8WP5IWEWVY","either","1","111","","","","","","","0","1","0","","0.8","0.5","0.5","0.5","0.5","0.8","0.2","0.6","0.2","","","","","","","","","","","","","","72","H","0","img/none_selected.jpg","true","0","full_practice",""
"","bandit","70","243587","0.0-32.0-19.0","19762982","wem/bandit_party_1","A1YF8WP5IWEWVY","either","1","228","","","","","","","0","0","1","","0.8","0.5","0.5","0.5","0.5","0.8","0.2","0.6","0.2","","","","","","","","","","","","","","72","H","0","img/none_selected.jpg","true","0","full_practice",""
"","text","71","246117","0.0-33.0","19762982","wem/bandit_party_1","A1YF8WP5IWEWVY","either","1","2523","","","32","","","","","","","","","","","","","","","","","","","","","","","","","","","","","","","","","","","","",""
"","text-replacement","72","263141","0.0-34.0","19762982","wem/bandit_party_1","A1YF8WP5IWEWVY","either","1","16022","","","32","","","","","","","","","","","","","","","","","","","","","","","","","","","","","","","","","","","","",""
"","text-replacement","73","274965","0.0-35.0","19762982","wem/bandit_party_1","A1YF8WP5IWEWVY","either","1","11823","","","32","","","","","","","","","","","","","","","","","","","","","","","","","","","","","","","","","","","","",""
"","text-replacement","74","279213","0.0-36.0","19762982","wem/bandit_party_1","A1YF8WP5IWEWVY","either","1","4245","","","32","","","","","","","","","","","","","","","","","","","","","","","","","","","","","","","","","","","","",""
"","text-replacement","75","284117","0.0-37.0","19762982","wem/bandit_party_1","A1YF8WP5IWEWVY","either","1","4902","","","32","","","","","","","","","","","","","","","","","","","","","","","","","","","","","","","","","","","","",""
"","text-replacement","76","289381","0.0-38.0","19762982","wem/bandit_party_1","A1YF8WP5IWEWVY","either","1","5263","","","32","","","","","","","","","","","","","","","","","","","","","","","","","","","","","","","","","","","","",""
"","survey-multi-choice-replacement","77","294779","0.0-39.0-0.0","19762982","wem/bandit_party_1","A1YF8WP5IWEWVY","either","1","5392","","","","","","","","","","","","","","","","","","","","","","","","Money will be added to the pool for <span style='color:blue;'>DEMOCRATS</span>","","","","","","","attn_check","","","","","","","","","0"
"","survey-multi-choice-replacement","78","299279","0.0-40.0-0.0","19762982","wem/bandit_party_1","A1YF8WP5IWEWVY","either","1","3491","","","","","","","","","","","","","","","","","","","","","","","","Equal amounts of money will be added to the pool for <span style='color:blue;'>DEMOCRATS</span> and subtracted from the pool for <span style='color:red;'>REPUBLICANS</span>","","","","","","","attn_check","","","","","","","","","2"
"","survey-multi-choice-replacement","79","301754","0.0-41.0-0.0","19762982","wem/bandit_party_1","A1YF8WP5IWEWVY","either","1","1468","","","","","","","","","","","","","","","","","","","","","","","","No money will be added to either pool","","","","","","","attn_check","","","","","","","","","3"
"","bandit","80","305579","0.0-42.0-0.0","19762982","wem/bandit_party_1","A1YF8WP5IWEWVY","either","1","1317","","","","","","","0","0","1","0.4269289603","","0.2","0.8","0.6","0.4","","","","","0.4269289603","0.02943109976","0.3592836462","0.0798457429","","","","","","","","","","72","H","0","img/none_selected.jpg","","1","main_expt",""
"","bandit","81","307474","0.0-43.0-0.0","19762982","wem/bandit_party_1","A1YF8WP5IWEWVY","either","1","391","","","","","","","0","0","1","","0.4660243271","0.2","0.8","0.6","0.4","0.4660243271","0.06336112212","0.3454903542","0.07621336767","","","","","","","","","","","","","","72","H","0","img/none_selected.jpg","","2","main_expt",""
"","bandit","82","309290","0.0-44.0-0.0","19762982","wem/bandit_party_1","A1YF8WP5IWEWVY","either","1","312","","","","","","","0","0","1","0.07335687118","","0.2","0.8","0.6","0.4","","","","","0.4738503749","0.07335687118","0.2941512374","0.07476295528","","","","","","","","","","74","J","1","","","3","main_expt",""
"","bandit","83","311330","0.0-45.0-0.0","19762982","wem/bandit_party_1","A1YF8WP5IWEWVY","either","1","536","","","","","","","0","0","1","0.2851241965","","0.2","0.8","0.6","0.4","","","","","0.4618500418","0.06156305515","0.2851241965","0.06526985361","","","","","","","","","","75","K","2","","","4","main_expt",""
"","bandit","84","313148","0.0-46.0-0.0","19762982","wem/bandit_party_1","A1YF8WP5IWEWVY","either","1","312","","","","","","","0","0","1","0.05487735528","","0.2","0.8","0.6","0.4","","","","","0.4488935273","0.08141194251","0.3172925843","0.05487735528","","","","","","","","","","76","L","3","","","5","main_expt",""
"","bandit","85","314970","0.0-47.0-0.0","19762982","wem/bandit_party_1","A1YF8WP5IWEWVY","either","1","318","","","","","","","0","0","1","0.1104821702","","0.2","0.8","0.6","0.4","","","","","0.4437832297","0.1104821702","0.3319153021","0.04340015571","","","","","","","","","","74","J","1","","","6","main_expt",""
"","bandit","86","316738","0.0-48.0-0.0","19762982","wem/bandit_party_1","A1YF8WP5IWEWVY","either","1","263","","","","","","","1","0","0","0.3553039772","","0.2","0.8","0.6","0.4","","","","","0.4310077805","0.1191408541","0.3553039772","0.04575060371","","","","","","","","","","75","K","2","","","7","main_expt",""
"","bandit","87","318460","0.0-49.0-0.0","19762982","wem/bandit_party_1","A1YF8WP5IWEWVY","either","1","215","","","","","","","0","1","0","","0.3868093767","0.2","0.8","0.6","0.4","0.4480386191","0.1517570037","0.3868093767","0.06112087539","","","","","","","","","","","","","","75","K","2","","","8","main_expt",""
"","bandit","88","320187","0.0-50.0-0.0","19762982","wem/bandit_party_1","A1YF8WP5IWEWVY","either","1","221","","","","","","","1","0","0","0.3754406694","","0.2","0.8","0.6","0.4","","","","","0.4460224538","0.1738087075","0.3754406694","0.07854191076","","","","","","","","","","75","K","2","","","9","main_expt",""
"","bandit","89","321955","0.0-51.0-0.0","19762982","wem/bandit_party_1","A1YF8WP5IWEWVY","either","1","261","","","","","","","0","0","1","0.3537433427","","0.2","0.8","0.6","0.4","","","","","0.3954493452","0.2033535465","0.3537433427","0.06865483858","","","","","","","","","","75","K","2","","","10","main_expt",""
"","bandit","90","323652","0.0-52.0-0.0","19762982","wem/bandit_party_1","A1YF8WP5IWEWVY","either","1","192","","","","","","","1","0","0","0.3793358735","","0.2","0.8","0.6","0.4","","","","","0.4064238371","0.1751631116","0.3793358735","0.05083805298","","","","","","","","","","75","K","2","","","11","main_expt",""
"","bandit","91","325355","0.0-53.0-0.0","19762982","wem/bandit_party_1","A1YF8WP5IWEWVY","either","1","198","","","","","","","0","0","1","0.3800428212","","0.2","0.8","0.6","0.4","","","","","0.3800839449","0.1787487179","0.3800428212","0.1038792476","","","","","","","","","","75","K","2","","","12","main_expt",""
"","bandit","92","327099","0.0-54.0-0.0","19762982","wem/bandit_party_1","A1YF8WP5IWEWVY","either","1","239","","","","","","","0","0","1","","0.3866628193","0.2","0.8","0.6","0.4","0.3866628193","0.1794712961","0.3647981021","0.1197284353","","","","","","","","","","","","","","72","H","0","img/none_selected.jpg","","13","main_expt",""
"","bandit","93","328996","0.0-55.0-0.0","19762982","wem/bandit_party_1","A1YF8WP5IWEWVY","either","1","391","","","","","","","0","0","1","","0.135681701","0.2","0.8","0.6","0.4","0.326509825","0.2482140722","0.3646471907","0.135681701","","","","","","","","","","","","","","76","L","3","","","14","main_expt",""
"","bandit","94","330756","0.0-56.0-0.0","19762982","wem/bandit_party_1","A1YF8WP5IWEWVY","either","1","254","","","","","","","0","0","1","","0.3549291363","0.2","0.8","0.6","0.4","0.2428529647","0.2859415589","0.3549291363","0.125153919","","","","","","","","","","","","","","75","K","2","","","15","main_expt",""
"","bandit","95","332530","0.0-57.0-0.0","19762982","wem/bandit_party_1","A1YF8WP5IWEWVY","either","1","269","","","","","","","0","0","1","","0.26587149","0.2","0.8","0.6","0.4","0.2332962783","0.26587149","0.3727350689","0.1096891688","","","","","","","","","","","","","","74","J","1","","","16","main_expt",""
"","bandit","96","334339","0.0-58.0-0.0","19762982","wem/bandit_party_1","A1YF8WP5IWEWVY","either","1","303","","","","","","","0","0","1","0.2271032234","","0.2","0.8","0.6","0.4","","","","","0.2271032234","0.2776265896","0.3112083829","0.1051581447","","","","","","","","","","72","H","0","img/none_selected.jpg","","17","main_expt",""
"","bandit","97","335954","0.0-59.0-0.0","19762982","wem/bandit_party_1","A1YF8WP5IWEWVY","either","1","110","","","","","","","0","0","1","","0.3223387563","0.2","0.8","0.6","0.4","0.1701710303","0.3223387563","0.2403081055","0.1437943492","","","","","","","","","","","","","","74","J","1","","","18","main_expt",""
"","bandit","98","337698","0.0-60.0-0.0","19762982","wem/bandit_party_1","A1YF8WP5IWEWVY","either","1","240","","","","","","","0","0","1","0.2377482675","","0.2","0.8","0.6","0.4","","","","","0.2070198111","0.3192918255","0.2377482675","0.1405615485","","","","","","","","","","75","K","2","","","19","main_expt",""
"","bandit","99","339370","0.0-61.0-0.0","19762982","wem/bandit_party_1","A1YF8WP5IWEWVY","either","1","167","","","","","","","0","0","1","0.1063334751","","0.2","0.8","0.6","0.4","","","","","0.2412547966","0.2739159796","0.2607530295","0.1063334751","","","","","","","","","","76","L","3","","","20","main_expt",""
"","bandit","100","341354","0.0-62.0-0.0","19762982","wem/bandit_party_1","A1YF8WP5IWEWVY","either","1","479","","","","","","","0","0","1","","0.2184758186","0.2","0.8","0.6","0.4","0.2184758186","0.2454385858","0.2919400674","0.07848250716","","","","","","","","","","","","","","72","H","0","img/none_selected.jpg","","21","main_expt",""
"","bandit","101","343130","0.0-63.0-0.0","19762982","wem/bandit_party_1","A1YF8WP5IWEWVY","either","1","271","","","","","","","0","0","1","","0.2340842041","0.2","0.8","0.6","0.4","0.1849325376","0.2340842041","0.2995681058","0.1005082742","","","","","","","","","","","","","","74","J","1","","","22","main_expt",""
"","bandit","102","344883","0.0-64.0-0.0","19762982","wem/bandit_party_1","A1YF8WP5IWEWVY","either","1","248","","","","","","","0","0","1","0.292554742","","0.2","0.8","0.6","0.4","","","","","0.1521197653","0.1840173947","0.292554742","0.0792694407","","","","","","","","","","75","K","2","","","23","main_expt",""
"","bandit","103","346649","0.0-65.0-0.0","19762982","wem/bandit_party_1","A1YF8WP5IWEWVY","either","1","263","","","","","","","0","0","1","","0.07358699385","0.2","0.8","0.6","0.4","0.1759403195","0.1745529383","0.3616894364","0.07358699385","","","","","","","","","","","","","","76","L","3","","","24","main_expt",""
"","bandit","104","348425","0.0-66.0-0.0","19762982","wem/bandit_party_1","A1YF8WP5IWEWVY","either","1","271","","","","","","","0","0","1","","0.09479311865","0.2","0.8","0.6","0.4","0.09479311865","0.1756582033","0.3575757263","0.142208116","","","","","","","","","","","","","","72","H","0","img/none_selected.jpg","","25","main_expt",""
"","bandit","105","350186","0.0-67.0-0.0","19762982","wem/bandit_party_1","A1YF8WP5IWEWVY","either","1","256","","","","","","","0","0","1","0.2086365416","","0.2","0.8","0.6","0.4","","","","","0.08156123497","0.2086365416","0.3635346368","0.1245113583","","","","","","","","","","74","J","1","","","26","main_expt",""
"","bandit","106","351923","0.0-68.0-0.0","19762982","wem/bandit_party_1","A1YF8WP5IWEWVY","either","1","230","","","","","","","0","0","1","","0.4109801844","0.2","0.8","0.6","0.4","0.1102307873","0.2139763749","0.4109801844","0.118364605","","","","","","","","","","","","","","75","K","2","","","27","main_expt",""
"","bandit","107","353657","0.0-69.0-0.0","19762982","wem/bandit_party_1","A1YF8WP5IWEWVY","either","1","228","","","","","","","0","0","1","0.1105930361","","0.2","0.8","0.6","0.4","","","","","0.08274430796","0.1613483267","0.3772962545","0.1105930361","","","","","","","","","","76","L","3","","","28","main_expt",""
"","bandit","108","355418","0.0-70.0-0.0","19762982","wem/bandit_party_1","A1YF8WP5IWEWVY","either","1","256","","","","","","","0","0","1","0.1086911099","","0.2","0.8","0.6","0.4","","","","","0.1086911099","0.1712488152","0.3875745016","0.1118713044","","","","","","","","","","72","H","0","img/none_selected.jpg","","29","main_expt",""
"","bandit","109","357193","0.0-71.0-0.0","19762982","wem/bandit_party_1","A1YF8WP5IWEWVY","either","1","270","","","","","","","0","0","1","0.1675524316","","0.2","0.8","0.6","0.4","","","","","0.1116575632","0.1675524316","0.3780019893","0.1914750456","","","","","","","","","","74","J","1","","","30","main_expt",""
"","bandit","110","358945","0.0-72.0-0.0","19762982","wem/bandit_party_1","A1YF8WP5IWEWVY","either","1","247","","","","","","","0","0","1","","0.416860241","0.2","0.8","0.6","0.4","0.07828091442","0.140325158","0.416860241","0.2367730164","","","","","","","","","","","","","","75","K","2","","","31","main_expt",""
"","bandit","111","360665","0.0-73.0-0.0","19762982","wem/bandit_party_1","A1YF8WP5IWEWVY","either","1","215","","","","","","","0","0","1","","0.2109574779","0.2","0.8","0.6","0.4","0.07550395781","0.1553940025","0.4242573056","0.2109574779","","","","","","","","","","","","","","76","L","3","","","32","main_expt",""
"","bandit","112","362393","0.0-74.0-0.0","19762982","wem/bandit_party_1","A1YF8WP5IWEWVY","either","1","223","","","","","","","1","0","0","0.4185546122","","0.2","0.8","0.6","0.4","","","","","0.1445529326","0.1925614924","0.4185546122","0.2005542758","","","","","","","","","","75","K","2","","","33","main_expt",""
"","bandit","113","364137","0.0-75.0-0.0","19762982","wem/bandit_party_1","A1YF8WP5IWEWVY","either","1","239","","","","","","","0","0","1","0.4268308419","","0.2","0.8","0.6","0.4","","","","","0.1091775744","0.2150530123","0.4268308419","0.180377021","","","","","","","","","","75","K","2","","","34","main_expt",""
"","bandit","114","365938","0.0-76.0-0.0","19762982","wem/bandit_party_1","A1YF8WP5IWEWVY","either","1","293","","","","","","","1","0","0","0.4265642185","","0.2","0.8","0.6","0.4","","","","","0.1297995116","0.2688968874","0.4265642185","0.2111187229","","","","","","","","","","75","K","2","","","35","main_expt",""
"","bandit","115","367658","0.0-77.0-0.0","19762982","wem/bandit_party_1","A1YF8WP5IWEWVY","either","1","213","","","","","","","1","0","0","0.4066287969","","0.2","0.8","0.6","0.4","","","","","0.09468550628","0.2977459964","0.4066287969","0.2119332756","","","","","","","","","","75","K","2","","","36","main_expt",""
"","bandit","116","369393","0.0-78.0-0.0","19762982","wem/bandit_party_1","A1YF8WP5IWEWVY","either","1","230","","","","","","","0","0","1","0.4611471687","","0.2","0.8","0.6","0.4","","","","","0.09396978408","0.2684429955","0.4611471687","0.2256131965","","","","","","","","","","75","K","2","","","37","main_expt",""
"","bandit","117","371041","0.0-79.0-0.0","19762982","wem/bandit_party_1","A1YF8WP5IWEWVY","either","1","143","","","","","","","0","0","1","0.4482708269","","0.2","0.8","0.6","0.4","","","","","0.1062257399","0.2490186117","0.4482708269","0.1975147253","","","","","","","","","","75","K","2","","","38","main_expt",""
"","bandit","118","372738","0.0-80.0-0.0","19762982","wem/bandit_party_1","A1YF8WP5IWEWVY","either","1","190","","","","","","","0","0","1","0.2548033483","","0.2","0.8","0.6","0.4","","","","","0.09676453159","0.2548033483","0.4402774387","0.1595648847","","","","","","","","","","74","J","1","","","39","main_expt",""
"","bandit","119","374433","0.0-81.0-0.0","19762982","wem/bandit_party_1","A1YF8WP5IWEWVY","either","1","190","","","","","","","0","0","1","0.2688720753","","0.2","0.8","0.6","0.4","","","","","0.08197179495","0.2688720753","0.4385128538","0.1626610004","","","","","","","","","","74","J","1","","","40","main_expt",""
"","bandit","120","376161","0.0-82.0-0.0","19762982","wem/bandit_party_1","A1YF8WP5IWEWVY","either","1","223","","","","","","","1","0","0","0.14416382","","0.2","0.8","0.6","0.4","","","","","0.14416382","0.297778532","0.4380640779","0.1982402655","","","","","","","","","","72","H","0","img/none_selected.jpg","","41","main_expt",""
"","bandit","121","377882","0.0-83.0-0.0","19762982","wem/bandit_party_1","A1YF8WP5IWEWVY","either","1","215","","","","","","","0","0","1","","0.1070927036","0.2","0.8","0.6","0.4","0.1070927036","0.2449207522","0.4265224768","0.1863610343","","","","","","","","","","","","","","72","H","0","img/none_selected.jpg","","42","main_expt",""
"","bandit","122","379553","0.0-84.0-0.0","19762982","wem/bandit_party_1","A1YF8WP5IWEWVY","either","1","165","","","","","","","0","0","1","","0.1214526226","0.2","0.8","0.6","0.4","0.1214526226","0.2457567503","0.435880106","0.2418389683","","","","","","","","","","","","","","72","H","0","img/none_selected.jpg","","43","main_expt",""
"","bandit","123","381321","0.0-85.0-0.0","19762982","wem/bandit_party_1","A1YF8WP5IWEWVY","either","1","262","","","","","","","0","0","1","","0.1943491227","0.2","0.8","0.6","0.4","0.1450738833","0.2432732657","0.4450576882","0.1943491227","","","","","","","","","","","","","","76","L","3","","","44","main_expt",""
"","bandit","124","383112","0.0-86.0-0.0","19762982","wem/bandit_party_1","A1YF8WP5IWEWVY","either","1","285","","","","","","","0","0","1","","0.4382030275","0.2","0.8","0.6","0.4","0.09632230927","0.2656772236","0.4382030275","0.1543250971","","","","","","","","","","","","","","75","K","2","","","45","main_expt",""
"","bandit","125","384864","0.0-87.0-0.0","19762982","wem/bandit_party_1","A1YF8WP5IWEWVY","either","1","247","","","","","","","0","0","1","0.2432112423","","0.2","0.8","0.6","0.4","","","","","0.103211431","0.2432112423","0.4412369426","0.09719433791","","","","","","","","","","74","J","1","","","46","main_expt",""
"","bandit","126","386672","0.0-88.0-0.0","19762982","wem/bandit_party_1","A1YF8WP5IWEWVY","either","1","304","","","","","","","0","0","1","","0.1228880329","0.2","0.8","0.6","0.4","0.09916324924","0.2992745976","0.4588863431","0.1228880329","","","","","","","","","","","","","","76","L","3","","","47","main_expt",""
"","bandit","127","388488","0.0-89.0-0.0","19762982","wem/bandit_party_1","A1YF8WP5IWEWVY","either","1","312","","","","","","","0","0","1","0.2594611615","","0.2","0.8","0.6","0.4","","","","","0.1090242341","0.2594611615","0.4408788818","0.1068532567","","","","","","","","","","74","J","1","","","48","main_expt",""
"","bandit","128","390233","0.0-90.0-0.0","19762982","wem/bandit_party_1","A1YF8WP5IWEWVY","either","1","239","","","","","","","0","0","1","","0.4232064109","0.2","0.8","0.6","0.4","0.1265186769","0.2767916858","0.4232064109","0.1044048509","","","","","","","","","","","","","","75","K","2","","","49","main_expt",""
"","bandit","129","392026","0.0-91.0-0.0","19762982","wem/bandit_party_1","A1YF8WP5IWEWVY","either","1","287","","","","","","","0","1","0","","0.1397440907","0.2","0.8","0.6","0.4","0.1397440907","0.2762534014","0.4210883962","0.1072026782","","","","","","","","","","","","","","72","H","0","img/none_selected.jpg","","50","main_expt",""
"","bandit","130","393785","0.0-92.0-0.0","19762982","wem/bandit_party_1","A1YF8WP5IWEWVY","either","1","253","","","","","","","0","0","1","0.153600331","","0.2","0.8","0.6","0.4","","","","","0.153600331","0.3379376541","0.4225635581","0.1287882573","","","","","","","","","","72","H","0","img/none_selected.jpg","","51","main_expt",""
"","bandit","131","395528","0.0-93.0-0.0","19762982","wem/bandit_party_1","A1YF8WP5IWEWVY","either","1","239","","","","","","","0","1","0","","0.1718407591","0.2","0.8","0.6","0.4","0.1718407591","0.3395267946","0.4146237098","0.1298059469","","","","","","","","","","","","","","72","H","0","img/none_selected.jpg","","52","main_expt",""
"","bandit","132","397266","0.0-94.0-0.0","19762982","wem/bandit_party_1","A1YF8WP5IWEWVY","either","1","231","","","","","","","1","0","0","0.1945727614","","0.2","0.8","0.6","0.4","","","","","0.1945727614","0.29674647","0.3763623321","0.07423060895","","","","","","","","","","72","H","0","img/none_selected.jpg","","53","main_expt",""
"","bandit","133","398984","0.0-95.0-0.0","19762982","wem/bandit_party_1","A1YF8WP5IWEWVY","either","1","214","","","","","","","0","0","1","","0.2450542523","0.2","0.8","0.6","0.4","0.2450542523","0.3372955831","0.3289081181","0.08562383645","","","","","","","","","","","","","","72","H","0","img/none_selected.jpg","","54","main_expt",""
"","bandit","134","400672","0.0-96.0-0.0","19762982","wem/bandit_party_1","A1YF8WP5IWEWVY","either","1","183","","","","","","","0","0","1","0.2547241938","","0.2","0.8","0.6","0.4","","","","","0.2547241938","0.3506099842","0.3025984711","0.0757818623","","","","","","","","","","72","H","0","img/none_selected.jpg","","55","main_expt",""
"","bandit","135","402337","0.0-97.0-0.0","19762982","wem/bandit_party_1","A1YF8WP5IWEWVY","either","1","159","","","","","","","0","0","1","0.3418029788","","0.2","0.8","0.6","0.4","","","","","0.2595112895","0.3418029788","0.2921333137","0.09897923035","","","","","","","","","","74","J","1","","","56","main_expt",""
"","bandit","136","404057","0.0-98.0-0.0","19762982","wem/bandit_party_1","A1YF8WP5IWEWVY","either","1","214","","","","","","","0","0","1","0.3317177772","","0.2","0.8","0.6","0.4","","","","","0.2610276213","0.3162475816","0.3317177772","0.1160875525","","","","","","","","","","75","K","2","","","57","main_expt",""
"","bandit","137","405768","0.0-99.0-0.0","19762982","wem/bandit_party_1","A1YF8WP5IWEWVY","either","1","207","","","","","","","0","0","1","0.1134641846","","0.2","0.8","0.6","0.4","","","","","0.2354201416","0.3269881105","0.3240244649","0.1134641846","","","","","","","","","","76","L","3","","","58","main_expt",""
"","bandit","138","407481","0.0-100.0-0.0","19762982","wem/bandit_party_1","A1YF8WP5IWEWVY","either","1","208","","","","","","","0","0","1","0.2901324944","","0.2","0.8","0.6","0.4","","","","","0.2346370837","0.2901324944","0.2988076671","0.1177083384","","","","","","","","","","74","J","1","","","59","main_expt",""
"","bandit","139","409218","0.0-101.0-0.0","19762982","wem/bandit_party_1","A1YF8WP5IWEWVY","either","1","229","","","","","","","0","1","0","","0.3096792726","0.2","0.8","0.6","0.4","0.2315637733","0.289588464","0.3096792726","0.1125723432","","","","","","","","","","","","","","75","K","2","","","60","main_expt",""
"","bandit","140","410897","0.0-102.0-0.0","19762982","wem/bandit_party_1","A1YF8WP5IWEWVY","either","1","174","","","","","","","0","0","1","0.2821336973","","0.2","0.8","0.6","0.4","","","","","0.2599537756","0.2782845563","0.2821336973","0.09911093426","","","","","","","","","","75","K","2","","","61","main_expt",""
"","bandit","141","412530","0.0-103.0-0.0","19762982","wem/bandit_party_1","A1YF8WP5IWEWVY","either","1","127","","","","","","","0","0","1","0.09440438105","","0.2","0.8","0.6","0.4","","","","","0.2594941563","0.3165490401","0.2414244345","0.09440438105","","","","","","","","","","76","L","3","","","62","main_expt",""
"","bandit","142","414155","0.0-104.0-0.0","19762982","wem/bandit_party_1","A1YF8WP5IWEWVY","either","1","118","","","","","","","0","0","1","0.2660839385","","0.2","0.8","0.6","0.4","","","","","0.2660839385","0.3034564924","0.213639373","0.1015409351","","","","","","","","","","72","H","0","img/none_selected.jpg","","63","main_expt",""
"","bandit","143","415762","0.0-105.0-0.0","19762982","wem/bandit_party_1","A1YF8WP5IWEWVY","either","1","100","","","","","","","0","0","1","","0.2426585031","0.2","0.8","0.6","0.4","0.2426585031","0.2506654962","0.1876308072","0.07049798599","","","","","","","","","","","","","","72","H","0","img/none_selected.jpg","","64","main_expt",""
"","bandit","144","417450","0.0-106.0-0.0","19762982","wem/bandit_party_1","A1YF8WP5IWEWVY","either","1","181","","","","","","","0","0","1","0.253414466","","0.2","0.8","0.6","0.4","","","","","0.2581047566","0.253414466","0.1841803182","0.05735603507","","","","","","","","","","74","J","1","","","65","main_expt",""
"","bandit","145","419065","0.0-107.0-0.0","19762982","wem/bandit_party_1","A1YF8WP5IWEWVY","either","1","110","","","","","","","0","0","1","0.2836500186","","0.2","0.8","0.6","0.4","","","","","0.2872127433","0.2836500186","0.187417598","0.0621258055","","","","","","","","","","74","J","1","","","66","main_expt",""
"","bandit","146","420611","0.0-108.0-0.0","19762982","wem/bandit_party_1","A1YF8WP5IWEWVY","either","1","38","","","","","","","0","0","1","","0.1395950637","0.2","0.8","0.6","0.4","0.3232337643","0.3217852231","0.1395950637","0.06966106928","","","","","","","","","","","","","","75","K","2","","","67","main_expt",""
"","bandit","147","422193","0.0-109.0-0.0","19762982","wem/bandit_party_1","A1YF8WP5IWEWVY","either","1","76","","","","","","","0","0","1","","0.1363519197","0.2","0.8","0.6","0.4","0.3376006622","0.3574581916","0.1363519197","0.09965709916","","","","","","","","","","","","","","75","K","2","","","68","main_expt",""
"","bandit","148","424049","0.0-110.0-0.0","19762982","wem/bandit_party_1","A1YF8WP5IWEWVY","either","1","351","","","","","","","0","1","0","","0.1428217854","0.2","0.8","0.6","0.4","0.2917609244","0.3884563005","0.1117144852","0.1428217854","","","","","","","","","","","","","","76","L","3","","","69","main_expt",""
"","bandit","149","425658","0.0-111.0-0.0","19762982","wem/bandit_party_1","A1YF8WP5IWEWVY","either","1","103","","","","","","","0","0","1","0.1866845388","","0.2","0.8","0.6","0.4","","","","","0.2218665627","0.3920047773","0.09667493602","0.1866845388","","","","","","","","","","76","L","3","","","70","main_expt",""
"","bandit","150","427242","0.0-112.0-0.0","19762982","wem/bandit_party_1","A1YF8WP5IWEWVY","either","1","77","","","","","","","0","0","1","","0.1702545286","0.2","0.8","0.6","0.4","0.2409383839","0.4066376731","0.09186933139","0.1702545286","","","","","","","","","","","","","","76","L","3","","","71","main_expt",""
"","bandit","151","428849","0.0-113.0-0.0","19762982","wem/bandit_party_1","A1YF8WP5IWEWVY","either","1","101","","","","","","","0","0","1","0.1920783453","","0.2","0.8","0.6","0.4","","","","","0.1920783453","0.3443789926","0.09472009463","0.1836279043","","","","","","","","","","72","H","0","img/none_selected.jpg","","72","main_expt",""
"","bandit","152","430492","0.0-114.0-0.0","19762982","wem/bandit_party_1","A1YF8WP5IWEWVY","either","1","136","","","","","","","0","1","0","","0.1905254877","0.2","0.8","0.6","0.4","0.1905254877","0.3227553012","0.1167805336","0.1644348242","","","","","","","","","","","","","","72","H","0","img/none_selected.jpg","","73","main_expt",""
"","bandit","153","432185","0.0-115.0-0.0","19762982","wem/bandit_party_1","A1YF8WP5IWEWVY","either","1","189","","","","","","","0","0","1","","0.184198213","0.2","0.8","0.6","0.4","0.184198213","0.3336652139","0.1465151254","0.1833421201","","","","","","","","","","","","","","72","H","0","img/none_selected.jpg","","74","main_expt",""
"","bandit","154","433785","0.0-116.0-0.0","19762982","wem/bandit_party_1","A1YF8WP5IWEWVY","either","1","93","","","","","","","0","1","0","","0.1881920243","0.2","0.8","0.6","0.4","0.1881920243","0.2890150868","0.123285719","0.1519653276","","","","","","","","","","","","","","72","H","0","img/none_selected.jpg","","75","main_expt",""
"","bandit","155","435499","0.0-117.0-0.0","19762982","wem/bandit_party_1","A1YF8WP5IWEWVY","either","1","207","","","","","","","0","0","1","0.1988930589","","0.2","0.8","0.6","0.4","","","","","0.1988930589","0.2673490463","0.1392606081","0.1506622639","","","","","","","","","","72","H","0","img/none_selected.jpg","","76","main_expt",""
"","bandit","156","437005","0.0-118.0-0.0","19762982","wem/bandit_party_1","A1YF8WP5IWEWVY","either","1","0","","","","","","","0","0","1","","0.2255968657","0.2","0.8","0.6","0.4","0.2255968657","0.2858541315","0.099337717","0.1860897766","","","","","","","","","","","","","","72","H","0","img/none_selected.jpg","","77","main_expt",""
"","bandit","157","438777","0.0-119.0-0.0","19762982","wem/bandit_party_1","A1YF8WP5IWEWVY","either","1","268","","","","","","","0","0","1","0.2639968829","","0.2","0.8","0.6","0.4","","","","","0.1917014014","0.2639968829","0.09666605973","0.1618556875","","","","","","","","","","74","J","1","","","78","main_expt",""
"","bandit","158","440448","0.0-120.0-0.0","19762982","wem/bandit_party_1","A1YF8WP5IWEWVY","either","1","167","","","","","","","0","0","1","0.2304888896","","0.2","0.8","0.6","0.4","","","","","0.2092129429","0.2304888896","0.09639353985","0.1976853889","","","","","","","","","","74","J","1","","","79","main_expt",""
"","bandit","159","442187","0.0-121.0-0.0","19762982","wem/bandit_party_1","A1YF8WP5IWEWVY","either","1","232","","","","","","","1","0","0","0.09566996791","","0.2","0.8","0.6","0.4","","","","","0.1974306726","0.1991809665","0.09566996791","0.2198838985","","","","","","","","","","75","K","2","","","80","main_expt",""
"","bandit","160","443826","0.0-122.0-0.0","19762982","wem/bandit_party_1","A1YF8WP5IWEWVY","either","1","132","","","","","","","0","0","1","0.07958501382","","0.2","0.8","0.6","0.4","","","","","0.1414754506","0.1627434897","0.07958501382","0.2167005254","","","","","","","","","","75","K","2","","","81","main_expt",""
"","bandit","161","445417","0.0-123.0-0.0","19762982","wem/bandit_party_1","A1YF8WP5IWEWVY","either","1","86","","","","","","","0","0","1","0.08833774835","","0.2","0.8","0.6","0.4","","","","","0.1422587364","0.1624637972","0.08833774835","0.2527486409","","","","","","","","","","75","K","2","","","82","main_expt",""
"","bandit","162","447033","0.0-124.0-0.0","19762982","wem/bandit_party_1","A1YF8WP5IWEWVY","either","1","111","","","","","","","0","0","1","0.2569721607","","0.2","0.8","0.6","0.4","","","","","0.1079415531","0.1900332","0.09109006352","0.2569721607","","","","","","","","","","76","L","3","","","83","main_expt",""
"","bandit","163","448577","0.0-125.0-0.0","19762982","wem/bandit_party_1","A1YF8WP5IWEWVY","either","1","38","","","","","","","0","0","1","","0.2535394321","0.2","0.8","0.6","0.4","0.07696487024","0.1705646391","0.05321730921","0.2535394321","","","","","","","","","","","","","","76","L","3","","","84","main_expt",""
"","bandit","164","450257","0.0-126.0-0.0","19762982","wem/bandit_party_1","A1YF8WP5IWEWVY","either","1","175","","","","","","","0","0","1","","0.08313016423","0.2","0.8","0.6","0.4","0.08313016423","0.2053302659","0.03321009489","0.2255799186","","","","","","","","","","","","","","72","H","0","img/none_selected.jpg","","85","main_expt",""
"","bandit","165","451905","0.0-127.0-0.0","19762982","wem/bandit_party_1","A1YF8WP5IWEWVY","either","1","142","","","","","","","0","1","0","","0.102083396","0.2","0.8","0.6","0.4","0.102083396","0.2128685413","0.04864990798","0.2197080914","","","","","","","","","","","","","","72","H","0","img/none_selected.jpg","","86","main_expt",""
"","bandit","166","453563","0.0-128.0-0.0","19762982","wem/bandit_party_1","A1YF8WP5IWEWVY","either","1","151","","","","","","","0","0","1","","0.09067070718","0.2","0.8","0.6","0.4","0.09067070718","0.213778815","0.07919268752","0.2230338057","","","","","","","","","","","","","","72","H","0","img/none_selected.jpg","","87","main_expt",""
"","bandit","167","455162","0.0-129.0-0.0","19762982","wem/bandit_party_1","A1YF8WP5IWEWVY","either","1","92","","","","","","","0","0","1","0.1421970704","","0.2","0.8","0.6","0.4","","","","","0.1421970704","0.2102340809","0.05835116993","0.2484269739","","","","","","","","","","72","H","0","img/none_selected.jpg","","88","main_expt",""
"","bandit","168","456770","0.0-130.0-0.0","19762982","wem/bandit_party_1","A1YF8WP5IWEWVY","either","1","101","","","","","","","0","0","1","","0.1809358483","0.2","0.8","0.6","0.4","0.219142046","0.1809358483","0.05115519592","0.2733562597","","","","","","","","","","","","","","74","J","1","","","89","main_expt",""
"","bandit","169","458313","0.0-131.0-0.0","19762982","wem/bandit_party_1","A1YF8WP5IWEWVY","either","1","36","","","","","","","1","0","0","0.1293356972","","0.2","0.8","0.6","0.4","","","","","0.2806923657","0.1293356972","0.07819273649","0.2973868449","","","","","","","","","","74","J","1","","","90","main_expt",""
"","bandit","170","459922","0.0-132.0-0.0","19762982","wem/bandit_party_1","A1YF8WP5IWEWVY","either","1","102","","","","","","","0","0","1","0.1136224352","","0.2","0.8","0.6","0.4","","","","","0.2819660137","0.1136224352","0.05564661524","0.3067689268","","","","","","","","","","74","J","1","","","91","main_expt",""
"","bandit","171","461610","0.0-133.0-0.0","19762982","wem/bandit_party_1","A1YF8WP5IWEWVY","either","1","181","","","","","","","0","0","1","0.07539152519","","0.2","0.8","0.6","0.4","","","","","0.3370305887","0.07539152519","0.05914103421","0.2719776188","","","","","","","","","","74","J","1","","","92","main_expt",""
"","bandit","172","463299","0.0-134.0-0.0","19762982","wem/bandit_party_1","A1YF8WP5IWEWVY","either","1","180","","","","","","","0","0","1","","0.03944324463","0.2","0.8","0.6","0.4","0.3722719914","0.08243558305","0.03944324463","0.3081791896","","","","","","","","","","","","","","75","K","2","","","93","main_expt",""
"","bandit","173","464929","0.0-135.0-0.0","19762982","wem/bandit_party_1","A1YF8WP5IWEWVY","either","1","123","","","","","","","0","0","1","0.05023017475","","0.2","0.8","0.6","0.4","","","","","0.3840030774","0.09807673793","0.05023017475","0.356667856","","","","","","","","","","75","K","2","","","94","main_expt",""
"","bandit","174","466562","0.0-136.0-0.0","19762982","wem/bandit_party_1","A1YF8WP5IWEWVY","either","1","126","","","","","","","0","1","0","","0.3300765204","0.2","0.8","0.6","0.4","0.4050844552","0.09746204728","0.07311956304","0.3300765204","","","","","","","","","","","","","","76","L","3","","","95","main_expt",""
"","bandit","175","468155","0.0-137.0-0.0","19762982","wem/bandit_party_1","A1YF8WP5IWEWVY","either","1","86","","","","","","","0","0","1","0.3642735905","","0.2","0.8","0.6","0.4","","","","","0.4081076376","0.08559835745","0.09573717159","0.3642735905","","","","","","","","","","76","L","3","","","96","main_expt",""
"","bandit","176","469769","0.0-138.0-0.0","19762982","wem/bandit_party_1","A1YF8WP5IWEWVY","either","1","107","","","","","","","0","1","0","","0.3885664579","0.2","0.8","0.6","0.4","0.4142780263","0.0732645996","0.1235519285","0.3885664579","","","","","","","","","","","","","","76","L","3","","","97","main_expt",""
"","bandit","177","471481","0.0-139.0-0.0","19762982","wem/bandit_party_1","A1YF8WP5IWEWVY","either","1","207","","","","","","","0","0","1","","0.4162912028","0.2","0.8","0.6","0.4","0.4131193208","0.05343209845","0.1274282425","0.4162912028","","","","","","","","","","","","","","76","L","3","","","98","main_expt",""
"","bandit","178","473153","0.0-140.0-0.0","19762982","wem/bandit_party_1","A1YF8WP5IWEWVY","either","1","166","","","","","","","0","1","0","","0.4074153657","0.2","0.8","0.6","0.4","0.428944851","0.05144299931","0.1457321849","0.4074153657","","","","","","","","","","","","","","76","L","3","","","99","main_expt",""
"","bandit","179","474833","0.0-141.0-0.0","19762982","wem/bandit_party_1","A1YF8WP5IWEWVY","either","1","174","","","","","","","1","0","0","0.3349137267","","0.2","0.8","0.6","0.4","","","","","0.4279797645","0.03934302155","0.1492128348","0.3349137267","","","","","","","","","","76","L","3","","","100","main_expt",""
"","bandit","180","476466","0.0-142.0-0.0","19762982","wem/bandit_party_1","A1YF8WP5IWEWVY","either","1","127","","","","","","","0","0","1","0.2732947861","","0.2","0.8","0.6","0.4","","","","","0.4189249443","0.05783306622","0.125019219","0.2732947861","","","","","","","","","","76","L","3","","","101","main_expt",""
"","bandit","181","478161","0.0-143.0-0.0","19762982","wem/bandit_party_1","A1YF8WP5IWEWVY","either","1","189","","","","","","","0","1","0","","0.2584454073","0.2","0.8","0.6","0.4","0.4279241466","0.06484492547","0.1008510245","0.2584454073","","","","","","","","","","","","","","76","L","3","","","102","main_expt",""
"","bandit","182","479785","0.0-144.0-0.0","19762982","wem/bandit_party_1","A1YF8WP5IWEWVY","either","1","117","","","","","","","0","0","1","0.2143891894","","0.2","0.8","0.6","0.4","","","","","0.419390052","0.0701259157","0.1087281004","0.2143891894","","","","","","","","","","76","L","3","","","103","main_expt",""
"","bandit","183","481433","0.0-145.0-0.0","19762982","wem/bandit_party_1","A1YF8WP5IWEWVY","either","1","142","","","","","","","0","0","1","0.1354346047","","0.2","0.8","0.6","0.4","","","","","0.3761202226","0.06922647753","0.143855427","0.1354346047","","","","","","","","","","76","L","3","","","104","main_expt",""
"","bandit","184","483066","0.0-146.0-0.0","19762982","wem/bandit_party_1","A1YF8WP5IWEWVY","either","1","127","","","","","","","0","0","1","0.1615963473","","0.2","0.8","0.6","0.4","","","","","0.4229881466","0.07802312096","0.1606853024","0.1615963473","","","","","","","","","","76","L","3","","","105","main_expt",""
"","bandit","185","484810","0.0-147.0-0.0","19762982","wem/bandit_party_1","A1YF8WP5IWEWVY","either","1","237","","","","","","","0","0","1","0.1612939645","","0.2","0.8","0.6","0.4","","","","","0.4110558218","0.08930313369","0.1612939645","0.1738621023","","","","","","","","","","75","K","2","","","106","main_expt",""
"","bandit","186","486425","0.0-148.0-0.0","19762982","wem/bandit_party_1","A1YF8WP5IWEWVY","either","1","109","","","","","","","0","0","1","","0.1778053335","0.2","0.8","0.6","0.4","0.4176599015","0.1397733654","0.1778053335","0.1799671425","","","","","","","","","","","","","","75","K","2","","","107","main_expt",""
"","bandit","187","488481","0.0-149.0-0.0","19762982","wem/bandit_party_1","A1YF8WP5IWEWVY","either","1","550","","","","","","","0","0","1","","0.1826465361","0.2","0.8","0.6","0.4","0.4210396584","0.1505899732","0.1826465361","0.1844274074","","","","","","","","","","","","","","75","K","2","","","108","main_expt",""
"","bandit","188","490233","0.0-150.0-0.0","19762982","wem/bandit_party_1","A1YF8WP5IWEWVY","either","1","245","","","","","","","0","0","1","","0.1162436109","0.2","0.8","0.6","0.4","0.4328015469","0.1162436109","0.1737022726","0.1702708828","","","","","","","","","","","","","","74","J","1","","","109","main_expt",""
"","bandit","189","491784","0.0-151.0-0.0","19762982","wem/bandit_party_1","A1YF8WP5IWEWVY","either","1","46","","","","","","","0","0","1","0.08267976014","","0.2","0.8","0.6","0.4","","","","","0.4495585744","0.08267976014","0.1658344406","0.1964407335","","","","","","","","","","74","J","1","","","110","main_expt",""
"","bandit","190","493312","0.0-152.0-0.0","19762982","wem/bandit_party_1","A1YF8WP5IWEWVY","either","1","23","","","","","","","0","0","1","0.4237631325","","0.2","0.8","0.6","0.4","","","","","0.4237631325","0.09389793805","0.240619448","0.1777579569","","","","","","","","","","72","H","0","img/none_selected.jpg","","111","main_expt",""
"","bandit","191","494889","0.0-153.0-0.0","19762982","wem/bandit_party_1","A1YF8WP5IWEWVY","either","1","70","","","","","","","0","0","1","","0.4521571561","0.2","0.8","0.6","0.4","0.4521571561","0.07903418564","0.1927397719","0.1395994444","","","","","","","","","","","","","","72","H","0","img/none_selected.jpg","","112","main_expt",""
"","bandit","192","496401","0.0-154.0-0.0","19762982","wem/bandit_party_1","A1YF8WP5IWEWVY","either","1","5","","","","","","","0","0","1","0.05501139052","","0.2","0.8","0.6","0.4","","","","","0.4350762846","0.05501139052","0.234725565","0.1205999431","","","","","","","","","","74","J","1","","","113","main_expt",""
"","bandit","193","497970","0.0-155.0-0.0","19762982","wem/bandit_party_1","A1YF8WP5IWEWVY","either","1","62","","","","","","","0","0","1","0.1950215869","","0.2","0.8","0.6","0.4","","","","","0.4315824664","0.07627702456","0.1950215869","0.09123355482","","","","","","","","","","75","K","2","","","114","main_expt",""
"","bandit","194","499857","0.0-156.0-0.0","19762982","wem/bandit_party_1","A1YF8WP5IWEWVY","either","1","382","","","","","","","1","0","0","0.09554471192","","0.2","0.8","0.6","0.4","","","","","0.4127349624","0.03985247356","0.2575833325","0.09554471192","","","","","","","","","","76","L","3","","","115","main_expt",""
"","bandit","195","501393","0.0-157.0-0.0","19762982","wem/bandit_party_1","A1YF8WP5IWEWVY","either","1","30","","","","","","","0","1","0","","0.1942182492","0.2","0.8","0.6","0.4","0.4468356006","0.0683792979","0.2296468005","0.1942182492","","","","","","","","","","","","","","76","L","3","","","116","main_expt",""
"","bandit","196","503072","0.0-158.0-0.0","19762982","wem/bandit_party_1","A1YF8WP5IWEWVY","either","1","173","","","","","","","0","0","1","0.2208250117","","0.2","0.8","0.6","0.4","","","","","0.4458703805","0.03956212276","0.2816483341","0.2208250117","","","","","","","","","","76","L","3","","","117","main_expt",""
"","bandit","197","504896","0.0-159.0-0.0","19762982","wem/bandit_party_1","A1YF8WP5IWEWVY","either","1","319","","","","","","","0","0","1","","0.1687975443","0.2","0.8","0.6","0.4","0.4500370674","0.04459229253","0.2626769985","0.1687975443","","","","","","","","","","","","","","76","L","3","","","118","main_expt",""
"","bandit","198","506498","0.0-160.0-0.0","19762982","wem/bandit_party_1","A1YF8WP5IWEWVY","either","1","94","","","","","","","0","0","1","","0.2418090277","0.2","0.8","0.6","0.4","0.4704359259","0.03386957434","0.2418090277","0.1546105485","","","","","","","","","","","","","","75","K","2","","","119","main_expt",""
"","bandit","199","508721","0.0-161.0-0.0","19762982","wem/bandit_party_1","A1YF8WP5IWEWVY","either","1","718","","","","","","","0","0","1","0.2603236095","","0.2","0.8","0.6","0.4","","","","","0.4578798539","0.03305427522","0.2603236095","0.143668411","","","","","","","","","","75","K","2","","","120","main_expt",""
"","bandit","200","510322","0.0-162.0-0.0","19762982","wem/bandit_party_1","A1YF8WP5IWEWVY","either","1","94","","","","","","","0","0","1","","0.03146098963","0.2","0.8","0.6","0.4","0.4591190262","0.03146098963","0.2381785671","0.1098317425","","","","","","","","","","","","","","74","J","1","","","121","main_expt",""
"","bandit","201","512073","0.0-163.0-0.0","19762982","wem/bandit_party_1","A1YF8WP5IWEWVY","either","1","245","","","","","","","0","0","1","0.02311797033","","0.2","0.8","0.6","0.4","","","","","0.4643737298","0.02311797033","0.2388462554","0.1097832873","","","","","","","","","","74","J","1","","","122","main_expt",""
"","bandit","202","513601","0.0-164.0-0.0","19762982","wem/bandit_party_1","A1YF8WP5IWEWVY","either","1","21","","","","","","","0","1","0","","0.451586091","0.2","0.8","0.6","0.4","0.451586091","0.0171261738","0.2079929623","0.1145900252","","","","","","","","","","","","","","72","H","0","img/none_selected.jpg","","123","main_expt",""
"","bandit","203","515290","0.0-165.0-0.0","19762982","wem/bandit_party_1","A1YF8WP5IWEWVY","either","1","181","","","","","","","0","0","1","","0.4456906556","0.2","0.8","0.6","0.4","0.4456906556","0.03468299263","0.2148400852","0.1137783892","","","","","","","","","","","","","","72","H","0","img/none_selected.jpg","","124","main_expt",""
"","bandit","204","516849","0.0-166.0-0.0","19762982","wem/bandit_party_1","A1YF8WP5IWEWVY","either","1","52","","","","","","","0","0","1","","0.4240876494","0.2","0.8","0.6","0.4","0.4240876494","0.02544516396","0.2185056602","0.145605256","","","","","","","","","","","","","","72","H","0","img/none_selected.jpg","","125","main_expt",""
"","bandit","205","518426","0.0-167.0-0.0","19762982","wem/bandit_party_1","A1YF8WP5IWEWVY","either","1","70","","","","","","","0","0","1","0.03059506073","","0.2","0.8","0.6","0.4","","","","","0.4008501573","0.03059506073","0.2152323899","0.1443839055","","","","","","","","","","74","J","1","","","126","main_expt",""
"","bandit","206","520058","0.0-168.0-0.0","19762982","wem/bandit_party_1","A1YF8WP5IWEWVY","either","1","124","","","","","","","0","0","1","0.1699446714","","0.2","0.8","0.6","0.4","","","","","0.4066073101","0.0339638967","0.1699446714","0.1434222382","","","","","","","","","","75","K","2","","","127","main_expt",""
"","bandit","207","521656","0.0-169.0-0.0","19762982","wem/bandit_party_1","A1YF8WP5IWEWVY","either","1","94","","","","","","","0","1","0","","0.1412168693","0.2","0.8","0.6","0.4","0.4270302575","0.02632978063","0.1299446217","0.1412168693","","","","","","","","","","","","","","76","L","3","","","128","main_expt",""
"","bandit","208","523225","0.0-170.0-0.0","19762982","wem/bandit_party_1","A1YF8WP5IWEWVY","either","1","62","","","","","","","0","0","1","0.1086871361","","0.2","0.8","0.6","0.4","","","","","0.4401824822","0.02640977482","0.1299487573","0.1086871361","","","","","","","","","","76","L","3","","","129","main_expt",""
"","bandit","209","524800","0.0-171.0-0.0","19762982","wem/bandit_party_1","A1YF8WP5IWEWVY","either","1","69","","","","","","","0","0","1","","0.1172580566","0.2","0.8","0.6","0.4","0.4160959849","0.03646961518","0.1172580566","0.1672766288","","","","","","","","","","","","","","75","K","2","","","130","main_expt",""
"","bandit","210","526344","0.0-172.0-0.0","19762982","wem/bandit_party_1","A1YF8WP5IWEWVY","either","1","38","","","","","","","0","0","1","0.02171712127","","0.2","0.8","0.6","0.4","","","","","0.4374535298","0.02171712127","0.1289979545","0.157110596","","","","","","","","","","74","J","1","","","131","main_expt",""
"","bandit","211","527913","0.0-173.0-0.0","19762982","wem/bandit_party_1","A1YF8WP5IWEWVY","either","1","62","","","","","","","0","1","0","","0.4382483821","0.2","0.8","0.6","0.4","0.4382483821","0.01004766493","0.1243754988","0.1338697581","","","","","","","","","","","","","","72","H","0","img/none_selected.jpg","","132","main_expt",""
"","bandit","212","529601","0.0-174.0-0.0","19762982","wem/bandit_party_1","A1YF8WP5IWEWVY","either","1","181","","","","","","","0","1","0","","0.3913946914","0.2","0.8","0.6","0.4","0.3913946914","0.005153708139","0.1189203389","0.1101669797","","","","","","","","","","","","","","72","H","0","img/none_selected.jpg","","133","main_expt",""
"","bandit","213","531120","0.0-175.0-0.0","19762982","wem/bandit_party_1","A1YF8WP5IWEWVY","either","1","13","","","","","","","0","1","0","","0.4280120537","0.2","0.8","0.6","0.4","0.4280120537","0.01308543257","0.07075860378","0.060775537","","","","","","","","","","","","","","72","H","0","img/none_selected.jpg","","134","main_expt",""
"","bandit","214","532706","0.0-176.0-0.0","19762982","wem/bandit_party_1","A1YF8WP5IWEWVY","either","1","79","","","","","","","0","1","0","","0.4385213509","0.2","0.8","0.6","0.4","0.4385213509","0.02634180281","0.1073185777","0.0714416082","","","","","","","","","","","","","","72","H","0","img/none_selected.jpg","","135","main_expt",""
"","bandit","215","534213","0.0-177.0-0.0","19762982","wem/bandit_party_1","A1YF8WP5IWEWVY","either","1","0","","","","","","","0","1","0","","0.4605212521","0.2","0.8","0.6","0.4","0.4605212521","0.04122629063","0.1001442491","0.1115096907","","","","","","","","","","","","","","72","H","0","img/none_selected.jpg","","136","main_expt",""
"","bandit","216","535751","0.0-178.0-0.0","19762982","wem/bandit_party_1","A1YF8WP5IWEWVY","either","1","32","","","","","","","0","0","1","","0.4729500637","0.2","0.8","0.6","0.4","0.4729500637","0.05517648788","0.1736681681","0.1307091067","","","","","","","","","","","","","","72","H","0","img/none_selected.jpg","","137","main_expt",""
"","bandit","217","537361","0.0-179.0-0.0","19762982","wem/bandit_party_1","A1YF8WP5IWEWVY","either","1","103","","","","","","","0","1","0","","0.4705425907","0.2","0.8","0.6","0.4","0.4705425907","0.05929415862","0.1839908368","0.1289533412","","","","","","","","","","","","","","72","H","0","img/none_selected.jpg","","138","main_expt",""
"","bandit","218","539032","0.0-180.0-0.0","19762982","wem/bandit_party_1","A1YF8WP5IWEWVY","either","1","165","","","","","","","0","0","1","","0.465423541","0.2","0.8","0.6","0.4","0.465423541","0.05470710098","0.1500833973","0.1215972271","","","","","","","","","","","","","","72","H","0","img/none_selected.jpg","","139","main_expt",""
"","bandit","219","540681","0.0-181.0-0.0","19762982","wem/bandit_party_1","A1YF8WP5IWEWVY","either","1","142","","","","","","","0","1","0","","0.4486857012","0.2","0.8","0.6","0.4","0.4486857012","0.06062538604","0.1718879457","0.1158179575","","","","","","","","","","","","","","72","H","0","img/none_selected.jpg","","140","main_expt",""
"","bandit","220","542306","0.0-182.0-0.0","19762982","wem/bandit_party_1","A1YF8WP5IWEWVY","either","1","117","","","","","","","0","1","0","","0.4053061298","0.2","0.8","0.6","0.4","0.4053061298","0.05819772386","0.2025036279","0.08691297649","","","","","","","","","","","","","","72","H","0","img/none_selected.jpg","","141","main_expt",""
"","bandit","221","543961","0.0-183.0-0.0","19762982","wem/bandit_party_1","A1YF8WP5IWEWVY","either","1","148","","","","","","","0","0","1","","0.3989731656","0.2","0.8","0.6","0.4","0.3989731656","0.05329701838","0.1872564568","0.1425267255","","","","","","","","","","","","","","72","H","0","img/none_selected.jpg","","142","main_expt",""
"","bandit","222","545552","0.0-184.0-0.0","19762982","wem/bandit_party_1","A1YF8WP5IWEWVY","either","1","85","","","","","","","1","0","0","0.3783570596","","0.2","0.8","0.6","0.4","","","","","0.3783570596","0.06209903385","0.1676641842","0.1425141192","","","","","","","","","","72","H","0","img/none_selected.jpg","","143","main_expt",""
"","bandit","223","547215","0.0-185.0-0.0","19762982","wem/bandit_party_1","A1YF8WP5IWEWVY","either","1","158","","","","","","","0","0","1","0.3485663762","","0.2","0.8","0.6","0.4","","","","","0.3485663762","0.06954729647","0.1502987652","0.1362652721","","","","","","","","","","72","H","0","img/none_selected.jpg","","144","main_expt",""
"","bandit","224","548723","0.0-186.0-0.0","19762982","wem/bandit_party_1","A1YF8WP5IWEWVY","either","1","0","","","","","","","0","0","1","","0.3534190037","0.2","0.8","0.6","0.4","0.3534190037","0.062760129","0.1050568962","0.1335650053","","","","","","","","","","","","","","72","H","0","img/none_selected.jpg","","145","main_expt",""
"","bandit","225","550456","0.0-187.0-0.0","19762982","wem/bandit_party_1","A1YF8WP5IWEWVY","either","1","227","","","","","","","0","0","1","0.05014677947","","0.2","0.8","0.6","0.4","","","","","0.342282706","0.05014677947","0.1266784727","0.1392461982","","","","","","","","","","74","J","1","","","146","main_expt",""
"","bandit","226","552193","0.0-188.0-0.0","19762982","wem/bandit_party_1","A1YF8WP5IWEWVY","either","1","229","","","","","","","0","0","1","","0.04801868921","0.2","0.8","0.6","0.4","0.3497384939","0.04801868921","0.1121887101","0.1060810453","","","","","","","","","","","","","","74","J","1","","","147","main_expt",""
"","bandit","227","553785","0.0-189.0-0.0","19762982","wem/bandit_party_1","A1YF8WP5IWEWVY","either","1","85","","","","","","","0","0","1","0.1050077765","","0.2","0.8","0.6","0.4","","","","","0.3507348305","0.05298179562","0.1050077765","0.1076054289","","","","","","","","","","75","K","2","","","148","main_expt",""
"","bandit","228","555473","0.0-190.0-0.0","19762982","wem/bandit_party_1","A1YF8WP5IWEWVY","either","1","181","","","","","","","0","0","1","","0.08725679698","0.2","0.8","0.6","0.4","0.306786392","0.05271587927","0.08725679698","0.09143227578","","","","","","","","","","","","","","75","K","2","","","149","main_expt",""
"","bandit","229","556993","0.0-191.0-0.0","19762982","wem/bandit_party_1","A1YF8WP5IWEWVY","either","1","13","","","","","","","0","0","1","","0.08361181256","0.2","0.8","0.6","0.4","0.3289077467","0.06153260368","0.04813781364","0.08361181256","","","","","","","","","","","","","","76","L","3","","","150","main_expt",""
"","bandit","230","558560","0.0-192.0-0.0","19762982","wem/bandit_party_1","A1YF8WP5IWEWVY","either","1","61","","","","","","","0","1","0","","0.1038450747","0.2","0.8","0.6","0.4","0.2844912386","0.07716317934","0.04690393958","0.1038450747","","","","","","","","","","","","","","76","L","3","","","151","main_expt",""
"","bandit","231","560193","0.0-193.0-0.0","19762982","wem/bandit_party_1","A1YF8WP5IWEWVY","either","1","126","","","","","","","0","0","1","","0.1311897928","0.2","0.8","0.6","0.4","0.3221551402","0.08370894892","0.05051779207","0.1311897928","","","","","","","","","","","","","","76","L","3","","","152","main_expt",""
"","bandit","232","561722","0.0-194.0-0.0","19762982","wem/bandit_party_1","A1YF8WP5IWEWVY","either","1","20","","","","","","","0","0","1","0.288581716","","0.2","0.8","0.6","0.4","","","","","0.288581716","0.06235129306","0.0417019452","0.1106636196","","","","","","","","","","72","H","0","img/none_selected.jpg","","153","main_expt",""
"","bandit","233","563400","0.0-195.0-0.0","19762982","wem/bandit_party_1","A1YF8WP5IWEWVY","either","1","172","","","","","","","0","0","1","","0.3674714493","0.2","0.8","0.6","0.4","0.3674714493","0.08808261531","0.04565059468","0.08044616817","","","","","","","","","","","","","","72","H","0","img/none_selected.jpg","","154","main_expt",""
"","bandit","234","564992","0.0-196.0-0.0","19762982","wem/bandit_party_1","A1YF8WP5IWEWVY","either","1","85","","","","","","","0","0","1","0.08415746701","","0.2","0.8","0.6","0.4","","","","","0.3836765626","0.08415746701","0.0249337719","0.09849608375","","","","","","","","","","74","J","1","","","155","main_expt",""
"","bandit","235","566537","0.0-197.0-0.0","19762982","wem/bandit_party_1","A1YF8WP5IWEWVY","either","1","38","","","","","","","0","0","1","0.1363215429","","0.2","0.8","0.6","0.4","","","","","0.3499766022","0.1363215429","0.0207568711","0.0679626842","","","","","","","","","","74","J","1","","","156","main_expt",""
"","bandit","236","568257","0.0-198.0-0.0","19762982","wem/bandit_party_1","A1YF8WP5IWEWVY","either","1","213","","","","","","","0","0","1","","0.01044871803","0.2","0.8","0.6","0.4","0.3083455354","0.176329139","0.01044871803","0.06316877849","","","","","","","","","","","","","","75","K","2","","","157","main_expt",""
"","bandit","237","569841","0.0-199.0-0.0","19762982","wem/bandit_party_1","A1YF8WP5IWEWVY","either","1","77","","","","","","","0","0","1","0.008486032171","","0.2","0.8","0.6","0.4","","","","","0.2780985587","0.2239815039","0.008486032171","0.06381796224","","","","","","","","","","75","K","2","","","158","main_expt",""
"","bandit","238","571513","0.0-200.0-0.0","19762982","wem/bandit_party_1","A1YF8WP5IWEWVY","either","1","163","","","","","","","0","0","1","0.09986374221","","0.2","0.8","0.6","0.4","","","","","0.2721424699","0.1754735631","0.006770001311","0.09986374221","","","","","","","","","","76","L","3","","","159","main_expt",""
"","bandit","239","573489","0.0-201.0-0.0","19762982","wem/bandit_party_1","A1YF8WP5IWEWVY","either","1","468","","","","","","","0","0","1","0.08334790929","","0.2","0.8","0.6","0.4","","","","","0.3005636977","0.1820859676","0.005009972043","0.08334790929","","","","","","","","","","76","L","3","","","160","main_expt",""
"","bandit","240","575096","0.0-202.0-0.0","19762982","wem/bandit_party_1","A1YF8WP5IWEWVY","either","1","101","","","","","","","0","0","1","","0.2481613967","0.2","0.8","0.6","0.4","0.2481613967","0.1771527669","0.003825417776","0.1094566723","","","","","","","","","","","","","","72","H","0","img/none_selected.jpg","","161","main_expt",""
"","bandit","241","576704","0.0-203.0-0.0","19762982","wem/bandit_party_1","A1YF8WP5IWEWVY","either","1","102","","","","","","","0","0","1","0.209245514","","0.2","0.8","0.6","0.4","","","","","0.2040880477","0.209245514","0.006458278423","0.1287108975","","","","","","","","","","74","J","1","","","162","main_expt",""
"","bandit","242","578266","0.0-204.0-0.0","19762982","wem/bandit_party_1","A1YF8WP5IWEWVY","either","1","54","","","","","","","0","0","1","0.01344146107","","0.2","0.8","0.6","0.4","","","","","0.256608811","0.1864252411","0.01344146107","0.1811808859","","","","","","","","","","75","K","2","","","163","main_expt",""
"","bandit","243","579832","0.0-205.0-0.0","19762982","wem/bandit_party_1","A1YF8WP5IWEWVY","either","1","59","","","","","","","0","0","1","","0.1374611454","0.2","0.8","0.6","0.4","0.2798468236","0.1662237337","0.004940614731","0.1374611454","","","","","","","","","","","","","","76","L","3","","","164","main_expt",""
"","bandit","244","581432","0.0-206.0-0.0","19762982","wem/bandit_party_1","A1YF8WP5IWEWVY","either","1","93","","","","","","","0","0","1","","0.2689568899","0.2","0.8","0.6","0.4","0.2689568899","0.1375661656","0.007349038951","0.1640313333","","","","","","","","","","","","","","72","H","0","img/none_selected.jpg","","165","main_expt",""
"","bandit","245","583432","0.0-207.0-0.0","19762982","wem/bandit_party_1","A1YF8WP5IWEWVY","either","1","491","","","","","","","0","0","1","0.1416727521","","0.2","0.8","0.6","0.4","","","","","0.2786045926","0.1416727521","0.005679103294","0.20052236","","","","","","","","","","74","J","1","","","166","main_expt",""
"","bandit","246","584992","0.0-208.0-0.0","19762982","wem/bandit_party_1","A1YF8WP5IWEWVY","either","1","53","","","","","","","0","0","1","","0.004037182679","0.2","0.8","0.6","0.4","0.2507583434","0.1497541138","0.004037182679","0.1945206589","","","","","","","","","","","","","","75","K","2","","","167","main_expt",""
"","bandit","247","586544","0.0-209.0-0.0","19762982","wem/bandit_party_1","A1YF8WP5IWEWVY","either","1","45","","","","","","","0","0","1","","0.1902154162","0.2","0.8","0.6","0.4","0.1827624484","0.1761460581","0.007111326723","0.1902154162","","","","","","","","","","","","","","76","L","3","","","168","main_expt",""
"","bandit","248","588121","0.0-210.0-0.0","19762982","wem/bandit_party_1","A1YF8WP5IWEWVY","either","1","70","","","","","","","0","0","1","0.1558723634","","0.2","0.8","0.6","0.4","","","","","0.1558723634","0.2248215173","0.01708305062","0.1931964682","","","","","","","","","","72","H","0","img/none_selected.jpg","","169","main_expt",""
"","bandit","249","590050","0.0-211.0-0.0","19762982","wem/bandit_party_1","A1YF8WP5IWEWVY","either","1","421","","","","","","","0","0","1","","0.2503105048","0.2","0.8","0.6","0.4","0.1757164868","0.2503105048","0.02105388628","0.236179436","","","","","","","","","","","","","","74","J","1","","","170","main_expt",""
"","bandit","250","591648","0.0-212.0-0.0","19762982","wem/bandit_party_1","A1YF8WP5IWEWVY","either","1","91","","","","","","","0","0","1","0.01477187034","","0.2","0.8","0.6","0.4","","","","","0.1985597056","0.2515708499","0.01477187034","0.2229285478","","","","","","","","","","75","K","2","","","171","main_expt",""
"","bandit","251","593224","0.0-213.0-0.0","19762982","wem/bandit_party_1","A1YF8WP5IWEWVY","either","1","68","","","","","","","0","0","1","","0.1805811295","0.2","0.8","0.6","0.4","0.1725269859","0.2601117771","0.00639283578","0.1805811295","","","","","","","","","","","","","","76","L","3","","","172","main_expt",""
"","bandit","252","594823","0.0-214.0-0.0","19762982","wem/bandit_party_1","A1YF8WP5IWEWVY","either","1","93","","","","","","","0","0","1","","0.1955807132","0.2","0.8","0.6","0.4","0.1955807132","0.2277859889","0.008503536177","0.2203049146","","","","","","","","","","","","","","72","H","0","img/none_selected.jpg","","173","main_expt",""
"","bandit","253","596375","0.0-215.0-0.0","19762982","wem/bandit_party_1","A1YF8WP5IWEWVY","either","1","46","","","","","","","0","0","1","0.204090619","","0.2","0.8","0.6","0.4","","","","","0.1712969398","0.204090619","0.01512836446","0.2079245196","","","","","","","","","","74","J","1","","","174","main_expt",""
"","bandit","254","597928","0.0-216.0-0.0","19762982","wem/bandit_party_1","A1YF8WP5IWEWVY","either","1","45","","","","","","","0","0","1","","0.034550241","0.2","0.8","0.6","0.4","0.2145566876","0.2264282848","0.034550241","0.1904909119","","","","","","","","","","","","","","75","K","2","","","175","main_expt",""
"","bandit","255","599487","0.0-217.0-0.0","19762982","wem/bandit_party_1","A1YF8WP5IWEWVY","either","1","51","","","","","","","0","0","1","","0.1611975006","0.2","0.8","0.6","0.4","0.1987050603","0.2263436383","0.01969997198","0.1611975006","","","","","","","","","","","","","","76","L","3","","","176","main_expt",""
"","bandit","256","601130","0.0-218.0-0.0","19762982","wem/bandit_party_1","A1YF8WP5IWEWVY","either","1","134","","","","","","","0","0","1","","0.2161967517","0.2","0.8","0.6","0.4","0.2161967517","0.2449632337","0.02558747067","0.1747210449","","","","","","","","","","","","","","72","H","0","img/none_selected.jpg","","177","main_expt",""
"","bandit","257","602695","0.0-219.0-0.0","19762982","wem/bandit_party_1","A1YF8WP5IWEWVY","either","1","58","","","","","","","0","1","0","","0.1923885174","0.2","0.8","0.6","0.4","0.1790488899","0.1923885174","0.02865462312","0.1667690144","","","","","","","","","","","","","","74","J","1","","","178","main_expt",""
"","bandit","258","604399","0.0-220.0-0.0","19762982","wem/bandit_party_1","A1YF8WP5IWEWVY","either","1","196","","","","","","","0","0","1","0.1791230597","","0.2","0.8","0.6","0.4","","","","","0.1254539317","0.1791230597","0.05873937836","0.248539666","","","","","","","","","","74","J","1","","","179","main_expt",""
"","bandit","259","605919","0.0-221.0-0.0","19762982","wem/bandit_party_1","A1YF8WP5IWEWVY","either","1","13","","","","","","","1","0","0","0.1641305094","","0.2","0.8","0.6","0.4","","","","","0.1761702366","0.1641305094","0.04996702027","0.2393284063","","","","","","","","","","74","J","1","","","180","main_expt",""
"","bandit","260","607607","0.0-222.0-0.0","19762982","wem/bandit_party_1","A1YF8WP5IWEWVY","either","1","182","","","","","","","0","1","0","","0.1567194189","0.2","0.8","0.6","0.4","0.2307221343","0.1567194189","0.06192223509","0.2450765022","","","","","","","","","","","","","","74","J","1","","","181","main_expt",""
"","bandit","261","609169","0.0-223.0-0.0","19762982","wem/bandit_party_1","A1YF8WP5IWEWVY","either","1","52","","","","","","","0","0","1","0.1805899487","","0.2","0.8","0.6","0.4","","","","","0.1656926355","0.1805899487","0.07865608963","0.2898963007","","","","","","","","","","74","J","1","","","182","main_expt",""
"","bandit","262","610761","0.0-224.0-0.0","19762982","wem/bandit_party_1","A1YF8WP5IWEWVY","either","1","83","","","","","","","0","0","1","0.1381226487","","0.2","0.8","0.6","0.4","","","","","0.1997223474","0.1381226487","0.0695036973","0.337419987","","","","","","","","","","74","J","1","","","183","main_expt",""
"","bandit","263","612599","0.0-225.0-0.0","19762982","wem/bandit_party_1","A1YF8WP5IWEWVY","either","1","331","","","","","","","0","0","1","0.1157029232","","0.2","0.8","0.6","0.4","","","","","0.1936006223","0.1157029232","0.09883674892","0.3334404967","","","","","","","","","","74","J","1","","","184","main_expt",""
"","bandit","264","614167","0.0-226.0-0.0","19762982","wem/bandit_party_1","A1YF8WP5IWEWVY","either","1","62","","","","","","","0","0","1","","0.1794548994","0.2","0.8","0.6","0.4","0.1794548994","0.09007466759","0.1344132801","0.3049781316","","","","","","","","","","","","","","72","H","0","img/none_selected.jpg","","185","main_expt",""
"","bandit","265","615734","0.0-227.0-0.0","19762982","wem/bandit_party_1","A1YF8WP5IWEWVY","either","1","60","","","","","","","0","0","1","0.1194183803","","0.2","0.8","0.6","0.4","","","","","0.1679588243","0.07784091677","0.1194183803","0.322039184","","","","","","","","","","75","K","2","","","186","main_expt",""
"","bandit","266","617431","0.0-228.0-0.0","19762982","wem/bandit_party_1","A1YF8WP5IWEWVY","either","1","189","","","","","","","0","0","1","","0.2898485093","0.2","0.8","0.6","0.4","0.1692259204","0.1332261693","0.1456002269","0.2898485093","","","","","","","","","","","","","","76","L","3","","","187","main_expt",""
"","bandit","267","619151","0.0-229.0-0.0","19762982","wem/bandit_party_1","A1YF8WP5IWEWVY","either","1","212","","","","","","","0","0","1","","0.1796926114","0.2","0.8","0.6","0.4","0.1796926114","0.1302169342","0.1008589119","0.3046836684","","","","","","","","","","","","","","72","H","0","img/none_selected.jpg","","188","main_expt",""
"","bandit","268","620769","0.0-230.0-0.0","19762982","wem/bandit_party_1","A1YF8WP5IWEWVY","either","1","109","","","","","","","0","0","1","0.1459867673","","0.2","0.8","0.6","0.4","","","","","0.1463090895","0.1459867673","0.09109327247","0.3437642557","","","","","","","","","","74","J","1","","","189","main_expt",""
"","bandit","269","622351","0.0-231.0-0.0","19762982","wem/bandit_party_1","A1YF8WP5IWEWVY","either","1","75","","","","","","","0","0","1","0.133333279","","0.2","0.8","0.6","0.4","","","","","0.1670442817","0.1930387326","0.133333279","0.3685715368","","","","","","","","","","75","K","2","","","190","main_expt",""
"","bandit","270","624096","0.0-232.0-0.0","19762982","wem/bandit_party_1","A1YF8WP5IWEWVY","either","1","236","","","","","","","0","0","1","0.4063368095","","0.2","0.8","0.6","0.4","","","","","0.2148667481","0.1447045196","0.1253338948","0.4063368095","","","","","","","","","","76","L","3","","","191","main_expt",""
"","bandit","271","1327281","0.0-233.0-0.0","19762982","wem/bandit_party_1","A1YF8WP5IWEWVY","either","1","701678","","","","","","","0","1","0","","0.1891029698","0.2","0.8","0.6","0.4","0.1891029698","0.1521301445","0.1371372983","0.4194789623","","","","","","","","","","","","","","72","H","0","img/none_selected.jpg","","192","main_expt",""
"","bandit","272","1328842","0.0-234.0-0.0","19762982","wem/bandit_party_1","A1YF8WP5IWEWVY","either","1","52","","","","","","","0","0","1","","0.1818436489","0.2","0.8","0.6","0.4","0.1818436489","0.1216552598","0.1269519223","0.3914453041","","","","","","","","","","","","","","72","H","0","img/none_selected.jpg","","193","main_expt",""
"","bandit","273","1330793","0.0-235.0-0.0","19762982","wem/bandit_party_1","A1YF8WP5IWEWVY","either","1","443","","","","","","","0","0","1","0.2036833838","","0.2","0.8","0.6","0.4","","","","","0.2036833838","0.07681554104","0.1253972088","0.3988429791","","","","","","","","","","72","H","0","img/none_selected.jpg","","194","main_expt",""
"","bandit","274","1332300","0.0-236.0-0.0","19762982","wem/bandit_party_1","A1YF8WP5IWEWVY","either","1","0","","","","","","","0","0","1","0.07468822185","","0.2","0.8","0.6","0.4","","","","","0.2189502041","0.07468822185","0.1231557279","0.4212514022","","","","","","","","","","74","J","1","","","195","main_expt",""
"","bandit","275","1334042","0.0-237.0-0.0","19762982","wem/bandit_party_1","A1YF8WP5IWEWVY","either","1","233","","","","","","","0","0","1","","0.2011136523","0.2","0.8","0.6","0.4","0.2011136523","0.07634526252","0.2304226507","0.4128950903","","","","","","","","","","","","","","72","H","0","img/none_selected.jpg","","196","main_expt",""
"","bandit","276","1335699","0.0-238.0-0.0","19762982","wem/bandit_party_1","A1YF8WP5IWEWVY","either","1","147","","","","","","","1","0","0","0.3102822931","","0.2","0.8","0.6","0.4","","","","","0.2295646827","0.06680697181","0.3102822931","0.3979973083","","","","","","","","","","75","K","2","","","197","main_expt",""
"","bandit","277","1337360","0.0-239.0-0.0","19762982","wem/bandit_party_1","A1YF8WP5IWEWVY","either","1","154","","","","","","","0","0","1","0.3222054514","","0.2","0.8","0.6","0.4","","","","","0.2570874699","0.05107679344","0.3222054514","0.3153467244","","","","","","","","","","75","K","2","","","198","main_expt",""
"","bandit","278","1338962","0.0-240.0-0.0","19762982","wem/bandit_party_1","A1YF8WP5IWEWVY","either","1","93","","","","","","","0","0","1","0.06140804873","","0.2","0.8","0.6","0.4","","","","","0.2215013189","0.06140804873","0.3416159467","0.3121882746","","","","","","","","","","74","J","1","","","199","main_expt",""
"","bandit","279","1340537","0.0-241.0-0.0","19762982","wem/bandit_party_1","A1YF8WP5IWEWVY","either","1","67","","","","","","","0","0","1","0.3789620948","","0.2","0.8","0.6","0.4","","","","","0.1681318695","0.05697288244","0.3826655938","0.3789620948","","","","","","","","","","76","L","3","","","200","main_expt",""
"","bandit","280","1342178","0.0-242.0-0.0","19762982","wem/bandit_party_1","A1YF8WP5IWEWVY","either","1","132","","","","","","","0","0","1","","0.1787039029","0.2","0.8","0.6","0.4","0.1787039029","0.04802221103","0.4117435103","0.3575696279","","","","","","","","","","","","","","72","H","0","img/none_selected.jpg","","201","main_expt",""
"","bandit","281","1344408","0.0-243.0-0.0","19762982","wem/bandit_party_1","A1YF8WP5IWEWVY","either","1","723","","","","","","","0","0","1","","0.3937046418","0.2","0.8","0.6","0.4","0.2180442152","0.04583536071","0.4023622846","0.3937046418","","","","","","","","","","","","","","76","L","3","","","202","main_expt",""
"","bandit","282","1345929","0.0-244.0-0.0","19762982","wem/bandit_party_1","A1YF8WP5IWEWVY","either","1","13","","","","","","","0","0","1","0.4225273878","","0.2","0.8","0.6","0.4","","","","","0.262784421","0.03655969434","0.4225273878","0.3901943722","","","","","","","","","","75","K","2","","","203","main_expt",""
"","bandit","283","1347553","0.0-245.0-0.0","19762982","wem/bandit_party_1","A1YF8WP5IWEWVY","either","1","117","","","","","","","0","0","1","0.05773518339","","0.2","0.8","0.6","0.4","","","","","0.2843732649","0.05773518339","0.4151046429","0.4099131859","","","","","","","","","","74","J","1","","","204","main_expt",""
"","bandit","284","1349088","0.0-246.0-0.0","19762982","wem/bandit_party_1","A1YF8WP5IWEWVY","either","1","28","","","","","","","0","0","1","","0.4238238901","0.2","0.8","0.6","0.4","0.2549063301","0.06616346658","0.4288165897","0.4238238901","","","","","","","","","","","","","","76","L","3","","","205","main_expt",""
"","bandit","285","1350665","0.0-247.0-0.0","19762982","wem/bandit_party_1","A1YF8WP5IWEWVY","either","1","70","","","","","","","0","1","0","","0.2982701688","0.2","0.8","0.6","0.4","0.2982701688","0.09055598832","0.436745712","0.4139837541","","","","","","","","","","","","","","72","H","0","img/none_selected.jpg","","206","main_expt",""
"","bandit","286","1352289","0.0-248.0-0.0","19762982","wem/bandit_party_1","A1YF8WP5IWEWVY","either","1","116","","","","","","","0","1","0","","0.3423773839","0.2","0.8","0.6","0.4","0.3423773839","0.07583085731","0.4484652972","0.3544894801","","","","","","","","","","","","","","72","H","0","img/none_selected.jpg","","207","main_expt",""
"","bandit","287","1353857","0.0-249.0-0.0","19762982","wem/bandit_party_1","A1YF8WP5IWEWVY","either","1","60","","","","","","","0","0","1","","0.3321535101","0.2","0.8","0.6","0.4","0.3321535101","0.09768014643","0.4516947584","0.3703609936","","","","","","","","","","","","","","72","H","0","img/none_selected.jpg","","208","main_expt",""
"","bandit","288","1355409","0.0-250.0-0.0","19762982","wem/bandit_party_1","A1YF8WP5IWEWVY","either","1","44","","","","","","","0","1","0","","0.3467721984","0.2","0.8","0.6","0.4","0.3467721984","0.08389795445","0.4590139285","0.3590511704","","","","","","","","","","","","","","72","H","0","img/none_selected.jpg","","209","main_expt",""
"","bandit","289","1356993","0.0-251.0-0.0","19762982","wem/bandit_party_1","A1YF8WP5IWEWVY","either","1","76","","","","","","","0","0","1","0.3513447539","","0.2","0.8","0.6","0.4","","","","","0.3513447539","0.07846525543","0.4378910613","0.3781523972","","","","","","","","","","72","H","0","img/none_selected.jpg","","210","main_expt",""
"","bandit","290","1358593","0.0-252.0-0.0","19762982","wem/bandit_party_1","A1YF8WP5IWEWVY","either","1","93","","","","","","","0","0","1","","0.4003692624","0.2","0.8","0.6","0.4","0.4003692624","0.05906932722","0.4139384991","0.3895188655","","","","","","","","","","","","","","72","H","0","img/none_selected.jpg","","211","main_expt",""
"","bandit","291","1360120","0.0-253.0-0.0","19762982","wem/bandit_party_1","A1YF8WP5IWEWVY","either","1","20","","","","","","","0","0","1","0.3659234609","","0.2","0.8","0.6","0.4","","","","","0.3949660502","0.04754192311","0.3659234609","0.4075098947","","","","","","","","","","75","K","2","","","212","main_expt",""
"","bandit","292","1363218","0.0-254.0-0.0","19762982","wem/bandit_party_1","A1YF8WP5IWEWVY","either","1","1589","","","","","","","0","0","1","","0.05481920189","0.2","0.8","0.6","0.4","0.4233479157","0.05481920189","0.3180572988","0.4191075236","","","","","","","","","","","","","","74","J","1","","","213","main_expt",""
"","bandit","293","1365058","0.0-255.0-0.0","19762982","wem/bandit_party_1","A1YF8WP5IWEWVY","either","1","331","","","","","","","0","0","1","0.07954578011","","0.2","0.8","0.6","0.4","","","","","0.4182751871","0.07954578011","0.2611162072","0.3799529118","","","","","","","","","","74","J","1","","","214","main_expt",""
"","bandit","294","1366625","0.0-256.0-0.0","19762982","wem/bandit_party_1","A1YF8WP5IWEWVY","either","1","59","","","","","","","0","0","1","0.3924699069","","0.2","0.8","0.6","0.4","","","","","0.3745823719","0.1078137614","0.2331309726","0.3924699069","","","","","","","","","","76","L","3","","","215","main_expt",""
"","bandit","295","1368275","0.0-257.0-0.0","19762982","wem/bandit_party_1","A1YF8WP5IWEWVY","either","1","140","","","","","","","0","0","1","0.3809837923","","0.2","0.8","0.6","0.4","","","","","0.3809837923","0.1269525553","0.2428402293","0.3556657658","","","","","","","","","","72","H","0","img/none_selected.jpg","","216","main_expt",""
"","bandit","296","1371153","0.0-258.0-0.0","19762982","wem/bandit_party_1","A1YF8WP5IWEWVY","either","1","1370","","","","","","","0","0","1","0.1849794572","","0.2","0.8","0.6","0.4","","","","","0.4144294186","0.1849794572","0.2317762644","0.3870416945","","","","","","","","","","74","J","1","","","217","main_expt",""
"","bandit","297","1372768","0.0-259.0-0.0","19762982","wem/bandit_party_1","A1YF8WP5IWEWVY","either","1","108","","","","","","","1","0","0","0.3944581396","","0.2","0.8","0.6","0.4","","","","","0.4090742927","0.1903787706","0.204309912","0.3944581396","","","","","","","","","","76","L","3","","","218","main_expt",""
"","bandit","298","1374993","0.0-260.0-0.0","19762982","wem/bandit_party_1","A1YF8WP5IWEWVY","either","1","717","","","","","","","0","1","0","","0.4256173987","0.2","0.8","0.6","0.4","0.3869695378","0.1768508397","0.1685596251","0.4256173987","","","","","","","","","","","","","","76","L","3","","","219","main_expt",""
"","bandit","299","1376841","0.0-261.0-0.0","19762982","wem/bandit_party_1","A1YF8WP5IWEWVY","either","1","339","","","","","","","0","1","0","","0.4240862242","0.2","0.8","0.6","0.4","0.3814250035","0.2176561852","0.2488487331","0.4240862242","","","","","","","","","","","","","","76","L","3","","","220","main_expt",""
"","bandit","300","1378912","0.0-262.0-0.0","19762982","wem/bandit_party_1","A1YF8WP5IWEWVY","either","1","564","","","","","","","0","1","0","","0.4364702466","0.2","0.8","0.6","0.4","0.3560431311","0.2075488201","0.2789816034","0.4364702466","","","","","","","","","","","","","","76","L","3","","","221","main_expt",""
"","bandit","301","1381067","0.0-263.0-0.0","19762982","wem/bandit_party_1","A1YF8WP5IWEWVY","either","1","646","","","","","","","0","1","0","","0.4512924842","0.2","0.8","0.6","0.4","0.3424215647","0.2260831429","0.242729834","0.4512924842","","","","","","","","","","","","","","76","L","3","","","222","main_expt",""
"","bandit","302","1383321","0.0-264.0-0.0","19762982","wem/bandit_party_1","A1YF8WP5IWEWVY","either","1","747","","","","","","","1","0","0","0.4649948574","","0.2","0.8","0.6","0.4","","","","","0.3118962833","0.2512075751","0.196538567","0.4649948574","","","","","","","","","","76","L","3","","","223","main_expt",""
"","bandit","303","1385816","0.0-265.0-0.0","19762982","wem/bandit_party_1","A1YF8WP5IWEWVY","either","1","987","","","","","","","0","1","0","","0.4692106987","0.2","0.8","0.6","0.4","0.261290028","0.3072691987","0.2189223785","0.4692106987","","","","","","","","","","","","","","76","L","3","","","224","main_expt",""
"","bandit","304","1387736","0.0-266.0-0.0","19762982","wem/bandit_party_1","A1YF8WP5IWEWVY","either","1","412","","","","","","","0","1","0","","0.4772226815","0.2","0.8","0.6","0.4","0.2748104332","0.3358063032","0.2131207899","0.4772226815","","","","","","","","","","","","","","76","L","3","","","225","main_expt",""
"","bandit","305","1390010","0.0-267.0-0.0","19762982","wem/bandit_party_1","A1YF8WP5IWEWVY","either","1","765","","","","","","","0","0","1","0.4828013869","","0.2","0.8","0.6","0.4","","","","","0.2112523614","0.2994610032","0.187439681","0.4828013869","","","","","","","","","","76","L","3","","","226","main_expt",""
"","bandit","306","1391649","0.0-268.0-0.0","19762982","wem/bandit_party_1","A1YF8WP5IWEWVY","either","1","132","","","","","","","0","1","0","","0.4805292857","0.2","0.8","0.6","0.4","0.1879164098","0.2719992041","0.1522087394","0.4805292857","","","","","","","","","","","","","","76","L","3","","","227","main_expt",""
"","bandit","307","1393594","0.0-269.0-0.0","19762982","wem/bandit_party_1","A1YF8WP5IWEWVY","either","1","435","","","","","","","0","0","1","","0.4770879938","0.2","0.8","0.6","0.4","0.1857646906","0.2601066631","0.1975586059","0.4770879938","","","","","","","","","","","","","","76","L","3","","","228","main_expt",""
"","bandit","308","1395282","0.0-270.0-0.0","19762982","wem/bandit_party_1","A1YF8WP5IWEWVY","either","1","179","","","","","","","1","0","0","0.2280604414","","0.2","0.8","0.6","0.4","","","","","0.1608888173","0.2333982712","0.2280604414","0.4830225504","","","","","","","","","","75","K","2","","","229","main_expt",""
"","bandit","309","1396993","0.0-271.0-0.0","19762982","wem/bandit_party_1","A1YF8WP5IWEWVY","either","1","204","","","","","","","1","0","0","0.2120359748","","0.2","0.8","0.6","0.4","","","","","0.1139945837","0.2179366985","0.2120359748","0.4827210916","","","","","","","","","","75","K","2","","","230","main_expt",""
"","bandit","310","1398665","0.0-272.0-0.0","19762982","wem/bandit_party_1","A1YF8WP5IWEWVY","either","1","164","","","","","","","0","0","1","0.2260377558","","0.2","0.8","0.6","0.4","","","","","0.1071229599","0.210335649","0.2260377558","0.4764813513","","","","","","","","","","75","K","2","","","231","main_expt",""
"","bandit","311","1400656","0.0-273.0-0.0","19762982","wem/bandit_party_1","A1YF8WP5IWEWVY","either","1","484","","","","","","","0","0","1","0.2810037348","","0.2","0.8","0.6","0.4","","","","","0.1250262501","0.2154905401","0.2810037348","0.4794978353","","","","","","","","","","75","K","2","","","232","main_expt",""
"","bandit","312","1402313","0.0-274.0-0.0","19762982","wem/bandit_party_1","A1YF8WP5IWEWVY","either","1","149","","","","","","","0","1","0","","0.4717583679","0.2","0.8","0.6","0.4","0.1262657767","0.2199054097","0.3371590923","0.4717583679","","","","","","","","","","","","","","76","L","3","","","233","main_expt",""
"","bandit","313","1404048","0.0-275.0-0.0","19762982","wem/bandit_party_1","A1YF8WP5IWEWVY","either","1","227","","","","","","","1","0","0","0.4801470087","","0.2","0.8","0.6","0.4","","","","","0.1436583916","0.2116885818","0.2614597929","0.4801470087","","","","","","","","","","76","L","3","","","234","main_expt",""
"","bandit","314","1405792","0.0-276.0-0.0","19762982","wem/bandit_party_1","A1YF8WP5IWEWVY","either","1","237","","","","","","","0","0","1","0.4698449305","","0.2","0.8","0.6","0.4","","","","","0.1776605917","0.2037112673","0.2855471023","0.4698449305","","","","","","","","","","76","L","3","","","235","main_expt",""
