"consent","trial_type","trial_index","time_elapsed","internal_node_id","subjID","study","MID","cond","drift","rt","responses","button_pressed","key_press","like","value","connected","gems","bombs","no_reward","GemPrChosen","BombPrChosen","GainOverPainPr_0","GainOverPainPr_1","GainOverPainPr_2","GainOverPainPr_3","LosePr_0","LosePr_1","LosePr_2","LosePr_3","WinPr_0","WinPr_1","WinPr_2","WinPr_3","Q0","Q1","Q2","gender","age","ethnicity","label","expt_phase","target","respCharCode","respKey","respChoiceNum","respChoice","practice","trial_counter","trial_label","Q0_index"
"GDM/GDM_behavioral_consent_30min_online.html","consent","0","13973","0.0-0.0","19884112","wem/bandit_party_1","A3T90ZWPBV0MCI","either","8","","","","","","","","","","","","","","","","","","","","","","","","","","","","","","","","","","","","","","","","",""
"","survey-text","1","18549","0.0-1.0","19884112","wem/bandit_party_1","A3T90ZWPBV0MCI","either","8","3566","{""Q0"":""A3T90ZWPBV0MCI""}","","","","","","","","","","","","","","","","","","","","","","","","","","","","","","","","","","","","","","",""
"","button-response","2","22235","0.0-2.0","19884112","wem/bandit_party_1","A3T90ZWPBV0MCI","either","8","2676","","0","","","","","","","","","","","","","","","","","","","","","","","","","","","","","","","","","","","","","",""
"","text-replacement","3","33591","0.0-3.0","19884112","wem/bandit_party_1","A3T90ZWPBV0MCI","either","8","10345","","","32","","","","","","","","","","","","","","","","","","","","","","","","","","","","","","","","","","","","",""
"","text-replacement","4","34748","0.0-4.0","19884112","wem/bandit_party_1","A3T90ZWPBV0MCI","either","8","1155","","","32","","","","","","","","","","","","","","","","","","","","","","","","","","","","","","","","","","","","",""
"","identification","5","48836","0.0-6.0-0.0","19884112","wem/bandit_party_1","A3T90ZWPBV0MCI","either","8","14066","","","","3","3","0","","","","","","","","","","","","","","","","","","","","","","","","pre","identification_pre","the Democratic Party","","","","","","","",""
"","identification","6","60866","0.0-6.0-1.0","19884112","wem/bandit_party_1","A3T90ZWPBV0MCI","either","8","11010","","","","3","4","4","","","","","","","","","","","","","","","","","","","","","","","","pre","identification_pre","the Republican party","","","","","","","",""
"","text-replacement","7","73325","0.0-7.0","19884112","wem/bandit_party_1","A3T90ZWPBV0MCI","either","8","11455","","","32","","","","","","","","","","","","","","","","","","","","","","","","","","","","","","","","","","","","",""
"","text-replacement","8","84733","0.0-8.0","19884112","wem/bandit_party_1","A3T90ZWPBV0MCI","either","8","11405","","","32","","","","","","","","","","","","","","","","","","","","","","","","","","","","","","","","","","","","",""
"","text-replacement","9","100814","0.0-9.0","19884112","wem/bandit_party_1","A3T90ZWPBV0MCI","either","8","16077","","","32","","","","","","","","","","","","","","","","","","","","","","","","","","","","","","","","","","","","",""
"","text-replacement","10","107122","0.0-10.0","19884112","wem/bandit_party_1","A3T90ZWPBV0MCI","either","8","6306","","","32","","","","","","","","","","","","","","","","","","","","","","","","","","","","","","","","","","","","",""
"","text-replacement","11","112685","0.0-11.0","19884112","wem/bandit_party_1","A3T90ZWPBV0MCI","either","8","5561","","","32","","","","","","","","","","","","","","","","","","","","","","","","","","","","","","","","","","","","",""
"","bandit","12","119389","0.0-12.0-0.0","19884112","wem/bandit_party_1","A3T90ZWPBV0MCI","either","8","5193","","","","","","","0","0","1","0","0","","","","","0","","","","0","","","","","","","","","","","","","74","J","0","img/none_selected_demo.jpg","true","0","",""
"","bandit","13","122206","0.0-13.0-0.0","19884112","wem/bandit_party_1","A3T90ZWPBV0MCI","either","8","1307","","","","","","","0","0","1","0","0","","","","","0","","","","0","","","","","","","","","","","","","75","K","0","img/none_selected_demo.jpg","true","0","",""
"","text-replacement","14","133782","0.0-14.0","19884112","wem/bandit_party_1","A3T90ZWPBV0MCI","either","8","11573","","","32","","","","","","","","","","","","","","","","","","","","","","","","","","","","","","","","","","","","",""
"","text-replacement","15","143515","0.0-15.0","19884112","wem/bandit_party_1","A3T90ZWPBV0MCI","either","8","9731","","","32","","","","","","","","","","","","","","","","","","","","","","","","","","","","","","","","","","","","",""
"","text-replacement","16","157677","0.0-16.0","19884112","wem/bandit_party_1","A3T90ZWPBV0MCI","either","8","14160","","","32","","","","","","","","","","","","","","","","","","","","","","","","","","","","","","","","","","","","",""
"","text-replacement","17","162875","0.0-17.0","19884112","wem/bandit_party_1","A3T90ZWPBV0MCI","either","8","5196","","","32","","","","","","","","","","","","","","","","","","","","","","","","","","","","","","","","","","","","",""
"","bandit","18","166389","0.0-18.0-0.0","19884112","wem/bandit_party_1","A3T90ZWPBV0MCI","either","8","2007","","","","","","","0","1","0","","0.8","0.5","0.5","","","0.8","0.2","","","","","","","","","","","","","","","","74","J","0","img/none_selected_demo.jpg","true","0","80_20_practice",""
"","bandit","19","168675","0.0-18.0-1.0","19884112","wem/bandit_party_1","A3T90ZWPBV0MCI","either","8","776","","","","","","","0","1","0","","0.8","0.5","0.5","","","0.8","0.2","","","","","","","","","","","","","","","","74","J","0","img/none_selected_demo.jpg","true","0","80_20_practice",""
"","bandit","20","170765","0.0-18.0-2.0","19884112","wem/bandit_party_1","A3T90ZWPBV0MCI","either","8","581","","","","","","","1","0","0","0.8","","0.5","0.5","","","","","","","0.8","0.2","","","","","","","","","","","","74","J","0","img/none_selected_demo.jpg","true","0","80_20_practice",""
"","bandit","21","173466","0.0-18.0-3.0","19884112","wem/bandit_party_1","A3T90ZWPBV0MCI","either","8","1192","","","","","","","0","1","0","","0.8","0.5","0.5","","","0.8","0.2","","","","","","","","","","","","","","","","74","J","0","img/none_selected_demo.jpg","true","0","80_20_practice",""
"","bandit","22","175754","0.0-18.0-4.0","19884112","wem/bandit_party_1","A3T90ZWPBV0MCI","either","8","780","","","","","","","1","0","0","0.8","","0.5","0.5","","","","","","","0.8","0.2","","","","","","","","","","","","74","J","0","img/none_selected_demo.jpg","true","0","80_20_practice",""
"","bandit","23","177426","0.0-18.0-5.0","19884112","wem/bandit_party_1","A3T90ZWPBV0MCI","either","8","163","","","","","","","1","0","0","0.8","","0.5","0.5","","","","","","","0.8","0.2","","","","","","","","","","","","74","J","0","img/none_selected_demo.jpg","true","0","80_20_practice",""
"","bandit","24","181308","0.0-18.0-6.0","19884112","wem/bandit_party_1","A3T90ZWPBV0MCI","either","8","2373","","","","","","","0","1","0","","0.8","0.5","0.5","","","0.8","0.2","","","","","","","","","","","","","","","","74","J","0","img/none_selected_demo.jpg","true","0","80_20_practice",""
"","bandit","25","183057","0.0-18.0-7.0","19884112","wem/bandit_party_1","A3T90ZWPBV0MCI","either","8","242","","","","","","","0","1","0","","0.8","0.5","0.5","","","0.8","0.2","","","","","","","","","","","","","","","","74","J","0","img/none_selected_demo.jpg","true","0","80_20_practice",""
"","bandit","26","186338","0.0-18.0-8.0","19884112","wem/bandit_party_1","A3T90ZWPBV0MCI","either","8","1773","","","","","","","0","1","0","","0.8","0.5","0.5","","","0.8","0.2","","","","","","","","","","","","","","","","74","J","0","img/none_selected_demo.jpg","true","0","80_20_practice",""
"","bandit","27","188272","0.0-18.0-9.0","19884112","wem/bandit_party_1","A3T90ZWPBV0MCI","either","8","428","","","","","","","0","1","0","","0.2","0.5","0.5","","","0.8","0.2","","","","","","","","","","","","","","","","75","K","1","","true","0","80_20_practice",""
"","bandit","28","191226","0.0-18.0-10.0","19884112","wem/bandit_party_1","A3T90ZWPBV0MCI","either","8","1446","","","","","","","0","0","1","0.2","","0.5","0.5","","","","","","","0.8","0.2","","","","","","","","","","","","75","K","1","","true","0","80_20_practice",""
"","bandit","29","193340","0.0-18.0-11.0","19884112","wem/bandit_party_1","A3T90ZWPBV0MCI","either","8","604","","","","","","","0","1","0","","0.2","0.5","0.5","","","0.8","0.2","","","","","","","","","","","","","","","","75","K","1","","true","0","80_20_practice",""
"","bandit","30","196098","0.0-18.0-12.0","19884112","wem/bandit_party_1","A3T90ZWPBV0MCI","either","8","1249","","","","","","","0","0","1","","0.2","0.5","0.5","","","0.8","0.2","","","","","","","","","","","","","","","","75","K","1","","true","0","80_20_practice",""
"","bandit","31","197834","0.0-18.0-13.0","19884112","wem/bandit_party_1","A3T90ZWPBV0MCI","either","8","228","","","","","","","0","0","1","","0.2","0.5","0.5","","","0.8","0.2","","","","","","","","","","","","","","","","75","K","1","","true","0","80_20_practice",""
"","bandit","32","202148","0.0-18.0-14.0","19884112","wem/bandit_party_1","A3T90ZWPBV0MCI","either","8","2803","","","","","","","0","1","0","","0.8","0.5","0.5","","","0.8","0.2","","","","","","","","","","","","","","","","74","J","0","img/none_selected_demo.jpg","true","0","80_20_practice",""
"","bandit","33","205378","0.0-18.0-15.0","19884112","wem/bandit_party_1","A3T90ZWPBV0MCI","either","8","1720","","","","","","","1","0","0","0.8","","0.5","0.5","","","","","","","0.8","0.2","","","","","","","","","","","","74","J","0","img/none_selected_demo.jpg","true","0","80_20_practice",""
"","bandit","34","207409","0.0-18.0-16.0","19884112","wem/bandit_party_1","A3T90ZWPBV0MCI","either","8","523","","","","","","","0","0","1","","0.8","0.5","0.5","","","0.8","0.2","","","","","","","","","","","","","","","","74","J","0","img/none_selected_demo.jpg","true","0","80_20_practice",""
"","bandit","35","209282","0.0-18.0-17.0","19884112","wem/bandit_party_1","A3T90ZWPBV0MCI","either","8","363","","","","","","","1","0","0","0.8","","0.5","0.5","","","","","","","0.8","0.2","","","","","","","","","","","","74","J","0","img/none_selected_demo.jpg","true","0","80_20_practice",""
"","bandit","36","211162","0.0-18.0-18.0","19884112","wem/bandit_party_1","A3T90ZWPBV0MCI","either","8","371","","","","","","","0","1","0","","0.8","0.5","0.5","","","0.8","0.2","","","","","","","","","","","","","","","","74","J","0","img/none_selected_demo.jpg","true","0","80_20_practice",""
"","bandit","37","212883","0.0-18.0-19.0","19884112","wem/bandit_party_1","A3T90ZWPBV0MCI","either","8","210","","","","","","","1","0","0","0.8","","0.5","0.5","","","","","","","0.8","0.2","","","","","","","","","","","","74","J","0","img/none_selected_demo.jpg","true","0","80_20_practice",""
"","text-replacement","38","218794","0.0-19.0","19884112","wem/bandit_party_1","A3T90ZWPBV0MCI","either","8","5909","","","32","","","","","","","","","","","","","","","","","","","","","","","","","","","","","","","","","","","","",""
"","bandit","39","221114","0.0-20.0-0.0","19884112","wem/bandit_party_1","A3T90ZWPBV0MCI","either","8","811","","","","","","","1","0","0","1","0","","","","","0","1","","","1","0","","","","","","","","","","","","74","J","0","img/none_selected_demo.jpg","true","0","",""
"","text-replacement","40","226963","0.0-21.0","19884112","wem/bandit_party_1","A3T90ZWPBV0MCI","either","8","5845","","","32","","","","","","","","","","","","","","","","","","","","","","","","","","","","","","","","","","","","",""
"","text-replacement","41","232786","0.0-22.0","19884112","wem/bandit_party_1","A3T90ZWPBV0MCI","either","8","5820","","","32","","","","","","","","","","","","","","","","","","","","","","","","","","","","","","","","","","","","",""
"","text-replacement","42","236242","0.0-23.0","19884112","wem/bandit_party_1","A3T90ZWPBV0MCI","either","8","3454","","","32","","","","","","","","","","","","","","","","","","","","","","","","","","","","","","","","","","","","",""
"","text-replacement","43","240769","0.0-24.0","19884112","wem/bandit_party_1","A3T90ZWPBV0MCI","either","8","4524","","","32","","","","","","","","","","","","","","","","","","","","","","","","","","","","","","","","","","","","",""
"","text-replacement","44","250155","0.0-25.0","19884112","wem/bandit_party_1","A3T90ZWPBV0MCI","either","8","9383","","","32","","","","","","","","","","","","","","","","","","","","","","","","","","","","","","","","","","","","",""
"","text-replacement","45","252097","0.0-26.0","19884112","wem/bandit_party_1","A3T90ZWPBV0MCI","either","8","1939","","","32","","","","","","","","","","","","","","","","","","","","","","","","","","","","","","","","","","","","",""
"","text-replacement","46","256064","0.0-27.0","19884112","wem/bandit_party_1","A3T90ZWPBV0MCI","either","8","3963","","","32","","","","","","","","","","","","","","","","","","","","","","","","","","","","","","","","","","","","",""
"","text-replacement","47","259529","0.0-28.0","19884112","wem/bandit_party_1","A3T90ZWPBV0MCI","either","8","3464","","","32","","","","","","","","","","","","","","","","","","","","","","","","","","","","","","","","","","","","",""
"","text-replacement","48","266907","0.0-29.0","19884112","wem/bandit_party_1","A3T90ZWPBV0MCI","either","8","7375","","","32","","","","","","","","","","","","","","","","","","","","","","","","","","","","","","","","","","","","",""
"","text-replacement","49","269281","0.0-30.0","19884112","wem/bandit_party_1","A3T90ZWPBV0MCI","either","8","2370","","","32","","","","","","","","","","","","","","","","","","","","","","","","","","","","","","","","","","","","",""
"","text-replacement","50","276161","0.0-31.0","19884112","wem/bandit_party_1","A3T90ZWPBV0MCI","either","8","6877","","","32","","","","","","","","","","","","","","","","","","","","","","","","","","","","","","","","","","","","",""
"","bandit","51","278827","0.0-32.0-0.0","19884112","wem/bandit_party_1","A3T90ZWPBV0MCI","either","8","1157","","","","","","","0","0","1","0.8","","0.5","0.5","0.5","0.5","","","","","0.8","0.2","0.6","0.2","","","","","","","","","","72","H","0","img/none_selected.jpg","true","0","full_practice",""
"","bandit","52","280849","0.0-32.0-1.0","19884112","wem/bandit_party_1","A3T90ZWPBV0MCI","either","8","512","","","","","","","0","1","0","","0.8","0.5","0.5","0.5","0.5","0.8","0.2","0.6","0.2","","","","","","","","","","","","","","72","H","0","img/none_selected.jpg","true","0","full_practice",""
"","bandit","53","282721","0.0-32.0-2.0","19884112","wem/bandit_party_1","A3T90ZWPBV0MCI","either","8","362","","","","","","","0","0","1","","0.8","0.5","0.5","0.5","0.5","0.8","0.2","0.6","0.2","","","","","","","","","","","","","","72","H","0","img/none_selected.jpg","true","0","full_practice",""
"","bandit","54","285512","0.0-32.0-3.0","19884112","wem/bandit_party_1","A3T90ZWPBV0MCI","either","8","1279","","","","","","","0","0","1","0.2","","0.5","0.5","0.5","0.5","","","","","0.8","0.2","0.6","0.2","","","","","","","","","","74","J","1","","true","0","full_practice",""
"","bandit","55","287336","0.0-32.0-4.0","19884112","wem/bandit_party_1","A3T90ZWPBV0MCI","either","8","316","","","","","","","0","0","1","0.2","","0.5","0.5","0.5","0.5","","","","","0.8","0.2","0.6","0.2","","","","","","","","","","74","J","1","","true","0","full_practice",""
"","bandit","56","289795","0.0-32.0-5.0","19884112","wem/bandit_party_1","A3T90ZWPBV0MCI","either","8","950","","","","","","","0","0","1","","0.2","0.5","0.5","0.5","0.5","0.8","0.2","0.6","0.2","","","","","","","","","","","","","","74","J","1","","true","0","full_practice",""
"","bandit","57","291664","0.0-32.0-6.0","19884112","wem/bandit_party_1","A3T90ZWPBV0MCI","either","8","361","","","","","","","0","0","1","","0.6","0.5","0.5","0.5","0.5","0.8","0.2","0.6","0.2","","","","","","","","","","","","","","75","K","2","","true","0","full_practice",""
"","bandit","58","293504","0.0-32.0-7.0","19884112","wem/bandit_party_1","A3T90ZWPBV0MCI","either","8","330","","","","","","","0","1","0","","0.6","0.5","0.5","0.5","0.5","0.8","0.2","0.6","0.2","","","","","","","","","","","","","","75","K","2","","true","0","full_practice",""
"","bandit","59","295464","0.0-32.0-8.0","19884112","wem/bandit_party_1","A3T90ZWPBV0MCI","either","8","450","","","","","","","0","1","0","","0.6","0.5","0.5","0.5","0.5","0.8","0.2","0.6","0.2","","","","","","","","","","","","","","75","K","2","","true","0","full_practice",""
"","bandit","60","297419","0.0-32.0-9.0","19884112","wem/bandit_party_1","A3T90ZWPBV0MCI","either","8","443","","","","","","","0","1","0","","0.6","0.5","0.5","0.5","0.5","0.8","0.2","0.6","0.2","","","","","","","","","","","","","","75","K","2","","true","0","full_practice",""
"","bandit","61","299811","0.0-32.0-10.0","19884112","wem/bandit_party_1","A3T90ZWPBV0MCI","either","8","881","","","","","","","0","0","1","0.2","","0.5","0.5","0.5","0.5","","","","","0.8","0.2","0.6","0.2","","","","","","","","","","76","L","3","","true","0","full_practice",""
"","bandit","62","301648","0.0-32.0-11.0","19884112","wem/bandit_party_1","A3T90ZWPBV0MCI","either","8","327","","","","","","","0","0","1","0.2","","0.5","0.5","0.5","0.5","","","","","0.8","0.2","0.6","0.2","","","","","","","","","","76","L","3","","true","0","full_practice",""
"","bandit","63","303569","0.0-32.0-12.0","19884112","wem/bandit_party_1","A3T90ZWPBV0MCI","either","8","412","","","","","","","0","0","1","0.2","","0.5","0.5","0.5","0.5","","","","","0.8","0.2","0.6","0.2","","","","","","","","","","76","L","3","","true","0","full_practice",""
"","bandit","64","305609","0.0-32.0-13.0","19884112","wem/bandit_party_1","A3T90ZWPBV0MCI","either","8","526","","","","","","","0","1","0","","0.6","0.5","0.5","0.5","0.5","0.8","0.2","0.6","0.2","","","","","","","","","","","","","","75","K","2","","true","0","full_practice",""
"","bandit","65","307513","0.0-32.0-14.0","19884112","wem/bandit_party_1","A3T90ZWPBV0MCI","either","8","393","","","","","","","0","1","0","","0.6","0.5","0.5","0.5","0.5","0.8","0.2","0.6","0.2","","","","","","","","","","","","","","75","K","2","","true","0","full_practice",""
"","bandit","66","309440","0.0-32.0-15.0","19884112","wem/bandit_party_1","A3T90ZWPBV0MCI","either","8","417","","","","","","","0","0","1","0.6","","0.5","0.5","0.5","0.5","","","","","0.8","0.2","0.6","0.2","","","","","","","","","","75","K","2","","true","0","full_practice",""
"","bandit","67","311143","0.0-32.0-16.0","19884112","wem/bandit_party_1","A3T90ZWPBV0MCI","either","8","187","","","","","","","1","0","0","0.6","","0.5","0.5","0.5","0.5","","","","","0.8","0.2","0.6","0.2","","","","","","","","","","75","K","2","","true","0","full_practice",""
"","bandit","68","313977","0.0-32.0-17.0","19884112","wem/bandit_party_1","A3T90ZWPBV0MCI","either","8","1325","","","","","","","0","0","1","0.6","","0.5","0.5","0.5","0.5","","","","","0.8","0.2","0.6","0.2","","","","","","","","","","75","K","2","","true","0","full_practice",""
"","bandit","69","315857","0.0-32.0-18.0","19884112","wem/bandit_party_1","A3T90ZWPBV0MCI","either","8","371","","","","","","","0","0","1","0.6","","0.5","0.5","0.5","0.5","","","","","0.8","0.2","0.6","0.2","","","","","","","","","","75","K","2","","true","0","full_practice",""
"","bandit","70","318065","0.0-32.0-19.0","19884112","wem/bandit_party_1","A3T90ZWPBV0MCI","either","8","696","","","","","","","0","0","1","","0.2","0.5","0.5","0.5","0.5","0.8","0.2","0.6","0.2","","","","","","","","","","","","","","76","L","3","","true","0","full_practice",""
"","text","71","322554","0.0-33.0","19884112","wem/bandit_party_1","A3T90ZWPBV0MCI","either","8","4480","","","32","","","","","","","","","","","","","","","","","","","","","","","","","","","","","","","","","","","","",""
"","text-replacement","72","336378","0.0-34.0","19884112","wem/bandit_party_1","A3T90ZWPBV0MCI","either","8","12819","","","32","","","","","","","","","","","","","","","","","","","","","","","","","","","","","","","","","","","","",""
"","text-replacement","73","352122","0.0-35.0","19884112","wem/bandit_party_1","A3T90ZWPBV0MCI","either","8","15741","","","32","","","","","","","","","","","","","","","","","","","","","","","","","","","","","","","","","","","","",""
"","text-replacement","74","359912","0.0-36.0","19884112","wem/bandit_party_1","A3T90ZWPBV0MCI","either","8","7785","","","32","","","","","","","","","","","","","","","","","","","","","","","","","","","","","","","","","","","","",""
"","text-replacement","75","367554","0.0-37.0","19884112","wem/bandit_party_1","A3T90ZWPBV0MCI","either","8","7639","","","32","","","","","","","","","","","","","","","","","","","","","","","","","","","","","","","","","","","","",""
"","text-replacement","76","372377","0.0-38.0","19884112","wem/bandit_party_1","A3T90ZWPBV0MCI","either","8","4820","","","32","","","","","","","","","","","","","","","","","","","","","","","","","","","","","","","","","","","","",""
"","survey-multi-choice-replacement","77","378788","0.0-39.0-0.0","19884112","wem/bandit_party_1","A3T90ZWPBV0MCI","either","8","6397","","","","","","","","","","","","","","","","","","","","","","","","Money will be added to the pool for <span style='color:red;'>REPUBLICANS</span>","","","","","","","attn_check","","","","","","","","","0"
"","survey-multi-choice-replacement","78","389727","0.0-40.0-0.0","19884112","wem/bandit_party_1","A3T90ZWPBV0MCI","either","8","9922","","","","","","","","","","","","","","","","","","","","","","","","Equal amounts of money will be added to the pool for <span style='color:red;'>REPUBLICANS</span> and subtracted from the pool for <span style='color:blue;'>DEMOCRATS</span>","","","","","","","attn_check","","","","","","","","","2"
"","survey-multi-choice-replacement","79","395510","0.0-41.0-0.0","19884112","wem/bandit_party_1","A3T90ZWPBV0MCI","either","8","4769","","","","","","","","","","","","","","","","","","","","","","","","No money will be added to either pool","","","","","","","attn_check","","","","","","","","","3"
"","bandit","80","402834","0.0-42.0-0.0","19884112","wem/bandit_party_1","A3T90ZWPBV0MCI","either","8","4809","","","","","","","0","0","1","","0.1351790469","0.2","0.8","0.4","0.6","0.1351790469","0.2637293772","0.3540548627","0.2928194041","","","","","","","","","","","","","","72","H","0","img/none_selected.jpg","","1","main_expt",""
"","bandit","81","404560","0.0-43.0-0.0","19884112","wem/bandit_party_1","A3T90ZWPBV0MCI","either","8","215","","","","","","","0","0","1","","0.125602744","0.2","0.8","0.4","0.6","0.125602744","0.2760013096","0.3812516843","0.3040419902","","","","","","","","","","","","","","72","H","0","img/none_selected.jpg","","2","main_expt",""
"","bandit","82","407360","0.0-44.0-0.0","19884112","wem/bandit_party_1","A3T90ZWPBV0MCI","either","8","1289","","","","","","","0","0","1","0.3240499928","","0.2","0.8","0.4","0.6","","","","","0.09574082279","0.3240499928","0.3901316494","0.2875251023","","","","","","","","","","74","J","1","","","3","main_expt",""
"","bandit","83","409663","0.0-45.0-0.0","19884112","wem/bandit_party_1","A3T90ZWPBV0MCI","either","8","793","","","","","","","0","1","0","","0.3510822359","0.2","0.8","0.4","0.6","0.0913382225","0.3510822359","0.3945399471","0.2965567903","","","","","","","","","","","","","","74","J","1","","","4","main_expt",""
"","bandit","84","411703","0.0-46.0-0.0","19884112","wem/bandit_party_1","A3T90ZWPBV0MCI","either","8","531","","","","","","","1","0","0","0.3522827721","","0.2","0.8","0.4","0.6","","","","","0.106177601","0.3522827721","0.3997977613","0.2681113314","","","","","","","","","","74","J","1","","","5","main_expt",""
"","bandit","85","413625","0.0-47.0-0.0","19884112","wem/bandit_party_1","A3T90ZWPBV0MCI","either","8","410","","","","","","","0","0","1","0.382674005","","0.2","0.8","0.4","0.6","","","","","0.08998955495","0.382674005","0.390783501","0.2330443498","","","","","","","","","","74","J","1","","","6","main_expt",""
"","bandit","86","415470","0.0-48.0-0.0","19884112","wem/bandit_party_1","A3T90ZWPBV0MCI","either","8","338","","","","","","","1","0","0","0.3998463606","","0.2","0.8","0.4","0.6","","","","","0.1077526668","0.3998463606","0.3305693427","0.1630509172","","","","","","","","","","74","J","1","","","7","main_expt",""
"","bandit","87","417543","0.0-49.0-0.0","19884112","wem/bandit_party_1","A3T90ZWPBV0MCI","either","8","563","","","","","","","0","0","1","0.3832029687","","0.2","0.8","0.4","0.6","","","","","0.1243697388","0.3832029687","0.3056545716","0.2002468685","","","","","","","","","","74","J","1","","","8","main_expt",""
"","bandit","88","419439","0.0-50.0-0.0","19884112","wem/bandit_party_1","A3T90ZWPBV0MCI","either","8","386","","","","","","","1","0","0","0.3796681134","","0.2","0.8","0.4","0.6","","","","","0.1698108096","0.3796681134","0.3278889804","0.1835034381","","","","","","","","","","74","J","1","","","9","main_expt",""
"","bandit","89","421615","0.0-51.0-0.0","19884112","wem/bandit_party_1","A3T90ZWPBV0MCI","either","8","662","","","","","","","1","0","0","0.3614311416","","0.2","0.8","0.4","0.6","","","","","0.221757114","0.3614311416","0.3137855556","0.1939723001","","","","","","","","","","74","J","1","","","10","main_expt",""
"","bandit","90","423552","0.0-52.0-0.0","19884112","wem/bandit_party_1","A3T90ZWPBV0MCI","either","8","425","","","","","","","0","0","1","","0.3938737051","0.2","0.8","0.4","0.6","0.1961062924","0.3938737051","0.3253079181","0.1949806013","","","","","","","","","","","","","","74","J","1","","","11","main_expt",""
"","bandit","91","425433","0.0-53.0-0.0","19884112","wem/bandit_party_1","A3T90ZWPBV0MCI","either","8","371","","","","","","","0","0","1","0.3810544723","","0.2","0.8","0.4","0.6","","","","","0.1907056259","0.3810544723","0.3298150516","0.2587943474","","","","","","","","","","74","J","1","","","12","main_expt",""
"","bandit","92","427887","0.0-54.0-0.0","19884112","wem/bandit_party_1","A3T90ZWPBV0MCI","either","8","944","","","","","","","0","0","1","0.3673307406","","0.2","0.8","0.4","0.6","","","","","0.2162865666","0.3707046684","0.3673307406","0.3085985727","","","","","","","","","","75","K","2","","","13","main_expt",""
"","bandit","93","429759","0.0-55.0-0.0","19884112","wem/bandit_party_1","A3T90ZWPBV0MCI","either","8","360","","","","","","","0","0","1","0.3679224674","","0.2","0.8","0.4","0.6","","","","","0.2399362825","0.3486531997","0.3679224674","0.2464992766","","","","","","","","","","75","K","2","","","14","main_expt",""
"","bandit","94","432263","0.0-56.0-0.0","19884112","wem/bandit_party_1","A3T90ZWPBV0MCI","either","8","994","","","","","","","0","0","1","","0.2474611475","0.2","0.8","0.4","0.6","0.1986859052","0.3263578384","0.3062507314","0.2474611475","","","","","","","","","","","","","","76","L","3","","","15","main_expt",""
"","bandit","95","434167","0.0-57.0-0.0","19884112","wem/bandit_party_1","A3T90ZWPBV0MCI","either","8","394","","","","","","","1","0","0","0.2835538477","","0.2","0.8","0.4","0.6","","","","","0.1865641621","0.3514189979","0.2892976033","0.2835538477","","","","","","","","","","76","L","3","","","16","main_expt",""
"","bandit","96","436145","0.0-58.0-0.0","19884112","wem/bandit_party_1","A3T90ZWPBV0MCI","either","8","467","","","","","","","0","0","1","","0.3256112075","0.2","0.8","0.4","0.6","0.2035525071","0.3532592314","0.2861796528","0.3256112075","","","","","","","","","","","","","","76","L","3","","","17","main_expt",""
"","bandit","97","438023","0.0-59.0-0.0","19884112","wem/bandit_party_1","A3T90ZWPBV0MCI","either","8","367","","","","","","","0","0","1","0.3802227677","","0.2","0.8","0.4","0.6","","","","","0.2039336531","0.3858608091","0.2958570682","0.3802227677","","","","","","","","","","76","L","3","","","18","main_expt",""
"","bandit","98","439951","0.0-60.0-0.0","19884112","wem/bandit_party_1","A3T90ZWPBV0MCI","either","8","416","","","","","","","1","0","0","0.360566968","","0.2","0.8","0.4","0.6","","","","","0.1598579642","0.3837638756","0.3353028819","0.360566968","","","","","","","","","","76","L","3","","","19","main_expt",""
"","bandit","99","441527","0.0-61.0-0.0","19884112","wem/bandit_party_1","A3T90ZWPBV0MCI","either","8","66","","","","","","","0","0","1","0.3696799013","","0.2","0.8","0.4","0.6","","","","","0.1437622327","0.2872100501","0.3139704528","0.3696799013","","","","","","","","","","76","L","3","","","20","main_expt",""
"","bandit","100","444936","0.0-62.0-0.0","19884112","wem/bandit_party_1","A3T90ZWPBV0MCI","either","8","1899","","","","","","","0","1","0","","0.4006907501","0.2","0.8","0.4","0.6","0.07974703335","0.2975414498","0.2524707143","0.4006907501","","","","","","","","","","","","","","76","L","3","","","21","main_expt",""
"","bandit","101","447104","0.0-63.0-0.0","19884112","wem/bandit_party_1","A3T90ZWPBV0MCI","either","8","660","","","","","","","0","0","1","0.4081217326","","0.2","0.8","0.4","0.6","","","","","0.1361132429","0.2741965999","0.248326021","0.4081217326","","","","","","","","","","76","L","3","","","22","main_expt",""
"","bandit","102","449560","0.0-64.0-0.0","19884112","wem/bandit_party_1","A3T90ZWPBV0MCI","either","8","944","","","","","","","0","1","0","","0.3740207531","0.2","0.8","0.4","0.6","0.1705973249","0.2379064449","0.2937153481","0.3740207531","","","","","","","","","","","","","","76","L","3","","","23","main_expt",""
"","bandit","103","452174","0.0-65.0-0.0","19884112","wem/bandit_party_1","A3T90ZWPBV0MCI","either","8","1105","","","","","","","0","1","0","","0.3913756451","0.2","0.8","0.4","0.6","0.1392759225","0.2078598572","0.2625315469","0.3913756451","","","","","","","","","","","","","","76","L","3","","","24","main_expt",""
"","bandit","104","454031","0.0-66.0-0.0","19884112","wem/bandit_party_1","A3T90ZWPBV0MCI","either","8","346","","","","","","","1","0","0","0.4100905738","","0.2","0.8","0.4","0.6","","","","","0.1800538527","0.2764850733","0.2405651368","0.4100905738","","","","","","","","","","76","L","3","","","25","main_expt",""
"","bandit","105","455951","0.0-67.0-0.0","19884112","wem/bandit_party_1","A3T90ZWPBV0MCI","either","8","408","","","","","","","1","0","0","0.3600668969","","0.2","0.8","0.4","0.6","","","","","0.2146400533","0.3080191348","0.2503350336","0.3600668969","","","","","","","","","","76","L","3","","","26","main_expt",""
"","bandit","106","457929","0.0-68.0-0.0","19884112","wem/bandit_party_1","A3T90ZWPBV0MCI","either","8","468","","","","","","","1","0","0","0.3703096079","","0.2","0.8","0.4","0.6","","","","","0.1948367851","0.3606197488","0.354091838","0.3703096079","","","","","","","","","","76","L","3","","","27","main_expt",""
"","bandit","107","459935","0.0-69.0-0.0","19884112","wem/bandit_party_1","A3T90ZWPBV0MCI","either","8","493","","","","","","","0","0","1","0.3527269899","","0.2","0.8","0.4","0.6","","","","","0.2282666016","0.3696097963","0.3419366675","0.3527269899","","","","","","","","","","76","L","3","","","28","main_expt",""
"","bandit","108","461888","0.0-70.0-0.0","19884112","wem/bandit_party_1","A3T90ZWPBV0MCI","either","8","441","","","","","","","0","1","0","","0.2854860911","0.2","0.8","0.4","0.6","0.1842618798","0.3434444954","0.361896517","0.2854860911","","","","","","","","","","","","","","76","L","3","","","29","main_expt",""
"","bandit","109","463982","0.0-71.0-0.0","19884112","wem/bandit_party_1","A3T90ZWPBV0MCI","either","8","583","","","","","","","1","0","0","0.2971434158","","0.2","0.8","0.4","0.6","","","","","0.1930267653","0.3528183973","0.3701160785","0.2971434158","","","","","","","","","","76","L","3","","","30","main_expt",""
"","bandit","110","465919","0.0-72.0-0.0","19884112","wem/bandit_party_1","A3T90ZWPBV0MCI","either","8","427","","","","","","","0","0","1","","0.3192935598","0.2","0.8","0.4","0.6","0.2279264959","0.3436926249","0.3602312343","0.3192935598","","","","","","","","","","","","","","76","L","3","","","31","main_expt",""
"","bandit","111","467814","0.0-73.0-0.0","19884112","wem/bandit_party_1","A3T90ZWPBV0MCI","either","8","383","","","","","","","0","0","1","","0.2910845839","0.2","0.8","0.4","0.6","0.1922668126","0.3392376576","0.3550043818","0.2910845839","","","","","","","","","","","","","","76","L","3","","","32","main_expt",""
"","bandit","112","469976","0.0-74.0-0.0","19884112","wem/bandit_party_1","A3T90ZWPBV0MCI","either","8","652","","","","","","","0","0","1","","0.2524106513","0.2","0.8","0.4","0.6","0.1503247695","0.2524106513","0.3927862597","0.2956883229","","","","","","","","","","","","","","74","J","1","","","33","main_expt",""
"","bandit","113","472135","0.0-75.0-0.0","19884112","wem/bandit_party_1","A3T90ZWPBV0MCI","either","8","646","","","","","","","0","0","1","0.2378308988","","0.2","0.8","0.4","0.6","","","","","0.1875072744","0.2378308988","0.4185963197","0.2918182698","","","","","","","","","","74","J","1","","","34","main_expt",""
"","bandit","114","474125","0.0-76.0-0.0","19884112","wem/bandit_party_1","A3T90ZWPBV0MCI","either","8","477","","","","","","","0","0","1","0.441983755","","0.2","0.8","0.4","0.6","","","","","0.2135507624","0.2683654211","0.441983755","0.3063909307","","","","","","","","","","75","K","2","","","35","main_expt",""
"","bandit","115","476222","0.0-77.0-0.0","19884112","wem/bandit_party_1","A3T90ZWPBV0MCI","either","8","588","","","","","","","0","0","1","","0.4352827683","0.2","0.8","0.4","0.6","0.2042402853","0.2645223933","0.4352827683","0.2820805085","","","","","","","","","","","","","","75","K","2","","","36","main_expt",""
"","bandit","116","478439","0.0-78.0-0.0","19884112","wem/bandit_party_1","A3T90ZWPBV0MCI","either","8","705","","","","","","","0","0","1","","0.2024605481","0.2","0.8","0.4","0.6","0.2024605481","0.2360561858","0.450520142","0.2610370824","","","","","","","","","","","","","","72","H","0","img/none_selected.jpg","","37","main_expt",""
"","bandit","117","480417","0.0-79.0-0.0","19884112","wem/bandit_party_1","A3T90ZWPBV0MCI","either","8","465","","","","","","","0","0","1","0.1677713785","","0.2","0.8","0.4","0.6","","","","","0.1677713785","0.2001865083","0.4681224698","0.1896233007","","","","","","","","","","72","H","0","img/none_selected.jpg","","38","main_expt",""
"","bandit","118","482422","0.0-80.0-0.0","19884112","wem/bandit_party_1","A3T90ZWPBV0MCI","either","8","495","","","","","","","0","0","1","","0.221779122","0.2","0.8","0.4","0.6","0.221779122","0.1687915361","0.4711022053","0.168851025","","","","","","","","","","","","","","72","H","0","img/none_selected.jpg","","39","main_expt",""
"","bandit","119","484102","0.0-81.0-0.0","19884112","wem/bandit_party_1","A3T90ZWPBV0MCI","either","8","169","","","","","","","0","0","1","0.1503151413","","0.2","0.8","0.4","0.6","","","","","0.2722397218","0.1503151413","0.4559447699","0.1615787635","","","","","","","","","","74","J","1","","","40","main_expt",""
"","bandit","120","485949","0.0-82.0-0.0","19884112","wem/bandit_party_1","A3T90ZWPBV0MCI","either","8","339","","","","","","","1","0","0","0.08168262283","","0.2","0.8","0.4","0.6","","","","","0.3298230943","0.08168262283","0.4412687596","0.1472326003","","","","","","","","","","74","J","1","","","41","main_expt",""
"","bandit","121","487958","0.0-83.0-0.0","19884112","wem/bandit_party_1","A3T90ZWPBV0MCI","either","8","496","","","","","","","0","0","1","0.07668629145","","0.2","0.8","0.4","0.6","","","","","0.3104885444","0.07668629145","0.4457751761","0.1533480506","","","","","","","","","","74","J","1","","","42","main_expt",""
"","bandit","122","489815","0.0-84.0-0.0","19884112","wem/bandit_party_1","A3T90ZWPBV0MCI","either","8","345","","","","","","","0","0","1","0.07394587158","","0.2","0.8","0.4","0.6","","","","","0.3005355489","0.07394587158","0.4298378352","0.1414351437","","","","","","","","","","74","J","1","","","43","main_expt",""
"","bandit","123","491768","0.0-85.0-0.0","19884112","wem/bandit_party_1","A3T90ZWPBV0MCI","either","8","440","","","","","","","1","0","0","0.1067646429","","0.2","0.8","0.4","0.6","","","","","0.2456242138","0.1192337685","0.4416915379","0.1067646429","","","","","","","","","","76","L","3","","","44","main_expt",""
"","bandit","124","493912","0.0-86.0-0.0","19884112","wem/bandit_party_1","A3T90ZWPBV0MCI","either","8","632","","","","","","","0","0","1","0.1250796286","","0.2","0.8","0.4","0.6","","","","","0.2839901561","0.1285724119","0.3915522423","0.1250796286","","","","","","","","","","76","L","3","","","45","main_expt",""
"","bandit","125","496622","0.0-87.0-0.0","19884112","wem/bandit_party_1","A3T90ZWPBV0MCI","either","8","1198","","","","","","","0","0","1","","0.1927264636","0.2","0.8","0.4","0.6","0.2353621531","0.1112684106","0.4318427431","0.1927264636","","","","","","","","","","","","","","76","L","3","","","46","main_expt",""
"","bandit","126","498609","0.0-88.0-0.0","19884112","wem/bandit_party_1","A3T90ZWPBV0MCI","either","8","473","","","","","","","0","0","1","0.1804488412","","0.2","0.8","0.4","0.6","","","","","0.2405257196","0.1207340475","0.4395998441","0.1804488412","","","","","","","","","","76","L","3","","","47","main_expt",""
"","bandit","127","500607","0.0-89.0-0.0","19884112","wem/bandit_party_1","A3T90ZWPBV0MCI","either","8","486","","","","","","","0","1","0","","0.4630443269","0.2","0.8","0.4","0.6","0.2629408555","0.1182533935","0.4630443269","0.168268176","","","","","","","","","","","","","","75","K","2","","","48","main_expt",""
"","bandit","128","502648","0.0-90.0-0.0","19884112","wem/bandit_party_1","A3T90ZWPBV0MCI","either","8","530","","","","","","","1","0","0","0.4794982466","","0.2","0.8","0.4","0.6","","","","","0.2902453213","0.1460801474","0.4794982466","0.1466838001","","","","","","","","","","75","K","2","","","49","main_expt",""
"","bandit","129","504702","0.0-91.0-0.0","19884112","wem/bandit_party_1","A3T90ZWPBV0MCI","either","8","543","","","","","","","0","1","0","","0.4562783041","0.2","0.8","0.4","0.6","0.3033715012","0.1765155983","0.4562783041","0.1336340117","","","","","","","","","","","","","","75","K","2","","","50","main_expt",""
"","bandit","130","506767","0.0-92.0-0.0","19884112","wem/bandit_party_1","A3T90ZWPBV0MCI","either","8","552","","","","","","","0","0","1","0.4515646323","","0.2","0.8","0.4","0.6","","","","","0.3536831403","0.1614266163","0.4515646323","0.1067821754","","","","","","","","","","75","K","2","","","51","main_expt",""
"","bandit","131","508832","0.0-93.0-0.0","19884112","wem/bandit_party_1","A3T90ZWPBV0MCI","either","8","552","","","","","","","0","1","0","","0.4344137529","0.2","0.8","0.4","0.6","0.3058792917","0.1938643747","0.4344137529","0.07294577227","","","","","","","","","","","","","","75","K","2","","","52","main_expt",""
"","bandit","132","510854","0.0-94.0-0.0","19884112","wem/bandit_party_1","A3T90ZWPBV0MCI","either","8","510","","","","","","","0","0","1","","0.4421766306","0.2","0.8","0.4","0.6","0.3466820038","0.1721886996","0.4421766306","0.07676454597","","","","","","","","","","","","","","75","K","2","","","53","main_expt",""
"","bandit","133","512739","0.0-95.0-0.0","19884112","wem/bandit_party_1","A3T90ZWPBV0MCI","either","8","370","","","","","","","0","0","1","","0.4591875032","0.2","0.8","0.4","0.6","0.3159173384","0.1542880765","0.4591875032","0.07707135067","","","","","","","","","","","","","","75","K","2","","","54","main_expt",""
"","bandit","134","514614","0.0-96.0-0.0","19884112","wem/bandit_party_1","A3T90ZWPBV0MCI","either","8","365","","","","","","","0","1","0","","0.4455250987","0.2","0.8","0.4","0.6","0.3205246683","0.2155598061","0.4455250987","0.08227932488","","","","","","","","","","","","","","75","K","2","","","55","main_expt",""
"","bandit","135","516151","0.0-97.0-0.0","19884112","wem/bandit_party_1","A3T90ZWPBV0MCI","either","8","23","","","","","","","0","0","1","","0.4200701886","0.2","0.8","0.4","0.6","0.3067659888","0.199350645","0.4200701886","0.09013031375","","","","","","","","","","","","","","75","K","2","","","56","main_expt",""
"","bandit","136","519365","0.0-98.0-0.0","19884112","wem/bandit_party_1","A3T90ZWPBV0MCI","either","8","1704","","","","","","","0","0","1","","0.3635567377","0.2","0.8","0.4","0.6","0.3786279545","0.1991981904","0.3635567377","0.106866739","","","","","","","","","","","","","","75","K","2","","","57","main_expt",""
"","bandit","137","522774","0.0-99.0-0.0","19884112","wem/bandit_party_1","A3T90ZWPBV0MCI","either","8","1901","","","","","","","1","0","0","0.1307276253","","0.2","0.8","0.4","0.6","","","","","0.3796022377","0.1307276253","0.3647217687","0.0915584437","","","","","","","","","","74","J","1","","","58","main_expt",""
"","bandit","138","524862","0.0-100.0-0.0","19884112","wem/bandit_party_1","A3T90ZWPBV0MCI","either","8","576","","","","","","","0","0","1","0.1540949786","","0.2","0.8","0.4","0.6","","","","","0.3570845549","0.1540949786","0.3975499765","0.1036540812","","","","","","","","","","74","J","1","","","59","main_expt",""
"","bandit","139","526742","0.0-101.0-0.0","19884112","wem/bandit_party_1","A3T90ZWPBV0MCI","either","8","369","","","","","","","0","0","1","0.1187181044","","0.2","0.8","0.4","0.6","","","","","0.398525789","0.1187181044","0.376383165","0.07948280662","","","","","","","","","","74","J","1","","","60","main_expt",""
"","bandit","140","528920","0.0-102.0-0.0","19884112","wem/bandit_party_1","A3T90ZWPBV0MCI","either","8","664","","","","","","","1","0","0","0.380986593","","0.2","0.8","0.4","0.6","","","","","0.380986593","0.1734870435","0.3384437455","0.0685056185","","","","","","","","","","72","H","0","img/none_selected.jpg","","61","main_expt",""
"","bandit","141","530909","0.0-103.0-0.0","19884112","wem/bandit_party_1","A3T90ZWPBV0MCI","either","8","477","","","","","","","0","0","1","0.3928002855","","0.2","0.8","0.4","0.6","","","","","0.3928002855","0.2056999461","0.3086389155","0.04196312691","","","","","","","","","","72","H","0","img/none_selected.jpg","","62","main_expt",""
"","bandit","142","532832","0.0-104.0-0.0","19884112","wem/bandit_party_1","A3T90ZWPBV0MCI","either","8","412","","","","","","","0","0","1","","0.4097838671","0.2","0.8","0.4","0.6","0.4097838671","0.2421495796","0.3098998428","0.06524357318","","","","","","","","","","","","","","72","H","0","img/none_selected.jpg","","63","main_expt",""
"","bandit","143","534774","0.0-105.0-0.0","19884112","wem/bandit_party_1","A3T90ZWPBV0MCI","either","8","429","","","","","","","0","1","0","","0.3942475769","0.2","0.8","0.4","0.6","0.3942475769","0.2678986655","0.2859800092","0.04599317762","","","","","","","","","","","","","","72","H","0","img/none_selected.jpg","","64","main_expt",""
"","bandit","144","536869","0.0-106.0-0.0","19884112","wem/bandit_party_1","A3T90ZWPBV0MCI","either","8","583","","","","","","","0","1","0","","0.3756823908","0.2","0.8","0.4","0.6","0.3756823908","0.2780805564","0.2780623804","0.04738713632","","","","","","","","","","","","","","72","H","0","img/none_selected.jpg","","65","main_expt",""
"","bandit","145","538942","0.0-107.0-0.0","19884112","wem/bandit_party_1","A3T90ZWPBV0MCI","either","8","563","","","","","","","0","0","1","","0.3780323226","0.2","0.8","0.4","0.6","0.3780323226","0.2923516192","0.2740889186","0.02873144913","","","","","","","","","","","","","","72","H","0","img/none_selected.jpg","","66","main_expt",""
"","bandit","146","540798","0.0-108.0-0.0","19884112","wem/bandit_party_1","A3T90ZWPBV0MCI","either","8","343","","","","","","","0","1","0","","0.382091886","0.2","0.8","0.4","0.6","0.382091886","0.3481747094","0.3122756929","0.0355516853","","","","","","","","","","","","","","72","H","0","img/none_selected.jpg","","67","main_expt",""
"","bandit","147","542679","0.0-109.0-0.0","19884112","wem/bandit_party_1","A3T90ZWPBV0MCI","either","8","368","","","","","","","0","0","1","","0.4080562953","0.2","0.8","0.4","0.6","0.4080562953","0.3540590834","0.3004294993","0.04483006882","","","","","","","","","","","","","","72","H","0","img/none_selected.jpg","","68","main_expt",""
"","bandit","148","545238","0.0-110.0-0.0","19884112","wem/bandit_party_1","A3T90ZWPBV0MCI","either","8","1048","","","","","","","0","1","0","","0.419826639","0.2","0.8","0.4","0.6","0.419826639","0.3348318208","0.3312842332","0.04300650393","","","","","","","","","","","","","","72","H","0","img/none_selected.jpg","","69","main_expt",""
"","bandit","149","547360","0.0-111.0-0.0","19884112","wem/bandit_party_1","A3T90ZWPBV0MCI","either","8","608","","","","","","","0","0","1","","0.3889643965","0.2","0.8","0.4","0.6","0.3889643965","0.3844983113","0.2362018798","0.03960880855","","","","","","","","","","","","","","72","H","0","img/none_selected.jpg","","70","main_expt",""
"","bandit","150","549366","0.0-112.0-0.0","19884112","wem/bandit_party_1","A3T90ZWPBV0MCI","either","8","493","","","","","","","0","1","0","","0.3492343966","0.2","0.8","0.4","0.6","0.3492343966","0.3753843975","0.1838323472","0.02401392238","","","","","","","","","","","","","","72","H","0","img/none_selected.jpg","","71","main_expt",""
"","bandit","151","551727","0.0-113.0-0.0","19884112","wem/bandit_party_1","A3T90ZWPBV0MCI","either","8","847","","","","","","","1","0","0","0.3502155883","","0.2","0.8","0.4","0.6","","","","","0.3502155883","0.3861429343","0.1749810972","0.008756159955","","","","","","","","","","72","H","0","img/none_selected.jpg","","72","main_expt",""
"","bandit","152","553782","0.0-114.0-0.0","19884112","wem/bandit_party_1","A3T90ZWPBV0MCI","either","8","544","","","","","","","0","0","1","","0.3568691787","0.2","0.8","0.4","0.6","0.3568691787","0.3978436086","0.1664097112","0.006257651783","","","","","","","","","","","","","","72","H","0","img/none_selected.jpg","","73","main_expt",""
"","bandit","153","555719","0.0-115.0-0.0","19884112","wem/bandit_party_1","A3T90ZWPBV0MCI","either","8","425","","","","","","","0","0","1","","0.3303653739","0.2","0.8","0.4","0.6","0.3303653739","0.3847979518","0.2001176207","0.004732084297","","","","","","","","","","","","","","72","H","0","img/none_selected.jpg","","74","main_expt",""
"","bandit","154","557664","0.0-116.0-0.0","19884112","wem/bandit_party_1","A3T90ZWPBV0MCI","either","8","429","","","","","","","0","1","0","","0.3353283381","0.2","0.8","0.4","0.6","0.3353283381","0.3974319157","0.1848717924","0.006967558871","","","","","","","","","","","","","","72","H","0","img/none_selected.jpg","","75","main_expt",""
"","bandit","155","559806","0.0-117.0-0.0","19884112","wem/bandit_party_1","A3T90ZWPBV0MCI","either","8","631","","","","","","","0","1","0","","0.3009524994","0.2","0.8","0.4","0.6","0.3009524994","0.3987985884","0.1510178238","0.004525860487","","","","","","","","","","","","","","72","H","0","img/none_selected.jpg","","76","main_expt",""
"","bandit","156","561870","0.0-118.0-0.0","19884112","wem/bandit_party_1","A3T90ZWPBV0MCI","either","8","551","","","","","","","0","1","0","","0.3316028908","0.2","0.8","0.4","0.6","0.3316028908","0.4127312768","0.2089633591","0.007245535115","","","","","","","","","","","","","","72","H","0","img/none_selected.jpg","","77","main_expt",""
"","bandit","157","563854","0.0-119.0-0.0","19884112","wem/bandit_party_1","A3T90ZWPBV0MCI","either","8","471","","","","","","","0","0","1","","0.3571024926","0.2","0.8","0.4","0.6","0.3571024926","0.4257675477","0.2285147345","0.00483057751","","","","","","","","","","","","","","72","H","0","img/none_selected.jpg","","78","main_expt",""
"","bandit","158","565798","0.0-120.0-0.0","19884112","wem/bandit_party_1","A3T90ZWPBV0MCI","either","8","436","","","","","","","0","0","1","","0.3542776451","0.2","0.8","0.4","0.6","0.3542776451","0.4331167668","0.2246975601","0.005956317848","","","","","","","","","","","","","","72","H","0","img/none_selected.jpg","","79","main_expt",""
"","bandit","159","567701","0.0-121.0-0.0","19884112","wem/bandit_party_1","A3T90ZWPBV0MCI","either","8","390","","","","","","","1","0","0","0.3201174307","","0.2","0.8","0.4","0.6","","","","","0.3201174307","0.4294395537","0.1878766281","0.0076590047","","","","","","","","","","72","H","0","img/none_selected.jpg","","80","main_expt",""
"","bandit","160","569671","0.0-122.0-0.0","19884112","wem/bandit_party_1","A3T90ZWPBV0MCI","either","8","457","","","","","","","0","1","0","","0.3503003334","0.2","0.8","0.4","0.6","0.3503003334","0.4234249918","0.2436254364","0.009115568074","","","","","","","","","","","","","","72","H","0","img/none_selected.jpg","","81","main_expt",""
"","bandit","161","571186","0.0-123.0-0.0","19884112","wem/bandit_party_1","A3T90ZWPBV0MCI","either","8","1","","","","","","","0","0","1","","0.3509066846","0.2","0.8","0.4","0.6","0.3509066846","0.3956977209","0.2627531714","0.01382977225","","","","","","","","","","","","","","72","H","0","img/none_selected.jpg","","82","main_expt",""
"","bandit","162","574075","0.0-124.0-0.0","19884112","wem/bandit_party_1","A3T90ZWPBV0MCI","either","8","1378","","","","","","","0","1","0","","0.3951868033","0.2","0.8","0.4","0.6","0.3951868033","0.4248650233","0.2672212524","0.01500629599","","","","","","","","","","","","","","72","H","0","img/none_selected.jpg","","83","main_expt",""
"","bandit","163","576128","0.0-125.0-0.0","19884112","wem/bandit_party_1","A3T90ZWPBV0MCI","either","8","543","","","","","","","1","0","0","0.4131477378","","0.2","0.8","0.4","0.6","","","","","0.4131477378","0.4196907627","0.2817484998","0.02310127573","","","","","","","","","","72","H","0","img/none_selected.jpg","","84","main_expt",""
"","bandit","164","578191","0.0-126.0-0.0","19884112","wem/bandit_party_1","A3T90ZWPBV0MCI","either","8","548","","","","","","","0","1","0","","0.3889697292","0.2","0.8","0.4","0.6","0.3889697292","0.435633498","0.3074775227","0.02639065846","","","","","","","","","","","","","","72","H","0","img/none_selected.jpg","","85","main_expt",""
"","bandit","165","580199","0.0-127.0-0.0","19884112","wem/bandit_party_1","A3T90ZWPBV0MCI","either","8","494","","","","","","","1","0","0","0.3885636443","","0.2","0.8","0.4","0.6","","","","","0.3885636443","0.4322222521","0.2717847629","0.01746441632","","","","","","","","","","72","H","0","img/none_selected.jpg","","86","main_expt",""
"","bandit","166","582316","0.0-128.0-0.0","19884112","wem/bandit_party_1","A3T90ZWPBV0MCI","either","8","606","","","","","","","0","1","0","","0.4028282504","0.2","0.8","0.4","0.6","0.4028282504","0.4476119451","0.2183858348","0.01256144444","","","","","","","","","","","","","","72","H","0","img/none_selected.jpg","","87","main_expt",""
"","bandit","167","584228","0.0-129.0-0.0","19884112","wem/bandit_party_1","A3T90ZWPBV0MCI","either","8","403","","","","","","","0","0","1","","0.4306890759","0.2","0.8","0.4","0.6","0.4306890759","0.4073123198","0.2054961256","0.01178158386","","","","","","","","","","","","","","72","H","0","img/none_selected.jpg","","88","main_expt",""
"","bandit","168","586109","0.0-130.0-0.0","19884112","wem/bandit_party_1","A3T90ZWPBV0MCI","either","8","369","","","","","","","1","0","0","0.4103738654","","0.2","0.8","0.4","0.6","","","","","0.4103738654","0.3862301724","0.1452714398","0.008722555822","","","","","","","","","","72","H","0","img/none_selected.jpg","","89","main_expt",""
"","bandit","169","588431","0.0-131.0-0.0","19884112","wem/bandit_party_1","A3T90ZWPBV0MCI","either","8","809","","","","","","","0","1","0","","0.3980827974","0.2","0.8","0.4","0.6","0.3980827974","0.3596745144","0.1077779513","0.008232471735","","","","","","","","","","","","","","72","H","0","img/none_selected.jpg","","90","main_expt",""
"","bandit","170","590509","0.0-132.0-0.0","19884112","wem/bandit_party_1","A3T90ZWPBV0MCI","either","8","566","","","","","","","0","0","1","0.4040531024","","0.2","0.8","0.4","0.6","","","","","0.4040531024","0.3082854458","0.1308407065","0.01249180717","","","","","","","","","","72","H","0","img/none_selected.jpg","","91","main_expt",""
"","bandit","171","592397","0.0-133.0-0.0","19884112","wem/bandit_party_1","A3T90ZWPBV0MCI","either","8","379","","","","","","","0","0","1","","0.3462944796","0.2","0.8","0.4","0.6","0.3462944796","0.312225492","0.1652322036","0.01470986316","","","","","","","","","","","","","","72","H","0","img/none_selected.jpg","","92","main_expt",""
"","bandit","172","594348","0.0-134.0-0.0","19884112","wem/bandit_party_1","A3T90ZWPBV0MCI","either","8","439","","","","","","","0","1","0","","0.3411451966","0.2","0.8","0.4","0.6","0.3411451966","0.3671658277","0.1344678182","0.02655281846","","","","","","","","","","","","","","72","H","0","img/none_selected.jpg","","93","main_expt",""
"","bandit","173","596269","0.0-135.0-0.0","19884112","wem/bandit_party_1","A3T90ZWPBV0MCI","either","8","409","","","","","","","0","0","1","","0.3384154489","0.2","0.8","0.4","0.6","0.3384154489","0.3401731108","0.1301314301","0.02575246025","","","","","","","","","","","","","","72","H","0","img/none_selected.jpg","","94","main_expt",""
"","bandit","174","598165","0.0-136.0-0.0","19884112","wem/bandit_party_1","A3T90ZWPBV0MCI","either","8","384","","","","","","","0","0","1","","0.3126988266","0.2","0.8","0.4","0.6","0.3126988266","0.3413923724","0.1746055711","0.02262355665","","","","","","","","","","","","","","72","H","0","img/none_selected.jpg","","95","main_expt",""
"","bandit","175","599710","0.0-137.0-0.0","19884112","wem/bandit_party_1","A3T90ZWPBV0MCI","either","8","30","","","","","","","0","0","1","","0.3800019137","0.2","0.8","0.4","0.6","0.3800019137","0.3570420485","0.1994244555","0.02047181149","","","","","","","","","","","","","","72","H","0","img/none_selected.jpg","","96","main_expt",""
"","bandit","176","602829","0.0-138.0-0.0","19884112","wem/bandit_party_1","A3T90ZWPBV0MCI","either","8","1606","","","","","","","0","0","1","","0.3328121005","0.2","0.8","0.4","0.6","0.3328121005","0.3435474977","0.1834602947","0.0207754381","","","","","","","","","","","","","","72","H","0","img/none_selected.jpg","","97","main_expt",""
"","bandit","177","604877","0.0-139.0-0.0","19884112","wem/bandit_party_1","A3T90ZWPBV0MCI","either","8","537","","","","","","","0","0","1","","0.02955834597","0.2","0.8","0.4","0.6","0.332228596","0.3614714926","0.1719221531","0.02955834597","","","","","","","","","","","","","","76","L","3","","","98","main_expt",""
"","bandit","178","606925","0.0-140.0-0.0","19884112","wem/bandit_party_1","A3T90ZWPBV0MCI","either","8","535","","","","","","","0","0","1","","0.0383131093","0.2","0.8","0.4","0.6","0.2843854285","0.3176405447","0.1183399241","0.0383131093","","","","","","","","","","","","","","76","L","3","","","99","main_expt",""
"","bandit","179","608901","0.0-141.0-0.0","19884112","wem/bandit_party_1","A3T90ZWPBV0MCI","either","8","464","","","","","","","1","0","0","0.03580757471","","0.2","0.8","0.4","0.6","","","","","0.309751149","0.3586553183","0.1558635017","0.03580757471","","","","","","","","","","76","L","3","","","100","main_expt",""
"","bandit","180","610897","0.0-142.0-0.0","19884112","wem/bandit_party_1","A3T90ZWPBV0MCI","either","8","481","","","","","","","0","0","1","0.04899620691","","0.2","0.8","0.4","0.6","","","","","0.2993195944","0.2951503345","0.1389665978","0.04899620691","","","","","","","","","","76","L","3","","","101","main_expt",""
"","bandit","181","613277","0.0-143.0-0.0","19884112","wem/bandit_party_1","A3T90ZWPBV0MCI","either","8","868","","","","","","","0","0","1","0.1377203561","","0.2","0.8","0.4","0.6","","","","","0.3551890872","0.2998391809","0.1377203561","0.08055650644","","","","","","","","","","75","K","2","","","102","main_expt",""
"","bandit","182","615156","0.0-144.0-0.0","19884112","wem/bandit_party_1","A3T90ZWPBV0MCI","either","8","367","","","","","","","0","0","1","0.1285548106","","0.2","0.8","0.4","0.6","","","","","0.3148404956","0.2791823827","0.1285548106","0.1040447627","","","","","","","","","","75","K","2","","","103","main_expt",""
"","bandit","183","616997","0.0-145.0-0.0","19884112","wem/bandit_party_1","A3T90ZWPBV0MCI","either","8","329","","","","","","","1","0","0","0.1555523735","","0.2","0.8","0.4","0.6","","","","","0.3286912191","0.3382769334","0.1555523735","0.1143547335","","","","","","","","","","75","K","2","","","104","main_expt",""
"","bandit","184","620173","0.0-146.0-0.0","19884112","wem/bandit_party_1","A3T90ZWPBV0MCI","either","8","1662","","","","","","","0","0","1","","0.1775592141","0.2","0.8","0.4","0.6","0.298340497","0.3339697125","0.1775592141","0.1487676438","","","","","","","","","","","","","","75","K","2","","","105","main_expt",""
"","bandit","185","623117","0.0-147.0-0.0","19884112","wem/bandit_party_1","A3T90ZWPBV0MCI","either","8","1428","","","","","","","0","0","1","0.3124129253","","0.2","0.8","0.4","0.6","","","","","0.3504464386","0.3124129253","0.2263451353","0.152088545","","","","","","","","","","74","J","1","","","106","main_expt",""
"","bandit","186","625006","0.0-148.0-0.0","19884112","wem/bandit_party_1","A3T90ZWPBV0MCI","either","8","375","","","","","","","0","0","1","0.3400683723","","0.2","0.8","0.4","0.6","","","","","0.3510410077","0.3400683723","0.1679769802","0.2406734145","","","","","","","","","","74","J","1","","","107","main_expt",""
"","bandit","187","626853","0.0-149.0-0.0","19884112","wem/bandit_party_1","A3T90ZWPBV0MCI","either","8","335","","","","","","","0","0","1","0.3557340834","","0.2","0.8","0.4","0.6","","","","","0.3282766846","0.3557340834","0.1999870147","0.3048040024","","","","","","","","","","74","J","1","","","108","main_expt",""
"","bandit","188","628765","0.0-150.0-0.0","19884112","wem/bandit_party_1","A3T90ZWPBV0MCI","either","8","398","","","","","","","0","0","1","0.3846418901","","0.2","0.8","0.4","0.6","","","","","0.3561186451","0.3846418901","0.208992856","0.3418503096","","","","","","","","","","74","J","1","","","109","main_expt",""
"","bandit","189","631399","0.0-151.0-0.0","19884112","wem/bandit_party_1","A3T90ZWPBV0MCI","either","8","1119","","","","","","","0","0","1","0.3198501315","","0.2","0.8","0.4","0.6","","","","","0.3576445865","0.4057962062","0.1716040471","0.3198501315","","","","","","","","","","76","L","3","","","110","main_expt",""
"","bandit","190","633305","0.0-152.0-0.0","19884112","wem/bandit_party_1","A3T90ZWPBV0MCI","either","8","391","","","","","","","1","0","0","0.3681534847","","0.2","0.8","0.4","0.6","","","","","0.3377543854","0.3692451483","0.08984071331","0.3681534847","","","","","","","","","","76","L","3","","","111","main_expt",""
"","bandit","191","635204","0.0-153.0-0.0","19884112","wem/bandit_party_1","A3T90ZWPBV0MCI","either","8","386","","","","","","","1","0","0","0.3757830796","","0.2","0.8","0.4","0.6","","","","","0.286234052","0.3577317973","0.1243463141","0.3757830796","","","","","","","","","","76","L","3","","","112","main_expt",""
"","bandit","192","637166","0.0-154.0-0.0","19884112","wem/bandit_party_1","A3T90ZWPBV0MCI","either","8","447","","","","","","","0","0","1","0.3838999828","","0.2","0.8","0.4","0.6","","","","","0.1932674395","0.3328808086","0.1433440675","0.3838999828","","","","","","","","","","76","L","3","","","113","main_expt",""
"","bandit","193","639029","0.0-155.0-0.0","19884112","wem/bandit_party_1","A3T90ZWPBV0MCI","either","8","350","","","","","","","0","0","1","0.4157938717","","0.2","0.8","0.4","0.6","","","","","0.2403040534","0.3416979579","0.1510662198","0.4157938717","","","","","","","","","","76","L","3","","","114","main_expt",""
"","bandit","194","640917","0.0-156.0-0.0","19884112","wem/bandit_party_1","A3T90ZWPBV0MCI","either","8","374","","","","","","","0","1","0","","0.4055870595","0.2","0.8","0.4","0.6","0.254937398","0.3377137281","0.09845245139","0.4055870595","","","","","","","","","","","","","","76","L","3","","","115","main_expt",""
"","bandit","195","642876","0.0-157.0-0.0","19884112","wem/bandit_party_1","A3T90ZWPBV0MCI","either","8","447","","","","","","","0","0","1","","0.4161015278","0.2","0.8","0.4","0.6","0.2605063941","0.3039448029","0.107393795","0.4161015278","","","","","","","","","","","","","","76","L","3","","","116","main_expt",""
"","bandit","196","644751","0.0-158.0-0.0","19884112","wem/bandit_party_1","A3T90ZWPBV0MCI","either","8","360","","","","","","","1","0","0","0.414877819","","0.2","0.8","0.4","0.6","","","","","0.2161328783","0.2974336912","0.07879800556","0.414877819","","","","","","","","","","76","L","3","","","117","main_expt",""
"","bandit","197","646652","0.0-159.0-0.0","19884112","wem/bandit_party_1","A3T90ZWPBV0MCI","either","8","388","","","","","","","0","1","0","","0.3968259953","0.2","0.8","0.4","0.6","0.1931197841","0.2651867246","0.08383735875","0.3968259953","","","","","","","","","","","","","","76","L","3","","","118","main_expt",""
"","bandit","198","648773","0.0-160.0-0.0","19884112","wem/bandit_party_1","A3T90ZWPBV0MCI","either","8","607","","","","","","","0","0","1","0.4198241006","","0.2","0.8","0.4","0.6","","","","","0.1638183597","0.3131666206","0.1392474383","0.4198241006","","","","","","","","","","76","L","3","","","119","main_expt",""
"","bandit","199","650749","0.0-161.0-0.0","19884112","wem/bandit_party_1","A3T90ZWPBV0MCI","either","8","462","","","","","","","0","1","0","","0.4286088018","0.2","0.8","0.4","0.6","0.1893282748","0.358829095","0.1649404926","0.4286088018","","","","","","","","","","","","","","76","L","3","","","120","main_expt",""
"","bandit","200","652829","0.0-162.0-0.0","19884112","wem/bandit_party_1","A3T90ZWPBV0MCI","either","8","565","","","","","","","1","0","0","0.4253829576","","0.2","0.8","0.4","0.6","","","","","0.2290368179","0.3189860171","0.1764152442","0.4253829576","","","","","","","","","","76","L","3","","","121","main_expt",""
"","bandit","201","654823","0.0-163.0-0.0","19884112","wem/bandit_party_1","A3T90ZWPBV0MCI","either","8","479","","","","","","","1","0","0","0.4235175979","","0.2","0.8","0.4","0.6","","","","","0.2445441383","0.3011672979","0.2092397698","0.4235175979","","","","","","","","","","76","L","3","","","122","main_expt",""
"","bandit","202","656813","0.0-164.0-0.0","19884112","wem/bandit_party_1","A3T90ZWPBV0MCI","either","8","475","","","","","","","1","0","0","0.4182090072","","0.2","0.8","0.4","0.6","","","","","0.2091075756","0.3037948063","0.1884058447","0.4182090072","","","","","","","","","","76","L","3","","","123","main_expt",""
"","bandit","203","658764","0.0-165.0-0.0","19884112","wem/bandit_party_1","A3T90ZWPBV0MCI","either","8","438","","","","","","","0","1","0","","0.4356016004","0.2","0.8","0.4","0.6","0.2216111921","0.2446200253","0.1876417206","0.4356016004","","","","","","","","","","","","","","76","L","3","","","124","main_expt",""
"","bandit","204","660765","0.0-166.0-0.0","19884112","wem/bandit_party_1","A3T90ZWPBV0MCI","either","8","486","","","","","","","0","0","1","0.403953628","","0.2","0.8","0.4","0.6","","","","","0.1622020501","0.2464628806","0.1890564589","0.403953628","","","","","","","","","","76","L","3","","","125","main_expt",""
"","bandit","205","662742","0.0-167.0-0.0","19884112","wem/bandit_party_1","A3T90ZWPBV0MCI","either","8","462","","","","","","","0","0","1","0.4020675328","","0.2","0.8","0.4","0.6","","","","","0.173533554","0.281169445","0.1659850756","0.4020675328","","","","","","","","","","76","L","3","","","126","main_expt",""
"","bandit","206","664748","0.0-168.0-0.0","19884112","wem/bandit_party_1","A3T90ZWPBV0MCI","either","8","492","","","","","","","0","0","1","0.338443572","","0.2","0.8","0.4","0.6","","","","","0.189829559","0.290080064","0.2006343121","0.338443572","","","","","","","","","","76","L","3","","","127","main_expt",""
"","bandit","207","666822","0.0-169.0-0.0","19884112","wem/bandit_party_1","A3T90ZWPBV0MCI","either","8","562","","","","","","","1","0","0","0.323123489","","0.2","0.8","0.4","0.6","","","","","0.1764696366","0.3280989756","0.2637444583","0.323123489","","","","","","","","","","76","L","3","","","128","main_expt",""
"","bandit","208","668884","0.0-170.0-0.0","19884112","wem/bandit_party_1","A3T90ZWPBV0MCI","either","8","548","","","","","","","1","0","0","0.3615310162","","0.2","0.8","0.4","0.6","","","","","0.172709194","0.3052704822","0.2783394686","0.3615310162","","","","","","","","","","76","L","3","","","129","main_expt",""
"","bandit","209","670860","0.0-171.0-0.0","19884112","wem/bandit_party_1","A3T90ZWPBV0MCI","either","8","463","","","","","","","0","0","1","","0.3667448715","0.2","0.8","0.4","0.6","0.1407460215","0.314718742","0.2674474002","0.3667448715","","","","","","","","","","","","","","76","L","3","","","130","main_expt",""
"","bandit","210","672949","0.0-172.0-0.0","19884112","wem/bandit_party_1","A3T90ZWPBV0MCI","either","8","575","","","","","","","0","0","1","0.341745941","","0.2","0.8","0.4","0.6","","","","","0.143826562","0.2492347367","0.2122920843","0.341745941","","","","","","","","","","76","L","3","","","131","main_expt",""
"","bandit","211","674981","0.0-173.0-0.0","19884112","wem/bandit_party_1","A3T90ZWPBV0MCI","either","8","518","","","","","","","0","0","1","0.2615325727","","0.2","0.8","0.4","0.6","","","","","0.1862992663","0.2495736985","0.1969346152","0.2615325727","","","","","","","","","","76","L","3","","","132","main_expt",""
"","bandit","212","677006","0.0-174.0-0.0","19884112","wem/bandit_party_1","A3T90ZWPBV0MCI","either","8","511","","","","","","","0","0","1","0.27905624","","0.2","0.8","0.4","0.6","","","","","0.185648564","0.2487120015","0.1390835973","0.27905624","","","","","","","","","","76","L","3","","","133","main_expt",""
"","bandit","213","679077","0.0-175.0-0.0","19884112","wem/bandit_party_1","A3T90ZWPBV0MCI","either","8","557","","","","","","","1","0","0","0.2751163123","","0.2","0.8","0.4","0.6","","","","","0.2002276213","0.3239420422","0.1437640715","0.2751163123","","","","","","","","","","76","L","3","","","134","main_expt",""
"","bandit","214","680963","0.0-176.0-0.0","19884112","wem/bandit_party_1","A3T90ZWPBV0MCI","either","8","373","","","","","","","0","0","1","0.2586507773","","0.2","0.8","0.4","0.6","","","","","0.2474552851","0.3903525049","0.1175999949","0.2586507773","","","","","","","","","","76","L","3","","","135","main_expt",""
"","bandit","215","682828","0.0-177.0-0.0","19884112","wem/bandit_party_1","A3T90ZWPBV0MCI","either","8","352","","","","","","","0","0","1","0.2385277364","","0.2","0.8","0.4","0.6","","","","","0.2454982057","0.3703049055","0.1108499649","0.2385277364","","","","","","","","","","76","L","3","","","136","main_expt",""
"","bandit","216","684413","0.0-178.0-0.0","19884112","wem/bandit_party_1","A3T90ZWPBV0MCI","either","8","70","","","","","","","0","0","1","0.1208727618","","0.2","0.8","0.4","0.6","","","","","0.2708690816","0.3657944308","0.1208727618","0.1935782534","","","","","","","","","","75","K","2","","","137","main_expt",""
"","bandit","217","686251","0.0-179.0-0.0","19884112","wem/bandit_party_1","A3T90ZWPBV0MCI","either","8","324","","","","","","","0","0","1","","0.1098805161","0.2","0.8","0.4","0.6","0.2219039101","0.3452946514","0.1098805161","0.14087624","","","","","","","","","","","","","","75","K","2","","","138","main_expt",""
"","bandit","218","688158","0.0-180.0-0.0","19884112","wem/bandit_party_1","A3T90ZWPBV0MCI","either","8","392","","","","","","","0","0","1","","0.1359731218","0.2","0.8","0.4","0.6","0.2485571535","0.3225052804","0.1359731218","0.1340930794","","","","","","","","","","","","","","75","K","2","","","139","main_expt",""
"","bandit","219","690316","0.0-181.0-0.0","19884112","wem/bandit_party_1","A3T90ZWPBV0MCI","either","8","645","","","","","","","1","0","0","0.2997250911","","0.2","0.8","0.4","0.6","","","","","0.2605640439","0.2997250911","0.1419248406","0.1170750994","","","","","","","","","","74","J","1","","","140","main_expt",""
"","bandit","220","692157","0.0-182.0-0.0","19884112","wem/bandit_party_1","A3T90ZWPBV0MCI","either","8","326","","","","","","","1","0","0","0.311933389","","0.2","0.8","0.4","0.6","","","","","0.2260680923","0.311933389","0.1269577117","0.1316830279","","","","","","","","","","74","J","1","","","141","main_expt",""
"","bandit","221","694052","0.0-183.0-0.0","19884112","wem/bandit_party_1","A3T90ZWPBV0MCI","either","8","377","","","","","","","0","0","1","0.3442568425","","0.2","0.8","0.4","0.6","","","","","0.2354846983","0.3442568425","0.1073819056","0.09490366034","","","","","","","","","","74","J","1","","","142","main_expt",""
"","bandit","222","696077","0.0-184.0-0.0","19884112","wem/bandit_party_1","A3T90ZWPBV0MCI","either","8","510","","","","","","","0","0","1","0.3117203045","","0.2","0.8","0.4","0.6","","","","","0.2089358464","0.3117203045","0.1152767294","0.1246024154","","","","","","","","","","74","J","1","","","143","main_expt",""
"","bandit","223","697946","0.0-185.0-0.0","19884112","wem/bandit_party_1","A3T90ZWPBV0MCI","either","8","358","","","","","","","0","0","1","0.3080771123","","0.2","0.8","0.4","0.6","","","","","0.1844607625","0.3080771123","0.1317444946","0.1179874238","","","","","","","","","","74","J","1","","","144","main_expt",""
"","bandit","224","699750","0.0-186.0-0.0","19884112","wem/bandit_party_1","A3T90ZWPBV0MCI","either","8","290","","","","","","","0","0","1","","0.3146876691","0.2","0.8","0.4","0.6","0.1940384654","0.3146876691","0.1058600218","0.1211842963","","","","","","","","","","","","","","74","J","1","","","145","main_expt",""
"","bandit","225","701539","0.0-187.0-0.0","19884112","wem/bandit_party_1","A3T90ZWPBV0MCI","either","8","275","","","","","","","0","0","1","","0.2532022814","0.2","0.8","0.4","0.6","0.2532022814","0.3526806189","0.1862633901","0.06212451067","","","","","","","","","","","","","","72","H","0","img/none_selected.jpg","","146","main_expt",""
"","bandit","226","703372","0.0-188.0-0.0","19884112","wem/bandit_party_1","A3T90ZWPBV0MCI","either","8","319","","","","","","","0","0","1","","0.272856749","0.2","0.8","0.4","0.6","0.272856749","0.3859334927","0.1944793183","0.05826033827","","","","","","","","","","","","","","72","H","0","img/none_selected.jpg","","147","main_expt",""
"","bandit","227","705204","0.0-189.0-0.0","19884112","wem/bandit_party_1","A3T90ZWPBV0MCI","either","8","319","","","","","","","0","0","1","0.2441255329","","0.2","0.8","0.4","0.6","","","","","0.2441255329","0.4089873985","0.1572605535","0.04847575149","","","","","","","","","","72","H","0","img/none_selected.jpg","","148","main_expt",""
"","bandit","228","707084","0.0-190.0-0.0","19884112","wem/bandit_party_1","A3T90ZWPBV0MCI","either","8","365","","","","","","","0","1","0","","0.2304797635","0.2","0.8","0.4","0.6","0.2304797635","0.3317076441","0.1632070519","0.07397138717","","","","","","","","","","","","","","72","H","0","img/none_selected.jpg","","149","main_expt",""
"","bandit","229","709347","0.0-191.0-0.0","19884112","wem/bandit_party_1","A3T90ZWPBV0MCI","either","8","750","","","","","","","0","0","1","","0.2645424191","0.2","0.8","0.4","0.6","0.2645424191","0.2514439341","0.2162169298","0.1178437277","","","","","","","","","","","","","","72","H","0","img/none_selected.jpg","","150","main_expt",""
"","bandit","230","711358","0.0-192.0-0.0","19884112","wem/bandit_party_1","A3T90ZWPBV0MCI","either","8","500","","","","","","","0","0","1","","0.2919476008","0.2","0.8","0.4","0.6","0.2919476008","0.2209696772","0.2806681102","0.1116740648","","","","","","","","","","","","","","72","H","0","img/none_selected.jpg","","151","main_expt",""
"","bandit","231","713260","0.0-193.0-0.0","19884112","wem/bandit_party_1","A3T90ZWPBV0MCI","either","8","388","","","","","","","0","0","1","","0.3004198658","0.2","0.8","0.4","0.6","0.3004198658","0.2004300668","0.25223767","0.09681320826","","","","","","","","","","","","","","72","H","0","img/none_selected.jpg","","152","main_expt",""
"","bandit","232","715194","0.0-194.0-0.0","19884112","wem/bandit_party_1","A3T90ZWPBV0MCI","either","8","421","","","","","","","0","0","1","","0.2910243242","0.2","0.8","0.4","0.6","0.2910243242","0.1803159607","0.2259503681","0.1162344283","","","","","","","","","","","","","","72","H","0","img/none_selected.jpg","","153","main_expt",""
"","bandit","233","717396","0.0-195.0-0.0","19884112","wem/bandit_party_1","A3T90ZWPBV0MCI","either","8","688","","","","","","","1","0","0","0.1793353988","","0.2","0.8","0.4","0.6","","","","","0.2858680692","0.1793353988","0.2520515582","0.1441765144","","","","","","","","","","74","J","1","","","154","main_expt",""
"","bandit","234","719301","0.0-196.0-0.0","19884112","wem/bandit_party_1","A3T90ZWPBV0MCI","either","8","391","","","","","","","0","0","1","0.175125938","","0.2","0.8","0.4","0.6","","","","","0.276906037","0.175125938","0.246895917","0.1506434262","","","","","","","","","","74","J","1","","","155","main_expt",""
"","bandit","235","721109","0.0-197.0-0.0","19884112","wem/bandit_party_1","A3T90ZWPBV0MCI","either","8","293","","","","","","","0","0","1","0.19004546","","0.2","0.8","0.4","0.6","","","","","0.3087514371","0.19004546","0.2067462234","0.1691825384","","","","","","","","","","74","J","1","","","156","main_expt",""
"","bandit","236","722942","0.0-198.0-0.0","19884112","wem/bandit_party_1","A3T90ZWPBV0MCI","either","8","318","","","","","","","0","1","0","","0.1538528063","0.2","0.8","0.4","0.6","0.3400763937","0.1538528063","0.1736677602","0.1465267651","","","","","","","","","","","","","","74","J","1","","","157","main_expt",""
"","bandit","237","725076","0.0-199.0-0.0","19884112","wem/bandit_party_1","A3T90ZWPBV0MCI","either","8","619","","","","","","","0","0","1","0.1624419901","","0.2","0.8","0.4","0.6","","","","","0.3388441277","0.1624419901","0.2437422656","0.1517260174","","","","","","","","","","74","J","1","","","158","main_expt",""
"","bandit","238","727092","0.0-200.0-0.0","19884112","wem/bandit_party_1","A3T90ZWPBV0MCI","either","8","502","","","","","","","0","0","1","0.1749682205","","0.2","0.8","0.4","0.6","","","","","0.3496437485","0.1749682205","0.2627628197","0.143579764","","","","","","","","","","74","J","1","","","159","main_expt",""
"","bandit","239","729076","0.0-201.0-0.0","19884112","wem/bandit_party_1","A3T90ZWPBV0MCI","either","8","470","","","","","","","0","0","1","0.2227833177","","0.2","0.8","0.4","0.6","","","","","0.3347491532","0.2227833177","0.2532756584","0.1701049762","","","","","","","","","","74","J","1","","","160","main_expt",""
"","bandit","240","730667","0.0-202.0-0.0","19884112","wem/bandit_party_1","A3T90ZWPBV0MCI","either","8","79","","","","","","","0","0","1","","0.1596038406","0.2","0.8","0.4","0.6","0.3036625801","0.1616195486","0.2846030245","0.1596038406","","","","","","","","","","","","","","76","L","3","","","161","main_expt",""
"","bandit","241","732460","0.0-203.0-0.0","19884112","wem/bandit_party_1","A3T90ZWPBV0MCI","either","8","278","","","","","","","0","0","1","0.1186271452","","0.2","0.8","0.4","0.6","","","","","0.2735804545","0.1440802068","0.2480450928","0.1186271452","","","","","","","","","","76","L","3","","","162","main_expt",""
"","bandit","242","734374","0.0-204.0-0.0","19884112","wem/bandit_party_1","A3T90ZWPBV0MCI","either","8","403","","","","","","","0","0","1","","0.1460830151","0.2","0.8","0.4","0.6","0.2219233964","0.1349250059","0.3217860246","0.1460830151","","","","","","","","","","","","","","76","L","3","","","163","main_expt",""
"","bandit","243","736204","0.0-205.0-0.0","19884112","wem/bandit_party_1","A3T90ZWPBV0MCI","either","8","315","","","","","","","0","0","1","","0.1924179555","0.2","0.8","0.4","0.6","0.2489701673","0.1482528248","0.3528623486","0.1924179555","","","","","","","","","","","","","","76","L","3","","","164","main_expt",""
"","bandit","244","738241","0.0-206.0-0.0","19884112","wem/bandit_party_1","A3T90ZWPBV0MCI","either","8","523","","","","","","","0","0","1","","0.3113737792","0.2","0.8","0.4","0.6","0.2424219606","0.1444116863","0.3113737792","0.1909643941","","","","","","","","","","","","","","75","K","2","","","165","main_expt",""
"","bandit","245","740036","0.0-207.0-0.0","19884112","wem/bandit_party_1","A3T90ZWPBV0MCI","either","8","281","","","","","","","0","0","1","0.2820045276","","0.2","0.8","0.4","0.6","","","","","0.1899742571","0.1621449425","0.2820045276","0.1917506842","","","","","","","","","","75","K","2","","","166","main_expt",""
"","bandit","246","741723","0.0-208.0-0.0","19884112","wem/bandit_party_1","A3T90ZWPBV0MCI","either","8","171","","","","","","","0","0","1","","0.2539690707","0.2","0.8","0.4","0.6","0.2298880826","0.1695256229","0.2539690707","0.2238056512","","","","","","","","","","","","","","75","K","2","","","167","main_expt",""
"","bandit","247","743636","0.0-209.0-0.0","19884112","wem/bandit_party_1","A3T90ZWPBV0MCI","either","8","396","","","","","","","0","0","1","","0.2177565821","0.2","0.8","0.4","0.6","0.241220494","0.1712445676","0.2177565821","0.2132240521","","","","","","","","","","","","","","75","K","2","","","168","main_expt",""
"","bandit","248","745859","0.0-210.0-0.0","19884112","wem/bandit_party_1","A3T90ZWPBV0MCI","either","8","709","","","","","","","0","0","1","","0.191079104","0.2","0.8","0.4","0.6","0.2113351254","0.191079104","0.183214586","0.1363713625","","","","","","","","","","","","","","74","J","1","","","169","main_expt",""
"","bandit","249","748044","0.0-211.0-0.0","19884112","wem/bandit_party_1","A3T90ZWPBV0MCI","either","8","670","","","","","","","0","0","1","","0.2224744884","0.2","0.8","0.4","0.6","0.2224744884","0.2227666825","0.1757282231","0.2007690262","","","","","","","","","","","","","","72","H","0","img/none_selected.jpg","","170","main_expt",""
"","bandit","250","750164","0.0-212.0-0.0","19884112","wem/bandit_party_1","A3T90ZWPBV0MCI","either","8","607","","","","","","","0","0","1","0.262177911","","0.2","0.8","0.4","0.6","","","","","0.262177911","0.2719914804","0.1679331046","0.1238998316","","","","","","","","","","72","H","0","img/none_selected.jpg","","171","main_expt",""
"","bandit","251","752086","0.0-213.0-0.0","19884112","wem/bandit_party_1","A3T90ZWPBV0MCI","either","8","404","","","","","","","0","0","1","","0.2822992514","0.2","0.8","0.4","0.6","0.2822992514","0.2330128459","0.14560319","0.09746419185","","","","","","","","","","","","","","72","H","0","img/none_selected.jpg","","172","main_expt",""
"","bandit","252","754204","0.0-214.0-0.0","19884112","wem/bandit_party_1","A3T90ZWPBV0MCI","either","8","602","","","","","","","0","0","1","","0.2840251313","0.2","0.8","0.4","0.6","0.2545762091","0.2840251313","0.1341549344","0.1018164217","","","","","","","","","","","","","","74","J","1","","","173","main_expt",""
"","bandit","253","756078","0.0-215.0-0.0","19884112","wem/bandit_party_1","A3T90ZWPBV0MCI","either","8","358","","","","","","","0","0","1","0.2739042306","","0.2","0.8","0.4","0.6","","","","","0.2838184637","0.2739042306","0.1471305278","0.1401689619","","","","","","","","","","74","J","1","","","174","main_expt",""
"","bandit","254","757899","0.0-216.0-0.0","19884112","wem/bandit_party_1","A3T90ZWPBV0MCI","either","8","306","","","","","","","0","0","1","0.3444735506","","0.2","0.8","0.4","0.6","","","","","0.3002790513","0.3444735506","0.173963405","0.1697524679","","","","","","","","","","74","J","1","","","175","main_expt",""
"","bandit","255","759723","0.0-217.0-0.0","19884112","wem/bandit_party_1","A3T90ZWPBV0MCI","either","8","309","","","","","","","0","1","0","","0.3223017316","0.2","0.8","0.4","0.6","0.3771690292","0.3223017316","0.1821857965","0.1896898672","","","","","","","","","","","","","","74","J","1","","","176","main_expt",""
"","bandit","256","762244","0.0-218.0-0.0","19884112","wem/bandit_party_1","A3T90ZWPBV0MCI","either","8","1004","","","","","","","1","0","0","0.2964924158","","0.2","0.8","0.4","0.6","","","","","0.4047809956","0.2964924158","0.1444884472","0.2441254625","","","","","","","","","","74","J","1","","","177","main_expt",""
"","bandit","257","764244","0.0-219.0-0.0","19884112","wem/bandit_party_1","A3T90ZWPBV0MCI","either","8","483","","","","","","","0","0","1","0.2780576925","","0.2","0.8","0.4","0.6","","","","","0.4344960837","0.2780576925","0.1207783293","0.2427722412","","","","","","","","","","74","J","1","","","178","main_expt",""
"","bandit","258","766213","0.0-220.0-0.0","19884112","wem/bandit_party_1","A3T90ZWPBV0MCI","either","8","457","","","","","","","0","0","1","","0.2859751729","0.2","0.8","0.4","0.6","0.4287912686","0.2859751729","0.111585665","0.2284650367","","","","","","","","","","","","","","74","J","1","","","179","main_expt",""
"","bandit","259","768207","0.0-221.0-0.0","19884112","wem/bandit_party_1","A3T90ZWPBV0MCI","either","8","475","","","","","","","1","0","0","0.283533164","","0.2","0.8","0.4","0.6","","","","","0.4294180747","0.283533164","0.06891525065","0.2694081366","","","","","","","","","","74","J","1","","","180","main_expt",""
"","bandit","260","770211","0.0-222.0-0.0","19884112","wem/bandit_party_1","A3T90ZWPBV0MCI","either","8","480","","","","","","","0","0","1","0.2430023428","","0.2","0.8","0.4","0.6","","","","","0.3887332701","0.2430023428","0.07407739619","0.2471628034","","","","","","","","","","74","J","1","","","181","main_expt",""
"","bandit","261","772202","0.0-223.0-0.0","19884112","wem/bandit_party_1","A3T90ZWPBV0MCI","either","8","476","","","","","","","0","0","1","0.223254837","","0.2","0.8","0.4","0.6","","","","","0.3910635387","0.223254837","0.07501704201","0.275372354","","","","","","","","","","74","J","1","","","182","main_expt",""
"","bandit","262","774179","0.0-224.0-0.0","19884112","wem/bandit_party_1","A3T90ZWPBV0MCI","either","8","464","","","","","","","0","0","1","","0.2274286797","0.2","0.8","0.4","0.6","0.3957792538","0.2274286797","0.09354103142","0.2378950907","","","","","","","","","","","","","","74","J","1","","","183","main_expt",""
"","bandit","263","776171","0.0-225.0-0.0","19884112","wem/bandit_party_1","A3T90ZWPBV0MCI","either","8","480","","","","","","","0","0","1","","0.2485964068","0.2","0.8","0.4","0.6","0.3777829694","0.2485964068","0.06673830493","0.2611999536","","","","","","","","","","","","","","74","J","1","","","184","main_expt",""
"","bandit","264","778053","0.0-226.0-0.0","19884112","wem/bandit_party_1","A3T90ZWPBV0MCI","either","8","371","","","","","","","0","1","0","","0.2080173303","0.2","0.8","0.4","0.6","0.4130939835","0.2080173303","0.08617836821","0.2799245071","","","","","","","","","","","","","","74","J","1","","","185","main_expt",""
"","bandit","265","780010","0.0-227.0-0.0","19884112","wem/bandit_party_1","A3T90ZWPBV0MCI","either","8","445","","","","","","","0","0","1","0.2538883687","","0.2","0.8","0.4","0.6","","","","","0.376930599","0.2538883687","0.05054014018","0.2275386122","","","","","","","","","","74","J","1","","","186","main_expt",""
"","bandit","266","781891","0.0-228.0-0.0","19884112","wem/bandit_party_1","A3T90ZWPBV0MCI","either","8","365","","","","","","","0","0","1","0.2267652077","","0.2","0.8","0.4","0.6","","","","","0.3934592684","0.2267652077","0.1101456656","0.2558518805","","","","","","","","","","74","J","1","","","187","main_expt",""
"","bandit","267","783828","0.0-229.0-0.0","19884112","wem/bandit_party_1","A3T90ZWPBV0MCI","either","8","420","","","","","","","0","0","1","0.2583789709","","0.2","0.8","0.4","0.6","","","","","0.4086060551","0.2583789709","0.1076418148","0.2757393749","","","","","","","","","","74","J","1","","","188","main_expt",""
"","bandit","268","785779","0.0-230.0-0.0","19884112","wem/bandit_party_1","A3T90ZWPBV0MCI","either","8","434","","","","","","","0","0","1","0.2329768584","","0.2","0.8","0.4","0.6","","","","","0.447145564","0.2329768584","0.1230456027","0.3326758055","","","","","","","","","","74","J","1","","","189","main_expt",""
"","bandit","269","787721","0.0-231.0-0.0","19884112","wem/bandit_party_1","A3T90ZWPBV0MCI","either","8","427","","","","","","","0","0","1","0.2002510669","","0.2","0.8","0.4","0.6","","","","","0.386091063","0.2002510669","0.1872873117","0.332927569","","","","","","","","","","74","J","1","","","190","main_expt",""
"","bandit","270","789686","0.0-232.0-0.0","19884112","wem/bandit_party_1","A3T90ZWPBV0MCI","either","8","448","","","","","","","0","1","0","","0.2182600554","0.2","0.8","0.4","0.6","0.4221145333","0.2182600554","0.1413073252","0.3859199101","","","","","","","","","","","","","","74","J","1","","","191","main_expt",""
"","bandit","271","791723","0.0-233.0-0.0","19884112","wem/bandit_party_1","A3T90ZWPBV0MCI","either","8","521","","","","","","","1","0","0","0.2681613901","","0.2","0.8","0.4","0.6","","","","","0.3913199708","0.2681613901","0.1868627967","0.392668484","","","","","","","","","","74","J","1","","","192","main_expt",""
"","bandit","272","793786","0.0-234.0-0.0","19884112","wem/bandit_party_1","A3T90ZWPBV0MCI","either","8","548","","","","","","","0","0","1","0.3035027483","","0.2","0.8","0.4","0.6","","","","","0.4013624592","0.3035027483","0.2312719224","0.3789843676","","","","","","","","","","74","J","1","","","193","main_expt",""
"","bandit","273","795891","0.0-235.0-0.0","19884112","wem/bandit_party_1","A3T90ZWPBV0MCI","either","8","588","","","","","","","1","0","0","0.275531754","","0.2","0.8","0.4","0.6","","","","","0.3668237699","0.275531754","0.2585201677","0.3689216281","","","","","","","","","","74","J","1","","","194","main_expt",""
"","bandit","274","799314","0.0-236.0-0.0","19884112","wem/bandit_party_1","A3T90ZWPBV0MCI","either","8","1908","","","","","","","1","0","0","0.2716401532","","0.2","0.8","0.4","0.6","","","","","0.3856266791","0.2716401532","0.2786104129","0.4136905162","","","","","","","","","","74","J","1","","","195","main_expt",""
"","bandit","275","802596","0.0-237.0-0.0","19884112","wem/bandit_party_1","A3T90ZWPBV0MCI","either","8","1764","","","","","","","0","0","1","","0.2814611543","0.2","0.8","0.4","0.6","0.3702439493","0.2814611543","0.2407834285","0.4258575101","","","","","","","","","","","","","","74","J","1","","","196","main_expt",""
"","bandit","276","804690","0.0-238.0-0.0","19884112","wem/bandit_party_1","A3T90ZWPBV0MCI","either","8","578","","","","","","","0","0","1","","0.2588010394","0.2","0.8","0.4","0.6","0.3665926528","0.2588010394","0.2550568011","0.3976178043","","","","","","","","","","","","","","74","J","1","","","197","main_expt",""
"","bandit","277","806605","0.0-239.0-0.0","19884112","wem/bandit_party_1","A3T90ZWPBV0MCI","either","8","395","","","","","","","0","0","1","0.3094610495","","0.2","0.8","0.4","0.6","","","","","0.3432124584","0.3094610495","0.3094863904","0.3802378075","","","","","","","","","","74","J","1","","","198","main_expt",""
"","bandit","278","808570","0.0-240.0-0.0","19884112","wem/bandit_party_1","A3T90ZWPBV0MCI","either","8","450","","","","","","","0","0","1","0.3139278769","","0.2","0.8","0.4","0.6","","","","","0.4096574544","0.3139278769","0.3012985694","0.3926800246","","","","","","","","","","74","J","1","","","199","main_expt",""
"","bandit","279","810607","0.0-241.0-0.0","19884112","wem/bandit_party_1","A3T90ZWPBV0MCI","either","8","518","","","","","","","0","1","0","","0.3459706187","0.2","0.8","0.4","0.6","0.3799023259","0.3459706187","0.3149132519","0.3814844917","","","","","","","","","","","","","","74","J","1","","","200","main_expt",""
"","bandit","280","812619","0.0-242.0-0.0","19884112","wem/bandit_party_1","A3T90ZWPBV0MCI","either","8","495","","","","","","","0","0","1","0.3038365479","","0.2","0.8","0.4","0.6","","","","","0.3513783521","0.3038365479","0.3236307962","0.3831630738","","","","","","","","","","74","J","1","","","201","main_expt",""
"","bandit","281","814490","0.0-243.0-0.0","19884112","wem/bandit_party_1","A3T90ZWPBV0MCI","either","8","354","","","","","","","0","0","1","0.2964599608","","0.2","0.8","0.4","0.6","","","","","0.3439351057","0.2964599608","0.3163717903","0.3957430938","","","","","","","","","","74","J","1","","","202","main_expt",""
"","bandit","282","816418","0.0-244.0-0.0","19884112","wem/bandit_party_1","A3T90ZWPBV0MCI","either","8","415","","","","","","","0","0","1","0.280336616","","0.2","0.8","0.4","0.6","","","","","0.2615327891","0.280336616","0.3165936227","0.4175506619","","","","","","","","","","74","J","1","","","203","main_expt",""
"","bandit","283","818378","0.0-245.0-0.0","19884112","wem/bandit_party_1","A3T90ZWPBV0MCI","either","8","444","","","","","","","0","0","1","","0.262900641","0.2","0.8","0.4","0.6","0.2211517471","0.262900641","0.3166231072","0.4356800279","","","","","","","","","","","","","","74","J","1","","","204","main_expt",""
"","bandit","284","820685","0.0-246.0-0.0","19884112","wem/bandit_party_1","A3T90ZWPBV0MCI","either","8","795","","","","","","","1","0","0","0.2983153058","","0.2","0.8","0.4","0.6","","","","","0.1955747294","0.3403150927","0.2983153058","0.4342993254","","","","","","","","","","75","K","2","","","205","main_expt",""
"","bandit","285","822572","0.0-247.0-0.0","19884112","wem/bandit_party_1","A3T90ZWPBV0MCI","either","8","369","","","","","","","0","0","1","","0.255573156","0.2","0.8","0.4","0.6","0.3137251184","0.3407188883","0.255573156","0.4515967499","","","","","","","","","","","","","","75","K","2","","","206","main_expt",""
"","bandit","286","825635","0.0-248.0-0.0","19884112","wem/bandit_party_1","A3T90ZWPBV0MCI","either","8","1546","","","","","","","0","0","1","","0.2816724171","0.2","0.8","0.4","0.6","0.2982459604","0.2955601217","0.2816724171","0.4559700358","","","","","","","","","","","","","","75","K","2","","","207","main_expt",""
"","bandit","287","827523","0.0-249.0-0.0","19884112","wem/bandit_party_1","A3T90ZWPBV0MCI","either","8","371","","","","","","","0","0","1","","0.2462622089","0.2","0.8","0.4","0.6","0.2359404152","0.2832193826","0.2462622089","0.4711787588","","","","","","","","","","","","","","75","K","2","","","208","main_expt",""
"","bandit","288","829450","0.0-250.0-0.0","19884112","wem/bandit_party_1","A3T90ZWPBV0MCI","either","8","410","","","","","","","0","0","1","0.2608633631","","0.2","0.8","0.4","0.6","","","","","0.2396635106","0.25637755","0.2608633631","0.4859779177","","","","","","","","","","75","K","2","","","209","main_expt",""
"","bandit","289","831668","0.0-251.0-0.0","19884112","wem/bandit_party_1","A3T90ZWPBV0MCI","either","8","703","","","","","","","1","0","0","0.4798195452","","0.2","0.8","0.4","0.6","","","","","0.2320506775","0.2500912527","0.2649708152","0.4798195452","","","","","","","","","","76","L","3","","","210","main_expt",""
"","bandit","290","833618","0.0-252.0-0.0","19884112","wem/bandit_party_1","A3T90ZWPBV0MCI","either","8","434","","","","","","","1","0","0","0.4754072522","","0.2","0.8","0.4","0.6","","","","","0.1894847828","0.2481129288","0.2658594566","0.4754072522","","","","","","","","","","76","L","3","","","211","main_expt",""
"","bandit","291","835530","0.0-253.0-0.0","19884112","wem/bandit_party_1","A3T90ZWPBV0MCI","either","8","396","","","","","","","0","0","1","0.4780703898","","0.2","0.8","0.4","0.6","","","","","0.2330804604","0.3192168596","0.2648449814","0.4780703898","","","","","","","","","","76","L","3","","","212","main_expt",""
"","bandit","292","837450","0.0-254.0-0.0","19884112","wem/bandit_party_1","A3T90ZWPBV0MCI","either","8","403","","","","","","","0","0","1","","0.4883488692","0.2","0.8","0.4","0.6","0.2484053244","0.2361953268","0.286492297","0.4883488692","","","","","","","","","","","","","","76","L","3","","","213","main_expt",""
"","bandit","293","839331","0.0-255.0-0.0","19884112","wem/bandit_party_1","A3T90ZWPBV0MCI","either","8","365","","","","","","","1","0","0","0.4872562331","","0.2","0.8","0.4","0.6","","","","","0.2182548364","0.2308921763","0.2540339129","0.4872562331","","","","","","","","","","76","L","3","","","214","main_expt",""
"","bandit","294","841299","0.0-256.0-0.0","19884112","wem/bandit_party_1","A3T90ZWPBV0MCI","either","8","450","","","","","","","1","0","0","0.4749609167","","0.2","0.8","0.4","0.6","","","","","0.1824073789","0.2161033537","0.254651127","0.4749609167","","","","","","","","","","76","L","3","","","215","main_expt",""
"","bandit","295","843228","0.0-257.0-0.0","19884112","wem/bandit_party_1","A3T90ZWPBV0MCI","either","8","412","","","","","","","0","0","1","","0.4798413464","0.2","0.8","0.4","0.6","0.1923730387","0.1896756427","0.3140517816","0.4798413464","","","","","","","","","","","","","","76","L","3","","","216","main_expt",""
"","bandit","296","845226","0.0-258.0-0.0","19884112","wem/bandit_party_1","A3T90ZWPBV0MCI","either","8","486","","","","","","","0","0","1","0.4865144435","","0.2","0.8","0.4","0.6","","","","","0.2266612446","0.1724286307","0.3338676317","0.4865144435","","","","","","","","","","76","L","3","","","217","main_expt",""
"","bandit","297","847194","0.0-259.0-0.0","19884112","wem/bandit_party_1","A3T90ZWPBV0MCI","either","8","451","","","","","","","0","1","0","","0.4789145001","0.2","0.8","0.4","0.6","0.1702705737","0.161168334","0.3397001125","0.4789145001","","","","","","","","","","","","","","76","L","3","","","218","main_expt",""
"","bandit","298","849130","0.0-260.0-0.0","19884112","wem/bandit_party_1","A3T90ZWPBV0MCI","either","8","419","","","","","","","1","0","0","0.4834748692","","0.2","0.8","0.4","0.6","","","","","0.1159766116","0.2021763003","0.2982528089","0.4834748692","","","","","","","","","","76","L","3","","","219","main_expt",""
"","bandit","299","851019","0.0-261.0-0.0","19884112","wem/bandit_party_1","A3T90ZWPBV0MCI","either","8","375","","","","","","","0","1","0","","0.4722371777","0.2","0.8","0.4","0.6","0.09529473055","0.2142164272","0.2770934022","0.4722371777","","","","","","","","","","","","","","76","L","3","","","220","main_expt",""
"","bandit","300","852995","0.0-262.0-0.0","19884112","wem/bandit_party_1","A3T90ZWPBV0MCI","either","8","458","","","","","","","0","1","0","","0.4654689219","0.2","0.8","0.4","0.6","0.09060922323","0.189068297","0.2696770889","0.4654689219","","","","","","","","","","","","","","76","L","3","","","221","main_expt",""
"","bandit","301","855052","0.0-263.0-0.0","19884112","wem/bandit_party_1","A3T90ZWPBV0MCI","either","8","540","","","","","","","1","0","0","0.4533789701","","0.2","0.8","0.4","0.6","","","","","0.1250772464","0.2120997892","0.3103502417","0.4533789701","","","","","","","","","","76","L","3","","","222","main_expt",""
"","bandit","302","857042","0.0-264.0-0.0","19884112","wem/bandit_party_1","A3T90ZWPBV0MCI","either","8","473","","","","","","","0","0","1","","0.4473019993","0.2","0.8","0.4","0.6","0.1177235221","0.1937664477","0.3477728299","0.4473019993","","","","","","","","","","","","","","76","L","3","","","223","main_expt",""
"","bandit","303","859032","0.0-265.0-0.0","19884112","wem/bandit_party_1","A3T90ZWPBV0MCI","either","8","475","","","","","","","0","0","1","","0.4651086175","0.2","0.8","0.4","0.6","0.1589673504","0.2195846313","0.3230244909","0.4651086175","","","","","","","","","","","","","","76","L","3","","","224","main_expt",""
"","bandit","304","861003","0.0-266.0-0.0","19884112","wem/bandit_party_1","A3T90ZWPBV0MCI","either","8","457","","","","","","","1","0","0","0.4704934375","","0.2","0.8","0.4","0.6","","","","","0.1582937281","0.1973587738","0.3641913847","0.4704934375","","","","","","","","","","76","L","3","","","225","main_expt",""
"","bandit","305","862906","0.0-267.0-0.0","19884112","wem/bandit_party_1","A3T90ZWPBV0MCI","either","8","386","","","","","","","0","0","1","","0.4545632724","0.2","0.8","0.4","0.6","0.1585786296","0.2029059012","0.3211822138","0.4545632724","","","","","","","","","","","","","","76","L","3","","","226","main_expt",""
"","bandit","306","864794","0.0-268.0-0.0","19884112","wem/bandit_party_1","A3T90ZWPBV0MCI","either","8","371","","","","","","","1","0","0","0.4313330006","","0.2","0.8","0.4","0.6","","","","","0.1614007709","0.1677618241","0.3318596792","0.4313330006","","","","","","","","","","76","L","3","","","227","main_expt",""
"","bandit","307","866783","0.0-269.0-0.0","19884112","wem/bandit_party_1","A3T90ZWPBV0MCI","either","8","477","","","","","","","0","0","1","","0.4253897179","0.2","0.8","0.4","0.6","0.1160982884","0.2079318551","0.3715738924","0.4253897179","","","","","","","","","","","","","","76","L","3","","","228","main_expt",""
"","bandit","308","868729","0.0-270.0-0.0","19884112","wem/bandit_party_1","A3T90ZWPBV0MCI","either","8","430","","","","","","","0","0","1","0.4416009531","","0.2","0.8","0.4","0.6","","","","","0.1327168588","0.1860779256","0.3571583743","0.4416009531","","","","","","","","","","76","L","3","","","229","main_expt",""
"","bandit","309","870633","0.0-271.0-0.0","19884112","wem/bandit_party_1","A3T90ZWPBV0MCI","either","8","388","","","","","","","0","1","0","","0.4612445757","0.2","0.8","0.4","0.6","0.1751239199","0.1294985144","0.3455313741","0.4612445757","","","","","","","","","","","","","","76","L","3","","","230","main_expt",""
"","bandit","310","872876","0.0-272.0-0.0","19884112","wem/bandit_party_1","A3T90ZWPBV0MCI","either","8","724","","","","","","","1","0","0","0.4455927364","","0.2","0.8","0.4","0.6","","","","","0.2080149414","0.1424139305","0.3114256563","0.4455927364","","","","","","","","","","76","L","3","","","231","main_expt",""
"","bandit","311","874732","0.0-273.0-0.0","19884112","wem/bandit_party_1","A3T90ZWPBV0MCI","either","8","337","","","","","","","0","0","1","","0.4449483857","0.2","0.8","0.4","0.6","0.2305008548","0.1777617008","0.3127001645","0.4449483857","","","","","","","","","","","","","","76","L","3","","","232","main_expt",""
"","bandit","312","876602","0.0-274.0-0.0","19884112","wem/bandit_party_1","A3T90ZWPBV0MCI","either","8","351","","","","","","","0","0","1","0.4570404202","","0.2","0.8","0.4","0.6","","","","","0.2331895239","0.1408291819","0.2953609795","0.4570404202","","","","","","","","","","76","L","3","","","233","main_expt",""
"","bandit","313","878483","0.0-275.0-0.0","19884112","wem/bandit_party_1","A3T90ZWPBV0MCI","either","8","365","","","","","","","1","0","0","0.4785018613","","0.2","0.8","0.4","0.6","","","","","0.2007149185","0.09563300426","0.2743769666","0.4785018613","","","","","","","","","","76","L","3","","","234","main_expt",""
"","bandit","314","880386","0.0-276.0-0.0","19884112","wem/bandit_party_1","A3T90ZWPBV0MCI","either","8","386","","","","","","","0","0","1","0.4708517218","","0.2","0.8","0.4","0.6","","","","","0.1428876463","0.06508254785","0.2842570603","0.4708517218","","","","","","","","","","76","L","3","","","235","main_expt",""
"","bandit","315","882244","0.0-277.0-0.0","19884112","wem/bandit_party_1","A3T90ZWPBV0MCI","either","8","345","","","","","","","0","0","1","","0.4721911582","0.2","0.8","0.4","0.6","0.1327756685","0.05272484418","0.3536106974","0.4721911582","","","","","","","","","","","","","","76","L","3","","","236","main_expt",""
"","bandit","316","884169","0.0-278.0-0.0","19884112","wem/bandit_party_1","A3T90ZWPBV0MCI","either","8","409","","","","","","","1","0","0","0.4567984566","","0.2","0.8","0.4","0.6","","","","","0.1969646424","0.05000735717","0.3777879982","0.4567984566","","","","","","","","","","76","L","3","","","237","main_expt",""
