"consent","trial_type","trial_index","time_elapsed","internal_node_id","subjID","study","MID","cond","drift","rt","responses","button_pressed","key_press","like","value","connected","gems","bombs","no_reward","GemPrChosen","BombPrChosen","GainOverPainPr_0","GainOverPainPr_1","GainOverPainPr_2","GainOverPainPr_3","LosePr_0","LosePr_1","LosePr_2","LosePr_3","WinPr_0","WinPr_1","WinPr_2","WinPr_3","Q0","Q1","Q2","gender","age","ethnicity","label","expt_phase","target","respCharCode","respKey","respChoiceNum","respChoice","practice","trial_counter","trial_label","Q0_index"
"GDM/GDM_behavioral_consent_30min_online.html","consent","0","15389","0.0-0.0","20612691","wem/bandit_party_1","A3U2UNSYDPS933","either","4","","","","","","","","","","","","","","","","","","","","","","","","","","","","","","","","","","","","","","","","",""
"","survey-text","1","23463","0.0-1.0","20612691","wem/bandit_party_1","A3U2UNSYDPS933","either","4","7060","{""Q0"":""A3U2UNSYDPS933""}","","","","","","","","","","","","","","","","","","","","","","","","","","","","","","","","","","","","","","",""
"","button-response","2","30659","0.0-2.0","20612691","wem/bandit_party_1","A3U2UNSYDPS933","either","4","6184","","0","","","","","","","","","","","","","","","","","","","","","","","","","","","","","","","","","","","","","",""
"","text-replacement","3","46288","0.0-3.0","20612691","wem/bandit_party_1","A3U2UNSYDPS933","either","4","14623","","","32","","","","","","","","","","","","","","","","","","","","","","","","","","","","","","","","","","","","",""
"","text-replacement","4","55404","0.0-4.0","20612691","wem/bandit_party_1","A3U2UNSYDPS933","either","4","9114","","","32","","","","","","","","","","","","","","","","","","","","","","","","","","","","","","","","","","","","",""
"","identification","5","64573","0.0-6.0-0.0","20612691","wem/bandit_party_1","A3U2UNSYDPS933","either","4","9145","","","","5","5","5","","","","","","","","","","","","","","","","","","","","","","","","pre","identification_pre","the Republican party","","","","","","","",""
"","identification","6","73357","0.0-6.0-1.0","20612691","wem/bandit_party_1","A3U2UNSYDPS933","either","4","7761","","","","1","2","0","","","","","","","","","","","","","","","","","","","","","","","","pre","identification_pre","the Democratic Party","","","","","","","",""
"","text-replacement","7","100415","0.0-7.0","20612691","wem/bandit_party_1","A3U2UNSYDPS933","either","4","26054","","","32","","","","","","","","","","","","","","","","","","","","","","","","","","","","","","","","","","","","",""
"","text-replacement","8","123981","0.0-8.0","20612691","wem/bandit_party_1","A3U2UNSYDPS933","either","4","23562","","","32","","","","","","","","","","","","","","","","","","","","","","","","","","","","","","","","","","","","",""
"","text-replacement","9","135567","0.0-9.0","20612691","wem/bandit_party_1","A3U2UNSYDPS933","either","4","11582","","","32","","","","","","","","","","","","","","","","","","","","","","","","","","","","","","","","","","","","",""
"","text-replacement","10","139517","0.0-10.0","20612691","wem/bandit_party_1","A3U2UNSYDPS933","either","4","3946","","","32","","","","","","","","","","","","","","","","","","","","","","","","","","","","","","","","","","","","",""
"","text-replacement","11","144638","0.0-11.0","20612691","wem/bandit_party_1","A3U2UNSYDPS933","either","4","5117","","","32","","","","","","","","","","","","","","","","","","","","","","","","","","","","","","","","","","","","",""
"","bandit","12","149281","0.0-12.0-0.0","20612691","wem/bandit_party_1","A3U2UNSYDPS933","either","4","3127","","","","","","","0","0","1","0","0","","","","","0","","","","0","","","","","","","","","","","","","74","J","0","img/none_selected_demo.jpg","true","0","",""
"","bandit","13","151775","0.0-13.0-0.0","20612691","wem/bandit_party_1","A3U2UNSYDPS933","either","4","982","","","","","","","0","0","1","0","0","","","","","0","","","","0","","","","","","","","","","","","","75","K","0","img/none_selected_demo.jpg","true","0","",""
"","text-replacement","14","160239","0.0-14.0","20612691","wem/bandit_party_1","A3U2UNSYDPS933","either","4","8461","","","32","","","","","","","","","","","","","","","","","","","","","","","","","","","","","","","","","","","","",""
"","text-replacement","15","167822","0.0-15.0","20612691","wem/bandit_party_1","A3U2UNSYDPS933","either","4","7579","","","32","","","","","","","","","","","","","","","","","","","","","","","","","","","","","","","","","","","","",""
"","text-replacement","16","174367","0.0-16.0","20612691","wem/bandit_party_1","A3U2UNSYDPS933","either","4","6543","","","32","","","","","","","","","","","","","","","","","","","","","","","","","","","","","","","","","","","","",""
"","text-replacement","17","180735","0.0-17.0","20612691","wem/bandit_party_1","A3U2UNSYDPS933","either","4","6364","","","32","","","","","","","","","","","","","","","","","","","","","","","","","","","","","","","","","","","","",""
"","bandit","18","183041","0.0-18.0-0.0","20612691","wem/bandit_party_1","A3U2UNSYDPS933","either","4","789","","","","","","","0","1","0","","0.8","0.5","0.5","","","0.8","0.2","","","","","","","","","","","","","","","","74","J","0","img/none_selected_demo.jpg","true","0","80_20_practice",""
"","bandit","19","186369","0.0-18.0-1.0","20612691","wem/bandit_party_1","A3U2UNSYDPS933","either","4","1800","","","","","","","0","1","0","","0.8","0.5","0.5","","","0.8","0.2","","","","","","","","","","","","","","","","74","J","0","img/none_selected_demo.jpg","true","0","80_20_practice",""
"","bandit","20","188412","0.0-18.0-2.0","20612691","wem/bandit_party_1","A3U2UNSYDPS933","either","4","536","","","","","","","0","1","0","","0.8","0.5","0.5","","","0.8","0.2","","","","","","","","","","","","","","","","74","J","0","img/none_selected_demo.jpg","true","0","80_20_practice",""
"","bandit","21","190593","0.0-18.0-3.0","20612691","wem/bandit_party_1","A3U2UNSYDPS933","either","4","670","","","","","","","0","1","0","","0.2","0.5","0.5","","","0.8","0.2","","","","","","","","","","","","","","","","75","K","1","","true","0","80_20_practice",""
"","bandit","22","192572","0.0-18.0-4.0","20612691","wem/bandit_party_1","A3U2UNSYDPS933","either","4","471","","","","","","","0","0","1","0.2","","0.5","0.5","","","","","","","0.8","0.2","","","","","","","","","","","","75","K","1","","true","0","80_20_practice",""
"","bandit","23","195053","0.0-18.0-5.0","20612691","wem/bandit_party_1","A3U2UNSYDPS933","either","4","972","","","","","","","0","0","1","","0.2","0.5","0.5","","","0.8","0.2","","","","","","","","","","","","","","","","75","K","1","","true","0","80_20_practice",""
"","bandit","24","198254","0.0-18.0-6.0","20612691","wem/bandit_party_1","A3U2UNSYDPS933","either","4","1688","","","","","","","0","1","0","","0.8","0.5","0.5","","","0.8","0.2","","","","","","","","","","","","","","","","74","J","0","img/none_selected_demo.jpg","true","0","80_20_practice",""
"","bandit","25","200411","0.0-18.0-7.0","20612691","wem/bandit_party_1","A3U2UNSYDPS933","either","4","650","","","","","","","1","0","0","0.8","","0.5","0.5","","","","","","","0.8","0.2","","","","","","","","","","","","74","J","0","img/none_selected_demo.jpg","true","0","80_20_practice",""
"","bandit","26","203023","0.0-18.0-8.0","20612691","wem/bandit_party_1","A3U2UNSYDPS933","either","4","1100","","","","","","","1","0","0","0.8","","0.5","0.5","","","","","","","0.8","0.2","","","","","","","","","","","","74","J","0","img/none_selected_demo.jpg","true","0","80_20_practice",""
"","bandit","27","205917","0.0-18.0-9.0","20612691","wem/bandit_party_1","A3U2UNSYDPS933","either","4","1382","","","","","","","0","0","1","0.2","","0.5","0.5","","","","","","","0.8","0.2","","","","","","","","","","","","75","K","1","","true","0","80_20_practice",""
"","bandit","28","208204","0.0-18.0-10.0","20612691","wem/bandit_party_1","A3U2UNSYDPS933","either","4","769","","","","","","","0","0","1","","0.2","0.5","0.5","","","0.8","0.2","","","","","","","","","","","","","","","","75","K","1","","true","0","80_20_practice",""
"","bandit","29","210205","0.0-18.0-11.0","20612691","wem/bandit_party_1","A3U2UNSYDPS933","either","4","492","","","","","","","0","0","1","","0.2","0.5","0.5","","","0.8","0.2","","","","","","","","","","","","","","","","75","K","1","","true","0","80_20_practice",""
"","bandit","30","212113","0.0-18.0-12.0","20612691","wem/bandit_party_1","A3U2UNSYDPS933","either","4","394","","","","","","","1","0","0","0.8","","0.5","0.5","","","","","","","0.8","0.2","","","","","","","","","","","","74","J","0","img/none_selected_demo.jpg","true","0","80_20_practice",""
"","bandit","31","215274","0.0-18.0-13.0","20612691","wem/bandit_party_1","A3U2UNSYDPS933","either","4","1654","","","","","","","1","0","0","0.8","","0.5","0.5","","","","","","","0.8","0.2","","","","","","","","","","","","74","J","0","img/none_selected_demo.jpg","true","0","80_20_practice",""
"","bandit","32","218212","0.0-18.0-14.0","20612691","wem/bandit_party_1","A3U2UNSYDPS933","either","4","1427","","","","","","","0","1","0","","0.8","0.5","0.5","","","0.8","0.2","","","","","","","","","","","","","","","","74","J","0","img/none_selected_demo.jpg","true","0","80_20_practice",""
"","bandit","33","220092","0.0-18.0-15.0","20612691","wem/bandit_party_1","A3U2UNSYDPS933","either","4","370","","","","","","","1","0","0","0.8","","0.5","0.5","","","","","","","0.8","0.2","","","","","","","","","","","","74","J","0","img/none_selected_demo.jpg","true","0","80_20_practice",""
"","bandit","34","221726","0.0-18.0-16.0","20612691","wem/bandit_party_1","A3U2UNSYDPS933","either","4","124","","","","","","","0","0","1","0.2","","0.5","0.5","","","","","","","0.8","0.2","","","","","","","","","","","","75","K","1","","true","0","80_20_practice",""
"","bandit","35","224202","0.0-18.0-17.0","20612691","wem/bandit_party_1","A3U2UNSYDPS933","either","4","969","","","","","","","1","0","0","0.2","","0.5","0.5","","","","","","","0.8","0.2","","","","","","","","","","","","75","K","1","","true","0","80_20_practice",""
"","bandit","36","228799","0.0-18.0-18.0","20612691","wem/bandit_party_1","A3U2UNSYDPS933","either","4","3086","","","","","","","0","1","0","","0.8","0.5","0.5","","","0.8","0.2","","","","","","","","","","","","","","","","74","J","0","img/none_selected_demo.jpg","true","0","80_20_practice",""
"","bandit","37","231887","0.0-18.0-19.0","20612691","wem/bandit_party_1","A3U2UNSYDPS933","either","4","1571","","","","","","","0","0","1","","0.8","0.5","0.5","","","0.8","0.2","","","","","","","","","","","","","","","","74","J","0","img/none_selected_demo.jpg","true","0","80_20_practice",""
"","text-replacement","38","235854","0.0-19.0","20612691","wem/bandit_party_1","A3U2UNSYDPS933","either","4","3962","","","32","","","","","","","","","","","","","","","","","","","","","","","","","","","","","","","","","","","","",""
"","bandit","39","239087","0.0-20.0-0.0","20612691","wem/bandit_party_1","A3U2UNSYDPS933","either","4","1723","","","","","","","1","0","0","1","0","","","","","0","1","","","1","0","","","","","","","","","","","","74","J","0","img/none_selected_demo.jpg","true","0","",""
"","text-replacement","40","242237","0.0-21.0","20612691","wem/bandit_party_1","A3U2UNSYDPS933","either","4","3146","","","32","","","","","","","","","","","","","","","","","","","","","","","","","","","","","","","","","","","","",""
"","text-replacement","41","244877","0.0-22.0","20612691","wem/bandit_party_1","A3U2UNSYDPS933","either","4","2636","","","32","","","","","","","","","","","","","","","","","","","","","","","","","","","","","","","","","","","","",""
"","text-replacement","42","246975","0.0-23.0","20612691","wem/bandit_party_1","A3U2UNSYDPS933","either","4","2093","","","32","","","","","","","","","","","","","","","","","","","","","","","","","","","","","","","","","","","","",""
"","text-replacement","43","249459","0.0-24.0","20612691","wem/bandit_party_1","A3U2UNSYDPS933","either","4","2479","","","32","","","","","","","","","","","","","","","","","","","","","","","","","","","","","","","","","","","","",""
"","text-replacement","44","254365","0.0-25.0","20612691","wem/bandit_party_1","A3U2UNSYDPS933","either","4","4901","","","32","","","","","","","","","","","","","","","","","","","","","","","","","","","","","","","","","","","","",""
"","text-replacement","45","257453","0.0-26.0","20612691","wem/bandit_party_1","A3U2UNSYDPS933","either","4","3084","","","32","","","","","","","","","","","","","","","","","","","","","","","","","","","","","","","","","","","","",""
"","text-replacement","46","263247","0.0-27.0","20612691","wem/bandit_party_1","A3U2UNSYDPS933","either","4","5789","","","32","","","","","","","","","","","","","","","","","","","","","","","","","","","","","","","","","","","","",""
"","text-replacement","47","266301","0.0-28.0","20612691","wem/bandit_party_1","A3U2UNSYDPS933","either","4","3050","","","32","","","","","","","","","","","","","","","","","","","","","","","","","","","","","","","","","","","","",""
"","text-replacement","48","272141","0.0-29.0","20612691","wem/bandit_party_1","A3U2UNSYDPS933","either","4","5836","","","32","","","","","","","","","","","","","","","","","","","","","","","","","","","","","","","","","","","","",""
"","text-replacement","49","274383","0.0-30.0","20612691","wem/bandit_party_1","A3U2UNSYDPS933","either","4","2238","","","32","","","","","","","","","","","","","","","","","","","","","","","","","","","","","","","","","","","","",""
"","text-replacement","50","288573","0.0-31.0","20612691","wem/bandit_party_1","A3U2UNSYDPS933","either","4","14186","","","32","","","","","","","","","","","","","","","","","","","","","","","","","","","","","","","","","","","","",""
"","bandit","51","290603","0.0-32.0-0.0","20612691","wem/bandit_party_1","A3U2UNSYDPS933","either","4","519","","","","","","","0","1","0","","0.8","0.5","0.5","0.5","0.5","0.8","0.2","0.6","0.2","","","","","","","","","","","","","","72","H","0","img/none_selected.jpg","true","0","full_practice",""
"","bandit","52","292462","0.0-32.0-1.0","20612691","wem/bandit_party_1","A3U2UNSYDPS933","either","4","341","","","","","","","0","0","1","0.8","","0.5","0.5","0.5","0.5","","","","","0.8","0.2","0.6","0.2","","","","","","","","","","72","H","0","img/none_selected.jpg","true","0","full_practice",""
"","bandit","53","294396","0.0-32.0-2.0","20612691","wem/bandit_party_1","A3U2UNSYDPS933","either","4","425","","","","","","","0","0","1","","0.2","0.5","0.5","0.5","0.5","0.8","0.2","0.6","0.2","","","","","","","","","","","","","","74","J","1","","true","0","full_practice",""
"","bandit","54","296263","0.0-32.0-3.0","20612691","wem/bandit_party_1","A3U2UNSYDPS933","either","4","348","","","","","","","0","0","1","","0.2","0.5","0.5","0.5","0.5","0.8","0.2","0.6","0.2","","","","","","","","","","","","","","74","J","1","","true","0","full_practice",""
"","bandit","55","297950","0.0-32.0-4.0","20612691","wem/bandit_party_1","A3U2UNSYDPS933","either","4","176","","","","","","","0","1","0","","0.6","0.5","0.5","0.5","0.5","0.8","0.2","0.6","0.2","","","","","","","","","","","","","","75","K","2","","true","0","full_practice",""
"","bandit","56","300119","0.0-32.0-5.0","20612691","wem/bandit_party_1","A3U2UNSYDPS933","either","4","635","","","","","","","0","0","1","0.6","","0.5","0.5","0.5","0.5","","","","","0.8","0.2","0.6","0.2","","","","","","","","","","75","K","2","","true","0","full_practice",""
"","bandit","57","301716","0.0-32.0-6.0","20612691","wem/bandit_party_1","A3U2UNSYDPS933","either","4","79","","","","","","","0","0","1","","0.2","0.5","0.5","0.5","0.5","0.8","0.2","0.6","0.2","","","","","","","","","","","","","","76","L","3","","true","0","full_practice",""
"","bandit","58","303244","0.0-32.0-7.0","20612691","wem/bandit_party_1","A3U2UNSYDPS933","either","4","18","","","","","","","1","0","0","0.2","","0.5","0.5","0.5","0.5","","","","","0.8","0.2","0.6","0.2","","","","","","","","","","76","L","3","","true","0","full_practice",""
"","bandit","59","305180","0.0-32.0-8.0","20612691","wem/bandit_party_1","A3U2UNSYDPS933","either","4","428","","","","","","","0","0","1","","0.2","0.5","0.5","0.5","0.5","0.8","0.2","0.6","0.2","","","","","","","","","","","","","","76","L","3","","true","0","full_practice",""
"","bandit","60","307190","0.0-32.0-9.0","20612691","wem/bandit_party_1","A3U2UNSYDPS933","either","4","485","","","","","","","0","1","0","","0.8","0.5","0.5","0.5","0.5","0.8","0.2","0.6","0.2","","","","","","","","","","","","","","72","H","0","img/none_selected.jpg","true","0","full_practice",""
"","bandit","61","308818","0.0-32.0-10.0","20612691","wem/bandit_party_1","A3U2UNSYDPS933","either","4","106","","","","","","","0","1","0","","0.8","0.5","0.5","0.5","0.5","0.8","0.2","0.6","0.2","","","","","","","","","","","","","","72","H","0","img/none_selected.jpg","true","0","full_practice",""
"","bandit","62","312499","0.0-32.0-11.0","20612691","wem/bandit_party_1","A3U2UNSYDPS933","either","4","2166","","","","","","","0","1","0","","0.8","0.5","0.5","0.5","0.5","0.8","0.2","0.6","0.2","","","","","","","","","","","","","","72","H","0","img/none_selected.jpg","true","0","full_practice",""
"","bandit","63","317665","0.0-32.0-12.0","20612691","wem/bandit_party_1","A3U2UNSYDPS933","either","4","3636","","","","","","","0","0","1","","0.2","0.5","0.5","0.5","0.5","0.8","0.2","0.6","0.2","","","","","","","","","","","","","","74","J","1","","true","0","full_practice",""
"","bandit","64","319632","0.0-32.0-13.0","20612691","wem/bandit_party_1","A3U2UNSYDPS933","either","4","434","","","","","","","0","1","0","","0.6","0.5","0.5","0.5","0.5","0.8","0.2","0.6","0.2","","","","","","","","","","","","","","75","K","2","","true","0","full_practice",""
"","bandit","65","321667","0.0-32.0-14.0","20612691","wem/bandit_party_1","A3U2UNSYDPS933","either","4","518","","","","","","","1","0","0","0.6","","0.5","0.5","0.5","0.5","","","","","0.8","0.2","0.6","0.2","","","","","","","","","","75","K","2","","true","0","full_practice",""
"","bandit","66","323858","0.0-32.0-15.0","20612691","wem/bandit_party_1","A3U2UNSYDPS933","either","4","678","","","","","","","0","1","0","","0.8","0.5","0.5","0.5","0.5","0.8","0.2","0.6","0.2","","","","","","","","","","","","","","72","H","0","img/none_selected.jpg","true","0","full_practice",""
"","bandit","67","326590","0.0-32.0-16.0","20612691","wem/bandit_party_1","A3U2UNSYDPS933","either","4","1223","","","","","","","1","0","0","0.6","","0.5","0.5","0.5","0.5","","","","","0.8","0.2","0.6","0.2","","","","","","","","","","75","K","2","","true","0","full_practice",""
"","bandit","68","328294","0.0-32.0-17.0","20612691","wem/bandit_party_1","A3U2UNSYDPS933","either","4","186","","","","","","","1","0","0","0.8","","0.5","0.5","0.5","0.5","","","","","0.8","0.2","0.6","0.2","","","","","","","","","","72","H","0","img/none_selected.jpg","true","0","full_practice",""
"","bandit","69","329886","0.0-32.0-18.0","20612691","wem/bandit_party_1","A3U2UNSYDPS933","either","4","79","","","","","","","0","1","0","","0.6","0.5","0.5","0.5","0.5","0.8","0.2","0.6","0.2","","","","","","","","","","","","","","75","K","2","","true","0","full_practice",""
"","bandit","70","332288","0.0-32.0-19.0","20612691","wem/bandit_party_1","A3U2UNSYDPS933","either","4","890","","","","","","","1","0","0","0.6","","0.5","0.5","0.5","0.5","","","","","0.8","0.2","0.6","0.2","","","","","","","","","","75","K","2","","true","0","full_practice",""
"","text","71","335646","0.0-33.0","20612691","wem/bandit_party_1","A3U2UNSYDPS933","either","4","3340","","","32","","","","","","","","","","","","","","","","","","","","","","","","","","","","","","","","","","","","",""
"","text-replacement","72","347280","0.0-34.0","20612691","wem/bandit_party_1","A3U2UNSYDPS933","either","4","10626","","","32","","","","","","","","","","","","","","","","","","","","","","","","","","","","","","","","","","","","",""
"","text-replacement","73","355422","0.0-35.0","20612691","wem/bandit_party_1","A3U2UNSYDPS933","either","4","8137","","","32","","","","","","","","","","","","","","","","","","","","","","","","","","","","","","","","","","","","",""
"","text-replacement","74","358543","0.0-36.0","20612691","wem/bandit_party_1","A3U2UNSYDPS933","either","4","3117","","","32","","","","","","","","","","","","","","","","","","","","","","","","","","","","","","","","","","","","",""
"","text-replacement","75","362734","0.0-37.0","20612691","wem/bandit_party_1","A3U2UNSYDPS933","either","4","4185","","","32","","","","","","","","","","","","","","","","","","","","","","","","","","","","","","","","","","","","",""
"","text-replacement","76","366062","0.0-38.0","20612691","wem/bandit_party_1","A3U2UNSYDPS933","either","4","3320","","","32","","","","","","","","","","","","","","","","","","","","","","","","","","","","","","","","","","","","",""
"","survey-multi-choice-replacement","77","373456","0.0-39.0-0.0","20612691","wem/bandit_party_1","A3U2UNSYDPS933","either","4","7380","","","","","","","","","","","","","","","","","","","","","","","","Money will be added to the pool for <span style='color:red;'>REPUBLICANS</span>","","","","","","","attn_check","","","","","","","","","0"
"","survey-multi-choice-replacement","78","382005","0.0-40.0-0.0","20612691","wem/bandit_party_1","A3U2UNSYDPS933","either","4","7532","","","","","","","","","","","","","","","","","","","","","","","","Equal amounts of money will be added to the pool for <span style='color:red;'>REPUBLICANS</span> and subtracted from the pool for <span style='color:blue;'>DEMOCRATS</span>","","","","","","","attn_check","","","","","","","","","2"
"","survey-multi-choice-replacement","79","386646","0.0-41.0-0.0","20612691","wem/bandit_party_1","A3U2UNSYDPS933","either","4","3613","","","","","","","","","","","","","","","","","","","","","","","","No money will be added to either pool","","","","","","","attn_check","","","","","","","","","3"
"","bandit","80","393777","0.0-42.0-0.0","20612691","wem/bandit_party_1","A3U2UNSYDPS933","either","4","4614","","","","","","","0","0","1","0.3242650943","","0.8","0.6","0.4","0.2","","","","","0.3242650943","0.3894728165","0.2771551185","0.3525715257","","","","","","","","","","72","H","0","img/none_selected.jpg","","1","main_expt",""
"","bandit","81","396020","0.0-43.0-0.0","20612691","wem/bandit_party_1","A3U2UNSYDPS933","either","4","726","","","","","","","0","0","1","","0.363660736","0.8","0.6","0.4","0.2","0.3296228245","0.363660736","0.3030893157","0.390153736","","","","","","","","","","","","","","74","J","1","","","2","main_expt",""
"","bandit","82","398046","0.0-44.0-0.0","20612691","wem/bandit_party_1","A3U2UNSYDPS933","either","4","517","","","","","","","1","0","0","0.3211059343","","0.8","0.6","0.4","0.2","","","","","0.3102780753","0.3842171554","0.3211059343","0.3725447061","","","","","","","","","","75","K","2","","","3","main_expt",""
"","bandit","83","400881","0.0-45.0-0.0","20612691","wem/bandit_party_1","A3U2UNSYDPS933","either","4","1321","","","","","","","0","0","1","0.2804386453","","0.8","0.6","0.4","0.2","","","","","0.2749892112","0.3831963053","0.2804386453","0.3431524481","","","","","","","","","","75","K","2","","","4","main_expt",""
"","bandit","84","404692","0.0-46.0-0.0","20612691","wem/bandit_party_1","A3U2UNSYDPS933","either","4","2297","","","","","","","0","0","1","0.2609559086","","0.8","0.6","0.4","0.2","","","","","0.3037824898","0.4056596471","0.2609559086","0.3448007793","","","","","","","","","","75","K","2","","","5","main_expt",""
"","bandit","85","406318","0.0-47.0-0.0","20612691","wem/bandit_party_1","A3U2UNSYDPS933","either","4","115","","","","","","","0","1","0","","0.3980888019","0.8","0.6","0.4","0.2","0.3217417103","0.4409946319","0.2259287768","0.3980888019","","","","","","","","","","","","","","76","L","3","","","6","main_expt",""
"","bandit","86","408688","0.0-48.0-0.0","20612691","wem/bandit_party_1","A3U2UNSYDPS933","either","4","862","","","","","","","0","1","0","","0.3693121862","0.8","0.6","0.4","0.2","0.3018715163","0.3821747998","0.2433618728","0.3693121862","","","","","","","","","","","","","","76","L","3","","","7","main_expt",""
"","bandit","87","411196","0.0-49.0-0.0","20612691","wem/bandit_party_1","A3U2UNSYDPS933","either","4","999","","","","","","","0","0","1","0.2933697555","","0.8","0.6","0.4","0.2","","","","","0.3643645816","0.3841844813","0.2025356769","0.2933697555","","","","","","","","","","76","L","3","","","8","main_expt",""
"","bandit","88","413602","0.0-50.0-0.0","20612691","wem/bandit_party_1","A3U2UNSYDPS933","either","4","890","","","","","","","0","0","1","","0.3036212831","0.8","0.6","0.4","0.2","0.3418610374","0.3412237964","0.1441028094","0.3036212831","","","","","","","","","","","","","","76","L","3","","","9","main_expt",""
"","bandit","89","415322","0.0-51.0-0.0","20612691","wem/bandit_party_1","A3U2UNSYDPS933","either","4","204","","","","","","","1","0","0","0.3190157878","","0.8","0.6","0.4","0.2","","","","","0.3190157878","0.3256420777","0.1736005971","0.308020301","","","","","","","","","","72","H","0","img/none_selected.jpg","","10","main_expt",""
"","bandit","90","417620","0.0-52.0-0.0","20612691","wem/bandit_party_1","A3U2UNSYDPS933","either","4","781","","","","","","","1","0","0","0.2998731478","","0.8","0.6","0.4","0.2","","","","","0.2998731478","0.3514007431","0.1836365694","0.3065973113","","","","","","","","","","72","H","0","img/none_selected.jpg","","11","main_expt",""
"","bandit","91","419985","0.0-53.0-0.0","20612691","wem/bandit_party_1","A3U2UNSYDPS933","either","4","852","","","","","","","1","0","0","0.2942822571","","0.8","0.6","0.4","0.2","","","","","0.2942822571","0.3722032088","0.2143869662","0.3271859636","","","","","","","","","","72","H","0","img/none_selected.jpg","","12","main_expt",""
"","bandit","92","422239","0.0-54.0-0.0","20612691","wem/bandit_party_1","A3U2UNSYDPS933","either","4","743","","","","","","","1","0","0","0.3009212619","","0.8","0.6","0.4","0.2","","","","","0.3009212619","0.3681707299","0.1637139448","0.2761076709","","","","","","","","","","72","H","0","img/none_selected.jpg","","13","main_expt",""
"","bandit","93","425021","0.0-55.0-0.0","20612691","wem/bandit_party_1","A3U2UNSYDPS933","either","4","1271","","","","","","","0","0","1","0.3227424667","","0.8","0.6","0.4","0.2","","","","","0.3227424667","0.3528222564","0.1488535162","0.2311164494","","","","","","","","","","72","H","0","img/none_selected.jpg","","14","main_expt",""
"","bandit","94","427523","0.0-56.0-0.0","20612691","wem/bandit_party_1","A3U2UNSYDPS933","either","4","978","","","","","","","0","0","1","0.3547546862","","0.8","0.6","0.4","0.2","","","","","0.3547546862","0.3738838661","0.1332411271","0.2905977425","","","","","","","","","","72","H","0","img/none_selected.jpg","","15","main_expt",""
"","bandit","95","430302","0.0-57.0-0.0","20612691","wem/bandit_party_1","A3U2UNSYDPS933","either","4","1267","","","","","","","0","0","1","","0.09882415698","0.8","0.6","0.4","0.2","0.3241157583","0.3385239332","0.09882415698","0.2924554969","","","","","","","","","","","","","","75","K","2","","","16","main_expt",""
"","bandit","96","431909","0.0-58.0-0.0","20612691","wem/bandit_party_1","A3U2UNSYDPS933","either","4","89","","","","","","","1","0","0","0.3363410386","","0.8","0.6","0.4","0.2","","","","","0.3363410386","0.3111355138","0.1069157009","0.3114836302","","","","","","","","","","72","H","0","img/none_selected.jpg","","17","main_expt",""
"","bandit","97","433728","0.0-59.0-0.0","20612691","wem/bandit_party_1","A3U2UNSYDPS933","either","4","286","","","","","","","1","0","0","0.3880947854","","0.8","0.6","0.4","0.2","","","","","0.3880947854","0.3487767647","0.134958137","0.3215333475","","","","","","","","","","72","H","0","img/none_selected.jpg","","18","main_expt",""
"","bandit","98","435633","0.0-60.0-0.0","20612691","wem/bandit_party_1","A3U2UNSYDPS933","either","4","389","","","","","","","0","0","1","","0.1230418706","0.8","0.6","0.4","0.2","0.4116912081","0.3010303499","0.1230418706","0.2733398822","","","","","","","","","","","","","","75","K","2","","","19","main_expt",""
"","bandit","99","438602","0.0-61.0-0.0","20612691","wem/bandit_party_1","A3U2UNSYDPS933","either","4","1456","","","","","","","0","1","0","","0.3973894305","0.8","0.6","0.4","0.2","0.3973894305","0.2907203997","0.09866604889","0.2351410235","","","","","","","","","","","","","","72","H","0","img/none_selected.jpg","","20","main_expt",""
"","bandit","100","440611","0.0-62.0-0.0","20612691","wem/bandit_party_1","A3U2UNSYDPS933","either","4","495","","","","","","","0","0","1","0.369037109","","0.8","0.6","0.4","0.2","","","","","0.369037109","0.3088108907","0.1021222834","0.2257810982","","","","","","","","","","72","H","0","img/none_selected.jpg","","21","main_expt",""
"","bandit","101","442288","0.0-63.0-0.0","20612691","wem/bandit_party_1","A3U2UNSYDPS933","either","4","159","","","","","","","0","0","1","0.4179468344","","0.8","0.6","0.4","0.2","","","","","0.4179468344","0.349202701","0.1234138809","0.2221856846","","","","","","","","","","72","H","0","img/none_selected.jpg","","22","main_expt",""
"","bandit","102","443806","0.0-64.0-0.0","20612691","wem/bandit_party_1","A3U2UNSYDPS933","either","4","6","","","","","","","0","0","1","","0.2127124712","0.8","0.6","0.4","0.2","0.4276062926","0.3785068464","0.1030640584","0.2127124712","","","","","","","","","","","","","","76","L","3","","","23","main_expt",""
"","bandit","103","445708","0.0-65.0-0.0","20612691","wem/bandit_party_1","A3U2UNSYDPS933","either","4","391","","","","","","","0","0","1","","0.4012919653","0.8","0.6","0.4","0.2","0.4078122208","0.4012919653","0.1261035851","0.1882566648","","","","","","","","","","","","","","74","J","1","","","24","main_expt",""
"","bandit","104","449071","0.0-66.0-0.0","20612691","wem/bandit_party_1","A3U2UNSYDPS933","either","4","1851","","","","","","","0","0","1","","0.1796705612","0.8","0.6","0.4","0.2","0.3950411191","0.400899794","0.1796705612","0.1273223766","","","","","","","","","","","","","","75","K","2","","","25","main_expt",""
"","bandit","105","450771","0.0-67.0-0.0","20612691","wem/bandit_party_1","A3U2UNSYDPS933","either","4","170","","","","","","","1","0","0","0.4322303329","","0.8","0.6","0.4","0.2","","","","","0.4322303329","0.4126274585","0.2414651519","0.15747458","","","","","","","","","","72","H","0","img/none_selected.jpg","","26","main_expt",""
"","bandit","106","452799","0.0-68.0-0.0","20612691","wem/bandit_party_1","A3U2UNSYDPS933","either","4","509","","","","","","","0","0","1","0.4353643722","","0.8","0.6","0.4","0.2","","","","","0.4353643722","0.3992263875","0.2005374927","0.1442684908","","","","","","","","","","72","H","0","img/none_selected.jpg","","27","main_expt",""
"","bandit","107","454980","0.0-69.0-0.0","20612691","wem/bandit_party_1","A3U2UNSYDPS933","either","4","657","","","","","","","0","0","1","0.4464017809","","0.8","0.6","0.4","0.2","","","","","0.4464017809","0.3846584236","0.3197257227","0.2255404594","","","","","","","","","","72","H","0","img/none_selected.jpg","","28","main_expt",""
"","bandit","108","456896","0.0-70.0-0.0","20612691","wem/bandit_party_1","A3U2UNSYDPS933","either","4","399","","","","","","","0","0","1","","0.3141869899","0.8","0.6","0.4","0.2","0.4417109462","0.3561298134","0.3141869899","0.2730951691","","","","","","","","","","","","","","75","K","2","","","29","main_expt",""
"","bandit","109","459144","0.0-71.0-0.0","20612691","wem/bandit_party_1","A3U2UNSYDPS933","either","4","706","","","","","","","0","1","0","","0.3445991012","0.8","0.6","0.4","0.2","0.4065908859","0.3101363315","0.3445991012","0.2890412698","","","","","","","","","","","","","","75","K","2","","","30","main_expt",""
"","bandit","110","461503","0.0-72.0-0.0","20612691","wem/bandit_party_1","A3U2UNSYDPS933","either","4","847","","","","","","","0","0","1","","0.3456655029","0.8","0.6","0.4","0.2","0.3954582793","0.3322219809","0.3456655029","0.3309226042","","","","","","","","","","","","","","75","K","2","","","31","main_expt",""
"","bandit","111","463959","0.0-73.0-0.0","20612691","wem/bandit_party_1","A3U2UNSYDPS933","either","4","932","","","","","","","0","1","0","","0.3516269472","0.8","0.6","0.4","0.2","0.3716723047","0.3516269472","0.3826172224","0.3519301717","","","","","","","","","","","","","","74","J","1","","","32","main_expt",""
"","bandit","112","466527","0.0-74.0-0.0","20612691","wem/bandit_party_1","A3U2UNSYDPS933","either","4","1053","","","","","","","0","0","1","0.3852085553","","0.8","0.6","0.4","0.2","","","","","0.3799724366","0.3852085553","0.3804083149","0.3414953842","","","","","","","","","","74","J","1","","","33","main_expt",""
"","bandit","113","469662","0.0-75.0-0.0","20612691","wem/bandit_party_1","A3U2UNSYDPS933","either","4","1623","","","","","","","0","0","1","","0.4196644934","0.8","0.6","0.4","0.2","0.409480615","0.4196644934","0.3808178469","0.2938412915","","","","","","","","","","","","","","74","J","1","","","34","main_expt",""
"","bandit","114","472564","0.0-76.0-0.0","20612691","wem/bandit_party_1","A3U2UNSYDPS933","either","4","1384","","","","","","","0","0","1","0.2256616696","","0.8","0.6","0.4","0.2","","","","","0.3869649509","0.420891004","0.376129724","0.2256616696","","","","","","","","","","76","L","3","","","35","main_expt",""
"","bandit","115","474371","0.0-77.0-0.0","20612691","wem/bandit_party_1","A3U2UNSYDPS933","either","4","295","","","","","","","0","0","1","","0.4027809904","0.8","0.6","0.4","0.2","0.3045389962","0.3808881167","0.4027809904","0.2525957923","","","","","","","","","","","","","","75","K","2","","","36","main_expt",""
"","bandit","116","476108","0.0-78.0-0.0","20612691","wem/bandit_party_1","A3U2UNSYDPS933","either","4","211","","","","","","","0","1","0","","0.3634360393","0.8","0.6","0.4","0.2","0.2954217214","0.3634360393","0.3715556026","0.2333373749","","","","","","","","","","","","","","74","J","1","","","37","main_expt",""
"","bandit","117","477779","0.0-79.0-0.0","20612691","wem/bandit_party_1","A3U2UNSYDPS933","either","4","152","","","","","","","0","0","1","0.3432691328","","0.8","0.6","0.4","0.2","","","","","0.2749906923","0.3432691328","0.354842885","0.2126884676","","","","","","","","","","74","J","1","","","38","main_expt",""
"","bandit","118","479707","0.0-80.0-0.0","20612691","wem/bandit_party_1","A3U2UNSYDPS933","either","4","387","","","","","","","1","0","0","0.2911873598","","0.8","0.6","0.4","0.2","","","","","0.2911873598","0.3113322025","0.3066825603","0.212498526","","","","","","","","","","72","H","0","img/none_selected.jpg","","39","main_expt",""
"","bandit","119","481420","0.0-81.0-0.0","20612691","wem/bandit_party_1","A3U2UNSYDPS933","either","4","201","","","","","","","0","0","1","","0.3208648015","0.8","0.6","0.4","0.2","0.3066149412","0.3298138996","0.3208648015","0.2031275136","","","","","","","","","","","","","","75","K","2","","","40","main_expt",""
"","bandit","120","483026","0.0-82.0-0.0","20612691","wem/bandit_party_1","A3U2UNSYDPS933","either","4","92","","","","","","","0","0","1","0.2409224204","","0.8","0.6","0.4","0.2","","","","","0.2612722093","0.3590557929","0.2774570704","0.2409224204","","","","","","","","","","76","L","3","","","41","main_expt",""
"","bandit","121","485873","0.0-83.0-0.0","20612691","wem/bandit_party_1","A3U2UNSYDPS933","either","4","1325","","","","","","","1","0","0","0.3455434044","","0.8","0.6","0.4","0.2","","","","","0.2579482203","0.3455434044","0.3092882543","0.2166695961","","","","","","","","","","74","J","1","","","42","main_expt",""
"","bandit","122","487790","0.0-84.0-0.0","20612691","wem/bandit_party_1","A3U2UNSYDPS933","either","4","405","","","","","","","0","1","0","","0.4020043176","0.8","0.6","0.4","0.2","0.2232302517","0.4020043176","0.3161251671","0.2314197793","","","","","","","","","","","","","","74","J","1","","","43","main_expt",""
"","bandit","123","490284","0.0-85.0-0.0","20612691","wem/bandit_party_1","A3U2UNSYDPS933","either","4","982","","","","","","","0","0","1","0.4088695108","","0.8","0.6","0.4","0.2","","","","","0.2435669349","0.4088695108","0.3032549762","0.1889371852","","","","","","","","","","74","J","1","","","44","main_expt",""
"","bandit","124","492303","0.0-86.0-0.0","20612691","wem/bandit_party_1","A3U2UNSYDPS933","either","4","507","","","","","","","0","0","1","0.3012359134","","0.8","0.6","0.4","0.2","","","","","0.1885724617","0.3914045207","0.3012359134","0.2152104473","","","","","","","","","","75","K","2","","","45","main_expt",""
"","bandit","125","494991","0.0-87.0-0.0","20612691","wem/bandit_party_1","A3U2UNSYDPS933","either","4","1173","","","","","","","0","0","1","0.3682142312","","0.8","0.6","0.4","0.2","","","","","0.104230756","0.3682142312","0.2994346937","0.2260726972","","","","","","","","","","74","J","1","","","46","main_expt",""
"","bandit","126","497952","0.0-88.0-0.0","20612691","wem/bandit_party_1","A3U2UNSYDPS933","either","4","1440","","","","","","","0","0","1","0.3462276735","","0.8","0.6","0.4","0.2","","","","","0.09013225529","0.3462276735","0.3169549043","0.2330399618","","","","","","","","","","74","J","1","","","47","main_expt",""
"","bandit","127","500336","0.0-89.0-0.0","20612691","wem/bandit_party_1","A3U2UNSYDPS933","either","4","869","","","","","","","0","1","0","","0.3137179834","0.8","0.6","0.4","0.2","0.1066227192","0.3501405617","0.3137179834","0.2769685944","","","","","","","","","","","","","","75","K","2","","","48","main_expt",""
"","bandit","128","503220","0.0-90.0-0.0","20612691","wem/bandit_party_1","A3U2UNSYDPS933","either","4","1366","","","","","","","0","1","0","","0.3026837323","0.8","0.6","0.4","0.2","0.1273062614","0.3607669766","0.3026837323","0.2954986192","","","","","","","","","","","","","","75","K","2","","","49","main_expt",""
"","bandit","129","505876","0.0-91.0-0.0","20612691","wem/bandit_party_1","A3U2UNSYDPS933","either","4","1138","","","","","","","0","1","0","","0.3776327681","0.8","0.6","0.4","0.2","0.08158159543","0.3776327681","0.2690248343","0.2730110453","","","","","","","","","","","","","","74","J","1","","","50","main_expt",""
"","bandit","130","507885","0.0-92.0-0.0","20612691","wem/bandit_party_1","A3U2UNSYDPS933","either","4","495","","","","","","","1","0","0","0.3922012959","","0.8","0.6","0.4","0.2","","","","","0.08035098666","0.3922012959","0.2407215714","0.2672659715","","","","","","","","","","74","J","1","","","51","main_expt",""
"","bandit","131","510124","0.0-93.0-0.0","20612691","wem/bandit_party_1","A3U2UNSYDPS933","either","4","727","","","","","","","0","0","1","","0.3532085343","0.8","0.6","0.4","0.2","0.1007468434","0.3532085343","0.2758158767","0.2552972095","","","","","","","","","","","","","","74","J","1","","","52","main_expt",""
"","bandit","132","512111","0.0-94.0-0.0","20612691","wem/bandit_party_1","A3U2UNSYDPS933","either","4","473","","","","","","","1","0","0","0.2661511239","","0.8","0.6","0.4","0.2","","","","","0.1479770317","0.3597378762","0.2661511239","0.1954439593","","","","","","","","","","75","K","2","","","53","main_expt",""
"","bandit","133","515463","0.0-95.0-0.0","20612691","wem/bandit_party_1","A3U2UNSYDPS933","either","4","1830","","","","","","","0","0","1","","0.250303373","0.8","0.6","0.4","0.2","0.1450389045","0.3553644404","0.250303373","0.1250298759","","","","","","","","","","","","","","75","K","2","","","54","main_expt",""
"","bandit","134","517780","0.0-96.0-0.0","20612691","wem/bandit_party_1","A3U2UNSYDPS933","either","4","798","","","","","","","0","0","1","0.3427354451","","0.8","0.6","0.4","0.2","","","","","0.1678096349","0.3427354451","0.1850572083","0.1224949652","","","","","","","","","","74","J","1","","","55","main_expt",""
"","bandit","135","520851","0.0-97.0-0.0","20612691","wem/bandit_party_1","A3U2UNSYDPS933","either","4","1554","","","","","","","1","0","0","0.3158877586","","0.8","0.6","0.4","0.2","","","","","0.1748395718","0.3158877586","0.2410157884","0.1312048923","","","","","","","","","","74","J","1","","","56","main_expt",""
"","bandit","136","523214","0.0-98.0-0.0","20612691","wem/bandit_party_1","A3U2UNSYDPS933","either","4","843","","","","","","","0","1","0","","0.2657224069","0.8","0.6","0.4","0.2","0.146986137","0.3224611445","0.2657224069","0.14452077","","","","","","","","","","","","","","75","K","2","","","57","main_expt",""
"","bandit","137","525523","0.0-99.0-0.0","20612691","wem/bandit_party_1","A3U2UNSYDPS933","either","4","786","","","","","","","0","0","1","","0.2361308133","0.8","0.6","0.4","0.2","0.1316135006","0.3378672788","0.2361308133","0.1198415177","","","","","","","","","","","","","","75","K","2","","","58","main_expt",""
"","bandit","138","527246","0.0-100.0-0.0","20612691","wem/bandit_party_1","A3U2UNSYDPS933","either","4","211","","","","","","","0","0","1","","0.2078360154","0.8","0.6","0.4","0.2","0.1776120447","0.3438075972","0.2078360154","0.1674914914","","","","","","","","","","","","","","75","K","2","","","59","main_expt",""
"","bandit","139","528801","0.0-101.0-0.0","20612691","wem/bandit_party_1","A3U2UNSYDPS933","either","4","40","","","","","","","0","0","1","0.2950987239","","0.8","0.6","0.4","0.2","","","","","0.2034864675","0.2950987239","0.2256957235","0.147959707","","","","","","","","","","74","J","1","","","60","main_expt",""
"","bandit","140","530422","0.0-102.0-0.0","20612691","wem/bandit_party_1","A3U2UNSYDPS933","either","4","61","","","","","","","1","0","0","0.2939622289","","0.8","0.6","0.4","0.2","","","","","0.1325668513","0.2939622289","0.2713547376","0.1217284172","","","","","","","","","","74","J","1","","","61","main_expt",""
"","bandit","141","532161","0.0-103.0-0.0","20612691","wem/bandit_party_1","A3U2UNSYDPS933","either","4","224","","","","","","","0","0","1","","0.2907096119","0.8","0.6","0.4","0.2","0.125492747","0.2907096119","0.2800078023","0.1392905859","","","","","","","","","","","","","","74","J","1","","","62","main_expt",""
"","bandit","142","534689","0.0-104.0-0.0","20612691","wem/bandit_party_1","A3U2UNSYDPS933","either","4","1008","","","","","","","0","0","1","","0.2696382907","0.8","0.6","0.4","0.2","0.1081989139","0.2696382907","0.362183352","0.1953314019","","","","","","","","","","","","","","74","J","1","","","63","main_expt",""
"","bandit","143","538241","0.0-105.0-0.0","20612691","wem/bandit_party_1","A3U2UNSYDPS933","either","4","2032","","","","","","","0","0","1","","0.3354395381","0.8","0.6","0.4","0.2","0.09104284411","0.2496415039","0.3354395381","0.2618523415","","","","","","","","","","","","","","75","K","2","","","64","main_expt",""
"","bandit","144","541796","0.0-106.0-0.0","20612691","wem/bandit_party_1","A3U2UNSYDPS933","either","4","2035","","","","","","","0","0","1","0.1264903162","","0.8","0.6","0.4","0.2","","","","","0.1264903162","0.2364994079","0.2893845237","0.2686672798","","","","","","","","","","72","H","0","img/none_selected.jpg","","65","main_expt",""
"","bandit","145","545052","0.0-107.0-0.0","20612691","wem/bandit_party_1","A3U2UNSYDPS933","either","4","1715","","","","","","","0","0","1","0.2451656397","","0.8","0.6","0.4","0.2","","","","","0.1665937301","0.2541683514","0.2355717356","0.2451656397","","","","","","","","","","76","L","3","","","66","main_expt",""
"","bandit","146","547602","0.0-108.0-0.0","20612691","wem/bandit_party_1","A3U2UNSYDPS933","either","4","1023","","","","","","","0","1","0","","0.2445320338","0.8","0.6","0.4","0.2","0.1740025863","0.2985471382","0.2848755716","0.2445320338","","","","","","","","","","","","","","76","L","3","","","67","main_expt",""
"","bandit","147","549701","0.0-109.0-0.0","20612691","wem/bandit_party_1","A3U2UNSYDPS933","either","4","582","","","","","","","0","0","1","","0.2261158315","0.8","0.6","0.4","0.2","0.2300011382","0.3391290389","0.3341158043","0.2261158315","","","","","","","","","","","","","","76","L","3","","","68","main_expt",""
"","bandit","148","551565","0.0-110.0-0.0","20612691","wem/bandit_party_1","A3U2UNSYDPS933","either","4","351","","","","","","","0","0","1","0.3253412689","","0.8","0.6","0.4","0.2","","","","","0.1768594062","0.3114764975","0.3253412689","0.1627286519","","","","","","","","","","75","K","2","","","69","main_expt",""
"","bandit","149","553312","0.0-111.0-0.0","20612691","wem/bandit_party_1","A3U2UNSYDPS933","either","4","233","","","","","","","0","0","1","0.3056328376","","0.8","0.6","0.4","0.2","","","","","0.1906145184","0.3056328376","0.3280915152","0.1301009224","","","","","","","","","","74","J","1","","","70","main_expt",""
"","bandit","150","555335","0.0-112.0-0.0","20612691","wem/bandit_party_1","A3U2UNSYDPS933","either","4","505","","","","","","","1","0","0","0.1451664327","","0.8","0.6","0.4","0.2","","","","","0.1451664327","0.3445325487","0.3772643828","0.1356707761","","","","","","","","","","72","H","0","img/none_selected.jpg","","71","main_expt",""
"","bandit","151","557105","0.0-113.0-0.0","20612691","wem/bandit_party_1","A3U2UNSYDPS933","either","4","254","","","","","","","0","0","1","","0.1045412551","0.8","0.6","0.4","0.2","0.1091447996","0.364612409","0.4074174212","0.1045412551","","","","","","","","","","","","","","76","L","3","","","72","main_expt",""
"","bandit","152","560159","0.0-114.0-0.0","20612691","wem/bandit_party_1","A3U2UNSYDPS933","either","4","1541","","","","","","","0","0","1","","0.3736299767","0.8","0.6","0.4","0.2","0.1248737042","0.4454774056","0.3736299767","0.0867882282","","","","","","","","","","","","","","75","K","2","","","73","main_expt",""
"","bandit","153","562839","0.0-115.0-0.0","20612691","wem/bandit_party_1","A3U2UNSYDPS933","either","4","1157","","","","","","","0","0","1","","0.1073746888","0.8","0.6","0.4","0.2","0.1073746888","0.4492830973","0.383211712","0.1018359722","","","","","","","","","","","","","","72","H","0","img/none_selected.jpg","","74","main_expt",""
"","bandit","154","565097","0.0-116.0-0.0","20612691","wem/bandit_party_1","A3U2UNSYDPS933","either","4","727","","","","","","","0","0","1","","0.09443707336","0.8","0.6","0.4","0.2","0.1051395745","0.449321966","0.3681962321","0.09443707336","","","","","","","","","","","","","","76","L","3","","","75","main_expt",""
"","bandit","155","567439","0.0-117.0-0.0","20612691","wem/bandit_party_1","A3U2UNSYDPS933","either","4","815","","","","","","","0","0","1","0.09171451076","","0.8","0.6","0.4","0.2","","","","","0.09171451076","0.4299726132","0.3574328021","0.08768691443","","","","","","","","","","72","H","0","img/none_selected.jpg","","76","main_expt",""
"","bandit","156","569583","0.0-118.0-0.0","20612691","wem/bandit_party_1","A3U2UNSYDPS933","either","4","630","","","","","","","0","0","1","","0.4349340462","0.8","0.6","0.4","0.2","0.1256070833","0.4349340462","0.4041720962","0.07744448812","","","","","","","","","","","","","","74","J","1","","","77","main_expt",""
"","bandit","157","571138","0.0-119.0-0.0","20612691","wem/bandit_party_1","A3U2UNSYDPS933","either","4","40","","","","","","","0","1","0","","0.4000946746","0.8","0.6","0.4","0.2","0.1398604905","0.4112950215","0.4000946746","0.05712631425","","","","","","","","","","","","","","75","K","2","","","78","main_expt",""
"","bandit","158","574360","0.0-120.0-0.0","20612691","wem/bandit_party_1","A3U2UNSYDPS933","either","4","1699","","","","","","","0","0","1","","0.03981704588","0.8","0.6","0.4","0.2","0.1303191282","0.4123046053","0.425248604","0.03981704588","","","","","","","","","","","","","","76","L","3","","","79","main_expt",""
"","bandit","159","575905","0.0-121.0-0.0","20612691","wem/bandit_party_1","A3U2UNSYDPS933","either","4","29","","","","","","","0","0","1","","0.4263383456","0.8","0.6","0.4","0.2","0.1491340647","0.4345430878","0.4263383456","0.02961196177","","","","","","","","","","","","","","75","K","2","","","80","main_expt",""
"","bandit","160","578895","0.0-122.0-0.0","20612691","wem/bandit_party_1","A3U2UNSYDPS933","either","4","1476","","","","","","","0","0","1","0.4255274095","","0.8","0.6","0.4","0.2","","","","","0.1484119081","0.4255274095","0.4377411966","0.0408206899","","","","","","","","","","74","J","1","","","81","main_expt",""
"","bandit","161","582511","0.0-123.0-0.0","20612691","wem/bandit_party_1","A3U2UNSYDPS933","either","4","2081","","","","","","","0","0","1","0.135460029","","0.8","0.6","0.4","0.2","","","","","0.135460029","0.4266934287","0.4263216968","0.03491361241","","","","","","","","","","72","H","0","img/none_selected.jpg","","82","main_expt",""
"","bandit","162","584766","0.0-124.0-0.0","20612691","wem/bandit_party_1","A3U2UNSYDPS933","either","4","740","","","","","","","0","0","1","","0.4321646522","0.8","0.6","0.4","0.2","0.09497461961","0.4321646522","0.4536492548","0.01881925386","","","","","","","","","","","","","","74","J","1","","","83","main_expt",""
"","bandit","163","588104","0.0-125.0-0.0","20612691","wem/bandit_party_1","A3U2UNSYDPS933","either","4","1808","","","","","","","0","0","1","","0.03441768066","0.8","0.6","0.4","0.2","0.0956585677","0.43129245","0.4344769981","0.03441768066","","","","","","","","","","","","","","76","L","3","","","84","main_expt",""
"","bandit","164","589887","0.0-126.0-0.0","20612691","wem/bandit_party_1","A3U2UNSYDPS933","either","4","267","","","","","","","1","0","0","0.4307495417","","0.8","0.6","0.4","0.2","","","","","0.08427930603","0.4307495417","0.4167097255","0.04015732792","","","","","","","","","","74","J","1","","","85","main_expt",""
"","bandit","165","592178","0.0-127.0-0.0","20612691","wem/bandit_party_1","A3U2UNSYDPS933","either","4","773","","","","","","","0","1","0","","0.4215971904","0.8","0.6","0.4","0.2","0.09540141202","0.4327415212","0.4215971904","0.0462821445","","","","","","","","","","","","","","75","K","2","","","86","main_expt",""
"","bandit","166","594197","0.0-128.0-0.0","20612691","wem/bandit_party_1","A3U2UNSYDPS933","either","4","456","","","","","","","0","1","0","","0.3962725568","0.8","0.6","0.4","0.2","0.06504543429","0.4507305815","0.3962725568","0.07236867375","","","","","","","","","","","","","","75","K","2","","","87","main_expt",""
"","bandit","167","596221","0.0-129.0-0.0","20612691","wem/bandit_party_1","A3U2UNSYDPS933","either","4","496","","","","","","","0","0","1","","0.4038430626","0.8","0.6","0.4","0.2","0.05894337134","0.4571393315","0.4038430626","0.1132918069","","","","","","","","","","","","","","75","K","2","","","88","main_expt",""
"","bandit","168","598414","0.0-130.0-0.0","20612691","wem/bandit_party_1","A3U2UNSYDPS933","either","4","679","","","","","","","0","0","1","","0.4247877058","0.8","0.6","0.4","0.2","0.06803635399","0.4639779763","0.4247877058","0.1466354559","","","","","","","","","","","","","","75","K","2","","","89","main_expt",""
"","bandit","169","600066","0.0-131.0-0.0","20612691","wem/bandit_party_1","A3U2UNSYDPS933","either","4","135","","","","","","","0","1","0","","0.4620017245","0.8","0.6","0.4","0.2","0.09657856289","0.4620017245","0.4196700557","0.1746819083","","","","","","","","","","","","","","74","J","1","","","90","main_expt",""
"","bandit","170","602035","0.0-132.0-0.0","20612691","wem/bandit_party_1","A3U2UNSYDPS933","either","4","450","","","","","","","1","0","0","0.4492963398","","0.8","0.6","0.4","0.2","","","","","0.08522031428","0.4492963398","0.401758082","0.1864657318","","","","","","","","","","74","J","1","","","91","main_expt",""
"","bandit","171","604994","0.0-133.0-0.0","20612691","wem/bandit_party_1","A3U2UNSYDPS933","either","4","1444","","","","","","","0","0","1","0.462009279","","0.8","0.6","0.4","0.2","","","","","0.07078380504","0.462009279","0.3422099147","0.2124622091","","","","","","","","","","74","J","1","","","92","main_expt",""
"","bandit","172","606991","0.0-134.0-0.0","20612691","wem/bandit_party_1","A3U2UNSYDPS933","either","4","474","","","","","","","0","1","0","","0.4363090379","0.8","0.6","0.4","0.2","0.0564278809","0.4363090379","0.3279059742","0.245786276","","","","","","","","","","","","","","74","J","1","","","93","main_expt",""
"","bandit","173","609858","0.0-135.0-0.0","20612691","wem/bandit_party_1","A3U2UNSYDPS933","either","4","1333","","","","","","","0","0","1","","0.4457519602","0.8","0.6","0.4","0.2","0.06067733924","0.4457519602","0.3155724737","0.2316759231","","","","","","","","","","","","","","74","J","1","","","94","main_expt",""
"","bandit","174","612431","0.0-136.0-0.0","20612691","wem/bandit_party_1","A3U2UNSYDPS933","either","4","1060","","","","","","","0","0","1","","0.4231248902","0.8","0.6","0.4","0.2","0.08632751489","0.4231248902","0.3519625041","0.2231756969","","","","","","","","","","","","","","74","J","1","","","95","main_expt",""
"","bandit","175","615986","0.0-137.0-0.0","20612691","wem/bandit_party_1","A3U2UNSYDPS933","either","4","2040","","","","","","","0","0","1","","0.1957128212","0.8","0.6","0.4","0.2","0.08481729553","0.4210676831","0.3661455107","0.1957128212","","","","","","","","","","","","","","76","L","3","","","96","main_expt",""
"","bandit","176","618084","0.0-138.0-0.0","20612691","wem/bandit_party_1","A3U2UNSYDPS933","either","4","562","","","","","","","0","1","0","","0.1638116915","0.8","0.6","0.4","0.2","0.08386440452","0.4022895305","0.3558031673","0.1638116915","","","","","","","","","","","","","","76","L","3","","","97","main_expt",""
"","bandit","177","621309","0.0-139.0-0.0","20612691","wem/bandit_party_1","A3U2UNSYDPS933","either","4","1706","","","","","","","0","0","1","","0.1405816365","0.8","0.6","0.4","0.2","0.0940701929","0.4187351015","0.3558230887","0.1405816365","","","","","","","","","","","","","","76","L","3","","","98","main_expt",""
"","bandit","178","623549","0.0-140.0-0.0","20612691","wem/bandit_party_1","A3U2UNSYDPS933","either","4","726","","","","","","","0","0","1","","0.1285058524","0.8","0.6","0.4","0.2","0.1285058524","0.3981340028","0.3064708089","0.1435678602","","","","","","","","","","","","","","72","H","0","img/none_selected.jpg","","99","main_expt",""
"","bandit","179","627140","0.0-141.0-0.0","20612691","wem/bandit_party_1","A3U2UNSYDPS933","either","4","2074","","","","","","","0","0","1","","0.065882019","0.8","0.6","0.4","0.2","0.065882019","0.3520446815","0.352498313","0.1478754355","","","","","","","","","","","","","","72","H","0","img/none_selected.jpg","","100","main_expt",""
"","bandit","180","629195","0.0-142.0-0.0","20612691","wem/bandit_party_1","A3U2UNSYDPS933","either","4","527","","","","","","","0","0","1","0.05692140794","","0.8","0.6","0.4","0.2","","","","","0.05692140794","0.3715523215","0.3511810171","0.1532559328","","","","","","","","","","72","H","0","img/none_selected.jpg","","101","main_expt",""
"","bandit","181","631374","0.0-143.0-0.0","20612691","wem/bandit_party_1","A3U2UNSYDPS933","either","4","658","","","","","","","0","0","1","0.3966955113","","0.8","0.6","0.4","0.2","","","","","0.04322280369","0.3966955113","0.3246867477","0.15857411","","","","","","","","","","74","J","1","","","102","main_expt",""
"","bandit","182","633711","0.0-144.0-0.0","20612691","wem/bandit_party_1","A3U2UNSYDPS933","either","4","821","","","","","","","0","0","1","0.2827689756","","0.8","0.6","0.4","0.2","","","","","0.05121437093","0.3865714765","0.2827689756","0.1552377357","","","","","","","","","","75","K","2","","","103","main_expt",""
"","bandit","183","635774","0.0-145.0-0.0","20612691","wem/bandit_party_1","A3U2UNSYDPS933","either","4","549","","","","","","","0","0","1","","0.3307995119","0.8","0.6","0.4","0.2","0.06548077564","0.3440646931","0.3307995119","0.1584193753","","","","","","","","","","","","","","75","K","2","","","104","main_expt",""
"","bandit","184","638531","0.0-146.0-0.0","20612691","wem/bandit_party_1","A3U2UNSYDPS933","either","4","1244","","","","","","","0","0","1","0.330981063","","0.8","0.6","0.4","0.2","","","","","0.07577357845","0.330981063","0.3078297571","0.192058402","","","","","","","","","","74","J","1","","","105","main_expt",""
"","bandit","185","641056","0.0-147.0-0.0","20612691","wem/bandit_party_1","A3U2UNSYDPS933","either","4","1008","","","","","","","0","0","1","","0.1562344916","0.8","0.6","0.4","0.2","0.09041352565","0.3317280627","0.3202685942","0.1562344916","","","","","","","","","","","","","","76","L","3","","","106","main_expt",""
"","bandit","186","643390","0.0-148.0-0.0","20612691","wem/bandit_party_1","A3U2UNSYDPS933","either","4","812","","","","","","","0","0","1","0.1184921167","","0.8","0.6","0.4","0.2","","","","","0.1184921167","0.2760665195","0.3163418234","0.1493116313","","","","","","","","","","72","H","0","img/none_selected.jpg","","107","main_expt",""
"","bandit","187","645024","0.0-149.0-0.0","20612691","wem/bandit_party_1","A3U2UNSYDPS933","either","4","115","","","","","","","0","1","0","","0.3425943818","0.8","0.6","0.4","0.2","0.1057615429","0.2826301941","0.3425943818","0.1357435498","","","","","","","","","","","","","","75","K","2","","","108","main_expt",""
"","bandit","188","647632","0.0-150.0-0.0","20612691","wem/bandit_party_1","A3U2UNSYDPS933","either","4","1081","","","","","","","0","0","1","","0.1164074326","0.8","0.6","0.4","0.2","0.1464484126","0.318117281","0.2852030557","0.1164074326","","","","","","","","","","","","","","76","L","3","","","109","main_expt",""
"","bandit","189","650769","0.0-151.0-0.0","20612691","wem/bandit_party_1","A3U2UNSYDPS933","either","4","1622","","","","","","","0","0","1","0.1444451916","","0.8","0.6","0.4","0.2","","","","","0.1641354829","0.3358587519","0.3392406975","0.1444451916","","","","","","","","","","76","L","3","","","110","main_expt",""
"","bandit","190","653853","0.0-152.0-0.0","20612691","wem/bandit_party_1","A3U2UNSYDPS933","either","4","1546","","","","","","","0","0","1","0.1386891192","","0.8","0.6","0.4","0.2","","","","","0.1386891192","0.3031660534","0.3023411017","0.09905323685","","","","","","","","","","72","H","0","img/none_selected.jpg","","111","main_expt",""
"","bandit","191","655842","0.0-153.0-0.0","20612691","wem/bandit_party_1","A3U2UNSYDPS933","either","4","470","","","","","","","0","0","1","0.1847512065","","0.8","0.6","0.4","0.2","","","","","0.1847512065","0.2773548355","0.296849772","0.09652445584","","","","","","","","","","72","H","0","img/none_selected.jpg","","112","main_expt",""
"","bandit","192","658352","0.0-154.0-0.0","20612691","wem/bandit_party_1","A3U2UNSYDPS933","either","4","995","","","","","","","0","0","1","","0.09961189632","0.8","0.6","0.4","0.2","0.1304555333","0.2370758425","0.2673419259","0.09961189632","","","","","","","","","","","","","","76","L","3","","","113","main_expt",""
"","bandit","193","662130","0.0-155.0-0.0","20612691","wem/bandit_party_1","A3U2UNSYDPS933","either","4","2263","","","","","","","0","0","1","0.1036139638","","0.8","0.6","0.4","0.2","","","","","0.1770102637","0.1821928837","0.2670531803","0.1036139638","","","","","","","","","","76","L","3","","","114","main_expt",""
"","bandit","194","665294","0.0-156.0-0.0","20612691","wem/bandit_party_1","A3U2UNSYDPS933","either","4","1650","","","","","","","0","0","1","","0.0968506792","0.8","0.6","0.4","0.2","0.1564651975","0.1315453283","0.2825009356","0.0968506792","","","","","","","","","","","","","","76","L","3","","","115","main_expt",""
"","bandit","195","667921","0.0-157.0-0.0","20612691","wem/bandit_party_1","A3U2UNSYDPS933","either","4","1110","","","","","","","0","0","1","0.1665702367","","0.8","0.6","0.4","0.2","","","","","0.1665702367","0.1102777544","0.3237719372","0.08782875681","","","","","","","","","","72","H","0","img/none_selected.jpg","","116","main_expt",""
"","bandit","196","670336","0.0-158.0-0.0","20612691","wem/bandit_party_1","A3U2UNSYDPS933","either","4","901","","","","","","","0","0","1","","0.06031800864","0.8","0.6","0.4","0.2","0.1530687496","0.1101610351","0.3154846423","0.06031800864","","","","","","","","","","","","","","76","L","3","","","117","main_expt",""
"","bandit","197","673719","0.0-159.0-0.0","20612691","wem/bandit_party_1","A3U2UNSYDPS933","either","4","1846","","","","","","","0","0","1","","0.2584508078","0.8","0.6","0.4","0.2","0.1674206906","0.122460482","0.2584508078","0.05633053331","","","","","","","","","","","","","","75","K","2","","","118","main_expt",""
"","bandit","198","675572","0.0-160.0-0.0","20612691","wem/bandit_party_1","A3U2UNSYDPS933","either","4","329","","","","","","","0","0","1","","0.07530514027","0.8","0.6","0.4","0.2","0.1990215448","0.1451868924","0.2141905193","0.07530514027","","","","","","","","","","","","","","76","L","3","","","119","main_expt",""
"","bandit","199","677811","0.0-161.0-0.0","20612691","wem/bandit_party_1","A3U2UNSYDPS933","either","4","720","","","","","","","0","0","1","0.09639595661","","0.8","0.6","0.4","0.2","","","","","0.2208640619","0.09092593383","0.2341954374","0.09639595661","","","","","","","","","","76","L","3","","","120","main_expt",""
"","bandit","200","680106","0.0-162.0-0.0","20612691","wem/bandit_party_1","A3U2UNSYDPS933","either","4","754","","","","","","","0","0","1","","0.1421799471","0.8","0.6","0.4","0.2","0.2602917539","0.1080456108","0.1886372651","0.1421799471","","","","","","","","","","","","","","76","L","3","","","121","main_expt",""
"","bandit","201","683647","0.0-163.0-0.0","20612691","wem/bandit_party_1","A3U2UNSYDPS933","either","4","2025","","","","","","","0","0","1","0.1169053248","","0.8","0.6","0.4","0.2","","","","","0.2512498235","0.1169053248","0.1597592322","0.1624760489","","","","","","","","","","74","J","1","","","122","main_expt",""
"","bandit","202","687905","0.0-164.0-0.0","20612691","wem/bandit_party_1","A3U2UNSYDPS933","either","4","2741","","","","","","","0","0","1","0.1571594809","","0.8","0.6","0.4","0.2","","","","","0.2266242761","0.1571594809","0.1895266442","0.1640214383","","","","","","","","","","74","J","1","","","123","main_expt",""
"","bandit","203","690431","0.0-165.0-0.0","20612691","wem/bandit_party_1","A3U2UNSYDPS933","either","4","1011","","","","","","","0","0","1","0.2014340991","","0.8","0.6","0.4","0.2","","","","","0.2373824638","0.2231804049","0.2042850732","0.2014340991","","","","","","","","","","76","L","3","","","124","main_expt",""
"","bandit","204","694065","0.0-166.0-0.0","20612691","wem/bandit_party_1","A3U2UNSYDPS933","either","4","2098","","","","","","","0","0","1","0.2538727107","","0.8","0.6","0.4","0.2","","","","","0.2538727107","0.2232794356","0.1812515389","0.2229229076","","","","","","","","","","72","H","0","img/none_selected.jpg","","125","main_expt",""
"","bandit","205","696080","0.0-167.0-0.0","20612691","wem/bandit_party_1","A3U2UNSYDPS933","either","4","500","","","","","","","0","0","1","","0.2316903634","0.8","0.6","0.4","0.2","0.290219491","0.2316903634","0.1694736183","0.2324712723","","","","","","","","","","","","","","74","J","1","","","126","main_expt",""
"","bandit","206","698317","0.0-168.0-0.0","20612691","wem/bandit_party_1","A3U2UNSYDPS933","either","4","721","","","","","","","1","0","0","0.1624528765","","0.8","0.6","0.4","0.2","","","","","0.2542505169","0.2337524142","0.1624528765","0.2628391623","","","","","","","","","","75","K","2","","","127","main_expt",""
"","bandit","207","700671","0.0-169.0-0.0","20612691","wem/bandit_party_1","A3U2UNSYDPS933","either","4","806","","","","","","","0","0","1","","0.1632982916","0.8","0.6","0.4","0.2","0.2582316027","0.2198210178","0.1632982916","0.2654356302","","","","","","","","","","","","","","75","K","2","","","128","main_expt",""
"","bandit","208","703613","0.0-170.0-0.0","20612691","wem/bandit_party_1","A3U2UNSYDPS933","either","4","1428","","","","","","","0","0","1","","0.2070569149","0.8","0.6","0.4","0.2","0.3267566011","0.2280168395","0.2264598068","0.2070569149","","","","","","","","","","","","","","76","L","3","","","129","main_expt",""
"","bandit","209","705704","0.0-171.0-0.0","20612691","wem/bandit_party_1","A3U2UNSYDPS933","either","4","574","","","","","","","1","0","0","0.3323271388","","0.8","0.6","0.4","0.2","","","","","0.3323271388","0.243895296","0.202760285","0.2579182239","","","","","","","","","","72","H","0","img/none_selected.jpg","","130","main_expt",""
"","bandit","210","708205","0.0-172.0-0.0","20612691","wem/bandit_party_1","A3U2UNSYDPS933","either","4","941","","","","","","","0","0","1","","0.2164454501","0.8","0.6","0.4","0.2","0.2666668646","0.2164454501","0.1585094705","0.2329110821","","","","","","","","","","","","","","74","J","1","","","131","main_expt",""
"","bandit","211","710338","0.0-173.0-0.0","20612691","wem/bandit_party_1","A3U2UNSYDPS933","either","4","614","","","","","","","0","0","1","0.200468731","","0.8","0.6","0.4","0.2","","","","","0.2359119393","0.200468731","0.1304261544","0.2400232435","","","","","","","","","","74","J","1","","","132","main_expt",""
"","bandit","212","713903","0.0-174.0-0.0","20612691","wem/bandit_party_1","A3U2UNSYDPS933","either","4","2050","","","","","","","0","0","1","0.09339990826","","0.8","0.6","0.4","0.2","","","","","0.2540740643","0.2038597077","0.09339990826","0.2084798617","","","","","","","","","","75","K","2","","","133","main_expt",""
"","bandit","213","716307","0.0-175.0-0.0","20612691","wem/bandit_party_1","A3U2UNSYDPS933","either","4","884","","","","","","","0","0","1","0.2414927735","","0.8","0.6","0.4","0.2","","","","","0.2414927735","0.2263269307","0.08524612959","0.2034544","","","","","","","","","","72","H","0","img/none_selected.jpg","","134","main_expt",""
"","bandit","214","718214","0.0-176.0-0.0","20612691","wem/bandit_party_1","A3U2UNSYDPS933","either","4","387","","","","","","","0","0","1","0.2632369982","","0.8","0.6","0.4","0.2","","","","","0.2632369982","0.2686469146","0.0622033461","0.2088958693","","","","","","","","","","72","H","0","img/none_selected.jpg","","135","main_expt",""
"","bandit","215","719918","0.0-177.0-0.0","20612691","wem/bandit_party_1","A3U2UNSYDPS933","either","4","189","","","","","","","0","0","1","","0.3170393738","0.8","0.6","0.4","0.2","0.3032623762","0.3170393738","0.05632890875","0.2573758916","","","","","","","","","","","","","","74","J","1","","","136","main_expt",""
"","bandit","216","723581","0.0-178.0-0.0","20612691","wem/bandit_party_1","A3U2UNSYDPS933","either","4","2149","","","","","","","0","0","1","0.338962466","","0.8","0.6","0.4","0.2","","","","","0.2984046037","0.338962466","0.06052980877","0.2467438462","","","","","","","","","","74","J","1","","","137","main_expt",""
"","bandit","217","725502","0.0-179.0-0.0","20612691","wem/bandit_party_1","A3U2UNSYDPS933","either","4","405","","","","","","","0","0","1","0.1038497792","","0.8","0.6","0.4","0.2","","","","","0.3110629865","0.3586643031","0.1038497792","0.2221944767","","","","","","","","","","75","K","2","","","138","main_expt",""
"","bandit","218","727134","0.0-180.0-0.0","20612691","wem/bandit_party_1","A3U2UNSYDPS933","either","4","117","","","","","","","1","0","0","0.2750517365","","0.8","0.6","0.4","0.2","","","","","0.3048373826","0.3430902759","0.08561062373","0.2750517365","","","","","","","","","","76","L","3","","","139","main_expt",""
"","bandit","219","729231","0.0-181.0-0.0","20612691","wem/bandit_party_1","A3U2UNSYDPS933","either","4","582","","","","","","","0","0","1","","0.277474309","0.8","0.6","0.4","0.2","0.3163642845","0.3777112835","0.08025295029","0.277474309","","","","","","","","","","","","","","76","L","3","","","140","main_expt",""
"","bandit","220","731889","0.0-182.0-0.0","20612691","wem/bandit_party_1","A3U2UNSYDPS933","either","4","1141","","","","","","","0","0","1","0.09309891757","","0.8","0.6","0.4","0.2","","","","","0.2213861514","0.4276051364","0.09309891757","0.2932007391","","","","","","","","","","75","K","2","","","141","main_expt",""
"","bandit","221","733905","0.0-183.0-0.0","20612691","wem/bandit_party_1","A3U2UNSYDPS933","either","4","499","","","","","","","0","0","1","0.2492613222","","0.8","0.6","0.4","0.2","","","","","0.2492613222","0.4312347149","0.1107976638","0.3001807938","","","","","","","","","","72","H","0","img/none_selected.jpg","","142","main_expt",""
"","bandit","222","736816","0.0-184.0-0.0","20612691","wem/bandit_party_1","A3U2UNSYDPS933","either","4","1395","","","","","","","0","0","1","0.09575525052","","0.8","0.6","0.4","0.2","","","","","0.2645663874","0.386657586","0.09575525052","0.3640878437","","","","","","","","","","75","K","2","","","143","main_expt",""
"","bandit","223","740247","0.0-185.0-0.0","20612691","wem/bandit_party_1","A3U2UNSYDPS933","either","4","1902","","","","","","","1","0","0","0.2928215939","","0.8","0.6","0.4","0.2","","","","","0.2928215939","0.3409851627","0.07222794989","0.2706796495","","","","","","","","","","72","H","0","img/none_selected.jpg","","144","main_expt",""
"","bandit","224","742528","0.0-186.0-0.0","20612691","wem/bandit_party_1","A3U2UNSYDPS933","either","4","766","","","","","","","0","0","1","0.3178979655","","0.8","0.6","0.4","0.2","","","","","0.3178979655","0.3538709708","0.03203798906","0.2359726437","","","","","","","","","","72","H","0","img/none_selected.jpg","","145","main_expt",""
"","bandit","225","744702","0.0-187.0-0.0","20612691","wem/bandit_party_1","A3U2UNSYDPS933","either","4","654","","","","","","","1","0","0","0.2850957273","","0.8","0.6","0.4","0.2","","","","","0.2850957273","0.2745956728","0.03073079809","0.2200332621","","","","","","","","","","72","H","0","img/none_selected.jpg","","146","main_expt",""
"","bandit","226","746286","0.0-188.0-0.0","20612691","wem/bandit_party_1","A3U2UNSYDPS933","either","4","59","","","","","","","0","0","1","0.2483519338","","0.8","0.6","0.4","0.2","","","","","0.2483519338","0.2375793476","0.05105424151","0.1957794229","","","","","","","","","","72","H","0","img/none_selected.jpg","","147","main_expt",""
"","bandit","227","748435","0.0-189.0-0.0","20612691","wem/bandit_party_1","A3U2UNSYDPS933","either","4","631","","","","","","","1","0","0","0.04045355104","","0.8","0.6","0.4","0.2","","","","","0.2309770791","0.2954602587","0.04045355104","0.1790722045","","","","","","","","","","75","K","2","","","148","main_expt",""
"","bandit","228","750579","0.0-190.0-0.0","20612691","wem/bandit_party_1","A3U2UNSYDPS933","either","4","628","","","","","","","0","0","1","0.06416506337","","0.8","0.6","0.4","0.2","","","","","0.1759049641","0.3435099865","0.06416506337","0.2189150546","","","","","","","","","","75","K","2","","","149","main_expt",""
"","bandit","229","752560","0.0-191.0-0.0","20612691","wem/bandit_party_1","A3U2UNSYDPS933","either","4","464","","","","","","","0","1","0","","0.07819388902","0.8","0.6","0.4","0.2","0.1910702346","0.268900415","0.07819388902","0.2119229637","","","","","","","","","","","","","","75","K","2","","","150","main_expt",""
"","bandit","230","756339","0.0-192.0-0.0","20612691","wem/bandit_party_1","A3U2UNSYDPS933","either","4","2260","","","","","","","0","0","1","0.2472398003","","0.8","0.6","0.4","0.2","","","","","0.1799178466","0.2326488896","0.1186979887","0.2472398003","","","","","","","","","","76","L","3","","","151","main_expt",""
"","bandit","231","759857","0.0-193.0-0.0","20612691","wem/bandit_party_1","A3U2UNSYDPS933","either","4","2001","","","","","","","0","0","1","","0.2768057641","0.8","0.6","0.4","0.2","0.1826140084","0.2768057641","0.1084773402","0.2148428051","","","","","","","","","","","","","","74","J","1","","","152","main_expt",""
"","bandit","232","763093","0.0-194.0-0.0","20612691","wem/bandit_party_1","A3U2UNSYDPS933","either","4","1702","","","","","","","0","0","1","0.1314289417","","0.8","0.6","0.4","0.2","","","","","0.147924298","0.2997660112","0.1314289417","0.1598057249","","","","","","","","","","75","K","2","","","153","main_expt",""
"","bandit","233","766531","0.0-195.0-0.0","20612691","wem/bandit_party_1","A3U2UNSYDPS933","either","4","1920","","","","","","","0","0","1","0.1388357139","","0.8","0.6","0.4","0.2","","","","","0.1388357139","0.3196464983","0.1354051011","0.1489099923","","","","","","","","","","72","H","0","img/none_selected.jpg","","154","main_expt",""
"","bandit","234","768481","0.0-196.0-0.0","20612691","wem/bandit_party_1","A3U2UNSYDPS933","either","4","432","","","","","","","0","0","1","","0.1658398244","0.8","0.6","0.4","0.2","0.1658398244","0.3141654429","0.1085215933","0.1502541116","","","","","","","","","","","","","","72","H","0","img/none_selected.jpg","","155","main_expt",""
"","bandit","235","771503","0.0-197.0-0.0","20612691","wem/bandit_party_1","A3U2UNSYDPS933","either","4","1507","","","","","","","0","0","1","","0.1104921729","0.8","0.6","0.4","0.2","0.1104921729","0.2667217688","0.1383379057","0.1605084188","","","","","","","","","","","","","","72","H","0","img/none_selected.jpg","","156","main_expt",""
"","bandit","236","773298","0.0-198.0-0.0","20612691","wem/bandit_party_1","A3U2UNSYDPS933","either","4","257","","","","","","","0","0","1","0.2867075714","","0.8","0.6","0.4","0.2","","","","","0.09530810267","0.2867075714","0.1428990181","0.1684101418","","","","","","","","","","74","J","1","","","157","main_expt",""
"","bandit","237","774866","0.0-199.0-0.0","20612691","wem/bandit_party_1","A3U2UNSYDPS933","either","4","47","","","","","","","0","0","1","","0.07455979893","0.8","0.6","0.4","0.2","0.1211627972","0.2788639118","0.07455979893","0.1807688322","","","","","","","","","","","","","","75","K","2","","","158","main_expt",""
"","bandit","238","777043","0.0-200.0-0.0","20612691","wem/bandit_party_1","A3U2UNSYDPS933","either","4","653","","","","","","","0","0","1","","0.1516426412","0.8","0.6","0.4","0.2","0.1012897464","0.3020710819","0.1009372764","0.1516426412","","","","","","","","","","","","","","76","L","3","","","159","main_expt",""
"","bandit","239","780479","0.0-201.0-0.0","20612691","wem/bandit_party_1","A3U2UNSYDPS933","either","4","1911","","","","","","","0","0","1","0.3404227007","","0.8","0.6","0.4","0.2","","","","","0.1188035868","0.3404227007","0.05118862797","0.1638698877","","","","","","","","","","74","J","1","","","160","main_expt",""
"","bandit","240","783116","0.0-202.0-0.0","20612691","wem/bandit_party_1","A3U2UNSYDPS933","either","4","1108","","","","","","","0","0","1","0.2876249865","","0.8","0.6","0.4","0.2","","","","","0.1606836622","0.2876249865","0.05265847637","0.1645359983","","","","","","","","","","74","J","1","","","161","main_expt",""
"","bandit","241","785715","0.0-203.0-0.0","20612691","wem/bandit_party_1","A3U2UNSYDPS933","either","4","1078","","","","","","","0","0","1","0.07938684611","","0.8","0.6","0.4","0.2","","","","","0.1859884171","0.2401308511","0.07938684611","0.2509918509","","","","","","","","","","75","K","2","","","162","main_expt",""
"","bandit","242","789306","0.0-204.0-0.0","20612691","wem/bandit_party_1","A3U2UNSYDPS933","either","4","2071","","","","","","","0","0","1","0.0970900163","","0.8","0.6","0.4","0.2","","","","","0.2528258464","0.2486605046","0.0970900163","0.1883685458","","","","","","","","","","75","K","2","","","163","main_expt",""
"","bandit","243","792176","0.0-205.0-0.0","20612691","wem/bandit_party_1","A3U2UNSYDPS933","either","4","1353","","","","","","","0","0","1","","0.07401968201","0.8","0.6","0.4","0.2","0.2515292425","0.22675384","0.07401968201","0.2179532334","","","","","","","","","","","","","","75","K","2","","","164","main_expt",""
"","bandit","244","794197","0.0-206.0-0.0","20612691","wem/bandit_party_1","A3U2UNSYDPS933","either","4","467","","","","","","","0","0","1","0.2841151948","","0.8","0.6","0.4","0.2","","","","","0.2068970429","0.2841151948","0.06633104104","0.2143704678","","","","","","","","","","74","J","1","","","165","main_expt",""
"","bandit","245","797168","0.0-207.0-0.0","20612691","wem/bandit_party_1","A3U2UNSYDPS933","either","4","1448","","","","","","","0","0","1","0.1413778631","","0.8","0.6","0.4","0.2","","","","","0.1413778631","0.2842980464","0.05309652092","0.2175899085","","","","","","","","","","72","H","0","img/none_selected.jpg","","166","main_expt",""
"","bandit","246","800448","0.0-208.0-0.0","20612691","wem/bandit_party_1","A3U2UNSYDPS933","either","4","1760","","","","","","","0","0","1","0.2137120923","","0.8","0.6","0.4","0.2","","","","","0.1999497975","0.3007590714","0.07357446968","0.2137120923","","","","","","","","","","76","L","3","","","167","main_expt",""
"","bandit","247","804580","0.0-209.0-0.0","20612691","wem/bandit_party_1","A3U2UNSYDPS933","either","4","2611","","","","","","","0","0","1","","0.2331560811","0.8","0.6","0.4","0.2","0.1696145944","0.2884936601","0.1054325378","0.2331560811","","","","","","","","","","","","","","76","L","3","","","168","main_expt",""
"","bandit","248","806740","0.0-210.0-0.0","20612691","wem/bandit_party_1","A3U2UNSYDPS933","either","4","614","","","","","","","0","0","1","","0.1338518967","0.8","0.6","0.4","0.2","0.1338518967","0.2803439438","0.08536867429","0.2367963754","","","","","","","","","","","","","","72","H","0","img/none_selected.jpg","","169","main_expt",""
"","bandit","249","808601","0.0-211.0-0.0","20612691","wem/bandit_party_1","A3U2UNSYDPS933","either","4","345","","","","","","","1","0","0","0.3010437192","","0.8","0.6","0.4","0.2","","","","","0.1307598277","0.3010437192","0.1083432756","0.2378050175","","","","","","","","","","74","J","1","","","170","main_expt",""
"","bandit","250","810579","0.0-212.0-0.0","20612691","wem/bandit_party_1","A3U2UNSYDPS933","either","4","459","","","","","","","0","0","1","","0.09185370626","0.8","0.6","0.4","0.2","0.1200375331","0.3243802095","0.09185370626","0.2253696972","","","","","","","","","","","","","","75","K","2","","","171","main_expt",""
"","bandit","251","815571","0.0-213.0-0.0","20612691","wem/bandit_party_1","A3U2UNSYDPS933","either","4","3428","","","","","","","0","0","1","0.2903394368","","0.8","0.6","0.4","0.2","","","","","0.07514546963","0.3140094691","0.09458096772","0.2903394368","","","","","","","","","","76","L","3","","","172","main_expt",""
"","bandit","252","818289","0.0-214.0-0.0","20612691","wem/bandit_party_1","A3U2UNSYDPS933","either","4","1203","","","","","","","0","0","1","0.07704486673","","0.8","0.6","0.4","0.2","","","","","0.07704486673","0.2433770114","0.1016296913","0.2384828248","","","","","","","","","","72","H","0","img/none_selected.jpg","","173","main_expt",""
"","bandit","253","820207","0.0-215.0-0.0","20612691","wem/bandit_party_1","A3U2UNSYDPS933","either","4","401","","","","","","","1","0","0","0.2080779891","","0.8","0.6","0.4","0.2","","","","","0.04061738922","0.2080779891","0.117107939","0.2823111034","","","","","","","","","","74","J","1","","","174","main_expt",""
"","bandit","254","823550","0.0-216.0-0.0","20612691","wem/bandit_party_1","A3U2UNSYDPS933","either","4","1826","","","","","","","0","0","1","0.2211365803","","0.8","0.6","0.4","0.2","","","","","0.02968316822","0.2211365803","0.1254773658","0.292147578","","","","","","","","","","74","J","1","","","175","main_expt",""
"","bandit","255","825872","0.0-217.0-0.0","20612691","wem/bandit_party_1","A3U2UNSYDPS933","either","4","803","","","","","","","0","1","0","","0.231280906","0.8","0.6","0.4","0.2","0.04419366322","0.231280906","0.1518856622","0.2928295457","","","","","","","","","","","","","","74","J","1","","","176","main_expt",""
"","bandit","256","827648","0.0-218.0-0.0","20612691","wem/bandit_party_1","A3U2UNSYDPS933","either","4","258","","","","","","","0","0","1","","0.1689881391","0.8","0.6","0.4","0.2","0.04140429262","0.1689881391","0.1502483312","0.297241693","","","","","","","","","","","","","","74","J","1","","","177","main_expt",""
"","bandit","257","830820","0.0-219.0-0.0","20612691","wem/bandit_party_1","A3U2UNSYDPS933","either","4","1654","","","","","","","0","0","1","0.1699404395","","0.8","0.6","0.4","0.2","","","","","0.06103489621","0.1699404395","0.2073149786","0.276241128","","","","","","","","","","74","J","1","","","178","main_expt",""
"","bandit","258","833812","0.0-220.0-0.0","20612691","wem/bandit_party_1","A3U2UNSYDPS933","either","4","1469","","","","","","","0","0","1","0.1571972967","","0.8","0.6","0.4","0.2","","","","","0.053608248","0.1571972967","0.1928578162","0.2405339857","","","","","","","","","","74","J","1","","","179","main_expt",""
"","bandit","259","836243","0.0-221.0-0.0","20612691","wem/bandit_party_1","A3U2UNSYDPS933","either","4","911","","","","","","","0","0","1","0.1567782565","","0.8","0.6","0.4","0.2","","","","","0.06289379635","0.1567782565","0.1412953234","0.233428307","","","","","","","","","","74","J","1","","","180","main_expt",""
"","bandit","260","839774","0.0-222.0-0.0","20612691","wem/bandit_party_1","A3U2UNSYDPS933","either","4","2014","","","","","","","0","0","1","0.07748386732","","0.8","0.6","0.4","0.2","","","","","0.07748386732","0.1492691696","0.1258774719","0.1459310114","","","","","","","","","","72","H","0","img/none_selected.jpg","","181","main_expt",""
"","bandit","261","842134","0.0-223.0-0.0","20612691","wem/bandit_party_1","A3U2UNSYDPS933","either","4","840","","","","","","","0","0","1","","0.1796360657","0.8","0.6","0.4","0.2","0.096714051","0.1609613705","0.1121960069","0.1796360657","","","","","","","","","","","","","","76","L","3","","","182","main_expt",""
"","bandit","262","844591","0.0-224.0-0.0","20612691","wem/bandit_party_1","A3U2UNSYDPS933","either","4","939","","","","","","","0","0","1","0.08335286121","","0.8","0.6","0.4","0.2","","","","","0.05351369794","0.1982891881","0.08335286121","0.1907874973","","","","","","","","","","75","K","2","","","183","main_expt",""
"","bandit","263","846658","0.0-225.0-0.0","20612691","wem/bandit_party_1","A3U2UNSYDPS933","either","4","546","","","","","","","0","0","1","0.1085923678","","0.8","0.6","0.4","0.2","","","","","0.08854511538","0.1703318442","0.1085923678","0.1451627339","","","","","","","","","","75","K","2","","","184","main_expt",""
"","bandit","264","848249","0.0-226.0-0.0","20612691","wem/bandit_party_1","A3U2UNSYDPS933","either","4","52","","","","","","","1","0","0","0.1113654269","","0.8","0.6","0.4","0.2","","","","","0.136385666","0.09566746086","0.1113654269","0.1692531577","","","","","","","","","","75","K","2","","","185","main_expt",""
"","bandit","265","851696","0.0-227.0-0.0","20612691","wem/bandit_party_1","A3U2UNSYDPS933","either","4","1926","","","","","","","0","0","1","","0.1383531569","0.8","0.6","0.4","0.2","0.1848043888","0.1254261761","0.1383531569","0.1885113298","","","","","","","","","","","","","","75","K","2","","","186","main_expt",""
"","bandit","266","853730","0.0-228.0-0.0","20612691","wem/bandit_party_1","A3U2UNSYDPS933","either","4","513","","","","","","","0","0","1","0.1081798115","","0.8","0.6","0.4","0.2","","","","","0.1640989128","0.1081798115","0.1739713275","0.2088125345","","","","","","","","","","74","J","1","","","187","main_expt",""
"","bandit","267","856752","0.0-229.0-0.0","20612691","wem/bandit_party_1","A3U2UNSYDPS933","either","4","1500","","","","","","","0","0","1","","0.1301402021","0.8","0.6","0.4","0.2","0.1301402021","0.08529062399","0.1926366302","0.2228369986","","","","","","","","","","","","","","72","H","0","img/none_selected.jpg","","188","main_expt",""
"","bandit","268","859027","0.0-230.0-0.0","20612691","wem/bandit_party_1","A3U2UNSYDPS933","either","4","741","","","","","","","0","0","1","0.07250281893","","0.8","0.6","0.4","0.2","","","","","0.1980942663","0.07250281893","0.2499935398","0.2567428292","","","","","","","","","","74","J","1","","","189","main_expt",""
"","bandit","269","860991","0.0-231.0-0.0","20612691","wem/bandit_party_1","A3U2UNSYDPS933","either","4","430","","","","","","","0","0","1","","0.3177850294","0.8","0.6","0.4","0.2","0.1842725295","0.07895395147","0.2367317824","0.3177850294","","","","","","","","","","","","","","76","L","3","","","190","main_expt",""
"","bandit","270","863906","0.0-232.0-0.0","20612691","wem/bandit_party_1","A3U2UNSYDPS933","either","4","1384","","","","","","","0","0","1","","0.2515026666","0.8","0.6","0.4","0.2","0.2087081259","0.06204701637","0.2515026666","0.2876912335","","","","","","","","","","","","","","75","K","2","","","191","main_expt",""
"","bandit","271","867407","0.0-233.0-0.0","20612691","wem/bandit_party_1","A3U2UNSYDPS933","either","4","1983","","","","","","","0","0","1","","0.2383873749","0.8","0.6","0.4","0.2","0.1800110976","0.064067899","0.2451916405","0.2383873749","","","","","","","","","","","","","","76","L","3","","","192","main_expt",""
"","bandit","272","868944","0.0-234.0-0.0","20612691","wem/bandit_party_1","A3U2UNSYDPS933","either","4","18","","","","","","","0","0","1","0.1519186298","","0.8","0.6","0.4","0.2","","","","","0.1519186298","0.1286650472","0.2353451433","0.24690957","","","","","","","","","","72","H","0","img/none_selected.jpg","","193","main_expt",""
"","bandit","273","871294","0.0-235.0-0.0","20612691","wem/bandit_party_1","A3U2UNSYDPS933","either","4","818","","","","","","","0","0","1","0.1746490116","","0.8","0.6","0.4","0.2","","","","","0.1431656489","0.1746490116","0.307075739","0.2728455101","","","","","","","","","","74","J","1","","","194","main_expt",""
"","bandit","274","874242","0.0-236.0-0.0","20612691","wem/bandit_party_1","A3U2UNSYDPS933","either","4","1430","","","","","","","0","1","0","","0.129035247","0.8","0.6","0.4","0.2","0.1868251083","0.129035247","0.3011001907","0.2421292151","","","","","","","","","","","","","","74","J","1","","","195","main_expt",""
"","bandit","275","878562","0.0-237.0-0.0","20612691","wem/bandit_party_1","A3U2UNSYDPS933","either","4","2799","","","","","","","0","0","1","0.09052040682","","0.8","0.6","0.4","0.2","","","","","0.176624335","0.09052040682","0.2861216794","0.2598052724","","","","","","","","","","74","J","1","","","196","main_expt",""
"","bandit","276","881263","0.0-238.0-0.0","20612691","wem/bandit_party_1","A3U2UNSYDPS933","either","4","1184","","","","","","","0","0","1","0.2383323772","","0.8","0.6","0.4","0.2","","","","","0.2383323772","0.08675464884","0.2121549007","0.2540930088","","","","","","","","","","72","H","0","img/none_selected.jpg","","197","main_expt",""
"","bandit","277","883171","0.0-239.0-0.0","20612691","wem/bandit_party_1","A3U2UNSYDPS933","either","4","387","","","","","","","0","0","1","","0.09429549835","0.8","0.6","0.4","0.2","0.260618614","0.09429549835","0.260340052","0.2460150375","","","","","","","","","","","","","","74","J","1","","","198","main_expt",""
"","bandit","278","885635","0.0-240.0-0.0","20612691","wem/bandit_party_1","A3U2UNSYDPS933","either","4","936","","","","","","","1","0","0","0.2935067364","","0.8","0.6","0.4","0.2","","","","","0.2935067364","0.09303778716","0.3009562829","0.2217343644","","","","","","","","","","72","H","0","img/none_selected.jpg","","199","main_expt",""
"","bandit","279","888211","0.0-241.0-0.0","20612691","wem/bandit_party_1","A3U2UNSYDPS933","either","4","1055","","","","","","","1","0","0","0.362920627","","0.8","0.6","0.4","0.2","","","","","0.362920627","0.07354084322","0.3430896668","0.2830302048","","","","","","","","","","72","H","0","img/none_selected.jpg","","200","main_expt",""
"","bandit","280","890950","0.0-242.0-0.0","20612691","wem/bandit_party_1","A3U2UNSYDPS933","either","4","1214","","","","","","","0","0","1","0.3119044903","","0.8","0.6","0.4","0.2","","","","","0.3119044903","0.08115367452","0.2973668079","0.3175621279","","","","","","","","","","72","H","0","img/none_selected.jpg","","201","main_expt",""
"","bandit","281","894914","0.0-243.0-0.0","20612691","wem/bandit_party_1","A3U2UNSYDPS933","either","4","2441","","","","","","","0","0","1","0.3095695708","","0.8","0.6","0.4","0.2","","","","","0.3095695708","0.0774842685","0.3219337599","0.3049471546","","","","","","","","","","72","H","0","img/none_selected.jpg","","202","main_expt",""
"","bandit","282","897507","0.0-244.0-0.0","20612691","wem/bandit_party_1","A3U2UNSYDPS933","either","4","1059","","","","","","","0","0","1","0.09704724367","","0.8","0.6","0.4","0.2","","","","","0.3005459379","0.09704724367","0.3229991028","0.2975042969","","","","","","","","","","74","J","1","","","203","main_expt",""
"","bandit","283","899190","0.0-245.0-0.0","20612691","wem/bandit_party_1","A3U2UNSYDPS933","either","4","158","","","","","","","0","0","1","0.3077995671","","0.8","0.6","0.4","0.2","","","","","0.3116824409","0.1224111047","0.3077995671","0.2268457719","","","","","","","","","","75","K","2","","","204","main_expt",""
"","bandit","284","901376","0.0-246.0-0.0","20612691","wem/bandit_party_1","A3U2UNSYDPS933","either","4","658","","","","","","","0","1","0","","0.2582085449","0.8","0.6","0.4","0.2","0.3291635812","0.1627664319","0.3070199156","0.2582085449","","","","","","","","","","","","","","76","L","3","","","205","main_expt",""
"","bandit","285","903216","0.0-247.0-0.0","20612691","wem/bandit_party_1","A3U2UNSYDPS933","either","4","317","","","","","","","0","0","1","0.4008790519","","0.8","0.6","0.4","0.2","","","","","0.4008790519","0.1604236747","0.3109683939","0.2841247045","","","","","","","","","","72","H","0","img/none_selected.jpg","","206","main_expt",""
"","bandit","286","904799","0.0-248.0-0.0","20612691","wem/bandit_party_1","A3U2UNSYDPS933","either","4","64","","","","","","","0","0","1","","0.126388554","0.8","0.6","0.4","0.2","0.4202180382","0.126388554","0.2845075958","0.3333225396","","","","","","","","","","","","","","74","J","1","","","207","main_expt",""
"","bandit","287","907649","0.0-249.0-0.0","20612691","wem/bandit_party_1","A3U2UNSYDPS933","either","4","1331","","","","","","","0","0","1","","0.2419557814","0.8","0.6","0.4","0.2","0.4168586074","0.1602309633","0.2419557814","0.290219871","","","","","","","","","","","","","","75","K","2","","","208","main_expt",""
"","bandit","288","910678","0.0-250.0-0.0","20612691","wem/bandit_party_1","A3U2UNSYDPS933","either","4","1494","","","","","","","0","0","1","","0.2449545816","0.8","0.6","0.4","0.2","0.3949328033","0.2009997365","0.2449545816","0.3426384504","","","","","","","","","","","","","","75","K","2","","","209","main_expt",""
"","bandit","289","916419","0.0-251.0-0.0","20612691","wem/bandit_party_1","A3U2UNSYDPS933","either","4","4204","","","","","","","1","0","0","0.41782505","","0.8","0.6","0.4","0.2","","","","","0.41782505","0.1997114924","0.2176860071","0.2932754766","","","","","","","","","","72","H","0","img/none_selected.jpg","","210","main_expt",""
"","bandit","290","918711","0.0-252.0-0.0","20612691","wem/bandit_party_1","A3U2UNSYDPS933","either","4","773","","","","","","","0","0","1","","0.2522206247","0.8","0.6","0.4","0.2","0.4377941382","0.2631807131","0.2460847292","0.2522206247","","","","","","","","","","","","","","76","L","3","","","211","main_expt",""
"","bandit","291","921231","0.0-253.0-0.0","20612691","wem/bandit_party_1","A3U2UNSYDPS933","either","4","1001","","","","","","","1","0","0","0.2017704833","","0.8","0.6","0.4","0.2","","","","","0.4619006446","0.2008991105","0.2017704833","0.2323705111","","","","","","","","","","75","K","2","","","212","main_expt",""
"","bandit","292","925312","0.0-254.0-0.0","20612691","wem/bandit_party_1","A3U2UNSYDPS933","either","4","2557","","","","","","","0","1","0","","0.4508737721","0.8","0.6","0.4","0.2","0.4508737721","0.1656487101","0.1891715169","0.2815580385","","","","","","","","","","","","","","72","H","0","img/none_selected.jpg","","213","main_expt",""
"","bandit","293","928401","0.0-255.0-0.0","20612691","wem/bandit_party_1","A3U2UNSYDPS933","either","4","1568","","","","","","","0","1","0","","0.2955812139","0.8","0.6","0.4","0.2","0.4639731149","0.213788386","0.1819308411","0.2955812139","","","","","","","","","","","","","","76","L","3","","","214","main_expt",""
"","bandit","294","931148","0.0-256.0-0.0","20612691","wem/bandit_party_1","A3U2UNSYDPS933","either","4","1223","","","","","","","0","0","1","","0.2988647484","0.8","0.6","0.4","0.2","0.4690757113","0.2206736926","0.1406935411","0.2988647484","","","","","","","","","","","","","","76","L","3","","","215","main_expt",""
"","bandit","295","934016","0.0-257.0-0.0","20612691","wem/bandit_party_1","A3U2UNSYDPS933","either","4","1345","","","","","","","1","0","0","0.4685680314","","0.8","0.6","0.4","0.2","","","","","0.4685680314","0.2270120675","0.206739756","0.3361974059","","","","","","","","","","72","H","0","img/none_selected.jpg","","216","main_expt",""
"","bandit","296","936656","0.0-258.0-0.0","20612691","wem/bandit_party_1","A3U2UNSYDPS933","either","4","1119","","","","","","","0","0","1","","0.2764506131","0.8","0.6","0.4","0.2","0.4873952874","0.2561581829","0.178624692","0.2764506131","","","","","","","","","","","","","","76","L","3","","","217","main_expt",""
"","bandit","297","938654","0.0-259.0-0.0","20612691","wem/bandit_party_1","A3U2UNSYDPS933","either","4","479","","","","","","","0","0","1","","0.2021641755","0.8","0.6","0.4","0.2","0.4790671899","0.2785758431","0.2021641755","0.299893698","","","","","","","","","","","","","","75","K","2","","","218","main_expt",""
"","bandit","298","940480","0.0-260.0-0.0","20612691","wem/bandit_party_1","A3U2UNSYDPS933","either","4","306","","","","","","","0","0","1","0.2076996705","","0.8","0.6","0.4","0.2","","","","","0.4769795117","0.2707863597","0.2076996705","0.3213687962","","","","","","","","","","75","K","2","","","219","main_expt",""
"","bandit","299","943682","0.0-261.0-0.0","20612691","wem/bandit_party_1","A3U2UNSYDPS933","either","4","1681","","","","","","","0","0","1","","0.3782095139","0.8","0.6","0.4","0.2","0.4746148145","0.2262269101","0.2479045362","0.3782095139","","","","","","","","","","","","","","76","L","3","","","220","main_expt",""
"","bandit","300","946066","0.0-262.0-0.0","20612691","wem/bandit_party_1","A3U2UNSYDPS933","either","4","845","","","","","","","0","1","0","","0.4789253058","0.8","0.6","0.4","0.2","0.4789253058","0.2522421151","0.251163546","0.3572699546","","","","","","","","","","","","","","72","H","0","img/none_selected.jpg","","221","main_expt",""
"","bandit","301","948373","0.0-263.0-0.0","20612691","wem/bandit_party_1","A3U2UNSYDPS933","either","4","783","","","","","","","1","0","0","0.4765400837","","0.8","0.6","0.4","0.2","","","","","0.4765400837","0.2323100388","0.2653622565","0.332217079","","","","","","","","","","72","H","0","img/none_selected.jpg","","222","main_expt",""
"","bandit","302","951189","0.0-264.0-0.0","20612691","wem/bandit_party_1","A3U2UNSYDPS933","either","4","1292","","","","","","","1","0","0","0.4872993944","","0.8","0.6","0.4","0.2","","","","","0.4872993944","0.2013525365","0.2034578964","0.3327789551","","","","","","","","","","72","H","0","img/none_selected.jpg","","223","main_expt",""
"","bandit","303","954625","0.0-265.0-0.0","20612691","wem/bandit_party_1","A3U2UNSYDPS933","either","4","1911","","","","","","","1","0","0","0.3720138676","","0.8","0.6","0.4","0.2","","","","","0.4864577786","0.2017363432","0.1176985371","0.3720138676","","","","","","","","","","76","L","3","","","224","main_expt",""
"","bandit","304","956192","0.0-266.0-0.0","20612691","wem/bandit_party_1","A3U2UNSYDPS933","either","4","47","","","","","","","1","0","0","0.4035982493","","0.8","0.6","0.4","0.2","","","","","0.4815865163","0.1608447522","0.08531446518","0.4035982493","","","","","","","","","","76","L","3","","","225","main_expt",""
"","bandit","305","958272","0.0-267.0-0.0","20612691","wem/bandit_party_1","A3U2UNSYDPS933","either","4","555","","","","","","","0","0","1","","0.3538577565","0.8","0.6","0.4","0.2","0.4781941344","0.2023183299","0.0901010045","0.3538577565","","","","","","","","","","","","","","76","L","3","","","226","main_expt",""
"","bandit","306","960386","0.0-268.0-0.0","20612691","wem/bandit_party_1","A3U2UNSYDPS933","either","4","592","","","","","","","0","0","1","","0.4205879778","0.8","0.6","0.4","0.2","0.4742279627","0.1555458008","0.06499555022","0.4205879778","","","","","","","","","","","","","","76","L","3","","","227","main_expt",""
"","bandit","307","963872","0.0-269.0-0.0","20612691","wem/bandit_party_1","A3U2UNSYDPS933","either","4","1966","","","","","","","0","0","1","0.4597327255","","0.8","0.6","0.4","0.2","","","","","0.4597327255","0.1210896773","0.06967502077","0.4082381823","","","","","","","","","","72","H","0","img/none_selected.jpg","","228","main_expt",""
"","bandit","308","966218","0.0-270.0-0.0","20612691","wem/bandit_party_1","A3U2UNSYDPS933","either","4","821","","","","","","","0","0","1","0.4733003713","","0.8","0.6","0.4","0.2","","","","","0.4733003713","0.1206830913","0.07642173418","0.4274963613","","","","","","","","","","72","H","0","img/none_selected.jpg","","229","main_expt",""
"","bandit","309","968802","0.0-271.0-0.0","20612691","wem/bandit_party_1","A3U2UNSYDPS933","either","4","1062","","","","","","","0","0","1","0.4832022084","","0.8","0.6","0.4","0.2","","","","","0.4832022084","0.1334008039","0.04973788902","0.4362488765","","","","","","","","","","72","H","0","img/none_selected.jpg","","230","main_expt",""
"","bandit","310","970426","0.0-272.0-0.0","20612691","wem/bandit_party_1","A3U2UNSYDPS933","either","4","82","","","","","","","1","0","0","0.07419495466","","0.8","0.6","0.4","0.2","","","","","0.4802630573","0.1048467088","0.07419495466","0.4420629534","","","","","","","","","","75","K","2","","","231","main_expt",""
"","bandit","311","973121","0.0-273.0-0.0","20612691","wem/bandit_party_1","A3U2UNSYDPS933","either","4","1174","","","","","","","0","0","1","","0.4287414635","0.8","0.6","0.4","0.2","0.4739318499","0.1184002818","0.08125260149","0.4287414635","","","","","","","","","","","","","","76","L","3","","","232","main_expt",""
"","bandit","312","975970","0.0-274.0-0.0","20612691","wem/bandit_party_1","A3U2UNSYDPS933","either","4","1325","","","","","","","0","0","1","","0.08533064469","0.8","0.6","0.4","0.2","0.4709765286","0.08533064469","0.06057073796","0.4395511981","","","","","","","","","","","","","","74","J","1","","","233","main_expt",""
"","bandit","313","977699","0.0-275.0-0.0","20612691","wem/bandit_party_1","A3U2UNSYDPS933","either","4","208","","","","","","","0","0","1","0.1190123434","","0.8","0.6","0.4","0.2","","","","","0.4658145356","0.1190123434","0.1037411708","0.4479240545","","","","","","","","","","74","J","1","","","234","main_expt",""
"","bandit","314","979423","0.0-276.0-0.0","20612691","wem/bandit_party_1","A3U2UNSYDPS933","either","4","204","","","","","","","1","0","0","0.4476644646","","0.8","0.6","0.4","0.2","","","","","0.4312508187","0.1392024459","0.1267441937","0.4476644646","","","","","","","","","","76","L","3","","","235","main_expt",""
"","bandit","315","982068","0.0-277.0-0.0","20612691","wem/bandit_party_1","A3U2UNSYDPS933","either","4","1121","","","","","","","0","0","1","","0.457106966","0.8","0.6","0.4","0.2","0.4323277229","0.1076242464","0.1002206095","0.457106966","","","","","","","","","","","","","","76","L","3","","","236","main_expt",""
