"consent","trial_type","trial_index","time_elapsed","internal_node_id","subjID","study","MID","cond","drift","rt","responses","button_pressed","key_press","like","value","connected","gems","bombs","no_reward","GemPrChosen","BombPrChosen","GainOverPainPr_0","GainOverPainPr_1","GainOverPainPr_2","GainOverPainPr_3","LosePr_0","LosePr_1","LosePr_2","LosePr_3","WinPr_0","WinPr_1","WinPr_2","WinPr_3","Q0","Q1","Q2","gender","age","ethnicity","label","expt_phase","target","respCharCode","respKey","respChoiceNum","respChoice","practice","trial_counter","trial_label","Q0_index"
"GDM/GDM_behavioral_consent_30min_online.html","consent","0","25930","0.0-0.0","20873770","wem/bandit_party_1","A1RATFICCKLCQ","either","5","","","","","","","","","","","","","","","","","","","","","","","","","","","","","","","","","","","","","","","","",""
"","survey-text","1","33711","0.0-1.0","20873770","wem/bandit_party_1","A1RATFICCKLCQ","either","5","6758","{""Q0"":""A1RATFICCKLCQ""}","","","","","","","","","","","","","","","","","","","","","","","","","","","","","","","","","","","","","","",""
"","button-response","2","37346","0.0-2.0","20873770","wem/bandit_party_1","A1RATFICCKLCQ","either","5","2622","","1","","","","","","","","","","","","","","","","","","","","","","","","","","","","","","","","","","","","","",""
"","text-replacement","3","61357","0.0-3.0","20873770","wem/bandit_party_1","A1RATFICCKLCQ","either","5","23004","","","32","","","","","","","","","","","","","","","","","","","","","","","","","","","","","","","","","","","","",""
"","text-replacement","4","72830","0.0-4.0","20873770","wem/bandit_party_1","A1RATFICCKLCQ","either","5","11471","","","32","","","","","","","","","","","","","","","","","","","","","","","","","","","","","","","","","","","","",""
"","identification","5","87631","0.0-6.0-0.0","20873770","wem/bandit_party_1","A1RATFICCKLCQ","either","5","14718","","","","5","5","5","","","","","","","","","","","","","","","","","","","","","","","","pre","identification_pre","the Democratic Party","","","","","","","",""
"","identification","6","97186","0.0-6.0-1.0","20873770","wem/bandit_party_1","A1RATFICCKLCQ","either","5","8525","","","","2","3","1","","","","","","","","","","","","","","","","","","","","","","","","pre","identification_pre","the Republican party","","","","","","","",""
"","text-replacement","7","106757","0.0-7.0","20873770","wem/bandit_party_1","A1RATFICCKLCQ","either","5","8567","","","32","","","","","","","","","","","","","","","","","","","","","","","","","","","","","","","","","","","","",""
"","text-replacement","8","115634","0.0-8.0","20873770","wem/bandit_party_1","A1RATFICCKLCQ","either","5","8875","","","32","","","","","","","","","","","","","","","","","","","","","","","","","","","","","","","","","","","","",""
"","text-replacement","9","124880","0.0-9.0","20873770","wem/bandit_party_1","A1RATFICCKLCQ","either","5","9243","","","32","","","","","","","","","","","","","","","","","","","","","","","","","","","","","","","","","","","","",""
"","text-replacement","10","129686","0.0-10.0","20873770","wem/bandit_party_1","A1RATFICCKLCQ","either","5","4801","","","32","","","","","","","","","","","","","","","","","","","","","","","","","","","","","","","","","","","","",""
"","text-replacement","11","133882","0.0-11.0","20873770","wem/bandit_party_1","A1RATFICCKLCQ","either","5","4193","","","32","","","","","","","","","","","","","","","","","","","","","","","","","","","","","","","","","","","","",""
"","bandit","12","139491","0.0-12.0-0.0","20873770","wem/bandit_party_1","A1RATFICCKLCQ","either","5","4092","","","","","","","0","0","1","0","0","","","","","0","","","","0","","","","","","","","","","","","","74","J","0","img/none_selected_demo.jpg","true","0","",""
"","bandit","13","142540","0.0-13.0-0.0","20873770","wem/bandit_party_1","A1RATFICCKLCQ","either","5","1538","","","","","","","0","0","1","0","0","","","","","0","","","","0","","","","","","","","","","","","","75","K","0","img/none_selected_demo.jpg","true","0","",""
"","text-replacement","14","149435","0.0-14.0","20873770","wem/bandit_party_1","A1RATFICCKLCQ","either","5","6891","","","32","","","","","","","","","","","","","","","","","","","","","","","","","","","","","","","","","","","","",""
"","text-replacement","15","155776","0.0-15.0","20873770","wem/bandit_party_1","A1RATFICCKLCQ","either","5","6337","","","32","","","","","","","","","","","","","","","","","","","","","","","","","","","","","","","","","","","","",""
"","text-replacement","16","163508","0.0-16.0","20873770","wem/bandit_party_1","A1RATFICCKLCQ","either","5","7729","","","32","","","","","","","","","","","","","","","","","","","","","","","","","","","","","","","","","","","","",""
"","text-replacement","17","167935","0.0-17.0","20873770","wem/bandit_party_1","A1RATFICCKLCQ","either","5","4423","","","32","","","","","","","","","","","","","","","","","","","","","","","","","","","","","","","","","","","","",""
"","bandit","18","170651","0.0-18.0-0.0","20873770","wem/bandit_party_1","A1RATFICCKLCQ","either","5","1198","","","","","","","0","0","1","","0.8","0.5","0.5","","","0.8","0.2","","","","","","","","","","","","","","","","74","J","0","img/none_selected_demo.jpg","true","0","80_20_practice",""
"","bandit","19","174602","0.0-18.0-1.0","20873770","wem/bandit_party_1","A1RATFICCKLCQ","either","5","2438","","","","","","","0","1","0","","0.8","0.5","0.5","","","0.8","0.2","","","","","","","","","","","","","","","","74","J","0","img/none_selected_demo.jpg","true","0","80_20_practice",""
"","bandit","20","177832","0.0-18.0-2.0","20873770","wem/bandit_party_1","A1RATFICCKLCQ","either","5","1719","","","","","","","0","0","1","0.8","","0.5","0.5","","","","","","","0.8","0.2","","","","","","","","","","","","74","J","0","img/none_selected_demo.jpg","true","0","80_20_practice",""
"","bandit","21","180770","0.0-18.0-3.0","20873770","wem/bandit_party_1","A1RATFICCKLCQ","either","5","1420","","","","","","","0","0","1","","0.2","0.5","0.5","","","0.8","0.2","","","","","","","","","","","","","","","","75","K","1","","true","0","80_20_practice",""
"","bandit","22","183238","0.0-18.0-4.0","20873770","wem/bandit_party_1","A1RATFICCKLCQ","either","5","955","","","","","","","1","0","0","0.2","","0.5","0.5","","","","","","","0.8","0.2","","","","","","","","","","","","75","K","1","","true","0","80_20_practice",""
"","bandit","23","185639","0.0-18.0-5.0","20873770","wem/bandit_party_1","A1RATFICCKLCQ","either","5","892","","","","","","","0","0","1","0.2","","0.5","0.5","","","","","","","0.8","0.2","","","","","","","","","","","","75","K","1","","true","0","80_20_practice",""
"","bandit","24","188378","0.0-18.0-6.0","20873770","wem/bandit_party_1","A1RATFICCKLCQ","either","5","1218","","","","","","","1","0","0","0.8","","0.5","0.5","","","","","","","0.8","0.2","","","","","","","","","","","","74","J","0","img/none_selected_demo.jpg","true","0","80_20_practice",""
"","bandit","25","191746","0.0-18.0-7.0","20873770","wem/bandit_party_1","A1RATFICCKLCQ","either","5","1852","","","","","","","0","0","1","0.2","","0.5","0.5","","","","","","","0.8","0.2","","","","","","","","","","","","75","K","1","","true","0","80_20_practice",""
"","bandit","26","196209","0.0-18.0-8.0","20873770","wem/bandit_party_1","A1RATFICCKLCQ","either","5","2950","","","","","","","0","1","0","","0.8","0.5","0.5","","","0.8","0.2","","","","","","","","","","","","","","","","74","J","0","img/none_selected_demo.jpg","true","0","80_20_practice",""
"","bandit","27","199621","0.0-18.0-9.0","20873770","wem/bandit_party_1","A1RATFICCKLCQ","either","5","1900","","","","","","","0","0","1","0.2","","0.5","0.5","","","","","","","0.8","0.2","","","","","","","","","","","","75","K","1","","true","0","80_20_practice",""
"","bandit","28","201505","0.0-18.0-10.0","20873770","wem/bandit_party_1","A1RATFICCKLCQ","either","5","360","","","","","","","0","0","1","0.2","","0.5","0.5","","","","","","","0.8","0.2","","","","","","","","","","","","75","K","1","","true","0","80_20_practice",""
"","bandit","29","203778","0.0-18.0-11.0","20873770","wem/bandit_party_1","A1RATFICCKLCQ","either","5","762","","","","","","","0","1","0","","0.2","0.5","0.5","","","0.8","0.2","","","","","","","","","","","","","","","","75","K","1","","true","0","80_20_practice",""
"","bandit","30","206066","0.0-18.0-12.0","20873770","wem/bandit_party_1","A1RATFICCKLCQ","either","5","777","","","","","","","0","1","0","","0.2","0.5","0.5","","","0.8","0.2","","","","","","","","","","","","","","","","75","K","1","","true","0","80_20_practice",""
"","bandit","31","208017","0.0-18.0-13.0","20873770","wem/bandit_party_1","A1RATFICCKLCQ","either","5","429","","","","","","","0","0","1","0.2","","0.5","0.5","","","","","","","0.8","0.2","","","","","","","","","","","","75","K","1","","true","0","80_20_practice",""
"","bandit","32","211768","0.0-18.0-14.0","20873770","wem/bandit_party_1","A1RATFICCKLCQ","either","5","2237","","","","","","","0","0","1","","0.2","0.5","0.5","","","0.8","0.2","","","","","","","","","","","","","","","","75","K","1","","true","0","80_20_practice",""
"","bandit","33","214656","0.0-18.0-15.0","20873770","wem/bandit_party_1","A1RATFICCKLCQ","either","5","1374","","","","","","","1","0","0","0.8","","0.5","0.5","","","","","","","0.8","0.2","","","","","","","","","","","","74","J","0","img/none_selected_demo.jpg","true","0","80_20_practice",""
"","bandit","34","217647","0.0-18.0-16.0","20873770","wem/bandit_party_1","A1RATFICCKLCQ","either","5","1470","","","","","","","1","0","0","0.8","","0.5","0.5","","","","","","","0.8","0.2","","","","","","","","","","","","74","J","0","img/none_selected_demo.jpg","true","0","80_20_practice",""
"","bandit","35","219484","0.0-18.0-17.0","20873770","wem/bandit_party_1","A1RATFICCKLCQ","either","5","318","","","","","","","1","0","0","0.8","","0.5","0.5","","","","","","","0.8","0.2","","","","","","","","","","","","74","J","0","img/none_selected_demo.jpg","true","0","80_20_practice",""
"","bandit","36","221079","0.0-18.0-18.0","20873770","wem/bandit_party_1","A1RATFICCKLCQ","either","5","55","","","","","","","1","0","0","0.8","","0.5","0.5","","","","","","","0.8","0.2","","","","","","","","","","","","74","J","0","img/none_selected_demo.jpg","true","0","80_20_practice",""
"","bandit","37","224220","0.0-18.0-19.0","20873770","wem/bandit_party_1","A1RATFICCKLCQ","either","5","1627","","","","","","","0","0","1","0.8","","0.5","0.5","","","","","","","0.8","0.2","","","","","","","","","","","","74","J","0","img/none_selected_demo.jpg","true","0","80_20_practice",""
"","text-replacement","38","228499","0.0-19.0","20873770","wem/bandit_party_1","A1RATFICCKLCQ","either","5","4272","","","32","","","","","","","","","","","","","","","","","","","","","","","","","","","","","","","","","","","","",""
"","bandit","39","230733","0.0-20.0-0.0","20873770","wem/bandit_party_1","A1RATFICCKLCQ","either","5","719","","","","","","","1","0","0","1","0","","","","","0","1","","","1","0","","","","","","","","","","","","74","J","0","img/none_selected_demo.jpg","true","0","",""
"","text-replacement","40","234720","0.0-21.0","20873770","wem/bandit_party_1","A1RATFICCKLCQ","either","5","3980","","","32","","","","","","","","","","","","","","","","","","","","","","","","","","","","","","","","","","","","",""
"","text-replacement","41","240501","0.0-22.0","20873770","wem/bandit_party_1","A1RATFICCKLCQ","either","5","5775","","","32","","","","","","","","","","","","","","","","","","","","","","","","","","","","","","","","","","","","",""
"","text-replacement","42","242960","0.0-23.0","20873770","wem/bandit_party_1","A1RATFICCKLCQ","either","5","2452","","","32","","","","","","","","","","","","","","","","","","","","","","","","","","","","","","","","","","","","",""
"","text-replacement","43","246266","0.0-24.0","20873770","wem/bandit_party_1","A1RATFICCKLCQ","either","5","3301","","","32","","","","","","","","","","","","","","","","","","","","","","","","","","","","","","","","","","","","",""
"","text-replacement","44","257387","0.0-25.0","20873770","wem/bandit_party_1","A1RATFICCKLCQ","either","5","11114","","","32","","","","","","","","","","","","","","","","","","","","","","","","","","","","","","","","","","","","",""
"","text-replacement","45","259763","0.0-26.0","20873770","wem/bandit_party_1","A1RATFICCKLCQ","either","5","2370","","","32","","","","","","","","","","","","","","","","","","","","","","","","","","","","","","","","","","","","",""
"","text-replacement","46","263351","0.0-27.0","20873770","wem/bandit_party_1","A1RATFICCKLCQ","either","5","3578","","","32","","","","","","","","","","","","","","","","","","","","","","","","","","","","","","","","","","","","",""
"","text-replacement","47","266441","0.0-28.0","20873770","wem/bandit_party_1","A1RATFICCKLCQ","either","5","3064","","","32","","","","","","","","","","","","","","","","","","","","","","","","","","","","","","","","","","","","",""
"","text-replacement","48","269853","0.0-29.0","20873770","wem/bandit_party_1","A1RATFICCKLCQ","either","5","3405","","","32","","","","","","","","","","","","","","","","","","","","","","","","","","","","","","","","","","","","",""
"","text-replacement","49","271435","0.0-30.0","20873770","wem/bandit_party_1","A1RATFICCKLCQ","either","5","1568","","","32","","","","","","","","","","","","","","","","","","","","","","","","","","","","","","","","","","","","",""
"","text-replacement","50","277580","0.0-31.0","20873770","wem/bandit_party_1","A1RATFICCKLCQ","either","5","6139","","","32","","","","","","","","","","","","","","","","","","","","","","","","","","","","","","","","","","","","",""
"","bandit","51","279986","0.0-32.0-0.0","20873770","wem/bandit_party_1","A1RATFICCKLCQ","either","5","890","","","","","","","1","0","0","0.8","","0.5","0.5","0.5","0.5","","","","","0.8","0.2","0.6","0.2","","","","","","","","","","72","H","0","img/none_selected.jpg","true","0","full_practice",""
"","bandit","52","282519","0.0-32.0-1.0","20873770","wem/bandit_party_1","A1RATFICCKLCQ","either","5","995","","","","","","","0","0","1","","0.8","0.5","0.5","0.5","0.5","0.8","0.2","0.6","0.2","","","","","","","","","","","","","","72","H","0","img/none_selected.jpg","true","0","full_practice",""
"","bandit","53","284067","0.0-32.0-2.0","20873770","wem/bandit_party_1","A1RATFICCKLCQ","either","5","31","","","","","","","1","0","0","0.8","","0.5","0.5","0.5","0.5","","","","","0.8","0.2","0.6","0.2","","","","","","","","","","72","H","0","img/none_selected.jpg","true","0","full_practice",""
"","bandit","54","286048","0.0-32.0-3.0","20873770","wem/bandit_party_1","A1RATFICCKLCQ","either","5","468","","","","","","","1","0","0","0.8","","0.5","0.5","0.5","0.5","","","","","0.8","0.2","0.6","0.2","","","","","","","","","","72","H","0","img/none_selected.jpg","true","0","full_practice",""
"","bandit","55","288258","0.0-32.0-4.0","20873770","wem/bandit_party_1","A1RATFICCKLCQ","either","5","695","","","","","","","0","1","0","","0.8","0.5","0.5","0.5","0.5","0.8","0.2","0.6","0.2","","","","","","","","","","","","","","72","H","0","img/none_selected.jpg","true","0","full_practice",""
"","bandit","56","290359","0.0-32.0-5.0","20873770","wem/bandit_party_1","A1RATFICCKLCQ","either","5","588","","","","","","","1","0","0","0.8","","0.5","0.5","0.5","0.5","","","","","0.8","0.2","0.6","0.2","","","","","","","","","","72","H","0","img/none_selected.jpg","true","0","full_practice",""
"","bandit","57","292283","0.0-32.0-6.0","20873770","wem/bandit_party_1","A1RATFICCKLCQ","either","5","403","","","","","","","0","0","1","","0.8","0.5","0.5","0.5","0.5","0.8","0.2","0.6","0.2","","","","","","","","","","","","","","72","H","0","img/none_selected.jpg","true","0","full_practice",""
"","bandit","58","293874","0.0-32.0-7.0","20873770","wem/bandit_party_1","A1RATFICCKLCQ","either","5","75","","","","","","","0","1","0","","0.8","0.5","0.5","0.5","0.5","0.8","0.2","0.6","0.2","","","","","","","","","","","","","","72","H","0","img/none_selected.jpg","true","0","full_practice",""
"","bandit","59","295792","0.0-32.0-8.0","20873770","wem/bandit_party_1","A1RATFICCKLCQ","either","5","406","","","","","","","0","1","0","","0.8","0.5","0.5","0.5","0.5","0.8","0.2","0.6","0.2","","","","","","","","","","","","","","72","H","0","img/none_selected.jpg","true","0","full_practice",""
"","bandit","60","298950","0.0-32.0-9.0","20873770","wem/bandit_party_1","A1RATFICCKLCQ","either","5","1643","","","","","","","1","0","0","0.8","","0.5","0.5","0.5","0.5","","","","","0.8","0.2","0.6","0.2","","","","","","","","","","72","H","0","img/none_selected.jpg","true","0","full_practice",""
"","bandit","61","300640","0.0-32.0-10.0","20873770","wem/bandit_party_1","A1RATFICCKLCQ","either","5","174","","","","","","","0","0","1","","0.8","0.5","0.5","0.5","0.5","0.8","0.2","0.6","0.2","","","","","","","","","","","","","","72","H","0","img/none_selected.jpg","true","0","full_practice",""
"","bandit","62","302178","0.0-32.0-11.0","20873770","wem/bandit_party_1","A1RATFICCKLCQ","either","5","6","","","","","","","0","1","0","","0.8","0.5","0.5","0.5","0.5","0.8","0.2","0.6","0.2","","","","","","","","","","","","","","72","H","0","img/none_selected.jpg","true","0","full_practice",""
"","bandit","63","305873","0.0-32.0-12.0","20873770","wem/bandit_party_1","A1RATFICCKLCQ","either","5","2180","","","","","","","1","0","0","0.8","","0.5","0.5","0.5","0.5","","","","","0.8","0.2","0.6","0.2","","","","","","","","","","72","H","0","img/none_selected.jpg","true","0","full_practice",""
"","bandit","64","308034","0.0-32.0-13.0","20873770","wem/bandit_party_1","A1RATFICCKLCQ","either","5","645","","","","","","","1","0","0","0.8","","0.5","0.5","0.5","0.5","","","","","0.8","0.2","0.6","0.2","","","","","","","","","","72","H","0","img/none_selected.jpg","true","0","full_practice",""
"","bandit","65","310867","0.0-32.0-14.0","20873770","wem/bandit_party_1","A1RATFICCKLCQ","either","5","1314","","","","","","","0","1","0","","0.8","0.5","0.5","0.5","0.5","0.8","0.2","0.6","0.2","","","","","","","","","","","","","","72","H","0","img/none_selected.jpg","true","0","full_practice",""
"","bandit","66","313170","0.0-32.0-15.0","20873770","wem/bandit_party_1","A1RATFICCKLCQ","either","5","787","","","","","","","1","0","0","0.8","","0.5","0.5","0.5","0.5","","","","","0.8","0.2","0.6","0.2","","","","","","","","","","72","H","0","img/none_selected.jpg","true","0","full_practice",""
"","bandit","67","315190","0.0-32.0-16.0","20873770","wem/bandit_party_1","A1RATFICCKLCQ","either","5","500","","","","","","","0","0","1","","0.8","0.5","0.5","0.5","0.5","0.8","0.2","0.6","0.2","","","","","","","","","","","","","","72","H","0","img/none_selected.jpg","true","0","full_practice",""
"","bandit","68","316885","0.0-32.0-17.0","20873770","wem/bandit_party_1","A1RATFICCKLCQ","either","5","167","","","","","","","1","0","0","0.8","","0.5","0.5","0.5","0.5","","","","","0.8","0.2","0.6","0.2","","","","","","","","","","72","H","0","img/none_selected.jpg","true","0","full_practice",""
"","bandit","69","320420","0.0-32.0-18.0","20873770","wem/bandit_party_1","A1RATFICCKLCQ","either","5","2019","","","","","","","0","0","1","","0.2","0.5","0.5","0.5","0.5","0.8","0.2","0.6","0.2","","","","","","","","","","","","","","74","J","1","","true","0","full_practice",""
"","bandit","70","322760","0.0-32.0-19.0","20873770","wem/bandit_party_1","A1RATFICCKLCQ","either","5","826","","","","","","","0","0","1","","0.2","0.5","0.5","0.5","0.5","0.8","0.2","0.6","0.2","","","","","","","","","","","","","","74","J","1","","true","0","full_practice",""
"","text","71","327606","0.0-33.0","20873770","wem/bandit_party_1","A1RATFICCKLCQ","either","5","4819","","","32","","","","","","","","","","","","","","","","","","","","","","","","","","","","","","","","","","","","",""
"","text-replacement","72","338717","0.0-34.0","20873770","wem/bandit_party_1","A1RATFICCKLCQ","either","5","10101","","","32","","","","","","","","","","","","","","","","","","","","","","","","","","","","","","","","","","","","",""
"","text-replacement","73","348071","0.0-35.0","20873770","wem/bandit_party_1","A1RATFICCKLCQ","either","5","9343","","","32","","","","","","","","","","","","","","","","","","","","","","","","","","","","","","","","","","","","",""
"","text-replacement","74","351499","0.0-36.0","20873770","wem/bandit_party_1","A1RATFICCKLCQ","either","5","3419","","","32","","","","","","","","","","","","","","","","","","","","","","","","","","","","","","","","","","","","",""
"","text-replacement","75","355824","0.0-37.0","20873770","wem/bandit_party_1","A1RATFICCKLCQ","either","5","4314","","","32","","","","","","","","","","","","","","","","","","","","","","","","","","","","","","","","","","","","",""
"","text-replacement","76","359580","0.0-38.0","20873770","wem/bandit_party_1","A1RATFICCKLCQ","either","5","3748","","","32","","","","","","","","","","","","","","","","","","","","","","","","","","","","","","","","","","","","",""
"","survey-multi-choice-replacement","77","366643","0.0-39.0-0.0","20873770","wem/bandit_party_1","A1RATFICCKLCQ","either","5","7039","","","","","","","","","","","","","","","","","","","","","","","","Money will be added to the pool for <span style='color:blue;'>DEMOCRATS</span>","","","","","","","attn_check","","","","","","","","","0"
"","survey-multi-choice-replacement","78","372727","0.0-40.0-0.0","20873770","wem/bandit_party_1","A1RATFICCKLCQ","either","5","5043","","","","","","","","","","","","","","","","","","","","","","","","Equal amounts of money will be added to the pool for <span style='color:blue;'>DEMOCRATS</span> and subtracted from the pool for <span style='color:red;'>REPUBLICANS</span>","","","","","","","attn_check","","","","","","","","","2"
"","survey-multi-choice-replacement","79","377725","0.0-41.0-0.0","20873770","wem/bandit_party_1","A1RATFICCKLCQ","either","5","3952","","","","","","","","","","","","","","","","","","","","","","","","No money will be added to either pool","","","","","","","attn_check","","","","","","","","","3"
"","bandit","80","382361","0.0-42.0-0.0","20873770","wem/bandit_party_1","A1RATFICCKLCQ","either","5","2086","","","","","","","0","0","1","0.1165465043","","0.8","0.4","0.2","0.6","","","","","0.1165465043","0.3340388524","0.3897275569","0.4265570961","","","","","","","","","","72","H","0","img/none_selected.jpg","","1","main_expt",""
"","bandit","81","384543","0.0-43.0-0.0","20873770","wem/bandit_party_1","A1RATFICCKLCQ","either","5","655","","","","","","","0","0","1","","0.08371899021","0.8","0.4","0.2","0.6","0.08371899021","0.3223834482","0.3911966266","0.4177099958","","","","","","","","","","","","","","72","H","0","img/none_selected.jpg","","2","main_expt",""
"","bandit","82","387077","0.0-44.0-0.0","20873770","wem/bandit_party_1","A1RATFICCKLCQ","either","5","1015","","","","","","","0","0","1","0.04339790364","","0.8","0.4","0.2","0.6","","","","","0.04339790364","0.3585509001","0.4074861021","0.4192185534","","","","","","","","","","72","H","0","img/none_selected.jpg","","3","main_expt",""
"","bandit","83","388997","0.0-45.0-0.0","20873770","wem/bandit_party_1","A1RATFICCKLCQ","either","5","403","","","","","","","0","0","1","","0.3416436242","0.8","0.4","0.2","0.6","0.04073472785","0.3416436242","0.3965638453","0.4241610434","","","","","","","","","","","","","","74","J","1","","","4","main_expt",""
"","bandit","84","391174","0.0-46.0-0.0","20873770","wem/bandit_party_1","A1RATFICCKLCQ","either","5","652","","","","","","","0","0","1","","0.3444758892","0.8","0.4","0.2","0.6","0.04731773769","0.3444758892","0.3688269119","0.4284837315","","","","","","","","","","","","","","74","J","1","","","5","main_expt",""
"","bandit","85","393664","0.0-47.0-0.0","20873770","wem/bandit_party_1","A1RATFICCKLCQ","either","5","968","","","","","","","0","0","1","","0.3574177426","0.8","0.4","0.2","0.6","0.05617088868","0.3574177426","0.3865867917","0.4328708062","","","","","","","","","","","","","","74","J","1","","","6","main_expt",""
"","bandit","86","395448","0.0-48.0-0.0","20873770","wem/bandit_party_1","A1RATFICCKLCQ","either","5","265","","","","","","","0","1","0","","0.4294719924","0.8","0.4","0.2","0.6","0.05606577856","0.3634052143","0.4294719924","0.4176545671","","","","","","","","","","","","","","75","K","2","","","7","main_expt",""
"","bandit","87","397479","0.0-49.0-0.0","20873770","wem/bandit_party_1","A1RATFICCKLCQ","either","5","512","","","","","","","1","0","0","0.4210378118","","0.8","0.4","0.2","0.6","","","","","0.09244853328","0.3675420607","0.4210378118","0.4022395488","","","","","","","","","","75","K","2","","","8","main_expt",""
"","bandit","88","399403","0.0-50.0-0.0","20873770","wem/bandit_party_1","A1RATFICCKLCQ","either","5","395","","","","","","","1","0","0","0.4502112583","","0.8","0.4","0.2","0.6","","","","","0.1271341085","0.3921196104","0.4502112583","0.3929004949","","","","","","","","","","75","K","2","","","9","main_expt",""
"","bandit","89","401257","0.0-51.0-0.0","20873770","wem/bandit_party_1","A1RATFICCKLCQ","either","5","329","","","","","","","0","0","1","","0.4452653155","0.8","0.4","0.2","0.6","0.1370717255","0.4026182126","0.4452653155","0.3863711448","","","","","","","","","","","","","","75","K","2","","","10","main_expt",""
"","bandit","90","403304","0.0-52.0-0.0","20873770","wem/bandit_party_1","A1RATFICCKLCQ","either","5","531","","","","","","","0","1","0","","0.4352349267","0.8","0.4","0.2","0.6","0.1275050207","0.3543069494","0.4352349267","0.4205849279","","","","","","","","","","","","","","75","K","2","","","11","main_expt",""
"","bandit","91","405479","0.0-53.0-0.0","20873770","wem/bandit_party_1","A1RATFICCKLCQ","either","5","656","","","","","","","0","1","0","","0.4029030639","0.8","0.4","0.2","0.6","0.122317004","0.3504097904","0.4029030639","0.4525069231","","","","","","","","","","","","","","75","K","2","","","12","main_expt",""
"","bandit","92","407214","0.0-54.0-0.0","20873770","wem/bandit_party_1","A1RATFICCKLCQ","either","5","198","","","","","","","0","1","0","","0.4198147105","0.8","0.4","0.2","0.6","0.1251711411","0.2787441393","0.4198147105","0.4485799753","","","","","","","","","","","","","","75","K","2","","","13","main_expt",""
"","bandit","93","409094","0.0-55.0-0.0","20873770","wem/bandit_party_1","A1RATFICCKLCQ","either","5","327","","","","","","","1","0","0","0.3761312174","","0.8","0.4","0.2","0.6","","","","","0.1380641988","0.2723245106","0.3761312174","0.4504049656","","","","","","","","","","75","K","2","","","14","main_expt",""
"","bandit","94","410848","0.0-56.0-0.0","20873770","wem/bandit_party_1","A1RATFICCKLCQ","either","5","228","","","","","","","0","0","1","","0.4017507227","0.8","0.4","0.2","0.6","0.2010812313","0.3687644442","0.4017507227","0.4281165459","","","","","","","","","","","","","","75","K","2","","","15","main_expt",""
"","bandit","95","412889","0.0-57.0-0.0","20873770","wem/bandit_party_1","A1RATFICCKLCQ","either","5","514","","","","","","","0","0","1","0.3859888637","","0.8","0.4","0.2","0.6","","","","","0.1747275657","0.3992289848","0.3859888637","0.4035101098","","","","","","","","","","75","K","2","","","16","main_expt",""
"","bandit","96","414944","0.0-58.0-0.0","20873770","wem/bandit_party_1","A1RATFICCKLCQ","either","5","534","","","","","","","0","0","1","","0.3706978481","0.8","0.4","0.2","0.6","0.1816524112","0.4067061876","0.3706978481","0.4063691663","","","","","","","","","","","","","","75","K","2","","","17","main_expt",""
"","bandit","97","419413","0.0-59.0-0.0","20873770","wem/bandit_party_1","A1RATFICCKLCQ","either","5","2949","","","","","","","0","1","0","","0.4201618032","0.8","0.4","0.2","0.6","0.1700798448","0.3969002131","0.3323991027","0.4201618032","","","","","","","","","","","","","","76","L","3","","","18","main_expt",""
"","bandit","98","421175","0.0-60.0-0.0","20873770","wem/bandit_party_1","A1RATFICCKLCQ","either","5","236","","","","","","","0","0","1","0.3868389751","","0.8","0.4","0.2","0.6","","","","","0.1998500639","0.3930099592","0.3301718366","0.3868389751","","","","","","","","","","76","L","3","","","19","main_expt",""
"","bandit","99","422836","0.0-61.0-0.0","20873770","wem/bandit_party_1","A1RATFICCKLCQ","either","5","99","","","","","","","0","0","1","0.3868875991","","0.8","0.4","0.2","0.6","","","","","0.2418808817","0.3791602553","0.3714618997","0.3868875991","","","","","","","","","","76","L","3","","","20","main_expt",""
"","bandit","100","424907","0.0-62.0-0.0","20873770","wem/bandit_party_1","A1RATFICCKLCQ","either","5","510","","","","","","","0","0","1","0.4253770554","","0.8","0.4","0.2","0.6","","","","","0.2293341009","0.4127515201","0.3621694591","0.4253770554","","","","","","","","","","76","L","3","","","21","main_expt",""
"","bandit","101","427795","0.0-63.0-0.0","20873770","wem/bandit_party_1","A1RATFICCKLCQ","either","5","1249","","","","","","","0","0","1","0.2074184163","","0.8","0.4","0.2","0.6","","","","","0.2074184163","0.4164833055","0.3648829928","0.4285762007","","","","","","","","","","72","H","0","img/none_selected.jpg","","22","main_expt",""
"","bandit","102","429347","0.0-64.0-0.0","20873770","wem/bandit_party_1","A1RATFICCKLCQ","either","5","21","","","","","","","0","0","1","0.1832507358","","0.8","0.4","0.2","0.6","","","","","0.1832507358","0.4143027846","0.2856994719","0.4082522222","","","","","","","","","","72","H","0","img/none_selected.jpg","","23","main_expt",""
"","bandit","103","431116","0.0-65.0-0.0","20873770","wem/bandit_party_1","A1RATFICCKLCQ","either","5","245","","","","","","","1","0","0","0.3649270698","","0.8","0.4","0.2","0.6","","","","","0.1469425149","0.3649270698","0.3152516524","0.4027270218","","","","","","","","","","74","J","1","","","24","main_expt",""
"","bandit","104","432993","0.0-66.0-0.0","20873770","wem/bandit_party_1","A1RATFICCKLCQ","either","5","355","","","","","","","0","1","0","","0.392676409","0.8","0.4","0.2","0.6","0.102794739","0.392676409","0.2778145345","0.4100212433","","","","","","","","","","","","","","74","J","1","","","25","main_expt",""
"","bandit","105","434901","0.0-67.0-0.0","20873770","wem/bandit_party_1","A1RATFICCKLCQ","either","5","379","","","","","","","1","0","0","0.4031565401","","0.8","0.4","0.2","0.6","","","","","0.1173732637","0.4031565401","0.3170506137","0.4190791169","","","","","","","","","","74","J","1","","","26","main_expt",""
"","bandit","106","436794","0.0-68.0-0.0","20873770","wem/bandit_party_1","A1RATFICCKLCQ","either","5","373","","","","","","","0","1","0","","0.4245959001","0.8","0.4","0.2","0.6","0.08835016803","0.4245959001","0.3223143746","0.4527212376","","","","","","","","","","","","","","74","J","1","","","27","main_expt",""
"","bandit","107","438720","0.0-69.0-0.0","20873770","wem/bandit_party_1","A1RATFICCKLCQ","either","5","403","","","","","","","0","0","1","","0.4232885055","0.8","0.4","0.2","0.6","0.1134440288","0.4232885055","0.3234472479","0.4480998813","","","","","","","","","","","","","","74","J","1","","","28","main_expt",""
"","bandit","108","440394","0.0-70.0-0.0","20873770","wem/bandit_party_1","A1RATFICCKLCQ","either","5","142","","","","","","","1","0","0","0.4495512981","","0.8","0.4","0.2","0.6","","","","","0.1982905849","0.4495512981","0.2881425904","0.4628669208","","","","","","","","","","74","J","1","","","29","main_expt",""
"","bandit","109","442245","0.0-71.0-0.0","20873770","wem/bandit_party_1","A1RATFICCKLCQ","either","5","293","","","","","","","0","0","1","0.4485299892","","0.8","0.4","0.2","0.6","","","","","0.2366655967","0.4485299892","0.2326555855","0.4565655028","","","","","","","","","","74","J","1","","","30","main_expt",""
"","bandit","110","443971","0.0-72.0-0.0","20873770","wem/bandit_party_1","A1RATFICCKLCQ","either","5","195","","","","","","","1","0","0","0.4599237238","","0.8","0.4","0.2","0.6","","","","","0.1622470467","0.4599237238","0.2364604256","0.4686031056","","","","","","","","","","74","J","1","","","31","main_expt",""
"","bandit","111","445793","0.0-73.0-0.0","20873770","wem/bandit_party_1","A1RATFICCKLCQ","either","5","299","","","","","","","0","0","1","","0.4508116693","0.8","0.4","0.2","0.6","0.1771911602","0.4508116693","0.2451982598","0.4659582456","","","","","","","","","","","","","","74","J","1","","","32","main_expt",""
"","bandit","112","447925","0.0-74.0-0.0","20873770","wem/bandit_party_1","A1RATFICCKLCQ","either","5","612","","","","","","","0","0","1","0.45101727","","0.8","0.4","0.2","0.6","","","","","0.1622836308","0.45101727","0.2360369815","0.4810757035","","","","","","","","","","74","J","1","","","33","main_expt",""
"","bandit","113","451504","0.0-75.0-0.0","20873770","wem/bandit_party_1","A1RATFICCKLCQ","either","5","2057","","","","","","","0","0","1","","0.2317763892","0.8","0.4","0.2","0.6","0.1655985557","0.4340174653","0.2317763892","0.4842727378","","","","","","","","","","","","","","75","K","2","","","34","main_expt",""
"","bandit","114","453544","0.0-76.0-0.0","20873770","wem/bandit_party_1","A1RATFICCKLCQ","either","5","520","","","","","","","0","0","1","0.4745470136","","0.8","0.4","0.2","0.6","","","","","0.1492797185","0.4040147441","0.2527891731","0.4745470136","","","","","","","","","","76","L","3","","","35","main_expt",""
"","bandit","115","457068","0.0-77.0-0.0","20873770","wem/bandit_party_1","A1RATFICCKLCQ","either","5","2000","","","","","","","0","1","0","","0.4440965139","0.8","0.4","0.2","0.6","0.1504543003","0.4268829696","0.2641283143","0.4440965139","","","","","","","","","","","","","","76","L","3","","","36","main_expt",""
"","bandit","116","458961","0.0-78.0-0.0","20873770","wem/bandit_party_1","A1RATFICCKLCQ","either","5","335","","","","","","","0","0","1","","0.4544425755","0.8","0.4","0.2","0.6","0.1064249526","0.4562327564","0.2309310423","0.4544425755","","","","","","","","","","","","","","76","L","3","","","37","main_expt",""
"","bandit","117","462266","0.0-79.0-0.0","20873770","wem/bandit_party_1","A1RATFICCKLCQ","either","5","1780","","","","","","","1","0","0","0.4700138218","","0.8","0.4","0.2","0.6","","","","","0.1346530267","0.4481627861","0.2093170459","0.4700138218","","","","","","","","","","76","L","3","","","38","main_expt",""
"","bandit","118","463820","0.0-80.0-0.0","20873770","wem/bandit_party_1","A1RATFICCKLCQ","either","5","30","","","","","","","1","0","0","0.466948448","","0.8","0.4","0.2","0.6","","","","","0.1303494481","0.4475890948","0.1398625959","0.466948448","","","","","","","","","","76","L","3","","","39","main_expt",""
"","bandit","119","465707","0.0-81.0-0.0","20873770","wem/bandit_party_1","A1RATFICCKLCQ","either","5","359","","","","","","","0","0","1","","0.4679256248","0.8","0.4","0.2","0.6","0.1492074344","0.4501575696","0.09690087606","0.4679256248","","","","","","","","","","","","","","76","L","3","","","40","main_expt",""
"","bandit","120","467297","0.0-82.0-0.0","20873770","wem/bandit_party_1","A1RATFICCKLCQ","either","5","56","","","","","","","1","0","0","0.445537573","","0.8","0.4","0.2","0.6","","","","","0.1370672299","0.4121884666","0.1129569356","0.445537573","","","","","","","","","","76","L","3","","","41","main_expt",""
"","bandit","121","469168","0.0-83.0-0.0","20873770","wem/bandit_party_1","A1RATFICCKLCQ","either","5","331","","","","","","","0","0","1","0.4521531226","","0.8","0.4","0.2","0.6","","","","","0.08144147181","0.4379939247","0.1227033228","0.4521531226","","","","","","","","","","76","L","3","","","42","main_expt",""
"","bandit","122","471194","0.0-84.0-0.0","20873770","wem/bandit_party_1","A1RATFICCKLCQ","either","5","500","","","","","","","1","0","0","0.4695072217","","0.8","0.4","0.2","0.6","","","","","0.06793865388","0.4271747655","0.08393287497","0.4695072217","","","","","","","","","","76","L","3","","","43","main_expt",""
"","bandit","123","474075","0.0-85.0-0.0","20873770","wem/bandit_party_1","A1RATFICCKLCQ","either","5","1351","","","","","","","0","0","1","0.4807409838","","0.8","0.4","0.2","0.6","","","","","0.05295344446","0.4480494518","0.06260074275","0.4807409838","","","","","","","","","","76","L","3","","","44","main_expt",""
"","bandit","124","477861","0.0-86.0-0.0","20873770","wem/bandit_party_1","A1RATFICCKLCQ","either","5","2262","","","","","","","1","0","0","0.4507048108","","0.8","0.4","0.2","0.6","","","","","0.02744239742","0.4269729589","0.08062123592","0.4507048108","","","","","","","","","","76","L","3","","","45","main_expt",""
"","bandit","125","479869","0.0-87.0-0.0","20873770","wem/bandit_party_1","A1RATFICCKLCQ","either","5","487","","","","","","","1","0","0","0.4382321206","","0.8","0.4","0.2","0.6","","","","","0.02347437243","0.4475746277","0.1110847749","0.4382321206","","","","","","","","","","76","L","3","","","46","main_expt",""
"","bandit","126","481454","0.0-88.0-0.0","20873770","wem/bandit_party_1","A1RATFICCKLCQ","either","5","55","","","","","","","1","0","0","0.4393937913","","0.8","0.4","0.2","0.6","","","","","0.02418160198","0.4295618238","0.05346849493","0.4393937913","","","","","","","","","","76","L","3","","","47","main_expt",""
"","bandit","127","483461","0.0-89.0-0.0","20873770","wem/bandit_party_1","A1RATFICCKLCQ","either","5","480","","","","","","","0","0","1","","0.440318131","0.8","0.4","0.2","0.6","0.01182676654","0.4431907244","0.04499733497","0.440318131","","","","","","","","","","","","","","76","L","3","","","48","main_expt",""
"","bandit","128","485500","0.0-90.0-0.0","20873770","wem/bandit_party_1","A1RATFICCKLCQ","either","5","513","","","","","","","0","0","1","","0.4362102412","0.8","0.4","0.2","0.6","0.0186287842","0.4187732916","0.07378534534","0.4362102412","","","","","","","","","","","","","","76","L","3","","","49","main_expt",""
"","bandit","129","487526","0.0-91.0-0.0","20873770","wem/bandit_party_1","A1RATFICCKLCQ","either","5","498","","","","","","","1","0","0","0.44488671","","0.8","0.4","0.2","0.6","","","","","0.02550629551","0.356579213","0.06168845619","0.44488671","","","","","","","","","","76","L","3","","","50","main_expt",""
"","bandit","130","489466","0.0-92.0-0.0","20873770","wem/bandit_party_1","A1RATFICCKLCQ","either","5","404","","","","","","","0","0","1","0.4633405548","","0.8","0.4","0.2","0.6","","","","","0.04366809707","0.2629404955","0.1062028567","0.4633405548","","","","","","","","","","76","L","3","","","51","main_expt",""
"","bandit","131","491424","0.0-93.0-0.0","20873770","wem/bandit_party_1","A1RATFICCKLCQ","either","5","436","","","","","","","1","0","0","0.4528043762","","0.8","0.4","0.2","0.6","","","","","0.04357168116","0.2919747068","0.1379608546","0.4528043762","","","","","","","","","","76","L","3","","","52","main_expt",""
"","bandit","132","493283","0.0-94.0-0.0","20873770","wem/bandit_party_1","A1RATFICCKLCQ","either","5","319","","","","","","","0","0","1","0.4390431751","","0.8","0.4","0.2","0.6","","","","","0.03899227154","0.3809901122","0.1356826849","0.4390431751","","","","","","","","","","76","L","3","","","53","main_expt",""
"","bandit","133","495117","0.0-95.0-0.0","20873770","wem/bandit_party_1","A1RATFICCKLCQ","either","5","314","","","","","","","0","0","1","0.4549270822","","0.8","0.4","0.2","0.6","","","","","0.04009146386","0.3452518694","0.1038772241","0.4549270822","","","","","","","","","","76","L","3","","","54","main_expt",""
"","bandit","134","496978","0.0-96.0-0.0","20873770","wem/bandit_party_1","A1RATFICCKLCQ","either","5","335","","","","","","","0","1","0","","0.4710341864","0.8","0.4","0.2","0.6","0.0155768565","0.3263112327","0.1689791829","0.4710341864","","","","","","","","","","","","","","76","L","3","","","55","main_expt",""
"","bandit","135","498925","0.0-97.0-0.0","20873770","wem/bandit_party_1","A1RATFICCKLCQ","either","5","378","","","","","","","1","0","0","0.4745834276","","0.8","0.4","0.2","0.6","","","","","0.02112461672","0.3308963945","0.1108888145","0.4745834276","","","","","","","","","","76","L","3","","","56","main_expt",""
"","bandit","136","500825","0.0-98.0-0.0","20873770","wem/bandit_party_1","A1RATFICCKLCQ","either","5","362","","","","","","","0","0","1","","0.489318572","0.8","0.4","0.2","0.6","0.0126553198","0.3150326571","0.1206542402","0.489318572","","","","","","","","","","","","","","76","L","3","","","57","main_expt",""
"","bandit","137","503773","0.0-99.0-0.0","20873770","wem/bandit_party_1","A1RATFICCKLCQ","either","5","1424","","","","","","","1","0","0","0.480037986","","0.8","0.4","0.2","0.6","","","","","0.01131359515","0.3049116772","0.09707343937","0.480037986","","","","","","","","","","76","L","3","","","58","main_expt",""
"","bandit","138","506779","0.0-100.0-0.0","20873770","wem/bandit_party_1","A1RATFICCKLCQ","either","5","1458","","","","","","","0","0","1","0.4593461039","","0.8","0.4","0.2","0.6","","","","","0.01030075821","0.3050987947","0.1044384952","0.4593461039","","","","","","","","","","76","L","3","","","59","main_expt",""
"","bandit","139","508699","0.0-101.0-0.0","20873770","wem/bandit_party_1","A1RATFICCKLCQ","either","5","388","","","","","","","1","0","0","0.446051488","","0.8","0.4","0.2","0.6","","","","","0.005868957973","0.3274009355","0.08890369623","0.446051488","","","","","","","","","","76","L","3","","","60","main_expt",""
"","bandit","140","510660","0.0-102.0-0.0","20873770","wem/bandit_party_1","A1RATFICCKLCQ","either","5","424","","","","","","","0","0","1","0.4391285327","","0.8","0.4","0.2","0.6","","","","","0.004361943215","0.3428943983","0.08921221942","0.4391285327","","","","","","","","","","76","L","3","","","61","main_expt",""
"","bandit","141","512900","0.0-103.0-0.0","20873770","wem/bandit_party_1","A1RATFICCKLCQ","either","5","705","","","","","","","1","0","0","0.4063883723","","0.8","0.4","0.2","0.6","","","","","0.005208412743","0.3549763931","0.09812025034","0.4063883723","","","","","","","","","","76","L","3","","","62","main_expt",""
"","bandit","142","514790","0.0-104.0-0.0","20873770","wem/bandit_party_1","A1RATFICCKLCQ","either","5","367","","","","","","","0","0","1","0.4330387396","","0.8","0.4","0.2","0.6","","","","","0.006461011255","0.3496678451","0.09006279409","0.4330387396","","","","","","","","","","76","L","3","","","63","main_expt",""
"","bandit","143","516768","0.0-105.0-0.0","20873770","wem/bandit_party_1","A1RATFICCKLCQ","either","5","416","","","","","","","0","0","1","0.4207902426","","0.8","0.4","0.2","0.6","","","","","0.01267926231","0.3188537263","0.1118976224","0.4207902426","","","","","","","","","","76","L","3","","","64","main_expt",""
"","bandit","144","518868","0.0-106.0-0.0","20873770","wem/bandit_party_1","A1RATFICCKLCQ","either","5","562","","","","","","","0","0","1","","0.1053817613","0.8","0.4","0.2","0.6","0.009732787917","0.3191795336","0.1053817613","0.3719582347","","","","","","","","","","","","","","75","K","2","","","65","main_expt",""
"","bandit","145","520842","0.0-107.0-0.0","20873770","wem/bandit_party_1","A1RATFICCKLCQ","either","5","451","","","","","","","0","0","1","","0.1307356695","0.8","0.4","0.2","0.6","0.01092542651","0.268616347","0.1307356695","0.3748569955","","","","","","","","","","","","","","75","K","2","","","66","main_expt",""
"","bandit","146","523495","0.0-108.0-0.0","20873770","wem/bandit_party_1","A1RATFICCKLCQ","either","5","1106","","","","","","","1","0","0","0.259194563","","0.8","0.4","0.2","0.6","","","","","0.02125534741","0.259194563","0.1418436428","0.335252031","","","","","","","","","","74","J","1","","","67","main_expt",""
"","bandit","147","525353","0.0-109.0-0.0","20873770","wem/bandit_party_1","A1RATFICCKLCQ","either","5","331","","","","","","","1","0","0","0.2281204868","","0.8","0.4","0.2","0.6","","","","","0.02360283027","0.2281204868","0.1459089566","0.3199157278","","","","","","","","","","74","J","1","","","68","main_expt",""
"","bandit","148","527158","0.0-110.0-0.0","20873770","wem/bandit_party_1","A1RATFICCKLCQ","either","5","280","","","","","","","0","0","1","0.2195844169","","0.8","0.4","0.2","0.6","","","","","0.02539305756","0.2195844169","0.1809721424","0.3068525281","","","","","","","","","","74","J","1","","","69","main_expt",""
"","bandit","149","530594","0.0-111.0-0.0","20873770","wem/bandit_party_1","A1RATFICCKLCQ","either","5","1900","","","","","","","0","0","1","0.1883338509","","0.8","0.4","0.2","0.6","","","","","0.05014388586","0.1883338509","0.1784068974","0.3181076016","","","","","","","","","","74","J","1","","","70","main_expt",""
"","bandit","150","532396","0.0-112.0-0.0","20873770","wem/bandit_party_1","A1RATFICCKLCQ","either","5","247","","","","","","","0","0","1","0.04209054697","","0.8","0.4","0.2","0.6","","","","","0.04209054697","0.1639708178","0.1973023396","0.2926426422","","","","","","","","","","72","H","0","img/none_selected.jpg","","71","main_expt",""
"","bandit","151","534524","0.0-113.0-0.0","20873770","wem/bandit_party_1","A1RATFICCKLCQ","either","5","539","","","","","","","0","0","1","0.05611199342","","0.8","0.4","0.2","0.6","","","","","0.05611199342","0.1312842785","0.2436342847","0.2380263643","","","","","","","","","","72","H","0","img/none_selected.jpg","","72","main_expt",""
"","bandit","152","536577","0.0-114.0-0.0","20873770","wem/bandit_party_1","A1RATFICCKLCQ","either","5","525","","","","","","","0","1","0","","0.05293238473","0.8","0.4","0.2","0.6","0.05293238473","0.1805041857","0.1992173182","0.2407197948","","","","","","","","","","","","","","72","H","0","img/none_selected.jpg","","73","main_expt",""
"","bandit","153","538550","0.0-115.0-0.0","20873770","wem/bandit_party_1","A1RATFICCKLCQ","either","5","428","","","","","","","0","0","1","","0.0318456884","0.8","0.4","0.2","0.6","0.0318456884","0.1739557812","0.2347098304","0.2317468449","","","","","","","","","","","","","","72","H","0","img/none_selected.jpg","","74","main_expt",""
"","bandit","154","540426","0.0-116.0-0.0","20873770","wem/bandit_party_1","A1RATFICCKLCQ","either","5","347","","","","","","","0","0","1","0.03873230677","","0.8","0.4","0.2","0.6","","","","","0.03873230677","0.2434916027","0.2641442137","0.2545997551","","","","","","","","","","72","H","0","img/none_selected.jpg","","75","main_expt",""
"","bandit","155","542387","0.0-117.0-0.0","20873770","wem/bandit_party_1","A1RATFICCKLCQ","either","5","426","","","","","","","0","0","1","0.03304947682","","0.8","0.4","0.2","0.6","","","","","0.03304947682","0.2438468568","0.3192644053","0.2890845388","","","","","","","","","","72","H","0","img/none_selected.jpg","","76","main_expt",""
"","bandit","156","544358","0.0-118.0-0.0","20873770","wem/bandit_party_1","A1RATFICCKLCQ","either","5","437","","","","","","","1","0","0","0.2425324642","","0.8","0.4","0.2","0.6","","","","","0.02607887458","0.2425324642","0.3351132613","0.2386362654","","","","","","","","","","74","J","1","","","77","main_expt",""
"","bandit","157","546248","0.0-119.0-0.0","20873770","wem/bandit_party_1","A1RATFICCKLCQ","either","5","360","","","","","","","0","0","1","0.205588479","","0.8","0.4","0.2","0.6","","","","","0.02492981692","0.205588479","0.3086784207","0.2673679704","","","","","","","","","","74","J","1","","","78","main_expt",""
"","bandit","158","548377","0.0-120.0-0.0","20873770","wem/bandit_party_1","A1RATFICCKLCQ","either","5","603","","","","","","","0","0","1","0.213062191","","0.8","0.4","0.2","0.6","","","","","0.01824110002","0.213062191","0.3076482073","0.2813811921","","","","","","","","","","74","J","1","","","79","main_expt",""
"","bandit","159","550506","0.0-121.0-0.0","20873770","wem/bandit_party_1","A1RATFICCKLCQ","either","5","605","","","","","","","1","0","0","0.1852926048","","0.8","0.4","0.2","0.6","","","","","0.0202176162","0.1852926048","0.3605025214","0.2419447949","","","","","","","","","","74","J","1","","","80","main_expt",""
"","bandit","160","552471","0.0-122.0-0.0","20873770","wem/bandit_party_1","A1RATFICCKLCQ","either","5","426","","","","","","","0","0","1","0.2332942271","","0.8","0.4","0.2","0.6","","","","","0.0252752587","0.2332942271","0.3286166321","0.323481111","","","","","","","","","","74","J","1","","","81","main_expt",""
"","bandit","161","554394","0.0-123.0-0.0","20873770","wem/bandit_party_1","A1RATFICCKLCQ","either","5","394","","","","","","","0","0","1","","0.2087797338","0.8","0.4","0.2","0.6","0.05668457717","0.2087797338","0.3459677762","0.3097244961","","","","","","","","","","","","","","74","J","1","","","82","main_expt",""
"","bandit","162","556224","0.0-124.0-0.0","20873770","wem/bandit_party_1","A1RATFICCKLCQ","either","5","297","","","","","","","0","0","1","","0.2049979043","0.8","0.4","0.2","0.6","0.07760530004","0.2049979043","0.3092751195","0.2787498647","","","","","","","","","","","","","","74","J","1","","","83","main_expt",""
"","bandit","163","558259","0.0-125.0-0.0","20873770","wem/bandit_party_1","A1RATFICCKLCQ","either","5","503","","","","","","","0","0","1","0.2151780091","","0.8","0.4","0.2","0.6","","","","","0.03696005566","0.2151780091","0.3044630387","0.2589524449","","","","","","","","","","74","J","1","","","84","main_expt",""
"","bandit","164","560836","0.0-126.0-0.0","20873770","wem/bandit_party_1","A1RATFICCKLCQ","either","5","1049","","","","","","","0","0","1","0.2812480587","","0.8","0.4","0.2","0.6","","","","","0.04177257934","0.1497615914","0.2812480587","0.2769318636","","","","","","","","","","75","K","2","","","85","main_expt",""
"","bandit","165","562378","0.0-127.0-0.0","20873770","wem/bandit_party_1","A1RATFICCKLCQ","either","5","16","","","","","","","0","0","1","","0.2506532223","0.8","0.4","0.2","0.6","0.0385770192","0.1223687677","0.2506532223","0.2849222391","","","","","","","","","","","","","","75","K","2","","","86","main_expt",""
"","bandit","166","564322","0.0-128.0-0.0","20873770","wem/bandit_party_1","A1RATFICCKLCQ","either","5","415","","","","","","","0","1","0","","0.2269900387","0.8","0.4","0.2","0.6","0.03720252147","0.1472857413","0.2269900387","0.3131087309","","","","","","","","","","","","","","75","K","2","","","87","main_expt",""
"","bandit","167","566523","0.0-129.0-0.0","20873770","wem/bandit_party_1","A1RATFICCKLCQ","either","5","652","","","","","","","0","0","1","","0.1504729919","0.8","0.4","0.2","0.6","0.06746059371","0.1252586248","0.1504729919","0.3038587512","","","","","","","","","","","","","","75","K","2","","","88","main_expt",""
"","bandit","168","568496","0.0-130.0-0.0","20873770","wem/bandit_party_1","A1RATFICCKLCQ","either","5","436","","","","","","","0","1","0","","0.1382070302","0.8","0.4","0.2","0.6","0.04069757945","0.1194927994","0.1382070302","0.3308022157","","","","","","","","","","","","","","75","K","2","","","89","main_expt",""
"","bandit","169","570481","0.0-131.0-0.0","20873770","wem/bandit_party_1","A1RATFICCKLCQ","either","5","448","","","","","","","0","0","1","","0.1364765349","0.8","0.4","0.2","0.6","0.07325379503","0.1589750007","0.1364765349","0.3574922351","","","","","","","","","","","","","","75","K","2","","","90","main_expt",""
"","bandit","170","572372","0.0-132.0-0.0","20873770","wem/bandit_party_1","A1RATFICCKLCQ","either","5","350","","","","","","","0","0","1","","0.09318196272","0.8","0.4","0.2","0.6","0.06877471811","0.1859960426","0.09318196272","0.3729517688","","","","","","","","","","","","","","75","K","2","","","91","main_expt",""
"","bandit","171","573923","0.0-133.0-0.0","20873770","wem/bandit_party_1","A1RATFICCKLCQ","either","5","15","","","","","","","0","0","1","","0.06946097624","0.8","0.4","0.2","0.6","0.04115987362","0.192419488","0.06946097624","0.398352994","","","","","","","","","","","","","","75","K","2","","","92","main_expt",""
"","bandit","172","577681","0.0-134.0-0.0","20873770","wem/bandit_party_1","A1RATFICCKLCQ","either","5","2153","","","","","","","0","0","1","0.07078892783","","0.8","0.4","0.2","0.6","","","","","0.07078892783","0.1716033463","0.08102832817","0.4135860398","","","","","","","","","","72","H","0","img/none_selected.jpg","","93","main_expt",""
"","bandit","173","579558","0.0-135.0-0.0","20873770","wem/bandit_party_1","A1RATFICCKLCQ","either","5","284","","","","","","","0","0","1","0.05572868433","","0.8","0.4","0.2","0.6","","","","","0.05572868433","0.1935897604","0.1271360848","0.3786880174","","","","","","","","","","72","H","0","img/none_selected.jpg","","94","main_expt",""
"","bandit","174","582248","0.0-136.0-0.0","20873770","wem/bandit_party_1","A1RATFICCKLCQ","either","5","1152","","","","","","","0","0","1","","0.05056929995","0.8","0.4","0.2","0.6","0.05056929995","0.2193228015","0.1097592989","0.3823424718","","","","","","","","","","","","","","72","H","0","img/none_selected.jpg","","95","main_expt",""
"","bandit","175","584424","0.0-137.0-0.0","20873770","wem/bandit_party_1","A1RATFICCKLCQ","either","5","504","","","","","","","0","1","0","","0.3642725552","0.8","0.4","0.2","0.6","0.04159874267","0.3262643469","0.1085490834","0.3642725552","","","","","","","","","","","","","","76","L","3","","","96","main_expt",""
"","bandit","176","586309","0.0-138.0-0.0","20873770","wem/bandit_party_1","A1RATFICCKLCQ","either","5","338","","","","","","","0","0","1","0.3197717944","","0.8","0.4","0.2","0.6","","","","","0.03654451862","0.3207405496","0.1049812554","0.3197717944","","","","","","","","","","76","L","3","","","97","main_expt",""
"","bandit","177","588351","0.0-139.0-0.0","20873770","wem/bandit_party_1","A1RATFICCKLCQ","either","5","483","","","","","","","0","0","1","","0.2514424369","0.8","0.4","0.2","0.6","0.04190300095","0.3712856991","0.08177978443","0.2514424369","","","","","","","","","","","","","","76","L","3","","","98","main_expt",""
"","bandit","178","590240","0.0-140.0-0.0","20873770","wem/bandit_party_1","A1RATFICCKLCQ","either","5","328","","","","","","","1","0","0","0.2926772137","","0.8","0.4","0.2","0.6","","","","","0.08742990617","0.3740145378","0.07574087804","0.2926772137","","","","","","","","","","76","L","3","","","99","main_expt",""
"","bandit","179","592174","0.0-141.0-0.0","20873770","wem/bandit_party_1","A1RATFICCKLCQ","either","5","405","","","","","","","0","0","1","0.234485335","","0.8","0.4","0.2","0.6","","","","","0.08966523481","0.3776295542","0.07829319678","0.234485335","","","","","","","","","","76","L","3","","","100","main_expt",""
"","bandit","180","597794","0.0-142.0-0.0","20873770","wem/bandit_party_1","A1RATFICCKLCQ","either","5","4075","","","","","","","0","0","1","","0.07919243683","0.8","0.4","0.2","0.6","0.07849065771","0.3592666398","0.07919243683","0.250352175","","","","","","","","","","","","","","75","K","2","","","101","main_expt",""
"","bandit","181","599697","0.0-143.0-0.0","20873770","wem/bandit_party_1","A1RATFICCKLCQ","either","5","353","","","","","","","0","0","1","","0.1052753188","0.8","0.4","0.2","0.6","0.1054267613","0.3412191773","0.1052753188","0.2139972863","","","","","","","","","","","","","","75","K","2","","","102","main_expt",""
"","bandit","182","601652","0.0-144.0-0.0","20873770","wem/bandit_party_1","A1RATFICCKLCQ","either","5","412","","","","","","","0","0","1","","0.1248526142","0.8","0.4","0.2","0.6","0.1120981937","0.3133100433","0.1248526142","0.20092706","","","","","","","","","","","","","","75","K","2","","","103","main_expt",""
"","bandit","183","603709","0.0-145.0-0.0","20873770","wem/bandit_party_1","A1RATFICCKLCQ","either","5","440","","","","","","","0","0","1","0.2305366804","","0.8","0.4","0.2","0.6","","","","","0.1034740879","0.3219148419","0.142969925","0.2305366804","","","","","","","","","","76","L","3","","","104","main_expt",""
"","bandit","184","607502","0.0-146.0-0.0","20873770","wem/bandit_party_1","A1RATFICCKLCQ","either","5","2260","","","","","","","0","0","1","","0.2102135581","0.8","0.4","0.2","0.6","0.07597240327","0.3300892518","0.13947254","0.2102135581","","","","","","","","","","","","","","76","L","3","","","105","main_expt",""
"","bandit","185","609394","0.0-147.0-0.0","20873770","wem/bandit_party_1","A1RATFICCKLCQ","either","5","342","","","","","","","0","0","1","0.1124257427","","0.8","0.4","0.2","0.6","","","","","0.1124257427","0.3401839058","0.1329526997","0.2219457329","","","","","","","","","","72","H","0","img/none_selected.jpg","","106","main_expt",""
"","bandit","186","611967","0.0-148.0-0.0","20873770","wem/bandit_party_1","A1RATFICCKLCQ","either","5","1031","","","","","","","0","0","1","0.1133168519","","0.8","0.4","0.2","0.6","","","","","0.1133168519","0.3784706915","0.1727290233","0.3048423019","","","","","","","","","","72","H","0","img/none_selected.jpg","","107","main_expt",""
"","bandit","187","613958","0.0-149.0-0.0","20873770","wem/bandit_party_1","A1RATFICCKLCQ","either","5","447","","","","","","","0","0","1","0.1752395656","","0.8","0.4","0.2","0.6","","","","","0.1752395656","0.3945753887","0.1864487031","0.258150515","","","","","","","","","","72","H","0","img/none_selected.jpg","","108","main_expt",""
"","bandit","188","616037","0.0-150.0-0.0","20873770","wem/bandit_party_1","A1RATFICCKLCQ","either","5","545","","","","","","","0","0","1","0.356827327","","0.8","0.4","0.2","0.6","","","","","0.1862973424","0.356827327","0.2463216238","0.1859129148","","","","","","","","","","74","J","1","","","109","main_expt",""
"","bandit","189","618056","0.0-151.0-0.0","20873770","wem/bandit_party_1","A1RATFICCKLCQ","either","5","485","","","","","","","0","0","1","","0.2344179837","0.8","0.4","0.2","0.6","0.2015845776","0.2344179837","0.2431522628","0.1371624404","","","","","","","","","","","","","","74","J","1","","","110","main_expt",""
"","bandit","190","620117","0.0-152.0-0.0","20873770","wem/bandit_party_1","A1RATFICCKLCQ","either","5","512","","","","","","","0","0","1","","0.2644823096","0.8","0.4","0.2","0.6","0.2003651753","0.2644823096","0.1757476643","0.1258232978","","","","","","","","","","","","","","74","J","1","","","111","main_expt",""
"","bandit","191","621945","0.0-153.0-0.0","20873770","wem/bandit_party_1","A1RATFICCKLCQ","either","5","299","","","","","","","0","0","1","0.21392293","","0.8","0.4","0.2","0.6","","","","","0.21392293","0.28311182","0.2451518953","0.1529967373","","","","","","","","","","72","H","0","img/none_selected.jpg","","112","main_expt",""
"","bandit","192","623835","0.0-154.0-0.0","20873770","wem/bandit_party_1","A1RATFICCKLCQ","either","5","350","","","","","","","0","0","1","","0.1606798039","0.8","0.4","0.2","0.6","0.1606798039","0.2413269532","0.2407836715","0.148248117","","","","","","","","","","","","","","72","H","0","img/none_selected.jpg","","113","main_expt",""
"","bandit","193","626209","0.0-155.0-0.0","20873770","wem/bandit_party_1","A1RATFICCKLCQ","either","5","842","","","","","","","0","0","1","0.1562208239","","0.8","0.4","0.2","0.6","","","","","0.2095980235","0.3100969134","0.3099317417","0.1562208239","","","","","","","","","","76","L","3","","","114","main_expt",""
"","bandit","194","628088","0.0-156.0-0.0","20873770","wem/bandit_party_1","A1RATFICCKLCQ","either","5","341","","","","","","","0","0","1","0.2138032898","","0.8","0.4","0.2","0.6","","","","","0.2550279667","0.329842252","0.3180754701","0.2138032898","","","","","","","","","","76","L","3","","","115","main_expt",""
"","bandit","195","630352","0.0-157.0-0.0","20873770","wem/bandit_party_1","A1RATFICCKLCQ","either","5","726","","","","","","","1","0","0","0.2919742107","","0.8","0.4","0.2","0.6","","","","","0.2471764387","0.3223706096","0.2919742107","0.2331260325","","","","","","","","","","75","K","2","","","116","main_expt",""
"","bandit","196","632242","0.0-158.0-0.0","20873770","wem/bandit_party_1","A1RATFICCKLCQ","either","5","351","","","","","","","0","0","1","","0.2799774295","0.8","0.4","0.2","0.6","0.2730878341","0.3098408215","0.2799774295","0.1826309729","","","","","","","","","","","","","","75","K","2","","","117","main_expt",""
"","bandit","197","634275","0.0-159.0-0.0","20873770","wem/bandit_party_1","A1RATFICCKLCQ","either","5","502","","","","","","","0","0","1","","0.2646714695","0.8","0.4","0.2","0.6","0.2071462199","0.2974554567","0.2646714695","0.1511269107","","","","","","","","","","","","","","75","K","2","","","118","main_expt",""
"","bandit","198","635898","0.0-160.0-0.0","20873770","wem/bandit_party_1","A1RATFICCKLCQ","either","5","60","","","","","","","0","0","1","","0.3179839519","0.8","0.4","0.2","0.6","0.2275232499","0.3598468986","0.3179839519","0.1559979654","","","","","","","","","","","","","","75","K","2","","","119","main_expt",""
"","bandit","199","637848","0.0-161.0-0.0","20873770","wem/bandit_party_1","A1RATFICCKLCQ","either","5","368","","","","","","","0","0","1","0.3302262658","","0.8","0.4","0.2","0.6","","","","","0.2767559596","0.2984373086","0.3302262658","0.1463004055","","","","","","","","","","75","K","2","","","120","main_expt",""
"","bandit","200","639771","0.0-162.0-0.0","20873770","wem/bandit_party_1","A1RATFICCKLCQ","either","5","375","","","","","","","0","0","1","","0.3500549905","0.8","0.4","0.2","0.6","0.3448590315","0.2973090059","0.3500549905","0.1418195479","","","","","","","","","","","","","","75","K","2","","","121","main_expt",""
"","bandit","201","641658","0.0-163.0-0.0","20873770","wem/bandit_party_1","A1RATFICCKLCQ","either","5","349","","","","","","","0","0","1","0.3382791822","","0.8","0.4","0.2","0.6","","","","","0.3593301016","0.3382791822","0.2686616284","0.1270782113","","","","","","","","","","74","J","1","","","122","main_expt",""
"","bandit","202","643512","0.0-164.0-0.0","20873770","wem/bandit_party_1","A1RATFICCKLCQ","either","5","233","","","","","","","0","0","1","","0.3154347028","0.8","0.4","0.2","0.6","0.3680529171","0.3154347028","0.2277230314","0.1207154071","","","","","","","","","","","","","","74","J","1","","","123","main_expt",""
"","bandit","203","645638","0.0-165.0-0.0","20873770","wem/bandit_party_1","A1RATFICCKLCQ","either","5","584","","","","","","","0","0","1","0.2966737815","","0.8","0.4","0.2","0.6","","","","","0.3476523483","0.2966737815","0.3287090939","0.1229329119","","","","","","","","","","74","J","1","","","124","main_expt",""
"","bandit","204","648577","0.0-166.0-0.0","20873770","wem/bandit_party_1","A1RATFICCKLCQ","either","5","1406","","","","","","","0","0","1","","0.09241122996","0.8","0.4","0.2","0.6","0.3564603465","0.3094831126","0.3687339586","0.09241122996","","","","","","","","","","","","","","76","L","3","","","125","main_expt",""
"","bandit","205","650411","0.0-167.0-0.0","20873770","wem/bandit_party_1","A1RATFICCKLCQ","either","5","294","","","","","","","0","0","1","","0.08418962236","0.8","0.4","0.2","0.6","0.3550684458","0.2488993205","0.3836195774","0.08418962236","","","","","","","","","","","","","","76","L","3","","","126","main_expt",""
"","bandit","206","652506","0.0-168.0-0.0","20873770","wem/bandit_party_1","A1RATFICCKLCQ","either","5","556","","","","","","","0","0","1","","0.154715772","0.8","0.4","0.2","0.6","0.3235559827","0.1953487027","0.3617365958","0.154715772","","","","","","","","","","","","","","76","L","3","","","127","main_expt",""
"","bandit","207","655805","0.0-169.0-0.0","20873770","wem/bandit_party_1","A1RATFICCKLCQ","either","5","1757","","","","","","","0","0","1","0.2171889907","","0.8","0.4","0.2","0.6","","","","","0.312087491","0.2171889907","0.3235283493","0.1556709078","","","","","","","","","","74","J","1","","","128","main_expt",""
"","bandit","208","657817","0.0-170.0-0.0","20873770","wem/bandit_party_1","A1RATFICCKLCQ","either","5","434","","","","","","","0","0","1","0.2843272188","","0.8","0.4","0.2","0.6","","","","","0.2843272188","0.2467699801","0.3453830546","0.1214200615","","","","","","","","","","72","H","0","img/none_selected.jpg","","129","main_expt",""
"","bandit","209","659837","0.0-171.0-0.0","20873770","wem/bandit_party_1","A1RATFICCKLCQ","either","5","470","","","","","","","0","1","0","","0.2128416856","0.8","0.4","0.2","0.6","0.2128416856","0.2814443482","0.3242747857","0.1377283829","","","","","","","","","","","","","","72","H","0","img/none_selected.jpg","","130","main_expt",""
"","bandit","210","661641","0.0-172.0-0.0","20873770","wem/bandit_party_1","A1RATFICCKLCQ","either","5","270","","","","","","","0","0","1","0.2403879813","","0.8","0.4","0.2","0.6","","","","","0.2403879813","0.2834176508","0.3417201858","0.1397421628","","","","","","","","","","72","H","0","img/none_selected.jpg","","131","main_expt",""
"","bandit","211","665248","0.0-173.0-0.0","20873770","wem/bandit_party_1","A1RATFICCKLCQ","either","5","2071","","","","","","","0","0","1","","0.2811421594","0.8","0.4","0.2","0.6","0.2811421594","0.2429908031","0.3498614837","0.1061875113","","","","","","","","","","","","","","72","H","0","img/none_selected.jpg","","132","main_expt",""
"","bandit","212","667238","0.0-174.0-0.0","20873770","wem/bandit_party_1","A1RATFICCKLCQ","either","5","447","","","","","","","0","0","1","0.3002858371","","0.8","0.4","0.2","0.6","","","","","0.3002858371","0.3053559495","0.3134828643","0.07774811701","","","","","","","","","","72","H","0","img/none_selected.jpg","","133","main_expt",""
"","bandit","213","669517","0.0-175.0-0.0","20873770","wem/bandit_party_1","A1RATFICCKLCQ","either","5","717","","","","","","","0","0","1","0.2693478067","","0.8","0.4","0.2","0.6","","","","","0.277406375","0.2693478067","0.3554593188","0.08211281178","","","","","","","","","","74","J","1","","","134","main_expt",""
"","bandit","214","671604","0.0-176.0-0.0","20873770","wem/bandit_party_1","A1RATFICCKLCQ","either","5","539","","","","","","","0","1","0","","0.3369166079","0.8","0.4","0.2","0.6","0.2897147582","0.3369166079","0.3150900126","0.1123817552","","","","","","","","","","","","","","74","J","1","","","135","main_expt",""
"","bandit","215","673602","0.0-177.0-0.0","20873770","wem/bandit_party_1","A1RATFICCKLCQ","either","5","445","","","","","","","0","0","1","","0.268603144","0.8","0.4","0.2","0.6","0.3590576628","0.268603144","0.3199395785","0.1478339482","","","","","","","","","","","","","","74","J","1","","","136","main_expt",""
"","bandit","216","675526","0.0-178.0-0.0","20873770","wem/bandit_party_1","A1RATFICCKLCQ","either","5","385","","","","","","","0","0","1","","0.2373427956","0.8","0.4","0.2","0.6","0.3822427384","0.2373427956","0.33362357","0.1374936615","","","","","","","","","","","","","","74","J","1","","","137","main_expt",""
"","bandit","217","677757","0.0-179.0-0.0","20873770","wem/bandit_party_1","A1RATFICCKLCQ","either","5","628","","","","","","","0","0","1","","0.3410071165","0.8","0.4","0.2","0.6","0.3410071165","0.2206869265","0.3611324022","0.159761955","","","","","","","","","","","","","","72","H","0","img/none_selected.jpg","","138","main_expt",""
"","bandit","218","681530","0.0-180.0-0.0","20873770","wem/bandit_party_1","A1RATFICCKLCQ","either","5","2179","","","","","","","1","0","0","0.3738014659","","0.8","0.4","0.2","0.6","","","","","0.3738014659","0.2177966349","0.3504145086","0.1363721132","","","","","","","","","","72","H","0","img/none_selected.jpg","","139","main_expt",""
"","bandit","219","683816","0.0-181.0-0.0","20873770","wem/bandit_party_1","A1RATFICCKLCQ","either","5","674","","","","","","","0","0","1","","0.422575493","0.8","0.4","0.2","0.6","0.422575493","0.2387685432","0.309774603","0.1031445192","","","","","","","","","","","","","","72","H","0","img/none_selected.jpg","","140","main_expt",""
"","bandit","220","686034","0.0-182.0-0.0","20873770","wem/bandit_party_1","A1RATFICCKLCQ","either","5","675","","","","","","","0","0","1","0.4439129864","","0.8","0.4","0.2","0.6","","","","","0.4439129864","0.2575087366","0.3506531288","0.09805286369","","","","","","","","","","72","H","0","img/none_selected.jpg","","141","main_expt",""
"","bandit","221","688659","0.0-183.0-0.0","20873770","wem/bandit_party_1","A1RATFICCKLCQ","either","5","1073","","","","","","","0","0","1","","0.2392038972","0.8","0.4","0.2","0.6","0.4323802182","0.2392038972","0.2965027242","0.1149002948","","","","","","","","","","","","","","74","J","1","","","142","main_expt",""
"","bandit","222","690791","0.0-184.0-0.0","20873770","wem/bandit_party_1","A1RATFICCKLCQ","either","5","595","","","","","","","0","0","1","","0.2216470548","0.8","0.4","0.2","0.6","0.4358412593","0.2216470548","0.2087517366","0.1209542099","","","","","","","","","","","","","","74","J","1","","","143","main_expt",""
"","bandit","223","693291","0.0-185.0-0.0","20873770","wem/bandit_party_1","A1RATFICCKLCQ","either","5","960","","","","","","","0","0","1","","0.2224896139","0.8","0.4","0.2","0.6","0.4407373256","0.2224896139","0.2313605626","0.1202521083","","","","","","","","","","","","","","74","J","1","","","144","main_expt",""
"","bandit","224","695025","0.0-186.0-0.0","20873770","wem/bandit_party_1","A1RATFICCKLCQ","either","5","166","","","","","","","0","0","1","","0.1785565547","0.8","0.4","0.2","0.6","0.4661091035","0.1925605464","0.1785565547","0.1619743669","","","","","","","","","","","","","","75","K","2","","","145","main_expt",""
"","bandit","225","698449","0.0-187.0-0.0","20873770","wem/bandit_party_1","A1RATFICCKLCQ","either","5","1879","","","","","","","0","0","1","","0.1770660648","0.8","0.4","0.2","0.6","0.4637097668","0.2069800611","0.1770660648","0.1664631043","","","","","","","","","","","","","","75","K","2","","","146","main_expt",""
"","bandit","226","700360","0.0-188.0-0.0","20873770","wem/bandit_party_1","A1RATFICCKLCQ","either","5","375","","","","","","","0","1","0","","0.1063371611","0.8","0.4","0.2","0.6","0.4700491642","0.2489662189","0.1063371611","0.1669241763","","","","","","","","","","","","","","75","K","2","","","147","main_expt",""
"","bandit","227","702321","0.0-189.0-0.0","20873770","wem/bandit_party_1","A1RATFICCKLCQ","either","5","423","","","","","","","0","0","1","","0.1216370817","0.8","0.4","0.2","0.6","0.4648109734","0.1946464158","0.1216370817","0.1581456949","","","","","","","","","","","","","","75","K","2","","","148","main_expt",""
"","bandit","228","704248","0.0-190.0-0.0","20873770","wem/bandit_party_1","A1RATFICCKLCQ","either","5","374","","","","","","","0","0","1","","0.1024256959","0.8","0.4","0.2","0.6","0.4635511513","0.1826562491","0.1024256959","0.1698392466","","","","","","","","","","","","","","75","K","2","","","149","main_expt",""
"","bandit","229","705970","0.0-191.0-0.0","20873770","wem/bandit_party_1","A1RATFICCKLCQ","either","5","169","","","","","","","0","0","1","","0.1371094633","0.8","0.4","0.2","0.6","0.4445017148","0.1750473563","0.1371094633","0.2140114634","","","","","","","","","","","","","","75","K","2","","","150","main_expt",""
"","bandit","230","707864","0.0-192.0-0.0","20873770","wem/bandit_party_1","A1RATFICCKLCQ","either","5","333","","","","","","","0","0","1","","0.2392960001","0.8","0.4","0.2","0.6","0.4434799742","0.1109536645","0.1702433702","0.2392960001","","","","","","","","","","","","","","76","L","3","","","151","main_expt",""
"","bandit","231","710514","0.0-193.0-0.0","20873770","wem/bandit_party_1","A1RATFICCKLCQ","either","5","1112","","","","","","","0","0","1","0.2095863317","","0.8","0.4","0.2","0.6","","","","","0.4451665291","0.1143086707","0.1860489046","0.2095863317","","","","","","","","","","76","L","3","","","152","main_expt",""
"","bandit","232","712483","0.0-194.0-0.0","20873770","wem/bandit_party_1","A1RATFICCKLCQ","either","5","422","","","","","","","1","0","0","0.2543258611","","0.8","0.4","0.2","0.6","","","","","0.4401532833","0.1236290712","0.2117094388","0.2543258611","","","","","","","","","","76","L","3","","","153","main_expt",""
"","bandit","233","714239","0.0-195.0-0.0","20873770","wem/bandit_party_1","A1RATFICCKLCQ","either","5","208","","","","","","","0","0","1","","0.2602259906","0.8","0.4","0.2","0.6","0.4516855879","0.1600695342","0.2072389033","0.2602259906","","","","","","","","","","","","","","76","L","3","","","154","main_expt",""
"","bandit","234","717358","0.0-196.0-0.0","20873770","wem/bandit_party_1","A1RATFICCKLCQ","either","5","1578","","","","","","","0","0","1","0.2750581274","","0.8","0.4","0.2","0.6","","","","","0.4480264808","0.1770288166","0.1986333914","0.2750581274","","","","","","","","","","76","L","3","","","155","main_expt",""
"","bandit","235","719123","0.0-197.0-0.0","20873770","wem/bandit_party_1","A1RATFICCKLCQ","either","5","205","","","","","","","0","0","1","0.2054640346","","0.8","0.4","0.2","0.6","","","","","0.4260414265","0.1761817894","0.2054640346","0.2438045727","","","","","","","","","","75","K","2","","","156","main_expt",""
"","bandit","236","721519","0.0-198.0-0.0","20873770","wem/bandit_party_1","A1RATFICCKLCQ","either","5","852","","","","","","","0","0","1","","0.1810715383","0.8","0.4","0.2","0.6","0.4365201507","0.1998830888","0.1810715383","0.2857025143","","","","","","","","","","","","","","75","K","2","","","157","main_expt",""
"","bandit","237","723296","0.0-199.0-0.0","20873770","wem/bandit_party_1","A1RATFICCKLCQ","either","5","227","","","","","","","0","0","1","","0.2118906364","0.8","0.4","0.2","0.6","0.4076244479","0.2150354531","0.2118906364","0.2887719476","","","","","","","","","","","","","","75","K","2","","","158","main_expt",""
"","bandit","238","724993","0.0-200.0-0.0","20873770","wem/bandit_party_1","A1RATFICCKLCQ","either","5","148","","","","","","","0","0","1","","0.2221069796","0.8","0.4","0.2","0.6","0.403953851","0.2221069796","0.2293976715","0.2859462397","","","","","","","","","","","","","","74","J","1","","","159","main_expt",""
"","bandit","239","727020","0.0-201.0-0.0","20873770","wem/bandit_party_1","A1RATFICCKLCQ","either","5","452","","","","","","","0","0","1","0.2627335039","","0.8","0.4","0.2","0.6","","","","","0.4282135537","0.2627335039","0.2186051381","0.207432816","","","","","","","","","","74","J","1","","","160","main_expt",""
"","bandit","240","728917","0.0-202.0-0.0","20873770","wem/bandit_party_1","A1RATFICCKLCQ","either","5","346","","","","","","","0","0","1","0.2922457848","","0.8","0.4","0.2","0.6","","","","","0.4479073124","0.2922457848","0.2175927206","0.1611694724","","","","","","","","","","74","J","1","","","161","main_expt",""
"","bandit","241","734455","0.0-203.0-0.0","20873770","wem/bandit_party_1","A1RATFICCKLCQ","either","5","3998","","","","","","","0","0","1","0.4456201243","","0.8","0.4","0.2","0.6","","","","","0.4456201243","0.3040212123","0.2370404117","0.14378348","","","","","","","","","","72","H","0","img/none_selected.jpg","","162","main_expt",""
"","bandit","242","736786","0.0-204.0-0.0","20873770","wem/bandit_party_1","A1RATFICCKLCQ","either","5","790","","","","","","","0","0","1","0.4384930657","","0.8","0.4","0.2","0.6","","","","","0.4384930657","0.2933359027","0.2778780432","0.1707099899","","","","","","","","","","72","H","0","img/none_selected.jpg","","163","main_expt",""
"","bandit","243","738769","0.0-205.0-0.0","20873770","wem/bandit_party_1","A1RATFICCKLCQ","either","5","434","","","","","","","1","0","0","0.4231568034","","0.8","0.4","0.2","0.6","","","","","0.4231568034","0.2388203062","0.2643388611","0.1933693166","","","","","","","","","","72","H","0","img/none_selected.jpg","","164","main_expt",""
"","bandit","244","740770","0.0-206.0-0.0","20873770","wem/bandit_party_1","A1RATFICCKLCQ","either","5","456","","","","","","","1","0","0","0.4412535734","","0.8","0.4","0.2","0.6","","","","","0.4412535734","0.2646204916","0.1967204453","0.2406324952","","","","","","","","","","72","H","0","img/none_selected.jpg","","165","main_expt",""
"","bandit","245","742819","0.0-207.0-0.0","20873770","wem/bandit_party_1","A1RATFICCKLCQ","either","5","400","","","","","","","0","0","1","0.438364003","","0.8","0.4","0.2","0.6","","","","","0.438364003","0.2591758032","0.1567937345","0.2650462377","","","","","","","","","","72","H","0","img/none_selected.jpg","","166","main_expt",""
"","bandit","246","745357","0.0-208.0-0.0","20873770","wem/bandit_party_1","A1RATFICCKLCQ","either","5","990","","","","","","","0","0","1","","0.4290991351","0.8","0.4","0.2","0.6","0.4290991351","0.1955934818","0.1201482918","0.245875583","","","","","","","","","","","","","","72","H","0","img/none_selected.jpg","","167","main_expt",""
"","bandit","247","747333","0.0-209.0-0.0","20873770","wem/bandit_party_1","A1RATFICCKLCQ","either","5","427","","","","","","","0","0","1","","0.2090603634","0.8","0.4","0.2","0.6","0.4510860662","0.2090603634","0.0936051119","0.257303599","","","","","","","","","","","","","","74","J","1","","","168","main_expt",""
"","bandit","248","749601","0.0-210.0-0.0","20873770","wem/bandit_party_1","A1RATFICCKLCQ","either","5","711","","","","","","","0","0","1","","0.4491424364","0.8","0.4","0.2","0.6","0.4491424364","0.2678479696","0.08775096918","0.2993732043","","","","","","","","","","","","","","72","H","0","img/none_selected.jpg","","169","main_expt",""
"","bandit","249","751554","0.0-211.0-0.0","20873770","wem/bandit_party_1","A1RATFICCKLCQ","either","5","414","","","","","","","0","1","0","","0.4332244901","0.8","0.4","0.2","0.6","0.4332244901","0.2532125956","0.06743429675","0.3388977639","","","","","","","","","","","","","","72","H","0","img/none_selected.jpg","","170","main_expt",""
"","bandit","250","753608","0.0-212.0-0.0","20873770","wem/bandit_party_1","A1RATFICCKLCQ","either","5","484","","","","","","","0","0","1","0.4405036994","","0.8","0.4","0.2","0.6","","","","","0.4405036994","0.2568627054","0.05979118822","0.2947926635","","","","","","","","","","72","H","0","img/none_selected.jpg","","171","main_expt",""
"","bandit","251","755368","0.0-213.0-0.0","20873770","wem/bandit_party_1","A1RATFICCKLCQ","either","5","202","","","","","","","0","1","0","","0.4358521759","0.8","0.4","0.2","0.6","0.4358521759","0.2451563353","0.03200499914","0.2892529657","","","","","","","","","","","","","","72","H","0","img/none_selected.jpg","","172","main_expt",""
"","bandit","252","757500","0.0-214.0-0.0","20873770","wem/bandit_party_1","A1RATFICCKLCQ","either","5","585","","","","","","","0","0","1","","0.4471617722","0.8","0.4","0.2","0.6","0.4471617722","0.3003395367","0.04613358223","0.2571917514","","","","","","","","","","","","","","72","H","0","img/none_selected.jpg","","173","main_expt",""
"","bandit","253","759921","0.0-215.0-0.0","20873770","wem/bandit_party_1","A1RATFICCKLCQ","either","5","873","","","","","","","0","0","1","0.4560251174","","0.8","0.4","0.2","0.6","","","","","0.4560251174","0.2545998681","0.05969677181","0.244173221","","","","","","","","","","72","H","0","img/none_selected.jpg","","174","main_expt",""
"","bandit","254","761888","0.0-216.0-0.0","20873770","wem/bandit_party_1","A1RATFICCKLCQ","either","5","423","","","","","","","1","0","0","0.4379349024","","0.8","0.4","0.2","0.6","","","","","0.4379349024","0.3383135611","0.05930066603","0.2038098688","","","","","","","","","","72","H","0","img/none_selected.jpg","","175","main_expt",""
"","bandit","255","763851","0.0-217.0-0.0","20873770","wem/bandit_party_1","A1RATFICCKLCQ","either","5","402","","","","","","","0","0","1","0.4328841116","","0.8","0.4","0.2","0.6","","","","","0.4328841116","0.3880627729","0.08110879181","0.2053823003","","","","","","","","","","72","H","0","img/none_selected.jpg","","176","main_expt",""
"","bandit","256","766204","0.0-218.0-0.0","20873770","wem/bandit_party_1","A1RATFICCKLCQ","either","5","799","","","","","","","0","0","1","","0.3965365967","0.8","0.4","0.2","0.6","0.3965365967","0.3920994557","0.07611568943","0.2193083282","","","","","","","","","","","","","","72","H","0","img/none_selected.jpg","","177","main_expt",""
"","bandit","257","768284","0.0-219.0-0.0","20873770","wem/bandit_party_1","A1RATFICCKLCQ","either","5","525","","","","","","","0","0","1","0.3899234309","","0.8","0.4","0.2","0.6","","","","","0.3899234309","0.3882277994","0.1220467165","0.1904263594","","","","","","","","","","72","H","0","img/none_selected.jpg","","178","main_expt",""
"","bandit","258","770595","0.0-220.0-0.0","20873770","wem/bandit_party_1","A1RATFICCKLCQ","either","5","755","","","","","","","0","0","1","0.4238443777","","0.8","0.4","0.2","0.6","","","","","0.4238443777","0.3939691408","0.1698853315","0.2212788648","","","","","","","","","","72","H","0","img/none_selected.jpg","","179","main_expt",""
"","bandit","259","773283","0.0-221.0-0.0","20873770","wem/bandit_party_1","A1RATFICCKLCQ","either","5","1130","","","","","","","0","0","1","","0.1374762061","0.8","0.4","0.2","0.6","0.4487400994","0.4074656662","0.1374762061","0.2640717145","","","","","","","","","","","","","","75","K","2","","","180","main_expt",""
"","bandit","260","775376","0.0-222.0-0.0","20873770","wem/bandit_party_1","A1RATFICCKLCQ","either","5","539","","","","","","","0","0","1","","0.09961924189","0.8","0.4","0.2","0.6","0.4314573438","0.3724421945","0.09961924189","0.2426483564","","","","","","","","","","","","","","75","K","2","","","181","main_expt",""
"","bandit","261","777764","0.0-223.0-0.0","20873770","wem/bandit_party_1","A1RATFICCKLCQ","either","5","805","","","","","","","0","0","1","0.1391043194","","0.8","0.4","0.2","0.6","","","","","0.4458059303","0.2998177931","0.1391043194","0.2001563476","","","","","","","","","","75","K","2","","","182","main_expt",""
"","bandit","262","779683","0.0-224.0-0.0","20873770","wem/bandit_party_1","A1RATFICCKLCQ","either","5","378","","","","","","","0","0","1","","0.1336424596","0.8","0.4","0.2","0.6","0.4485460149","0.3629728763","0.1336424596","0.2167094124","","","","","","","","","","","","","","75","K","2","","","183","main_expt",""
"","bandit","263","781769","0.0-225.0-0.0","20873770","wem/bandit_party_1","A1RATFICCKLCQ","either","5","525","","","","","","","0","1","0","","0.2402813617","0.8","0.4","0.2","0.6","0.4078350507","0.3763603645","0.115911235","0.2402813617","","","","","","","","","","","","","","76","L","3","","","184","main_expt",""
"","bandit","264","783859","0.0-226.0-0.0","20873770","wem/bandit_party_1","A1RATFICCKLCQ","either","5","531","","","","","","","0","0","1","0.2745112141","","0.8","0.4","0.2","0.6","","","","","0.3805788675","0.3472982705","0.1394203739","0.2745112141","","","","","","","","","","76","L","3","","","185","main_expt",""
"","bandit","265","786100","0.0-227.0-0.0","20873770","wem/bandit_party_1","A1RATFICCKLCQ","either","5","667","","","","","","","0","0","1","0.2774566956","","0.8","0.4","0.2","0.6","","","","","0.4236809331","0.3095995051","0.1557479742","0.2774566956","","","","","","","","","","76","L","3","","","186","main_expt",""
"","bandit","266","787999","0.0-228.0-0.0","20873770","wem/bandit_party_1","A1RATFICCKLCQ","either","5","345","","","","","","","0","0","1","0.2876011691","","0.8","0.4","0.2","0.6","","","","","0.4058627081","0.2567332284","0.1823611596","0.2876011691","","","","","","","","","","76","L","3","","","187","main_expt",""
"","bandit","267","789867","0.0-229.0-0.0","20873770","wem/bandit_party_1","A1RATFICCKLCQ","either","5","321","","","","","","","1","0","0","0.2947112378","","0.8","0.4","0.2","0.6","","","","","0.3913346521","0.2555256861","0.1854179297","0.2947112378","","","","","","","","","","76","L","3","","","188","main_expt",""
"","bandit","268","791493","0.0-230.0-0.0","20873770","wem/bandit_party_1","A1RATFICCKLCQ","either","5","61","","","","","","","0","1","0","","0.2581494","0.8","0.4","0.2","0.6","0.3760164219","0.2009875262","0.1875645599","0.2581494","","","","","","","","","","","","","","76","L","3","","","189","main_expt",""
"","bandit","269","793481","0.0-231.0-0.0","20873770","wem/bandit_party_1","A1RATFICCKLCQ","either","5","429","","","","","","","0","0","1","","0.1756323468","0.8","0.4","0.2","0.6","0.3327352817","0.2055488595","0.2018323604","0.1756323468","","","","","","","","","","","","","","76","L","3","","","190","main_expt",""
"","bandit","270","795398","0.0-232.0-0.0","20873770","wem/bandit_party_1","A1RATFICCKLCQ","either","5","369","","","","","","","0","0","1","","0.2521570866","0.8","0.4","0.2","0.6","0.3015177445","0.1506387864","0.221094727","0.2521570866","","","","","","","","","","","","","","76","L","3","","","191","main_expt",""
"","bandit","271","797323","0.0-233.0-0.0","20873770","wem/bandit_party_1","A1RATFICCKLCQ","either","5","375","","","","","","","0","0","1","0.2964739449","","0.8","0.4","0.2","0.6","","","","","0.2773298268","0.2027442266","0.2320570195","0.2964739449","","","","","","","","","","76","L","3","","","192","main_expt",""
"","bandit","272","799265","0.0-234.0-0.0","20873770","wem/bandit_party_1","A1RATFICCKLCQ","either","5","385","","","","","","","0","1","0","","0.2612966838","0.8","0.4","0.2","0.6","0.2836613797","0.1969137872","0.2948950962","0.2612966838","","","","","","","","","","","","","","76","L","3","","","193","main_expt",""
"","bandit","273","801216","0.0-235.0-0.0","20873770","wem/bandit_party_1","A1RATFICCKLCQ","either","5","394","","","","","","","0","0","1","0.3292914436","","0.8","0.4","0.2","0.6","","","","","0.2799350415","0.2114994946","0.2602906927","0.3292914436","","","","","","","","","","76","L","3","","","194","main_expt",""
"","bandit","274","802835","0.0-236.0-0.0","20873770","wem/bandit_party_1","A1RATFICCKLCQ","either","5","44","","","","","","","0","0","1","0.4070308407","","0.8","0.4","0.2","0.6","","","","","0.2068597772","0.2467939011","0.1771499101","0.4070308407","","","","","","","","","","76","L","3","","","195","main_expt",""
"","bandit","275","805596","0.0-237.0-0.0","20873770","wem/bandit_party_1","A1RATFICCKLCQ","either","5","1207","","","","","","","0","0","1","0.3494820729","","0.8","0.4","0.2","0.6","","","","","0.2679469531","0.2731811988","0.1746274925","0.3494820729","","","","","","","","","","76","L","3","","","196","main_expt",""
"","bandit","276","807500","0.0-238.0-0.0","20873770","wem/bandit_party_1","A1RATFICCKLCQ","either","5","341","","","","","","","0","0","1","","0.3571939809","0.8","0.4","0.2","0.6","0.2448078588","0.2512114903","0.193224684","0.3571939809","","","","","","","","","","","","","","76","L","3","","","197","main_expt",""
"","bandit","277","809515","0.0-239.0-0.0","20873770","wem/bandit_party_1","A1RATFICCKLCQ","either","5","468","","","","","","","0","0","1","","0.190651112","0.8","0.4","0.2","0.6","0.2433987968","0.190651112","0.1771509929","0.382430028","","","","","","","","","","","","","","74","J","1","","","198","main_expt",""
"","bandit","278","812645","0.0-240.0-0.0","20873770","wem/bandit_party_1","A1RATFICCKLCQ","either","5","1585","","","","","","","0","0","1","","0.1701189695","0.8","0.4","0.2","0.6","0.2653624242","0.1701189695","0.2466668772","0.3353474301","","","","","","","","","","","","","","74","J","1","","","199","main_expt",""
"","bandit","279","814744","0.0-241.0-0.0","20873770","wem/bandit_party_1","A1RATFICCKLCQ","either","5","542","","","","","","","0","0","1","","0.1656975488","0.8","0.4","0.2","0.6","0.2551376492","0.1656975488","0.2477816141","0.3321976498","","","","","","","","","","","","","","74","J","1","","","200","main_expt",""
"","bandit","280","816810","0.0-242.0-0.0","20873770","wem/bandit_party_1","A1RATFICCKLCQ","either","5","497","","","","","","","0","1","0","","0.1647298582","0.8","0.4","0.2","0.6","0.2660639347","0.1647298582","0.2744817861","0.3218117355","","","","","","","","","","","","","","74","J","1","","","201","main_expt",""
"","bandit","281","818835","0.0-243.0-0.0","20873770","wem/bandit_party_1","A1RATFICCKLCQ","either","5","450","","","","","","","0","0","1","","0.1242041815","0.8","0.4","0.2","0.6","0.2220900594","0.1242041815","0.3043062986","0.2949214693","","","","","","","","","","","","","","74","J","1","","","202","main_expt",""
"","bandit","282","821090","0.0-244.0-0.0","20873770","wem/bandit_party_1","A1RATFICCKLCQ","either","5","703","","","","","","","0","0","1","0.1684487429","","0.8","0.4","0.2","0.6","","","","","0.1543353204","0.1684487429","0.272185569","0.300077299","","","","","","","","","","74","J","1","","","203","main_expt",""
"","bandit","283","823063","0.0-245.0-0.0","20873770","wem/bandit_party_1","A1RATFICCKLCQ","either","5","380","","","","","","","0","0","1","0.1666409686","","0.8","0.4","0.2","0.6","","","","","0.1605482003","0.1666409686","0.2610767704","0.2866085977","","","","","","","","","","74","J","1","","","204","main_expt",""
"","bandit","284","824967","0.0-246.0-0.0","20873770","wem/bandit_party_1","A1RATFICCKLCQ","either","5","364","","","","","","","0","0","1","0.2197286508","","0.8","0.4","0.2","0.6","","","","","0.1406914754","0.2197286508","0.2832615928","0.2695546272","","","","","","","","","","74","J","1","","","205","main_expt",""
"","bandit","285","826833","0.0-247.0-0.0","20873770","wem/bandit_party_1","A1RATFICCKLCQ","either","5","310","","","","","","","1","0","0","0.2754509052","","0.8","0.4","0.2","0.6","","","","","0.1138947463","0.2754509052","0.300913322","0.2622178416","","","","","","","","","","74","J","1","","","206","main_expt",""
"","bandit","286","829128","0.0-248.0-0.0","20873770","wem/bandit_party_1","A1RATFICCKLCQ","either","5","740","","","","","","","0","0","1","","0.2664869377","0.8","0.4","0.2","0.6","0.1096702189","0.2664869377","0.3260258847","0.2498186578","","","","","","","","","","","","","","74","J","1","","","207","main_expt",""
"","bandit","287","832405","0.0-249.0-0.0","20873770","wem/bandit_party_1","A1RATFICCKLCQ","either","5","1715","","","","","","","0","0","1","","0.2686565688","0.8","0.4","0.2","0.6","0.09922356593","0.2686565688","0.3173829003","0.2335358635","","","","","","","","","","","","","","74","J","1","","","208","main_expt",""
"","bandit","288","834560","0.0-250.0-0.0","20873770","wem/bandit_party_1","A1RATFICCKLCQ","either","5","599","","","","","","","0","0","1","","0.2380255957","0.8","0.4","0.2","0.6","0.101567507","0.2380255957","0.3153846937","0.2638942681","","","","","","","","","","","","","","74","J","1","","","209","main_expt",""
"","bandit","289","836642","0.0-251.0-0.0","20873770","wem/bandit_party_1","A1RATFICCKLCQ","either","5","524","","","","","","","0","0","1","0.2507768727","","0.8","0.4","0.2","0.6","","","","","0.08675379402","0.2507768727","0.3010876552","0.2526926237","","","","","","","","","","74","J","1","","","210","main_expt",""
"","bandit","290","838694","0.0-252.0-0.0","20873770","wem/bandit_party_1","A1RATFICCKLCQ","either","5","406","","","","","","","0","0","1","0.2685142319","","0.8","0.4","0.2","0.6","","","","","0.07512021269","0.2685142319","0.2864900033","0.2740367769","","","","","","","","","","74","J","1","","","211","main_expt",""
"","bandit","291","840653","0.0-253.0-0.0","20873770","wem/bandit_party_1","A1RATFICCKLCQ","either","5","406","","","","","","","0","1","0","","0.260511483","0.8","0.4","0.2","0.6","0.08144254236","0.260511483","0.3163372434","0.2440836191","","","","","","","","","","","","","","74","J","1","","","212","main_expt",""
"","bandit","292","842556","0.0-254.0-0.0","20873770","wem/bandit_party_1","A1RATFICCKLCQ","either","5","348","","","","","","","1","0","0","0.2579605047","","0.8","0.4","0.2","0.6","","","","","0.06585574052","0.2579605047","0.2701305136","0.2341903104","","","","","","","","","","74","J","1","","","213","main_expt",""
"","bandit","293","844436","0.0-255.0-0.0","20873770","wem/bandit_party_1","A1RATFICCKLCQ","either","5","317","","","","","","","0","1","0","","0.2470456849","0.8","0.4","0.2","0.6","0.08686614453","0.2470456849","0.302599165","0.2097526345","","","","","","","","","","","","","","74","J","1","","","214","main_expt",""
"","bandit","294","846410","0.0-256.0-0.0","20873770","wem/bandit_party_1","A1RATFICCKLCQ","either","5","425","","","","","","","0","1","0","","0.3285383036","0.8","0.4","0.2","0.6","0.1068548489","0.3285383036","0.2968005471","0.1796882487","","","","","","","","","","","","","","74","J","1","","","215","main_expt",""
"","bandit","295","848156","0.0-257.0-0.0","20873770","wem/bandit_party_1","A1RATFICCKLCQ","either","5","190","","","","","","","1","0","0","0.3780044773","","0.8","0.4","0.2","0.6","","","","","0.1211736082","0.3780044773","0.2835536598","0.2237900511","","","","","","","","","","74","J","1","","","216","main_expt",""
"","bandit","296","849816","0.0-258.0-0.0","20873770","wem/bandit_party_1","A1RATFICCKLCQ","either","5","107","","","","","","","0","0","1","0.3939228946","","0.8","0.4","0.2","0.6","","","","","0.09343701815","0.3939228946","0.2520762718","0.2265358539","","","","","","","","","","74","J","1","","","217","main_expt",""
"","bandit","297","852427","0.0-259.0-0.0","20873770","wem/bandit_party_1","A1RATFICCKLCQ","either","5","1056","","","","","","","0","0","1","0.3198270803","","0.8","0.4","0.2","0.6","","","","","0.1001055386","0.3198270803","0.2562699476","0.2364013437","","","","","","","","","","74","J","1","","","218","main_expt",""
"","bandit","298","854590","0.0-260.0-0.0","20873770","wem/bandit_party_1","A1RATFICCKLCQ","either","5","590","","","","","","","0","0","1","","0.3502502288","0.8","0.4","0.2","0.6","0.09524874014","0.3502502288","0.3002431464","0.2810560361","","","","","","","","","","","","","","74","J","1","","","219","main_expt",""
"","bandit","299","856634","0.0-261.0-0.0","20873770","wem/bandit_party_1","A1RATFICCKLCQ","either","5","478","","","","","","","0","1","0","","0.3402456168","0.8","0.4","0.2","0.6","0.1304899995","0.3402456168","0.3365413303","0.3027429446","","","","","","","","","","","","","","74","J","1","","","220","main_expt",""
"","bandit","300","858579","0.0-262.0-0.0","20873770","wem/bandit_party_1","A1RATFICCKLCQ","either","5","313","","","","","","","0","0","1","","0.3770059732","0.8","0.4","0.2","0.6","0.1272814923","0.3770059732","0.2946103072","0.3132134988","","","","","","","","","","","","","","74","J","1","","","221","main_expt",""
"","bandit","301","860539","0.0-263.0-0.0","20873770","wem/bandit_party_1","A1RATFICCKLCQ","either","5","408","","","","","","","1","0","0","0.3864421123","","0.8","0.4","0.2","0.6","","","","","0.1654407056","0.3864421123","0.3267284332","0.2424821827","","","","","","","","","","74","J","1","","","222","main_expt",""
"","bandit","302","862460","0.0-264.0-0.0","20873770","wem/bandit_party_1","A1RATFICCKLCQ","either","5","362","","","","","","","0","0","1","","0.4205211408","0.8","0.4","0.2","0.6","0.1788325852","0.4205211408","0.3175152631","0.2595367495","","","","","","","","","","","","","","74","J","1","","","223","main_expt",""
"","bandit","303","864121","0.0-265.0-0.0","20873770","wem/bandit_party_1","A1RATFICCKLCQ","either","5","111","","","","","","","0","0","1","0.4131889957","","0.8","0.4","0.2","0.6","","","","","0.1736623033","0.4131889957","0.3192400935","0.328819141","","","","","","","","","","74","J","1","","","224","main_expt",""
"","bandit","304","867406","0.0-266.0-0.0","20873770","wem/bandit_party_1","A1RATFICCKLCQ","either","5","1732","","","","","","","0","1","0","","0.4001513574","0.8","0.4","0.2","0.6","0.1721911447","0.4001513574","0.3096750449","0.356121412","","","","","","","","","","","","","","74","J","1","","","225","main_expt",""
"","bandit","305","869301","0.0-267.0-0.0","20873770","wem/bandit_party_1","A1RATFICCKLCQ","either","5","338","","","","","","","0","0","1","","0.3963688582","0.8","0.4","0.2","0.6","0.2133818582","0.3963688582","0.3142833063","0.3394019192","","","","","","","","","","","","","","74","J","1","","","226","main_expt",""
"","bandit","306","872171","0.0-268.0-0.0","20873770","wem/bandit_party_1","A1RATFICCKLCQ","either","5","1276","","","","","","","0","1","0","","0.3979714495","0.8","0.4","0.2","0.6","0.2620007467","0.3979714495","0.3096885674","0.2860553004","","","","","","","","","","","","","","74","J","1","","","227","main_expt",""
"","bandit","307","874219","0.0-269.0-0.0","20873770","wem/bandit_party_1","A1RATFICCKLCQ","either","5","449","","","","","","","0","0","1","","0.3811043637","0.8","0.4","0.2","0.6","0.2961930455","0.3811043637","0.3048295172","0.2967856672","","","","","","","","","","","","","","74","J","1","","","228","main_expt",""
"","bandit","308","876458","0.0-270.0-0.0","20873770","wem/bandit_party_1","A1RATFICCKLCQ","either","5","693","","","","","","","0","0","1","","0.3488149186","0.8","0.4","0.2","0.6","0.3081123415","0.3488149186","0.2553920021","0.2857745529","","","","","","","","","","","","","","74","J","1","","","229","main_expt",""
"","bandit","309","878380","0.0-271.0-0.0","20873770","wem/bandit_party_1","A1RATFICCKLCQ","either","5","331","","","","","","","0","0","1","","0.2883621188","0.8","0.4","0.2","0.6","0.3027177586","0.2883621188","0.2783794412","0.2589404948","","","","","","","","","","","","","","74","J","1","","","230","main_expt",""
"","bandit","310","880407","0.0-272.0-0.0","20873770","wem/bandit_party_1","A1RATFICCKLCQ","either","5","472","","","","","","","0","0","1","","0.2444465504","0.8","0.4","0.2","0.6","0.2495346478","0.2444465504","0.2735536708","0.2628441024","","","","","","","","","","","","","","74","J","1","","","231","main_expt",""
"","bandit","311","882250","0.0-273.0-0.0","20873770","wem/bandit_party_1","A1RATFICCKLCQ","either","5","286","","","","","","","0","0","1","0.2185872191","","0.8","0.4","0.2","0.6","","","","","0.2185872191","0.2996930955","0.2262440502","0.276537748","","","","","","","","","","72","H","0","img/none_selected.jpg","","232","main_expt",""
"","bandit","312","884072","0.0-274.0-0.0","20873770","wem/bandit_party_1","A1RATFICCKLCQ","either","5","243","","","","","","","0","0","1","0.1874863907","","0.8","0.4","0.2","0.6","","","","","0.1874863907","0.3103031796","0.2171974885","0.2485723575","","","","","","","","","","72","H","0","img/none_selected.jpg","","233","main_expt",""
"","bandit","313","887287","0.0-275.0-0.0","20873770","wem/bandit_party_1","A1RATFICCKLCQ","either","5","1662","","","","","","","0","0","1","0.2165838284","","0.8","0.4","0.2","0.6","","","","","0.2165838284","0.2971988612","0.2951485073","0.2172766866","","","","","","","","","","72","H","0","img/none_selected.jpg","","234","main_expt",""
"","bandit","314","889352","0.0-276.0-0.0","20873770","wem/bandit_party_1","A1RATFICCKLCQ","either","5","450","","","","","","","0","0","1","","0.1791302586","0.8","0.4","0.2","0.6","0.1791302586","0.3266576642","0.3135740045","0.221542824","","","","","","","","","","","","","","72","H","0","img/none_selected.jpg","","235","main_expt",""
"","bandit","315","891461","0.0-277.0-0.0","20873770","wem/bandit_party_1","A1RATFICCKLCQ","either","5","559","","","","","","","0","0","1","0.2463713802","","0.8","0.4","0.2","0.6","","","","","0.2463713802","0.3596878827","0.2945285262","0.2200573756","","","","","","","","","","72","H","0","img/none_selected.jpg","","236","main_expt",""
"","bandit","316","893422","0.0-278.0-0.0","20873770","wem/bandit_party_1","A1RATFICCKLCQ","either","5","349","","","","","","","0","0","1","","0.2797454337","0.8","0.4","0.2","0.6","0.2204623923","0.3951370387","0.2797454337","0.2146478317","","","","","","","","","","","","","","75","K","2","","","237","main_expt",""
"","bandit","317","895705","0.0-279.0-0.0","20873770","wem/bandit_party_1","A1RATFICCKLCQ","either","5","669","","","","","","","0","0","1","","0.266453507","0.8","0.4","0.2","0.6","0.2316256556","0.3863552979","0.266453507","0.2237656472","","","","","","","","","","","","","","75","K","2","","","238","main_expt",""
