"consent","trial_type","trial_index","time_elapsed","internal_node_id","subjID","study","MID","cond","drift","rt","responses","button_pressed","key_press","like","value","connected","gems","bombs","no_reward","GemPrChosen","BombPrChosen","GainOverPainPr_0","GainOverPainPr_1","GainOverPainPr_2","GainOverPainPr_3","LosePr_0","LosePr_1","LosePr_2","LosePr_3","WinPr_0","WinPr_1","WinPr_2","WinPr_3","Q0","Q1","Q2","gender","age","ethnicity","label","expt_phase","target","respCharCode","respKey","respChoiceNum","respChoice","practice","trial_counter","trial_label","Q0_index"
"GDM/GDM_behavioral_consent_30min_online.html","consent","0","14803","0.0-0.0","20935712","wem/bandit_party_1","APO1EBH3QPZ7","either","1","","","","","","","","","","","","","","","","","","","","","","","","","","","","","","","","","","","","","","","","",""
"","survey-text","1","21132","0.0-1.0","20935712","wem/bandit_party_1","APO1EBH3QPZ7","either","1","5315","{""Q0"":""APO1EBH3QPZ7""}","","","","","","","","","","","","","","","","","","","","","","","","","","","","","","","","","","","","","","",""
"","button-response","2","28496","0.0-2.0","20935712","wem/bandit_party_1","APO1EBH3QPZ7","either","1","6350","","0","","","","","","","","","","","","","","","","","","","","","","","","","","","","","","","","","","","","","",""
"","text-replacement","3","52174","0.0-3.0","20935712","wem/bandit_party_1","APO1EBH3QPZ7","either","1","22672","","","32","","","","","","","","","","","","","","","","","","","","","","","","","","","","","","","","","","","","",""
"","text-replacement","4","66167","0.0-4.0","20935712","wem/bandit_party_1","APO1EBH3QPZ7","either","1","13990","","","32","","","","","","","","","","","","","","","","","","","","","","","","","","","","","","","","","","","","",""
"","identification","5","79147","0.0-6.0-0.0","20935712","wem/bandit_party_1","APO1EBH3QPZ7","either","1","12937","","","","4","4","4","","","","","","","","","","","","","","","","","","","","","","","","pre","identification_pre","the Republican party","","","","","","","",""
"","identification","6","89951","0.0-6.0-1.0","20935712","wem/bandit_party_1","APO1EBH3QPZ7","either","1","9749","","","","3","4","2","","","","","","","","","","","","","","","","","","","","","","","","pre","identification_pre","the Democratic Party","","","","","","","",""
"","text-replacement","7","110251","0.0-7.0","20935712","wem/bandit_party_1","APO1EBH3QPZ7","either","1","19294","","","32","","","","","","","","","","","","","","","","","","","","","","","","","","","","","","","","","","","","",""
"","text-replacement","8","117268","0.0-8.0","20935712","wem/bandit_party_1","APO1EBH3QPZ7","either","1","7015","","","32","","","","","","","","","","","","","","","","","","","","","","","","","","","","","","","","","","","","",""
"","text-replacement","9","125467","0.0-9.0","20935712","wem/bandit_party_1","APO1EBH3QPZ7","either","1","8195","","","32","","","","","","","","","","","","","","","","","","","","","","","","","","","","","","","","","","","","",""
"","text-replacement","10","133502","0.0-10.0","20935712","wem/bandit_party_1","APO1EBH3QPZ7","either","1","8029","","","32","","","","","","","","","","","","","","","","","","","","","","","","","","","","","","","","","","","","",""
"","text-replacement","11","139991","0.0-11.0","20935712","wem/bandit_party_1","APO1EBH3QPZ7","either","1","6480","","","32","","","","","","","","","","","","","","","","","","","","","","","","","","","","","","","","","","","","",""
"","bandit","12","143931","0.0-12.0-0.0","20935712","wem/bandit_party_1","APO1EBH3QPZ7","either","1","2399","","","","","","","0","0","1","0","0","","","","","0","","","","0","","","","","","","","","","","","","74","J","0","img/none_selected_demo.jpg","true","0","",""
"","bandit","13","146484","0.0-13.0-0.0","20935712","wem/bandit_party_1","APO1EBH3QPZ7","either","1","1028","","","","","","","0","0","1","0","0","","","","","0","","","","0","","","","","","","","","","","","","75","K","0","img/none_selected_demo.jpg","true","0","",""
"","text-replacement","14","152277","0.0-14.0","20935712","wem/bandit_party_1","APO1EBH3QPZ7","either","1","5790","","","32","","","","","","","","","","","","","","","","","","","","","","","","","","","","","","","","","","","","",""
"","text-replacement","15","159814","0.0-15.0","20935712","wem/bandit_party_1","APO1EBH3QPZ7","either","1","7528","","","32","","","","","","","","","","","","","","","","","","","","","","","","","","","","","","","","","","","","",""
"","text-replacement","16","164890","0.0-16.0","20935712","wem/bandit_party_1","APO1EBH3QPZ7","either","1","5069","","","32","","","","","","","","","","","","","","","","","","","","","","","","","","","","","","","","","","","","",""
"","text-replacement","17","170138","0.0-17.0","20935712","wem/bandit_party_1","APO1EBH3QPZ7","either","1","5246","","","32","","","","","","","","","","","","","","","","","","","","","","","","","","","","","","","","","","","","",""
"","bandit","18","172322","0.0-18.0-0.0","20935712","wem/bandit_party_1","APO1EBH3QPZ7","either","1","668","","","","","","","0","1","0","","0.8","0.5","0.5","","","0.8","0.2","","","","","","","","","","","","","","","","74","J","0","img/none_selected_demo.jpg","true","0","80_20_practice",""
"","bandit","19","174121","0.0-18.0-1.0","20935712","wem/bandit_party_1","APO1EBH3QPZ7","either","1","284","","","","","","","0","1","0","","0.8","0.5","0.5","","","0.8","0.2","","","","","","","","","","","","","","","","74","J","0","img/none_selected_demo.jpg","true","0","80_20_practice",""
"","bandit","20","176216","0.0-18.0-2.0","20935712","wem/bandit_party_1","APO1EBH3QPZ7","either","1","573","","","","","","","1","0","0","0.8","","0.5","0.5","","","","","","","0.8","0.2","","","","","","","","","","","","74","J","0","img/none_selected_demo.jpg","true","0","80_20_practice",""
"","bandit","21","178303","0.0-18.0-3.0","20935712","wem/bandit_party_1","APO1EBH3QPZ7","either","1","566","","","","","","","1","0","0","0.8","","0.5","0.5","","","","","","","0.8","0.2","","","","","","","","","","","","74","J","0","img/none_selected_demo.jpg","true","0","80_20_practice",""
"","bandit","22","180551","0.0-18.0-4.0","20935712","wem/bandit_party_1","APO1EBH3QPZ7","either","1","736","","","","","","","1","0","0","0.8","","0.5","0.5","","","","","","","0.8","0.2","","","","","","","","","","","","74","J","0","img/none_selected_demo.jpg","true","0","80_20_practice",""
"","bandit","23","182836","0.0-18.0-5.0","20935712","wem/bandit_party_1","APO1EBH3QPZ7","either","1","773","","","","","","","0","1","0","","0.8","0.5","0.5","","","0.8","0.2","","","","","","","","","","","","","","","","74","J","0","img/none_selected_demo.jpg","true","0","80_20_practice",""
"","bandit","24","184920","0.0-18.0-6.0","20935712","wem/bandit_party_1","APO1EBH3QPZ7","either","1","568","","","","","","","0","1","0","","0.8","0.5","0.5","","","0.8","0.2","","","","","","","","","","","","","","","","74","J","0","img/none_selected_demo.jpg","true","0","80_20_practice",""
"","bandit","25","187000","0.0-18.0-7.0","20935712","wem/bandit_party_1","APO1EBH3QPZ7","either","1","561","","","","","","","0","0","1","0.8","","0.5","0.5","","","","","","","0.8","0.2","","","","","","","","","","","","74","J","0","img/none_selected_demo.jpg","true","0","80_20_practice",""
"","bandit","26","188986","0.0-18.0-8.0","20935712","wem/bandit_party_1","APO1EBH3QPZ7","either","1","466","","","","","","","0","1","0","","0.8","0.5","0.5","","","0.8","0.2","","","","","","","","","","","","","","","","74","J","0","img/none_selected_demo.jpg","true","0","80_20_practice",""
"","bandit","27","191041","0.0-18.0-9.0","20935712","wem/bandit_party_1","APO1EBH3QPZ7","either","1","543","","","","","","","1","0","0","0.8","","0.5","0.5","","","","","","","0.8","0.2","","","","","","","","","","","","74","J","0","img/none_selected_demo.jpg","true","0","80_20_practice",""
"","bandit","28","193732","0.0-18.0-10.0","20935712","wem/bandit_party_1","APO1EBH3QPZ7","either","1","1172","","","","","","","1","0","0","0.8","","0.5","0.5","","","","","","","0.8","0.2","","","","","","","","","","","","74","J","0","img/none_selected_demo.jpg","true","0","80_20_practice",""
"","bandit","29","197056","0.0-18.0-11.0","20935712","wem/bandit_party_1","APO1EBH3QPZ7","either","1","1811","","","","","","","0","0","1","0.8","","0.5","0.5","","","","","","","0.8","0.2","","","","","","","","","","","","74","J","0","img/none_selected_demo.jpg","true","0","80_20_practice",""
"","bandit","30","199319","0.0-18.0-12.0","20935712","wem/bandit_party_1","APO1EBH3QPZ7","either","1","751","","","","","","","1","0","0","0.8","","0.5","0.5","","","","","","","0.8","0.2","","","","","","","","","","","","74","J","0","img/none_selected_demo.jpg","true","0","80_20_practice",""
"","bandit","31","202202","0.0-18.0-13.0","20935712","wem/bandit_party_1","APO1EBH3QPZ7","either","1","1365","","","","","","","1","0","0","0.8","","0.5","0.5","","","","","","","0.8","0.2","","","","","","","","","","","","74","J","0","img/none_selected_demo.jpg","true","0","80_20_practice",""
"","bandit","32","203929","0.0-18.0-14.0","20935712","wem/bandit_party_1","APO1EBH3QPZ7","either","1","212","","","","","","","1","0","0","0.8","","0.5","0.5","","","","","","","0.8","0.2","","","","","","","","","","","","74","J","0","img/none_selected_demo.jpg","true","0","80_20_practice",""
"","bandit","33","206477","0.0-18.0-15.0","20935712","wem/bandit_party_1","APO1EBH3QPZ7","either","1","1033","","","","","","","1","0","0","0.8","","0.5","0.5","","","","","","","0.8","0.2","","","","","","","","","","","","74","J","0","img/none_selected_demo.jpg","true","0","80_20_practice",""
"","bandit","34","210518","0.0-18.0-16.0","20935712","wem/bandit_party_1","APO1EBH3QPZ7","either","1","2520","","","","","","","0","1","0","","0.8","0.5","0.5","","","0.8","0.2","","","","","","","","","","","","","","","","74","J","0","img/none_selected_demo.jpg","true","0","80_20_practice",""
"","bandit","35","214289","0.0-18.0-17.0","20935712","wem/bandit_party_1","APO1EBH3QPZ7","either","1","2248","","","","","","","1","0","0","0.8","","0.5","0.5","","","","","","","0.8","0.2","","","","","","","","","","","","74","J","0","img/none_selected_demo.jpg","true","0","80_20_practice",""
"","bandit","36","216949","0.0-18.0-18.0","20935712","wem/bandit_party_1","APO1EBH3QPZ7","either","1","1145","","","","","","","0","0","1","","0.8","0.5","0.5","","","0.8","0.2","","","","","","","","","","","","","","","","74","J","0","img/none_selected_demo.jpg","true","0","80_20_practice",""
"","bandit","37","218605","0.0-18.0-19.0","20935712","wem/bandit_party_1","APO1EBH3QPZ7","either","1","141","","","","","","","0","1","0","","0.8","0.5","0.5","","","0.8","0.2","","","","","","","","","","","","","","","","74","J","0","img/none_selected_demo.jpg","true","0","80_20_practice",""
"","text-replacement","38","223152","0.0-19.0","20935712","wem/bandit_party_1","APO1EBH3QPZ7","either","1","4543","","","32","","","","","","","","","","","","","","","","","","","","","","","","","","","","","","","","","","","","",""
"","bandit","39","225901","0.0-20.0-0.0","20935712","wem/bandit_party_1","APO1EBH3QPZ7","either","1","1232","","","","","","","1","0","0","1","0","","","","","0","1","","","1","0","","","","","","","","","","","","74","J","0","img/none_selected_demo.jpg","true","0","",""
"","text-replacement","40","288191","0.0-21.0","20935712","wem/bandit_party_1","APO1EBH3QPZ7","either","1","62282","","","32","","","","","","","","","","","","","","","","","","","","","","","","","","","","","","","","","","","","",""
"","text-replacement","41","290407","0.0-22.0","20935712","wem/bandit_party_1","APO1EBH3QPZ7","either","1","2200","","","32","","","","","","","","","","","","","","","","","","","","","","","","","","","","","","","","","","","","",""
"","text-replacement","42","291752","0.0-23.0","20935712","wem/bandit_party_1","APO1EBH3QPZ7","either","1","1331","","","32","","","","","","","","","","","","","","","","","","","","","","","","","","","","","","","","","","","","",""
"","text-replacement","43","295379","0.0-24.0","20935712","wem/bandit_party_1","APO1EBH3QPZ7","either","1","3621","","","32","","","","","","","","","","","","","","","","","","","","","","","","","","","","","","","","","","","","",""
"","text-replacement","44","302342","0.0-25.0","20935712","wem/bandit_party_1","APO1EBH3QPZ7","either","1","6961","","","32","","","","","","","","","","","","","","","","","","","","","","","","","","","","","","","","","","","","",""
"","text-replacement","45","305516","0.0-26.0","20935712","wem/bandit_party_1","APO1EBH3QPZ7","either","1","3171","","","32","","","","","","","","","","","","","","","","","","","","","","","","","","","","","","","","","","","","",""
"","text-replacement","46","310284","0.0-27.0","20935712","wem/bandit_party_1","APO1EBH3QPZ7","either","1","4763","","","32","","","","","","","","","","","","","","","","","","","","","","","","","","","","","","","","","","","","",""
"","text-replacement","47","314393","0.0-28.0","20935712","wem/bandit_party_1","APO1EBH3QPZ7","either","1","4101","","","32","","","","","","","","","","","","","","","","","","","","","","","","","","","","","","","","","","","","",""
"","text-replacement","48","319227","0.0-29.0","20935712","wem/bandit_party_1","APO1EBH3QPZ7","either","1","4818","","","32","","","","","","","","","","","","","","","","","","","","","","","","","","","","","","","","","","","","",""
"","text-replacement","49","321093","0.0-30.0","20935712","wem/bandit_party_1","APO1EBH3QPZ7","either","1","1853","","","32","","","","","","","","","","","","","","","","","","","","","","","","","","","","","","","","","","","","",""
"","text-replacement","50","323465","0.0-31.0","20935712","wem/bandit_party_1","APO1EBH3QPZ7","either","1","2364","","","32","","","","","","","","","","","","","","","","","","","","","","","","","","","","","","","","","","","","",""
"","bandit","51","326138","0.0-32.0-0.0","20935712","wem/bandit_party_1","APO1EBH3QPZ7","either","1","1145","","","","","","","1","0","0","0.8","","0.5","0.5","0.5","0.5","","","","","0.8","0.2","0.6","0.2","","","","","","","","","","72","H","0","img/none_selected.jpg","true","0","full_practice",""
"","bandit","52","327971","0.0-32.0-1.0","20935712","wem/bandit_party_1","APO1EBH3QPZ7","either","1","306","","","","","","","0","0","1","0.8","","0.5","0.5","0.5","0.5","","","","","0.8","0.2","0.6","0.2","","","","","","","","","","72","H","0","img/none_selected.jpg","true","0","full_practice",""
"","bandit","53","329686","0.0-32.0-2.0","20935712","wem/bandit_party_1","APO1EBH3QPZ7","either","1","192","","","","","","","0","0","1","","0.2","0.5","0.5","0.5","0.5","0.8","0.2","0.6","0.2","","","","","","","","","","","","","","74","J","1","","true","0","full_practice",""
"","bandit","54","331685","0.0-32.0-3.0","20935712","wem/bandit_party_1","APO1EBH3QPZ7","either","1","487","","","","","","","0","0","1","0.2","","0.5","0.5","0.5","0.5","","","","","0.8","0.2","0.6","0.2","","","","","","","","","","74","J","1","","true","0","full_practice",""
"","bandit","55","333430","0.0-32.0-4.0","20935712","wem/bandit_party_1","APO1EBH3QPZ7","either","1","223","","","","","","","1","0","0","0.6","","0.5","0.5","0.5","0.5","","","","","0.8","0.2","0.6","0.2","","","","","","","","","","75","K","2","","true","0","full_practice",""
"","bandit","56","335311","0.0-32.0-5.0","20935712","wem/bandit_party_1","APO1EBH3QPZ7","either","1","367","","","","","","","1","0","0","0.6","","0.5","0.5","0.5","0.5","","","","","0.8","0.2","0.6","0.2","","","","","","","","","","75","K","2","","true","0","full_practice",""
"","bandit","57","337242","0.0-32.0-6.0","20935712","wem/bandit_party_1","APO1EBH3QPZ7","either","1","407","","","","","","","0","0","1","0.6","","0.5","0.5","0.5","0.5","","","","","0.8","0.2","0.6","0.2","","","","","","","","","","75","K","2","","true","0","full_practice",""
"","bandit","58","339099","0.0-32.0-7.0","20935712","wem/bandit_party_1","APO1EBH3QPZ7","either","1","335","","","","","","","0","1","0","","0.6","0.5","0.5","0.5","0.5","0.8","0.2","0.6","0.2","","","","","","","","","","","","","","75","K","2","","true","0","full_practice",""
"","bandit","59","340905","0.0-32.0-8.0","20935712","wem/bandit_party_1","APO1EBH3QPZ7","either","1","292","","","","","","","1","0","0","0.6","","0.5","0.5","0.5","0.5","","","","","0.8","0.2","0.6","0.2","","","","","","","","","","75","K","2","","true","0","full_practice",""
"","bandit","60","343131","0.0-32.0-9.0","20935712","wem/bandit_party_1","APO1EBH3QPZ7","either","1","708","","","","","","","0","1","0","","0.6","0.5","0.5","0.5","0.5","0.8","0.2","0.6","0.2","","","","","","","","","","","","","","75","K","2","","true","0","full_practice",""
"","bandit","61","345073","0.0-32.0-10.0","20935712","wem/bandit_party_1","APO1EBH3QPZ7","either","1","422","","","","","","","0","1","0","","0.6","0.5","0.5","0.5","0.5","0.8","0.2","0.6","0.2","","","","","","","","","","","","","","75","K","2","","true","0","full_practice",""
"","bandit","62","346949","0.0-32.0-11.0","20935712","wem/bandit_party_1","APO1EBH3QPZ7","either","1","364","","","","","","","1","0","0","0.6","","0.5","0.5","0.5","0.5","","","","","0.8","0.2","0.6","0.2","","","","","","","","","","75","K","2","","true","0","full_practice",""
"","bandit","63","348758","0.0-32.0-12.0","20935712","wem/bandit_party_1","APO1EBH3QPZ7","either","1","295","","","","","","","0","1","0","","0.6","0.5","0.5","0.5","0.5","0.8","0.2","0.6","0.2","","","","","","","","","","","","","","75","K","2","","true","0","full_practice",""
"","bandit","64","350567","0.0-32.0-13.0","20935712","wem/bandit_party_1","APO1EBH3QPZ7","either","1","293","","","","","","","1","0","0","0.6","","0.5","0.5","0.5","0.5","","","","","0.8","0.2","0.6","0.2","","","","","","","","","","75","K","2","","true","0","full_practice",""
"","bandit","65","352364","0.0-32.0-14.0","20935712","wem/bandit_party_1","APO1EBH3QPZ7","either","1","274","","","","","","","0","1","0","","0.6","0.5","0.5","0.5","0.5","0.8","0.2","0.6","0.2","","","","","","","","","","","","","","75","K","2","","true","0","full_practice",""
"","bandit","66","354194","0.0-32.0-15.0","20935712","wem/bandit_party_1","APO1EBH3QPZ7","either","1","310","","","","","","","0","0","1","0.6","","0.5","0.5","0.5","0.5","","","","","0.8","0.2","0.6","0.2","","","","","","","","","","75","K","2","","true","0","full_practice",""
"","bandit","67","356143","0.0-32.0-16.0","20935712","wem/bandit_party_1","APO1EBH3QPZ7","either","1","426","","","","","","","0","0","1","","0.6","0.5","0.5","0.5","0.5","0.8","0.2","0.6","0.2","","","","","","","","","","","","","","75","K","2","","true","0","full_practice",""
"","bandit","68","358014","0.0-32.0-17.0","20935712","wem/bandit_party_1","APO1EBH3QPZ7","either","1","355","","","","","","","0","1","0","","0.6","0.5","0.5","0.5","0.5","0.8","0.2","0.6","0.2","","","","","","","","","","","","","","75","K","2","","true","0","full_practice",""
"","bandit","69","359831","0.0-32.0-18.0","20935712","wem/bandit_party_1","APO1EBH3QPZ7","either","1","303","","","","","","","1","0","0","0.6","","0.5","0.5","0.5","0.5","","","","","0.8","0.2","0.6","0.2","","","","","","","","","","75","K","2","","true","0","full_practice",""
"","bandit","70","361717","0.0-32.0-19.0","20935712","wem/bandit_party_1","APO1EBH3QPZ7","either","1","370","","","","","","","0","0","1","","0.6","0.5","0.5","0.5","0.5","0.8","0.2","0.6","0.2","","","","","","","","","","","","","","75","K","2","","true","0","full_practice",""
"","text","71","365513","0.0-33.0","20935712","wem/bandit_party_1","APO1EBH3QPZ7","either","1","3781","","","32","","","","","","","","","","","","","","","","","","","","","","","","","","","","","","","","","","","","",""
"","text-replacement","72","376883","0.0-34.0","20935712","wem/bandit_party_1","APO1EBH3QPZ7","either","1","10365","","","32","","","","","","","","","","","","","","","","","","","","","","","","","","","","","","","","","","","","",""
"","text-replacement","73","389368","0.0-35.0","20935712","wem/bandit_party_1","APO1EBH3QPZ7","either","1","12480","","","32","","","","","","","","","","","","","","","","","","","","","","","","","","","","","","","","","","","","",""
"","text-replacement","74","395562","0.0-36.0","20935712","wem/bandit_party_1","APO1EBH3QPZ7","either","1","6185","","","32","","","","","","","","","","","","","","","","","","","","","","","","","","","","","","","","","","","","",""
"","text-replacement","75","399863","0.0-37.0","20935712","wem/bandit_party_1","APO1EBH3QPZ7","either","1","4296","","","32","","","","","","","","","","","","","","","","","","","","","","","","","","","","","","","","","","","","",""
"","text-replacement","76","402982","0.0-38.0","20935712","wem/bandit_party_1","APO1EBH3QPZ7","either","1","3114","","","32","","","","","","","","","","","","","","","","","","","","","","","","","","","","","","","","","","","","",""
"","survey-multi-choice-replacement","77","408159","0.0-39.0-0.0","20935712","wem/bandit_party_1","APO1EBH3QPZ7","either","1","5155","","","","","","","","","","","","","","","","","","","","","","","","Money will be added to the pool for <span style='color:red;'>REPUBLICANS</span>","","","","","","","attn_check","","","","","","","","","0"
"","survey-multi-choice-replacement","78","411854","0.0-40.0-0.0","20935712","wem/bandit_party_1","APO1EBH3QPZ7","either","1","2668","","","","","","","","","","","","","","","","","","","","","","","","Equal amounts of money will be added to the pool for <span style='color:red;'>REPUBLICANS</span> and subtracted from the pool for <span style='color:blue;'>DEMOCRATS</span>","","","","","","","attn_check","","","","","","","","","2"
"","survey-multi-choice-replacement","79","414905","0.0-41.0-0.0","20935712","wem/bandit_party_1","APO1EBH3QPZ7","either","1","2037","","","","","","","","","","","","","","","","","","","","","","","","No money will be added to either pool","","","","","","","attn_check","","","","","","","","","3"
"","bandit","80","419354","0.0-42.0-0.0","20935712","wem/bandit_party_1","APO1EBH3QPZ7","either","1","1929","","","","","","","0","0","1","0.02943109976","","0.2","0.4","0.8","0.6","","","","","0.3592836462","0.0798457429","0.02943109976","0.4269289603","","","","","","","","","","75","K","2","","","1","main_expt",""
"","bandit","81","421524","0.0-43.0-0.0","20935712","wem/bandit_party_1","APO1EBH3QPZ7","either","1","645","","","","","","","0","1","0","","0.06336112212","0.2","0.4","0.8","0.6","0.3454903542","0.07621336767","0.06336112212","0.4660243271","","","","","","","","","","","","","","75","K","2","","","2","main_expt",""
"","bandit","82","423490","0.0-44.0-0.0","20935712","wem/bandit_party_1","APO1EBH3QPZ7","either","1","447","","","","","","","0","0","1","0.07335687118","","0.2","0.4","0.8","0.6","","","","","0.2941512374","0.07476295528","0.07335687118","0.4738503749","","","","","","","","","","75","K","2","","","3","main_expt",""
"","bandit","83","425500","0.0-45.0-0.0","20935712","wem/bandit_party_1","APO1EBH3QPZ7","either","1","494","","","","","","","0","0","1","0.06156305515","","0.2","0.4","0.8","0.6","","","","","0.2851241965","0.06526985361","0.06156305515","0.4618500418","","","","","","","","","","75","K","2","","","4","main_expt",""
"","bandit","84","427410","0.0-46.0-0.0","20935712","wem/bandit_party_1","APO1EBH3QPZ7","either","1","392","","","","","","","1","0","0","0.3172925843","","0.2","0.4","0.8","0.6","","","","","0.3172925843","0.05487735528","0.08141194251","0.4488935273","","","","","","","","","","72","H","0","img/none_selected.jpg","","5","main_expt",""
"","bandit","85","429500","0.0-47.0-0.0","20935712","wem/bandit_party_1","APO1EBH3QPZ7","either","1","575","","","","","","","0","0","1","0.3319153021","","0.2","0.4","0.8","0.6","","","","","0.3319153021","0.04340015571","0.1104821702","0.4437832297","","","","","","","","","","72","H","0","img/none_selected.jpg","","6","main_expt",""
"","bandit","86","431430","0.0-48.0-0.0","20935712","wem/bandit_party_1","APO1EBH3QPZ7","either","1","411","","","","","","","0","1","0","","0.3553039772","0.2","0.4","0.8","0.6","0.3553039772","0.04575060371","0.1191408541","0.4310077805","","","","","","","","","","","","","","72","H","0","img/none_selected.jpg","","7","main_expt",""
"","bandit","87","433388","0.0-49.0-0.0","20935712","wem/bandit_party_1","APO1EBH3QPZ7","either","1","436","","","","","","","0","0","1","","0.3868093767","0.2","0.4","0.8","0.6","0.3868093767","0.06112087539","0.1517570037","0.4480386191","","","","","","","","","","","","","","72","H","0","img/none_selected.jpg","","8","main_expt",""
"","bandit","88","435334","0.0-50.0-0.0","20935712","wem/bandit_party_1","APO1EBH3QPZ7","either","1","432","","","","","","","0","0","1","","0.3754406694","0.2","0.4","0.8","0.6","0.3754406694","0.07854191076","0.1738087075","0.4460224538","","","","","","","","","","","","","","72","H","0","img/none_selected.jpg","","9","main_expt",""
"","bandit","89","438069","0.0-51.0-0.0","20935712","wem/bandit_party_1","APO1EBH3QPZ7","either","1","1214","","","","","","","0","0","1","0.3954493452","","0.2","0.4","0.8","0.6","","","","","0.3537433427","0.06865483858","0.2033535465","0.3954493452","","","","","","","","","","76","L","3","","","10","main_expt",""
"","bandit","90","440023","0.0-52.0-0.0","20935712","wem/bandit_party_1","APO1EBH3QPZ7","either","1","427","","","","","","","0","0","1","","0.4064238371","0.2","0.4","0.8","0.6","0.3793358735","0.05083805298","0.1751631116","0.4064238371","","","","","","","","","","","","","","76","L","3","","","11","main_expt",""
"","bandit","91","441900","0.0-53.0-0.0","20935712","wem/bandit_party_1","APO1EBH3QPZ7","either","1","362","","","","","","","1","0","0","0.3800839449","","0.2","0.4","0.8","0.6","","","","","0.3800428212","0.1038792476","0.1787487179","0.3800839449","","","","","","","","","","76","L","3","","","12","main_expt",""
"","bandit","92","443863","0.0-54.0-0.0","20935712","wem/bandit_party_1","APO1EBH3QPZ7","either","1","438","","","","","","","0","0","1","","0.3866628193","0.2","0.4","0.8","0.6","0.3647981021","0.1197284353","0.1794712961","0.3866628193","","","","","","","","","","","","","","76","L","3","","","13","main_expt",""
"","bandit","93","445704","0.0-55.0-0.0","20935712","wem/bandit_party_1","APO1EBH3QPZ7","either","1","323","","","","","","","1","0","0","0.326509825","","0.2","0.4","0.8","0.6","","","","","0.3646471907","0.135681701","0.2482140722","0.326509825","","","","","","","","","","76","L","3","","","14","main_expt",""
"","bandit","94","447653","0.0-56.0-0.0","20935712","wem/bandit_party_1","APO1EBH3QPZ7","either","1","409","","","","","","","0","0","1","0.2428529647","","0.2","0.4","0.8","0.6","","","","","0.3549291363","0.125153919","0.2859415589","0.2428529647","","","","","","","","","","76","L","3","","","15","main_expt",""
"","bandit","95","449568","0.0-57.0-0.0","20935712","wem/bandit_party_1","APO1EBH3QPZ7","either","1","391","","","","","","","0","0","1","0.2332962783","","0.2","0.4","0.8","0.6","","","","","0.3727350689","0.1096891688","0.26587149","0.2332962783","","","","","","","","","","76","L","3","","","16","main_expt",""
"","bandit","96","451486","0.0-58.0-0.0","20935712","wem/bandit_party_1","APO1EBH3QPZ7","either","1","394","","","","","","","0","0","1","","0.1051581447","0.2","0.4","0.8","0.6","0.3112083829","0.1051581447","0.2776265896","0.2271032234","","","","","","","","","","","","","","74","J","1","","","17","main_expt",""
"","bandit","97","453463","0.0-59.0-0.0","20935712","wem/bandit_party_1","APO1EBH3QPZ7","either","1","463","","","","","","","0","0","1","","0.1437943492","0.2","0.4","0.8","0.6","0.2403081055","0.1437943492","0.3223387563","0.1701710303","","","","","","","","","","","","","","74","J","1","","","18","main_expt",""
"","bandit","98","455355","0.0-60.0-0.0","20935712","wem/bandit_party_1","APO1EBH3QPZ7","either","1","372","","","","","","","0","0","1","","0.1405615485","0.2","0.4","0.8","0.6","0.2377482675","0.1405615485","0.3192918255","0.2070198111","","","","","","","","","","","","","","74","J","1","","","19","main_expt",""
"","bandit","99","457250","0.0-61.0-0.0","20935712","wem/bandit_party_1","APO1EBH3QPZ7","either","1","380","","","","","","","0","1","0","","0.2607530295","0.2","0.4","0.8","0.6","0.2607530295","0.1063334751","0.2739159796","0.2412547966","","","","","","","","","","","","","","72","H","0","img/none_selected.jpg","","20","main_expt",""
"","bandit","100","459144","0.0-62.0-0.0","20935712","wem/bandit_party_1","APO1EBH3QPZ7","either","1","378","","","","","","","0","0","1","","0.2919400674","0.2","0.4","0.8","0.6","0.2919400674","0.07848250716","0.2454385858","0.2184758186","","","","","","","","","","","","","","72","H","0","img/none_selected.jpg","","21","main_expt",""
"","bandit","101","461119","0.0-63.0-0.0","20935712","wem/bandit_party_1","APO1EBH3QPZ7","either","1","457","","","","","","","0","1","0","","0.2995681058","0.2","0.4","0.8","0.6","0.2995681058","0.1005082742","0.2340842041","0.1849325376","","","","","","","","","","","","","","72","H","0","img/none_selected.jpg","","22","main_expt",""
"","bandit","102","463230","0.0-64.0-0.0","20935712","wem/bandit_party_1","APO1EBH3QPZ7","either","1","585","","","","","","","0","0","1","0.292554742","","0.2","0.4","0.8","0.6","","","","","0.292554742","0.0792694407","0.1840173947","0.1521197653","","","","","","","","","","72","H","0","img/none_selected.jpg","","23","main_expt",""
"","bandit","103","465179","0.0-65.0-0.0","20935712","wem/bandit_party_1","APO1EBH3QPZ7","either","1","427","","","","","","","0","0","1","","0.3616894364","0.2","0.4","0.8","0.6","0.3616894364","0.07358699385","0.1745529383","0.1759403195","","","","","","","","","","","","","","72","H","0","img/none_selected.jpg","","24","main_expt",""
"","bandit","104","467302","0.0-66.0-0.0","20935712","wem/bandit_party_1","APO1EBH3QPZ7","either","1","611","","","","","","","0","1","0","","0.3575757263","0.2","0.4","0.8","0.6","0.3575757263","0.142208116","0.1756582033","0.09479311865","","","","","","","","","","","","","","72","H","0","img/none_selected.jpg","","25","main_expt",""
"","bandit","105","469901","0.0-67.0-0.0","20935712","wem/bandit_party_1","APO1EBH3QPZ7","either","1","1083","","","","","","","0","0","1","","0.3635346368","0.2","0.4","0.8","0.6","0.3635346368","0.1245113583","0.2086365416","0.08156123497","","","","","","","","","","","","","","72","H","0","img/none_selected.jpg","","26","main_expt",""
"","bandit","106","471917","0.0-68.0-0.0","20935712","wem/bandit_party_1","APO1EBH3QPZ7","either","1","496","","","","","","","0","0","1","","0.4109801844","0.2","0.4","0.8","0.6","0.4109801844","0.118364605","0.2139763749","0.1102307873","","","","","","","","","","","","","","72","H","0","img/none_selected.jpg","","27","main_expt",""
"","bandit","107","474468","0.0-69.0-0.0","20935712","wem/bandit_party_1","APO1EBH3QPZ7","either","1","1039","","","","","","","0","1","0","","0.3772962545","0.2","0.4","0.8","0.6","0.3772962545","0.1105930361","0.1613483267","0.08274430796","","","","","","","","","","","","","","72","H","0","img/none_selected.jpg","","28","main_expt",""
"","bandit","108","476827","0.0-70.0-0.0","20935712","wem/bandit_party_1","APO1EBH3QPZ7","either","1","846","","","","","","","0","1","0","","0.3875745016","0.2","0.4","0.8","0.6","0.3875745016","0.1118713044","0.1712488152","0.1086911099","","","","","","","","","","","","","","72","H","0","img/none_selected.jpg","","29","main_expt",""
"","bandit","109","478981","0.0-71.0-0.0","20935712","wem/bandit_party_1","APO1EBH3QPZ7","either","1","636","","","","","","","0","1","0","","0.3780019893","0.2","0.4","0.8","0.6","0.3780019893","0.1914750456","0.1675524316","0.1116575632","","","","","","","","","","","","","","72","H","0","img/none_selected.jpg","","30","main_expt",""
"","bandit","110","481180","0.0-72.0-0.0","20935712","wem/bandit_party_1","APO1EBH3QPZ7","either","1","677","","","","","","","1","0","0","0.416860241","","0.2","0.4","0.8","0.6","","","","","0.416860241","0.2367730164","0.140325158","0.07828091442","","","","","","","","","","72","H","0","img/none_selected.jpg","","31","main_expt",""
"","bandit","111","483468","0.0-73.0-0.0","20935712","wem/bandit_party_1","APO1EBH3QPZ7","either","1","767","","","","","","","0","0","1","","0.4242573056","0.2","0.4","0.8","0.6","0.4242573056","0.2109574779","0.1553940025","0.07550395781","","","","","","","","","","","","","","72","H","0","img/none_selected.jpg","","32","main_expt",""
"","bandit","112","485791","0.0-74.0-0.0","20935712","wem/bandit_party_1","APO1EBH3QPZ7","either","1","792","","","","","","","0","1","0","","0.4185546122","0.2","0.4","0.8","0.6","0.4185546122","0.2005542758","0.1925614924","0.1445529326","","","","","","","","","","","","","","72","H","0","img/none_selected.jpg","","33","main_expt",""
"","bandit","113","487748","0.0-75.0-0.0","20935712","wem/bandit_party_1","APO1EBH3QPZ7","either","1","441","","","","","","","0","1","0","","0.4268308419","0.2","0.4","0.8","0.6","0.4268308419","0.180377021","0.2150530123","0.1091775744","","","","","","","","","","","","","","72","H","0","img/none_selected.jpg","","34","main_expt",""
"","bandit","114","490199","0.0-76.0-0.0","20935712","wem/bandit_party_1","APO1EBH3QPZ7","either","1","927","","","","","","","0","0","1","","0.4265642185","0.2","0.4","0.8","0.6","0.4265642185","0.2111187229","0.2688968874","0.1297995116","","","","","","","","","","","","","","72","H","0","img/none_selected.jpg","","35","main_expt",""
"","bandit","115","492336","0.0-77.0-0.0","20935712","wem/bandit_party_1","APO1EBH3QPZ7","either","1","613","","","","","","","0","0","1","","0.4066287969","0.2","0.4","0.8","0.6","0.4066287969","0.2119332756","0.2977459964","0.09468550628","","","","","","","","","","","","","","72","H","0","img/none_selected.jpg","","36","main_expt",""
"","bandit","116","494458","0.0-78.0-0.0","20935712","wem/bandit_party_1","APO1EBH3QPZ7","either","1","600","","","","","","","0","0","1","","0.4611471687","0.2","0.4","0.8","0.6","0.4611471687","0.2256131965","0.2684429955","0.09396978408","","","","","","","","","","","","","","72","H","0","img/none_selected.jpg","","37","main_expt",""
"","bandit","117","496503","0.0-79.0-0.0","20935712","wem/bandit_party_1","APO1EBH3QPZ7","either","1","532","","","","","","","0","1","0","","0.4482708269","0.2","0.4","0.8","0.6","0.4482708269","0.1975147253","0.2490186117","0.1062257399","","","","","","","","","","","","","","72","H","0","img/none_selected.jpg","","38","main_expt",""
"","bandit","118","498339","0.0-80.0-0.0","20935712","wem/bandit_party_1","APO1EBH3QPZ7","either","1","311","","","","","","","0","0","1","","0.4402774387","0.2","0.4","0.8","0.6","0.4402774387","0.1595648847","0.2548033483","0.09676453159","","","","","","","","","","","","","","72","H","0","img/none_selected.jpg","","39","main_expt",""
"","bandit","119","500368","0.0-81.0-0.0","20935712","wem/bandit_party_1","APO1EBH3QPZ7","either","1","507","","","","","","","0","0","1","0.08197179495","","0.2","0.4","0.8","0.6","","","","","0.4385128538","0.1626610004","0.2688720753","0.08197179495","","","","","","","","","","76","L","3","","","40","main_expt",""
"","bandit","120","502366","0.0-82.0-0.0","20935712","wem/bandit_party_1","APO1EBH3QPZ7","either","1","477","","","","","","","0","0","1","0.14416382","","0.2","0.4","0.8","0.6","","","","","0.4380640779","0.1982402655","0.297778532","0.14416382","","","","","","","","","","76","L","3","","","41","main_expt",""
"","bandit","121","504849","0.0-83.0-0.0","20935712","wem/bandit_party_1","APO1EBH3QPZ7","either","1","959","","","","","","","0","0","1","","0.1863610343","0.2","0.4","0.8","0.6","0.4265224768","0.1863610343","0.2449207522","0.1070927036","","","","","","","","","","","","","","74","J","1","","","42","main_expt",""
"","bandit","122","506999","0.0-84.0-0.0","20935712","wem/bandit_party_1","APO1EBH3QPZ7","either","1","636","","","","","","","1","0","0","0.2418389683","","0.2","0.4","0.8","0.6","","","","","0.435880106","0.2418389683","0.2457567503","0.1214526226","","","","","","","","","","74","J","1","","","43","main_expt",""
"","bandit","123","509224","0.0-85.0-0.0","20935712","wem/bandit_party_1","APO1EBH3QPZ7","either","1","703","","","","","","","0","0","1","","0.1943491227","0.2","0.4","0.8","0.6","0.4450576882","0.1943491227","0.2432732657","0.1450738833","","","","","","","","","","","","","","74","J","1","","","44","main_expt",""
"","bandit","124","511122","0.0-86.0-0.0","20935712","wem/bandit_party_1","APO1EBH3QPZ7","either","1","375","","","","","","","0","0","1","","0.1543250971","0.2","0.4","0.8","0.6","0.4382030275","0.1543250971","0.2656772236","0.09632230927","","","","","","","","","","","","","","74","J","1","","","45","main_expt",""
"","bandit","125","513037","0.0-87.0-0.0","20935712","wem/bandit_party_1","APO1EBH3QPZ7","either","1","397","","","","","","","1","0","0","0.2432112423","","0.2","0.4","0.8","0.6","","","","","0.4412369426","0.09719433791","0.2432112423","0.103211431","","","","","","","","","","75","K","2","","","46","main_expt",""
"","bandit","126","515595","0.0-88.0-0.0","20935712","wem/bandit_party_1","APO1EBH3QPZ7","either","1","1025","","","","","","","0","0","1","0.2992745976","","0.2","0.4","0.8","0.6","","","","","0.4588863431","0.1228880329","0.2992745976","0.09916324924","","","","","","","","","","75","K","2","","","47","main_expt",""
"","bandit","127","517592","0.0-89.0-0.0","20935712","wem/bandit_party_1","APO1EBH3QPZ7","either","1","481","","","","","","","0","0","1","0.2594611615","","0.2","0.4","0.8","0.6","","","","","0.4408788818","0.1068532567","0.2594611615","0.1090242341","","","","","","","","","","75","K","2","","","48","main_expt",""
"","bandit","128","519525","0.0-90.0-0.0","20935712","wem/bandit_party_1","APO1EBH3QPZ7","either","1","410","","","","","","","1","0","0","0.4232064109","","0.2","0.4","0.8","0.6","","","","","0.4232064109","0.1044048509","0.2767916858","0.1265186769","","","","","","","","","","72","H","0","img/none_selected.jpg","","49","main_expt",""
"","bandit","129","521995","0.0-91.0-0.0","20935712","wem/bandit_party_1","APO1EBH3QPZ7","either","1","947","","","","","","","0","1","0","","0.4210883962","0.2","0.4","0.8","0.6","0.4210883962","0.1072026782","0.2762534014","0.1397440907","","","","","","","","","","","","","","72","H","0","img/none_selected.jpg","","50","main_expt",""
"","bandit","130","524390","0.0-92.0-0.0","20935712","wem/bandit_party_1","APO1EBH3QPZ7","either","1","877","","","","","","","0","0","1","","0.4225635581","0.2","0.4","0.8","0.6","0.4225635581","0.1287882573","0.3379376541","0.153600331","","","","","","","","","","","","","","72","H","0","img/none_selected.jpg","","51","main_expt",""
"","bandit","131","526348","0.0-93.0-0.0","20935712","wem/bandit_party_1","APO1EBH3QPZ7","either","1","439","","","","","","","0","0","1","","0.4146237098","0.2","0.4","0.8","0.6","0.4146237098","0.1298059469","0.3395267946","0.1718407591","","","","","","","","","","","","","","72","H","0","img/none_selected.jpg","","52","main_expt",""
"","bandit","132","528326","0.0-94.0-0.0","20935712","wem/bandit_party_1","APO1EBH3QPZ7","either","1","454","","","","","","","0","0","1","0.1945727614","","0.2","0.4","0.8","0.6","","","","","0.3763623321","0.07423060895","0.29674647","0.1945727614","","","","","","","","","","76","L","3","","","53","main_expt",""
"","bandit","133","530287","0.0-95.0-0.0","20935712","wem/bandit_party_1","APO1EBH3QPZ7","either","1","437","","","","","","","0","1","0","","0.2450542523","0.2","0.4","0.8","0.6","0.3289081181","0.08562383645","0.3372955831","0.2450542523","","","","","","","","","","","","","","76","L","3","","","54","main_expt",""
"","bandit","134","532373","0.0-96.0-0.0","20935712","wem/bandit_party_1","APO1EBH3QPZ7","either","1","572","","","","","","","1","0","0","0.2547241938","","0.2","0.4","0.8","0.6","","","","","0.3025984711","0.0757818623","0.3506099842","0.2547241938","","","","","","","","","","76","L","3","","","55","main_expt",""
"","bandit","135","534626","0.0-97.0-0.0","20935712","wem/bandit_party_1","APO1EBH3QPZ7","either","1","724","","","","","","","0","0","1","","0.2595112895","0.2","0.4","0.8","0.6","0.2921333137","0.09897923035","0.3418029788","0.2595112895","","","","","","","","","","","","","","76","L","3","","","56","main_expt",""
"","bandit","136","536588","0.0-98.0-0.0","20935712","wem/bandit_party_1","APO1EBH3QPZ7","either","1","431","","","","","","","0","0","1","0.2610276213","","0.2","0.4","0.8","0.6","","","","","0.3317177772","0.1160875525","0.3162475816","0.2610276213","","","","","","","","","","76","L","3","","","57","main_expt",""
"","bandit","137","538591","0.0-99.0-0.0","20935712","wem/bandit_party_1","APO1EBH3QPZ7","either","1","478","","","","","","","0","0","1","","0.1134641846","0.2","0.4","0.8","0.6","0.3240244649","0.1134641846","0.3269881105","0.2354201416","","","","","","","","","","","","","","74","J","1","","","58","main_expt",""
"","bandit","138","540626","0.0-100.0-0.0","20935712","wem/bandit_party_1","APO1EBH3QPZ7","either","1","520","","","","","","","0","0","1","","0.1177083384","0.2","0.4","0.8","0.6","0.2988076671","0.1177083384","0.2901324944","0.2346370837","","","","","","","","","","","","","","74","J","1","","","59","main_expt",""
"","bandit","139","542582","0.0-101.0-0.0","20935712","wem/bandit_party_1","APO1EBH3QPZ7","either","1","432","","","","","","","0","0","1","0.289588464","","0.2","0.4","0.8","0.6","","","","","0.3096792726","0.1125723432","0.289588464","0.2315637733","","","","","","","","","","75","K","2","","","60","main_expt",""
"","bandit","140","544483","0.0-102.0-0.0","20935712","wem/bandit_party_1","APO1EBH3QPZ7","either","1","381","","","","","","","0","0","1","0.2782845563","","0.2","0.4","0.8","0.6","","","","","0.2821336973","0.09911093426","0.2782845563","0.2599537756","","","","","","","","","","75","K","2","","","61","main_expt",""
"","bandit","141","546435","0.0-103.0-0.0","20935712","wem/bandit_party_1","APO1EBH3QPZ7","either","1","437","","","","","","","0","1","0","","0.2414244345","0.2","0.4","0.8","0.6","0.2414244345","0.09440438105","0.3165490401","0.2594941563","","","","","","","","","","","","","","72","H","0","img/none_selected.jpg","","62","main_expt",""
"","bandit","142","548615","0.0-104.0-0.0","20935712","wem/bandit_party_1","APO1EBH3QPZ7","either","1","658","","","","","","","0","0","1","0.213639373","","0.2","0.4","0.8","0.6","","","","","0.213639373","0.1015409351","0.3034564924","0.2660839385","","","","","","","","","","72","H","0","img/none_selected.jpg","","63","main_expt",""
"","bandit","143","550537","0.0-105.0-0.0","20935712","wem/bandit_party_1","APO1EBH3QPZ7","either","1","400","","","","","","","0","0","1","","0.1876308072","0.2","0.4","0.8","0.6","0.1876308072","0.07049798599","0.2506654962","0.2426585031","","","","","","","","","","","","","","72","H","0","img/none_selected.jpg","","64","main_expt",""
"","bandit","144","552464","0.0-106.0-0.0","20935712","wem/bandit_party_1","APO1EBH3QPZ7","either","1","403","","","","","","","0","0","1","0.2581047566","","0.2","0.4","0.8","0.6","","","","","0.1841803182","0.05735603507","0.253414466","0.2581047566","","","","","","","","","","76","L","3","","","65","main_expt",""
"","bandit","145","554323","0.0-107.0-0.0","20935712","wem/bandit_party_1","APO1EBH3QPZ7","either","1","335","","","","","","","0","0","1","","0.2872127433","0.2","0.4","0.8","0.6","0.187417598","0.0621258055","0.2836500186","0.2872127433","","","","","","","","","","","","","","76","L","3","","","66","main_expt",""
"","bandit","146","556158","0.0-108.0-0.0","20935712","wem/bandit_party_1","APO1EBH3QPZ7","either","1","315","","","","","","","0","0","1","0.1395950637","","0.2","0.4","0.8","0.6","","","","","0.1395950637","0.06966106928","0.3217852231","0.3232337643","","","","","","","","","","72","H","0","img/none_selected.jpg","","67","main_expt",""
"","bandit","147","558047","0.0-109.0-0.0","20935712","wem/bandit_party_1","APO1EBH3QPZ7","either","1","371","","","","","","","0","0","1","","0.1363519197","0.2","0.4","0.8","0.6","0.1363519197","0.09965709916","0.3574581916","0.3376006622","","","","","","","","","","","","","","72","H","0","img/none_selected.jpg","","68","main_expt",""
"","bandit","148","559956","0.0-110.0-0.0","20935712","wem/bandit_party_1","APO1EBH3QPZ7","either","1","383","","","","","","","0","0","1","","0.1428217854","0.2","0.4","0.8","0.6","0.1117144852","0.1428217854","0.3884563005","0.2917609244","","","","","","","","","","","","","","74","J","1","","","69","main_expt",""
"","bandit","149","561922","0.0-111.0-0.0","20935712","wem/bandit_party_1","APO1EBH3QPZ7","either","1","433","","","","","","","0","0","1","","0.1866845388","0.2","0.4","0.8","0.6","0.09667493602","0.1866845388","0.3920047773","0.2218665627","","","","","","","","","","","","","","74","J","1","","","70","main_expt",""
"","bandit","150","563900","0.0-112.0-0.0","20935712","wem/bandit_party_1","APO1EBH3QPZ7","either","1","459","","","","","","","0","0","1","0.4066376731","","0.2","0.4","0.8","0.6","","","","","0.09186933139","0.1702545286","0.4066376731","0.2409383839","","","","","","","","","","75","K","2","","","71","main_expt",""
"","bandit","151","566026","0.0-113.0-0.0","20935712","wem/bandit_party_1","APO1EBH3QPZ7","either","1","610","","","","","","","0","0","1","0.3443789926","","0.2","0.4","0.8","0.6","","","","","0.09472009463","0.1836279043","0.3443789926","0.1920783453","","","","","","","","","","75","K","2","","","72","main_expt",""
"","bandit","152","568273","0.0-114.0-0.0","20935712","wem/bandit_party_1","APO1EBH3QPZ7","either","1","732","","","","","","","0","0","1","","0.1905254877","0.2","0.4","0.8","0.6","0.1167805336","0.1644348242","0.3227553012","0.1905254877","","","","","","","","","","","","","","76","L","3","","","73","main_expt",""
"","bandit","153","570200","0.0-115.0-0.0","20935712","wem/bandit_party_1","APO1EBH3QPZ7","either","1","411","","","","","","","0","0","1","","0.184198213","0.2","0.4","0.8","0.6","0.1465151254","0.1833421201","0.3336652139","0.184198213","","","","","","","","","","","","","","76","L","3","","","74","main_expt",""
"","bandit","154","571971","0.0-116.0-0.0","20935712","wem/bandit_party_1","APO1EBH3QPZ7","either","1","250","","","","","","","0","0","1","","0.123285719","0.2","0.4","0.8","0.6","0.123285719","0.1519653276","0.2890150868","0.1881920243","","","","","","","","","","","","","","72","H","0","img/none_selected.jpg","","75","main_expt",""
"","bandit","155","573881","0.0-117.0-0.0","20935712","wem/bandit_party_1","APO1EBH3QPZ7","either","1","390","","","","","","","0","0","1","","0.1392606081","0.2","0.4","0.8","0.6","0.1392606081","0.1506622639","0.2673490463","0.1988930589","","","","","","","","","","","","","","72","H","0","img/none_selected.jpg","","76","main_expt",""
"","bandit","156","575711","0.0-118.0-0.0","20935712","wem/bandit_party_1","APO1EBH3QPZ7","either","1","317","","","","","","","1","0","0","0.099337717","","0.2","0.4","0.8","0.6","","","","","0.099337717","0.1860897766","0.2858541315","0.2255968657","","","","","","","","","","72","H","0","img/none_selected.jpg","","77","main_expt",""
"","bandit","157","577600","0.0-119.0-0.0","20935712","wem/bandit_party_1","APO1EBH3QPZ7","either","1","370","","","","","","","0","0","1","","0.09666605973","0.2","0.4","0.8","0.6","0.09666605973","0.1618556875","0.2639968829","0.1917014014","","","","","","","","","","","","","","72","H","0","img/none_selected.jpg","","78","main_expt",""
"","bandit","158","580365","0.0-120.0-0.0","20935712","wem/bandit_party_1","APO1EBH3QPZ7","either","1","1249","","","","","","","1","0","0","0.09639353985","","0.2","0.4","0.8","0.6","","","","","0.09639353985","0.1976853889","0.2304888896","0.2092129429","","","","","","","","","","72","H","0","img/none_selected.jpg","","79","main_expt",""
"","bandit","159","582322","0.0-121.0-0.0","20935712","wem/bandit_party_1","APO1EBH3QPZ7","either","1","436","","","","","","","0","0","1","","0.09566996791","0.2","0.4","0.8","0.6","0.09566996791","0.2198838985","0.1991809665","0.1974306726","","","","","","","","","","","","","","72","H","0","img/none_selected.jpg","","80","main_expt",""
"","bandit","160","584407","0.0-122.0-0.0","20935712","wem/bandit_party_1","APO1EBH3QPZ7","either","1","562","","","","","","","0","0","1","","0.07958501382","0.2","0.4","0.8","0.6","0.07958501382","0.2167005254","0.1627434897","0.1414754506","","","","","","","","","","","","","","72","H","0","img/none_selected.jpg","","81","main_expt",""
"","bandit","161","586292","0.0-123.0-0.0","20935712","wem/bandit_party_1","APO1EBH3QPZ7","either","1","367","","","","","","","0","0","1","","0.08833774835","0.2","0.4","0.8","0.6","0.08833774835","0.2527486409","0.1624637972","0.1422587364","","","","","","","","","","","","","","72","H","0","img/none_selected.jpg","","82","main_expt",""
"","bandit","162","588399","0.0-124.0-0.0","20935712","wem/bandit_party_1","APO1EBH3QPZ7","either","1","581","","","","","","","0","0","1","","0.2569721607","0.2","0.4","0.8","0.6","0.09109006352","0.2569721607","0.1900332","0.1079415531","","","","","","","","","","","","","","74","J","1","","","83","main_expt",""
"","bandit","163","590402","0.0-125.0-0.0","20935712","wem/bandit_party_1","APO1EBH3QPZ7","either","1","483","","","","","","","0","0","1","0.2535394321","","0.2","0.4","0.8","0.6","","","","","0.05321730921","0.2535394321","0.1705646391","0.07696487024","","","","","","","","","","74","J","1","","","84","main_expt",""
"","bandit","164","592442","0.0-126.0-0.0","20935712","wem/bandit_party_1","APO1EBH3QPZ7","either","1","517","","","","","","","0","1","0","","0.2255799186","0.2","0.4","0.8","0.6","0.03321009489","0.2255799186","0.2053302659","0.08313016423","","","","","","","","","","","","","","74","J","1","","","85","main_expt",""
"","bandit","165","594300","0.0-127.0-0.0","20935712","wem/bandit_party_1","APO1EBH3QPZ7","either","1","339","","","","","","","0","0","1","","0.2197080914","0.2","0.4","0.8","0.6","0.04864990798","0.2197080914","0.2128685413","0.102083396","","","","","","","","","","","","","","74","J","1","","","86","main_expt",""
"","bandit","166","596332","0.0-128.0-0.0","20935712","wem/bandit_party_1","APO1EBH3QPZ7","either","1","508","","","","","","","0","0","1","","0.2230338057","0.2","0.4","0.8","0.6","0.07919268752","0.2230338057","0.213778815","0.09067070718","","","","","","","","","","","","","","74","J","1","","","87","main_expt",""
"","bandit","167","598206","0.0-129.0-0.0","20935712","wem/bandit_party_1","APO1EBH3QPZ7","either","1","356","","","","","","","0","1","0","","0.2484269739","0.2","0.4","0.8","0.6","0.05835116993","0.2484269739","0.2102340809","0.1421970704","","","","","","","","","","","","","","74","J","1","","","88","main_expt",""
"","bandit","168","600145","0.0-130.0-0.0","20935712","wem/bandit_party_1","APO1EBH3QPZ7","either","1","424","","","","","","","0","1","0","","0.2733562597","0.2","0.4","0.8","0.6","0.05115519592","0.2733562597","0.1809358483","0.219142046","","","","","","","","","","","","","","74","J","1","","","89","main_expt",""
"","bandit","169","602048","0.0-131.0-0.0","20935712","wem/bandit_party_1","APO1EBH3QPZ7","either","1","387","","","","","","","0","1","0","","0.2973868449","0.2","0.4","0.8","0.6","0.07819273649","0.2973868449","0.1293356972","0.2806923657","","","","","","","","","","","","","","74","J","1","","","90","main_expt",""
"","bandit","170","603951","0.0-132.0-0.0","20935712","wem/bandit_party_1","APO1EBH3QPZ7","either","1","383","","","","","","","0","0","1","","0.3067689268","0.2","0.4","0.8","0.6","0.05564661524","0.3067689268","0.1136224352","0.2819660137","","","","","","","","","","","","","","74","J","1","","","91","main_expt",""
"","bandit","171","605942","0.0-133.0-0.0","20935712","wem/bandit_party_1","APO1EBH3QPZ7","either","1","465","","","","","","","0","0","1","0.2719776188","","0.2","0.4","0.8","0.6","","","","","0.05914103421","0.2719776188","0.07539152519","0.3370305887","","","","","","","","","","74","J","1","","","92","main_expt",""
"","bandit","172","608165","0.0-134.0-0.0","20935712","wem/bandit_party_1","APO1EBH3QPZ7","either","1","699","","","","","","","1","0","0","0.3081791896","","0.2","0.4","0.8","0.6","","","","","0.03944324463","0.3081791896","0.08243558305","0.3722719914","","","","","","","","","","74","J","1","","","93","main_expt",""
"","bandit","173","610236","0.0-135.0-0.0","20935712","wem/bandit_party_1","APO1EBH3QPZ7","either","1","552","","","","","","","0","0","1","","0.356667856","0.2","0.4","0.8","0.6","0.05023017475","0.356667856","0.09807673793","0.3840030774","","","","","","","","","","","","","","74","J","1","","","94","main_expt",""
"","bandit","174","612394","0.0-136.0-0.0","20935712","wem/bandit_party_1","APO1EBH3QPZ7","either","1","632","","","","","","","0","0","1","0.3300765204","","0.2","0.4","0.8","0.6","","","","","0.07311956304","0.3300765204","0.09746204728","0.4050844552","","","","","","","","","","74","J","1","","","95","main_expt",""
"","bandit","175","614751","0.0-137.0-0.0","20935712","wem/bandit_party_1","APO1EBH3QPZ7","either","1","841","","","","","","","0","0","1","","0.3642735905","0.2","0.4","0.8","0.6","0.09573717159","0.3642735905","0.08559835745","0.4081076376","","","","","","","","","","","","","","74","J","1","","","96","main_expt",""
"","bandit","176","616949","0.0-138.0-0.0","20935712","wem/bandit_party_1","APO1EBH3QPZ7","either","1","669","","","","","","","0","0","1","","0.3885664579","0.2","0.4","0.8","0.6","0.1235519285","0.3885664579","0.0732645996","0.4142780263","","","","","","","","","","","","","","74","J","1","","","97","main_expt",""
"","bandit","177","618975","0.0-139.0-0.0","20935712","wem/bandit_party_1","APO1EBH3QPZ7","either","1","504","","","","","","","1","0","0","0.4162912028","","0.2","0.4","0.8","0.6","","","","","0.1274282425","0.4162912028","0.05343209845","0.4131193208","","","","","","","","","","74","J","1","","","98","main_expt",""
"","bandit","178","621491","0.0-140.0-0.0","20935712","wem/bandit_party_1","APO1EBH3QPZ7","either","1","998","","","","","","","0","1","0","","0.4074153657","0.2","0.4","0.8","0.6","0.1457321849","0.4074153657","0.05144299931","0.428944851","","","","","","","","","","","","","","74","J","1","","","99","main_expt",""
"","bandit","179","624332","0.0-141.0-0.0","20935712","wem/bandit_party_1","APO1EBH3QPZ7","either","1","1321","","","","","","","1","0","0","0.3349137267","","0.2","0.4","0.8","0.6","","","","","0.1492128348","0.3349137267","0.03934302155","0.4279797645","","","","","","","","","","74","J","1","","","100","main_expt",""
"","bandit","180","626570","0.0-142.0-0.0","20935712","wem/bandit_party_1","APO1EBH3QPZ7","either","1","721","","","","","","","0","1","0","","0.2732947861","0.2","0.4","0.8","0.6","0.125019219","0.2732947861","0.05783306622","0.4189249443","","","","","","","","","","","","","","74","J","1","","","101","main_expt",""
"","bandit","181","629151","0.0-143.0-0.0","20935712","wem/bandit_party_1","APO1EBH3QPZ7","either","1","1062","","","","","","","0","0","1","0.2584454073","","0.2","0.4","0.8","0.6","","","","","0.1008510245","0.2584454073","0.06484492547","0.4279241466","","","","","","","","","","74","J","1","","","102","main_expt",""
"","bandit","182","632041","0.0-144.0-0.0","20935712","wem/bandit_party_1","APO1EBH3QPZ7","either","1","1373","","","","","","","0","0","1","","0.2143891894","0.2","0.4","0.8","0.6","0.1087281004","0.2143891894","0.0701259157","0.419390052","","","","","","","","","","","","","","74","J","1","","","103","main_expt",""
"","bandit","183","633879","0.0-145.0-0.0","20935712","wem/bandit_party_1","APO1EBH3QPZ7","either","1","313","","","","","","","0","1","0","","0.1354346047","0.2","0.4","0.8","0.6","0.143855427","0.1354346047","0.06922647753","0.3761202226","","","","","","","","","","","","","","74","J","1","","","104","main_expt",""
"","bandit","184","635902","0.0-146.0-0.0","20935712","wem/bandit_party_1","APO1EBH3QPZ7","either","1","496","","","","","","","0","0","1","0.1615963473","","0.2","0.4","0.8","0.6","","","","","0.1606853024","0.1615963473","0.07802312096","0.4229881466","","","","","","","","","","74","J","1","","","105","main_expt",""
"","bandit","185","638004","0.0-147.0-0.0","20935712","wem/bandit_party_1","APO1EBH3QPZ7","either","1","575","","","","","","","0","0","1","0.08930313369","","0.2","0.4","0.8","0.6","","","","","0.1612939645","0.1738621023","0.08930313369","0.4110558218","","","","","","","","","","75","K","2","","","106","main_expt",""
"","bandit","186","640036","0.0-148.0-0.0","20935712","wem/bandit_party_1","APO1EBH3QPZ7","either","1","511","","","","","","","0","0","1","0.4176599015","","0.2","0.4","0.8","0.6","","","","","0.1778053335","0.1799671425","0.1397733654","0.4176599015","","","","","","","","","","76","L","3","","","107","main_expt",""
"","bandit","187","641865","0.0-149.0-0.0","20935712","wem/bandit_party_1","APO1EBH3QPZ7","either","1","311","","","","","","","0","0","1","","0.1826465361","0.2","0.4","0.8","0.6","0.1826465361","0.1844274074","0.1505899732","0.4210396584","","","","","","","","","","","","","","72","H","0","img/none_selected.jpg","","108","main_expt",""
"","bandit","188","643504","0.0-150.0-0.0","20935712","wem/bandit_party_1","APO1EBH3QPZ7","either","1","114","","","","","","","0","1","0","","0.1702708828","0.2","0.4","0.8","0.6","0.1737022726","0.1702708828","0.1162436109","0.4328015469","","","","","","","","","","","","","","74","J","1","","","109","main_expt",""
"","bandit","189","646039","0.0-151.0-0.0","20935712","wem/bandit_party_1","APO1EBH3QPZ7","either","1","1013","","","","","","","0","0","1","0.1964407335","","0.2","0.4","0.8","0.6","","","","","0.1658344406","0.1964407335","0.08267976014","0.4495585744","","","","","","","","","","74","J","1","","","110","main_expt",""
"","bandit","190","648706","0.0-152.0-0.0","20935712","wem/bandit_party_1","APO1EBH3QPZ7","either","1","1148","","","","","","","0","0","1","0.1777579569","","0.2","0.4","0.8","0.6","","","","","0.240619448","0.1777579569","0.09389793805","0.4237631325","","","","","","","","","","74","J","1","","","111","main_expt",""
"","bandit","191","650637","0.0-153.0-0.0","20935712","wem/bandit_party_1","APO1EBH3QPZ7","either","1","390","","","","","","","0","0","1","0.1395994444","","0.2","0.4","0.8","0.6","","","","","0.1927397719","0.1395994444","0.07903418564","0.4521571561","","","","","","","","","","74","J","1","","","112","main_expt",""
"","bandit","192","652223","0.0-154.0-0.0","20935712","wem/bandit_party_1","APO1EBH3QPZ7","either","1","57","","","","","","","0","0","1","","0.1205999431","0.2","0.4","0.8","0.6","0.234725565","0.1205999431","0.05501139052","0.4350762846","","","","","","","","","","","","","","74","J","1","","","113","main_expt",""
"","bandit","193","654841","0.0-155.0-0.0","20935712","wem/bandit_party_1","APO1EBH3QPZ7","either","1","1093","","","","","","","0","0","1","","0.09123355482","0.2","0.4","0.8","0.6","0.1950215869","0.09123355482","0.07627702456","0.4315824664","","","","","","","","","","","","","","74","J","1","","","114","main_expt",""
"","bandit","194","657586","0.0-156.0-0.0","20935712","wem/bandit_party_1","APO1EBH3QPZ7","either","1","1227","","","","","","","0","0","1","","0.09554471192","0.2","0.4","0.8","0.6","0.2575833325","0.09554471192","0.03985247356","0.4127349624","","","","","","","","","","","","","","74","J","1","","","115","main_expt",""
"","bandit","195","661070","0.0-157.0-0.0","20935712","wem/bandit_party_1","APO1EBH3QPZ7","either","1","1962","","","","","","","0","0","1","0.1942182492","","0.2","0.4","0.8","0.6","","","","","0.2296468005","0.1942182492","0.0683792979","0.4468356006","","","","","","","","","","74","J","1","","","116","main_expt",""
"","bandit","196","663093","0.0-158.0-0.0","20935712","wem/bandit_party_1","APO1EBH3QPZ7","either","1","498","","","","","","","0","0","1","","0.2208250117","0.2","0.4","0.8","0.6","0.2816483341","0.2208250117","0.03956212276","0.4458703805","","","","","","","","","","","","","","74","J","1","","","117","main_expt",""
"","bandit","197","665141","0.0-159.0-0.0","20935712","wem/bandit_party_1","APO1EBH3QPZ7","either","1","519","","","","","","","0","1","0","","0.2626769985","0.2","0.4","0.8","0.6","0.2626769985","0.1687975443","0.04459229253","0.4500370674","","","","","","","","","","","","","","72","H","0","img/none_selected.jpg","","118","main_expt",""
"","bandit","198","668155","0.0-160.0-0.0","20935712","wem/bandit_party_1","APO1EBH3QPZ7","either","1","1495","","","","","","","0","0","1","","0.2418090277","0.2","0.4","0.8","0.6","0.2418090277","0.1546105485","0.03386957434","0.4704359259","","","","","","","","","","","","","","72","H","0","img/none_selected.jpg","","119","main_expt",""
"","bandit","199","671405","0.0-161.0-0.0","20935712","wem/bandit_party_1","APO1EBH3QPZ7","either","1","1733","","","","","","","0","0","1","0.2603236095","","0.2","0.4","0.8","0.6","","","","","0.2603236095","0.143668411","0.03305427522","0.4578798539","","","","","","","","","","72","H","0","img/none_selected.jpg","","120","main_expt",""
"","bandit","200","673853","0.0-162.0-0.0","20935712","wem/bandit_party_1","APO1EBH3QPZ7","either","1","929","","","","","","","0","0","1","0.2381785671","","0.2","0.4","0.8","0.6","","","","","0.2381785671","0.1098317425","0.03146098963","0.4591190262","","","","","","","","","","72","H","0","img/none_selected.jpg","","121","main_expt",""
"","bandit","201","675778","0.0-163.0-0.0","20935712","wem/bandit_party_1","APO1EBH3QPZ7","either","1","397","","","","","","","0","0","1","","0.2388462554","0.2","0.4","0.8","0.6","0.2388462554","0.1097832873","0.02311797033","0.4643737298","","","","","","","","","","","","","","72","H","0","img/none_selected.jpg","","122","main_expt",""
"","bandit","202","678521","0.0-164.0-0.0","20935712","wem/bandit_party_1","APO1EBH3QPZ7","either","1","1216","","","","","","","0","0","1","","0.2079929623","0.2","0.4","0.8","0.6","0.2079929623","0.1145900252","0.0171261738","0.451586091","","","","","","","","","","","","","","72","H","0","img/none_selected.jpg","","123","main_expt",""
"","bandit","203","680791","0.0-165.0-0.0","20935712","wem/bandit_party_1","APO1EBH3QPZ7","either","1","747","","","","","","","0","0","1","0.2148400852","","0.2","0.4","0.8","0.6","","","","","0.2148400852","0.1137783892","0.03468299263","0.4456906556","","","","","","","","","","72","H","0","img/none_selected.jpg","","124","main_expt",""
"","bandit","204","684063","0.0-166.0-0.0","20935712","wem/bandit_party_1","APO1EBH3QPZ7","either","1","1753","","","","","","","0","0","1","","0.2185056602","0.2","0.4","0.8","0.6","0.2185056602","0.145605256","0.02544516396","0.4240876494","","","","","","","","","","","","","","72","H","0","img/none_selected.jpg","","125","main_expt",""
"","bandit","205","687232","0.0-167.0-0.0","20935712","wem/bandit_party_1","APO1EBH3QPZ7","either","1","1643","","","","","","","0","0","1","","0.2152323899","0.2","0.4","0.8","0.6","0.2152323899","0.1443839055","0.03059506073","0.4008501573","","","","","","","","","","","","","","72","H","0","img/none_selected.jpg","","126","main_expt",""
"","bandit","206","689543","0.0-168.0-0.0","20935712","wem/bandit_party_1","APO1EBH3QPZ7","either","1","795","","","","","","","0","1","0","","0.1699446714","0.2","0.4","0.8","0.6","0.1699446714","0.1434222382","0.0339638967","0.4066073101","","","","","","","","","","","","","","72","H","0","img/none_selected.jpg","","127","main_expt",""
"","bandit","207","691481","0.0-169.0-0.0","20935712","wem/bandit_party_1","APO1EBH3QPZ7","either","1","420","","","","","","","0","0","1","","0.1299446217","0.2","0.4","0.8","0.6","0.1299446217","0.1412168693","0.02632978063","0.4270302575","","","","","","","","","","","","","","72","H","0","img/none_selected.jpg","","128","main_expt",""
"","bandit","208","693396","0.0-170.0-0.0","20935712","wem/bandit_party_1","APO1EBH3QPZ7","either","1","388","","","","","","","0","0","1","","0.1299487573","0.2","0.4","0.8","0.6","0.1299487573","0.1086871361","0.02640977482","0.4401824822","","","","","","","","","","","","","","72","H","0","img/none_selected.jpg","","129","main_expt",""
"","bandit","209","695358","0.0-171.0-0.0","20935712","wem/bandit_party_1","APO1EBH3QPZ7","either","1","443","","","","","","","0","0","1","","0.1172580566","0.2","0.4","0.8","0.6","0.1172580566","0.1672766288","0.03646961518","0.4160959849","","","","","","","","","","","","","","72","H","0","img/none_selected.jpg","","130","main_expt",""
"","bandit","210","697405","0.0-172.0-0.0","20935712","wem/bandit_party_1","APO1EBH3QPZ7","either","1","520","","","","","","","0","0","1","0.4374535298","","0.2","0.4","0.8","0.6","","","","","0.1289979545","0.157110596","0.02171712127","0.4374535298","","","","","","","","","","76","L","3","","","131","main_expt",""
"","bandit","211","699343","0.0-173.0-0.0","20935712","wem/bandit_party_1","APO1EBH3QPZ7","either","1","416","","","","","","","0","0","1","0.4382483821","","0.2","0.4","0.8","0.6","","","","","0.1243754988","0.1338697581","0.01004766493","0.4382483821","","","","","","","","","","76","L","3","","","132","main_expt",""
"","bandit","212","701391","0.0-174.0-0.0","20935712","wem/bandit_party_1","APO1EBH3QPZ7","either","1","522","","","","","","","1","0","0","0.3913946914","","0.2","0.4","0.8","0.6","","","","","0.1189203389","0.1101669797","0.005153708139","0.3913946914","","","","","","","","","","76","L","3","","","133","main_expt",""
"","bandit","213","703389","0.0-175.0-0.0","20935712","wem/bandit_party_1","APO1EBH3QPZ7","either","1","475","","","","","","","0","0","1","","0.4280120537","0.2","0.4","0.8","0.6","0.07075860378","0.060775537","0.01308543257","0.4280120537","","","","","","","","","","","","","","76","L","3","","","134","main_expt",""
"","bandit","214","705490","0.0-176.0-0.0","20935712","wem/bandit_party_1","APO1EBH3QPZ7","either","1","581","","","","","","","0","1","0","","0.4385213509","0.2","0.4","0.8","0.6","0.1073185777","0.0714416082","0.02634180281","0.4385213509","","","","","","","","","","","","","","76","L","3","","","135","main_expt",""
"","bandit","215","707444","0.0-177.0-0.0","20935712","wem/bandit_party_1","APO1EBH3QPZ7","either","1","432","","","","","","","0","0","1","0.4605212521","","0.2","0.4","0.8","0.6","","","","","0.1001442491","0.1115096907","0.04122629063","0.4605212521","","","","","","","","","","76","L","3","","","136","main_expt",""
"","bandit","216","709439","0.0-178.0-0.0","20935712","wem/bandit_party_1","APO1EBH3QPZ7","either","1","472","","","","","","","0","1","0","","0.4729500637","0.2","0.4","0.8","0.6","0.1736681681","0.1307091067","0.05517648788","0.4729500637","","","","","","","","","","","","","","76","L","3","","","137","main_expt",""
"","bandit","217","711366","0.0-179.0-0.0","20935712","wem/bandit_party_1","APO1EBH3QPZ7","either","1","402","","","","","","","1","0","0","0.4705425907","","0.2","0.4","0.8","0.6","","","","","0.1839908368","0.1289533412","0.05929415862","0.4705425907","","","","","","","","","","76","L","3","","","138","main_expt",""
"","bandit","218","713294","0.0-180.0-0.0","20935712","wem/bandit_party_1","APO1EBH3QPZ7","either","1","397","","","","","","","0","0","1","","0.465423541","0.2","0.4","0.8","0.6","0.1500833973","0.1215972271","0.05470710098","0.465423541","","","","","","","","","","","","","","76","L","3","","","139","main_expt",""
"","bandit","219","715209","0.0-181.0-0.0","20935712","wem/bandit_party_1","APO1EBH3QPZ7","either","1","390","","","","","","","0","0","1","0.4486857012","","0.2","0.4","0.8","0.6","","","","","0.1718879457","0.1158179575","0.06062538604","0.4486857012","","","","","","","","","","76","L","3","","","140","main_expt",""
"","bandit","220","717074","0.0-182.0-0.0","20935712","wem/bandit_party_1","APO1EBH3QPZ7","either","1","346","","","","","","","0","0","1","","0.4053061298","0.2","0.4","0.8","0.6","0.2025036279","0.08691297649","0.05819772386","0.4053061298","","","","","","","","","","","","","","76","L","3","","","141","main_expt",""
"","bandit","221","718974","0.0-183.0-0.0","20935712","wem/bandit_party_1","APO1EBH3QPZ7","either","1","381","","","","","","","0","0","1","0.3989731656","","0.2","0.4","0.8","0.6","","","","","0.1872564568","0.1425267255","0.05329701838","0.3989731656","","","","","","","","","","76","L","3","","","142","main_expt",""
"","bandit","222","720589","0.0-184.0-0.0","20935712","wem/bandit_party_1","APO1EBH3QPZ7","either","1","86","","","","","","","0","0","1","","0.3783570596","0.2","0.4","0.8","0.6","0.1676641842","0.1425141192","0.06209903385","0.3783570596","","","","","","","","","","","","","","76","L","3","","","143","main_expt",""
"","bandit","223","722488","0.0-185.0-0.0","20935712","wem/bandit_party_1","APO1EBH3QPZ7","either","1","371","","","","","","","0","0","1","0.3485663762","","0.2","0.4","0.8","0.6","","","","","0.1502987652","0.1362652721","0.06954729647","0.3485663762","","","","","","","","","","76","L","3","","","144","main_expt",""
"","bandit","224","724436","0.0-186.0-0.0","20935712","wem/bandit_party_1","APO1EBH3QPZ7","either","1","426","","","","","","","0","0","1","0.3534190037","","0.2","0.4","0.8","0.6","","","","","0.1050568962","0.1335650053","0.062760129","0.3534190037","","","","","","","","","","76","L","3","","","145","main_expt",""
"","bandit","225","726011","0.0-187.0-0.0","20935712","wem/bandit_party_1","APO1EBH3QPZ7","either","1","54","","","","","","","1","0","0","0.342282706","","0.2","0.4","0.8","0.6","","","","","0.1266784727","0.1392461982","0.05014677947","0.342282706","","","","","","","","","","76","L","3","","","146","main_expt",""
"","bandit","226","727628","0.0-188.0-0.0","20935712","wem/bandit_party_1","APO1EBH3QPZ7","either","1","99","","","","","","","0","0","1","0.3497384939","","0.2","0.4","0.8","0.6","","","","","0.1121887101","0.1060810453","0.04801868921","0.3497384939","","","","","","","","","","76","L","3","","","147","main_expt",""
"","bandit","227","729792","0.0-189.0-0.0","20935712","wem/bandit_party_1","APO1EBH3QPZ7","either","1","634","","","","","","","1","0","0","0.3507348305","","0.2","0.4","0.8","0.6","","","","","0.1050077765","0.1076054289","0.05298179562","0.3507348305","","","","","","","","","","76","L","3","","","148","main_expt",""
"","bandit","228","731607","0.0-190.0-0.0","20935712","wem/bandit_party_1","APO1EBH3QPZ7","either","1","289","","","","","","","0","0","1","0.306786392","","0.2","0.4","0.8","0.6","","","","","0.08725679698","0.09143227578","0.05271587927","0.306786392","","","","","","","","","","76","L","3","","","149","main_expt",""
"","bandit","229","733881","0.0-191.0-0.0","20935712","wem/bandit_party_1","APO1EBH3QPZ7","either","1","752","","","","","","","0","1","0","","0.3289077467","0.2","0.4","0.8","0.6","0.04813781364","0.08361181256","0.06153260368","0.3289077467","","","","","","","","","","","","","","76","L","3","","","150","main_expt",""
"","bandit","230","736306","0.0-192.0-0.0","20935712","wem/bandit_party_1","APO1EBH3QPZ7","either","1","899","","","","","","","0","0","1","0.2844912386","","0.2","0.4","0.8","0.6","","","","","0.04690393958","0.1038450747","0.07716317934","0.2844912386","","","","","","","","","","76","L","3","","","151","main_expt",""
"","bandit","231","739793","0.0-193.0-0.0","20935712","wem/bandit_party_1","APO1EBH3QPZ7","either","1","1968","","","","","","","0","0","1","0.3221551402","","0.2","0.4","0.8","0.6","","","","","0.05051779207","0.1311897928","0.08370894892","0.3221551402","","","","","","","","","","76","L","3","","","152","main_expt",""
"","bandit","232","741755","0.0-194.0-0.0","20935712","wem/bandit_party_1","APO1EBH3QPZ7","either","1","442","","","","","","","0","0","1","0.288581716","","0.2","0.4","0.8","0.6","","","","","0.0417019452","0.1106636196","0.06235129306","0.288581716","","","","","","","","","","76","L","3","","","153","main_expt",""
"","bandit","233","743442","0.0-195.0-0.0","20935712","wem/bandit_party_1","APO1EBH3QPZ7","either","1","166","","","","","","","0","0","1","0.3674714493","","0.2","0.4","0.8","0.6","","","","","0.04565059468","0.08044616817","0.08808261531","0.3674714493","","","","","","","","","","76","L","3","","","154","main_expt",""
"","bandit","234","745787","0.0-196.0-0.0","20935712","wem/bandit_party_1","APO1EBH3QPZ7","either","1","770","","","","","","","0","0","1","0.3836765626","","0.2","0.4","0.8","0.6","","","","","0.0249337719","0.09849608375","0.08415746701","0.3836765626","","","","","","","","","","76","L","3","","","155","main_expt",""
"","bandit","235","747755","0.0-197.0-0.0","20935712","wem/bandit_party_1","APO1EBH3QPZ7","either","1","446","","","","","","","0","0","1","","0.1363215429","0.2","0.4","0.8","0.6","0.0207568711","0.0679626842","0.1363215429","0.3499766022","","","","","","","","","","","","","","75","K","2","","","156","main_expt",""
"","bandit","236","749652","0.0-198.0-0.0","20935712","wem/bandit_party_1","APO1EBH3QPZ7","either","1","372","","","","","","","0","0","1","0.176329139","","0.2","0.4","0.8","0.6","","","","","0.01044871803","0.06316877849","0.176329139","0.3083455354","","","","","","","","","","75","K","2","","","157","main_expt",""
"","bandit","237","751537","0.0-199.0-0.0","20935712","wem/bandit_party_1","APO1EBH3QPZ7","either","1","355","","","","","","","0","0","1","0.2239815039","","0.2","0.4","0.8","0.6","","","","","0.008486032171","0.06381796224","0.2239815039","0.2780985587","","","","","","","","","","75","K","2","","","158","main_expt",""
"","bandit","238","753610","0.0-200.0-0.0","20935712","wem/bandit_party_1","APO1EBH3QPZ7","either","1","547","","","","","","","1","0","0","0.09986374221","","0.2","0.4","0.8","0.6","","","","","0.006770001311","0.09986374221","0.1754735631","0.2721424699","","","","","","","","","","74","J","1","","","159","main_expt",""
"","bandit","239","755573","0.0-201.0-0.0","20935712","wem/bandit_party_1","APO1EBH3QPZ7","either","1","437","","","","","","","0","0","1","0.08334790929","","0.2","0.4","0.8","0.6","","","","","0.005009972043","0.08334790929","0.1820859676","0.3005636977","","","","","","","","","","74","J","1","","","160","main_expt",""
"","bandit","240","757724","0.0-202.0-0.0","20935712","wem/bandit_party_1","APO1EBH3QPZ7","either","1","631","","","","","","","0","0","1","","0.1094566723","0.2","0.4","0.8","0.6","0.003825417776","0.1094566723","0.1771527669","0.2481613967","","","","","","","","","","","","","","74","J","1","","","161","main_expt",""
"","bandit","241","759702","0.0-203.0-0.0","20935712","wem/bandit_party_1","APO1EBH3QPZ7","either","1","447","","","","","","","0","0","1","0.2040880477","","0.2","0.4","0.8","0.6","","","","","0.006458278423","0.1287108975","0.209245514","0.2040880477","","","","","","","","","","76","L","3","","","162","main_expt",""
"","bandit","242","761644","0.0-204.0-0.0","20935712","wem/bandit_party_1","APO1EBH3QPZ7","either","1","415","","","","","","","0","0","1","0.256608811","","0.2","0.4","0.8","0.6","","","","","0.01344146107","0.1811808859","0.1864252411","0.256608811","","","","","","","","","","76","L","3","","","163","main_expt",""
"","bandit","243","763446","0.0-205.0-0.0","20935712","wem/bandit_party_1","APO1EBH3QPZ7","either","1","274","","","","","","","0","0","1","","0.004940614731","0.2","0.4","0.8","0.6","0.004940614731","0.1374611454","0.1662237337","0.2798468236","","","","","","","","","","","","","","72","H","0","img/none_selected.jpg","","164","main_expt",""
"","bandit","244","765419","0.0-206.0-0.0","20935712","wem/bandit_party_1","APO1EBH3QPZ7","either","1","451","","","","","","","0","0","1","0.007349038951","","0.2","0.4","0.8","0.6","","","","","0.007349038951","0.1640313333","0.1375661656","0.2689568899","","","","","","","","","","72","H","0","img/none_selected.jpg","","165","main_expt",""
"","bandit","245","767560","0.0-207.0-0.0","20935712","wem/bandit_party_1","APO1EBH3QPZ7","either","1","618","","","","","","","0","0","1","","0.005679103294","0.2","0.4","0.8","0.6","0.005679103294","0.20052236","0.1416727521","0.2786045926","","","","","","","","","","","","","","72","H","0","img/none_selected.jpg","","166","main_expt",""
"","bandit","246","769529","0.0-208.0-0.0","20935712","wem/bandit_party_1","APO1EBH3QPZ7","either","1","451","","","","","","","0","0","1","","0.004037182679","0.2","0.4","0.8","0.6","0.004037182679","0.1945206589","0.1497541138","0.2507583434","","","","","","","","","","","","","","72","H","0","img/none_selected.jpg","","167","main_expt",""
"","bandit","247","773319","0.0-209.0-0.0","20935712","wem/bandit_party_1","APO1EBH3QPZ7","either","1","2275","","","","","","","0","0","1","","0.007111326723","0.2","0.4","0.8","0.6","0.007111326723","0.1902154162","0.1761460581","0.1827624484","","","","","","","","","","","","","","72","H","0","img/none_selected.jpg","","168","main_expt",""
"","bandit","248","775727","0.0-210.0-0.0","20935712","wem/bandit_party_1","APO1EBH3QPZ7","either","1","881","","","","","","","0","0","1","0.2248215173","","0.2","0.4","0.8","0.6","","","","","0.01708305062","0.1931964682","0.2248215173","0.1558723634","","","","","","","","","","75","K","2","","","169","main_expt",""
"","bandit","249","777341","0.0-211.0-0.0","20935712","wem/bandit_party_1","APO1EBH3QPZ7","either","1","96","","","","","","","0","0","1","","0.1757164868","0.2","0.4","0.8","0.6","0.02105388628","0.236179436","0.2503105048","0.1757164868","","","","","","","","","","","","","","76","L","3","","","170","main_expt",""
"","bandit","250","779302","0.0-212.0-0.0","20935712","wem/bandit_party_1","APO1EBH3QPZ7","either","1","430","","","","","","","0","0","1","","0.1985597056","0.2","0.4","0.8","0.6","0.01477187034","0.2229285478","0.2515708499","0.1985597056","","","","","","","","","","","","","","76","L","3","","","171","main_expt",""
"","bandit","251","781143","0.0-213.0-0.0","20935712","wem/bandit_party_1","APO1EBH3QPZ7","either","1","314","","","","","","","0","0","1","","0.1725269859","0.2","0.4","0.8","0.6","0.00639283578","0.1805811295","0.2601117771","0.1725269859","","","","","","","","","","","","","","76","L","3","","","172","main_expt",""
"","bandit","252","783100","0.0-214.0-0.0","20935712","wem/bandit_party_1","APO1EBH3QPZ7","either","1","436","","","","","","","0","0","1","0.1955807132","","0.2","0.4","0.8","0.6","","","","","0.008503536177","0.2203049146","0.2277859889","0.1955807132","","","","","","","","","","76","L","3","","","173","main_expt",""
"","bandit","253","784814","0.0-215.0-0.0","20935712","wem/bandit_party_1","APO1EBH3QPZ7","either","1","193","","","","","","","0","0","1","0.01512836446","","0.2","0.4","0.8","0.6","","","","","0.01512836446","0.2079245196","0.204090619","0.1712969398","","","","","","","","","","72","H","0","img/none_selected.jpg","","174","main_expt",""
"","bandit","254","786732","0.0-216.0-0.0","20935712","wem/bandit_party_1","APO1EBH3QPZ7","either","1","398","","","","","","","0","0","1","","0.034550241","0.2","0.4","0.8","0.6","0.034550241","0.1904909119","0.2264282848","0.2145566876","","","","","","","","","","","","","","72","H","0","img/none_selected.jpg","","175","main_expt",""
"","bandit","255","788474","0.0-217.0-0.0","20935712","wem/bandit_party_1","APO1EBH3QPZ7","either","1","222","","","","","","","0","0","1","","0.01969997198","0.2","0.4","0.8","0.6","0.01969997198","0.1611975006","0.2263436383","0.1987050603","","","","","","","","","","","","","","72","H","0","img/none_selected.jpg","","176","main_expt",""
"","bandit","256","790694","0.0-218.0-0.0","20935712","wem/bandit_party_1","APO1EBH3QPZ7","either","1","699","","","","","","","0","0","1","","0.1747210449","0.2","0.4","0.8","0.6","0.02558747067","0.1747210449","0.2449632337","0.2161967517","","","","","","","","","","","","","","74","J","1","","","177","main_expt",""
"","bandit","257","792572","0.0-219.0-0.0","20935712","wem/bandit_party_1","APO1EBH3QPZ7","either","1","347","","","","","","","0","0","1","0.1667690144","","0.2","0.4","0.8","0.6","","","","","0.02865462312","0.1667690144","0.1923885174","0.1790488899","","","","","","","","","","74","J","1","","","178","main_expt",""
"","bandit","258","795166","0.0-220.0-0.0","20935712","wem/bandit_party_1","APO1EBH3QPZ7","either","1","1064","","","","","","","0","0","1","0.248539666","","0.2","0.4","0.8","0.6","","","","","0.05873937836","0.248539666","0.1791230597","0.1254539317","","","","","","","","","","74","J","1","","","179","main_expt",""
"","bandit","259","797071","0.0-221.0-0.0","20935712","wem/bandit_party_1","APO1EBH3QPZ7","either","1","380","","","","","","","0","0","1","0.1641305094","","0.2","0.4","0.8","0.6","","","","","0.04996702027","0.2393284063","0.1641305094","0.1761702366","","","","","","","","","","75","K","2","","","180","main_expt",""
"","bandit","260","799053","0.0-222.0-0.0","20935712","wem/bandit_party_1","APO1EBH3QPZ7","either","1","458","","","","","","","0","0","1","0.1567194189","","0.2","0.4","0.8","0.6","","","","","0.06192223509","0.2450765022","0.1567194189","0.2307221343","","","","","","","","","","75","K","2","","","181","main_expt",""
"","bandit","261","801355","0.0-223.0-0.0","20935712","wem/bandit_party_1","APO1EBH3QPZ7","either","1","770","","","","","","","0","0","1","","0.1805899487","0.2","0.4","0.8","0.6","0.07865608963","0.2898963007","0.1805899487","0.1656926355","","","","","","","","","","","","","","75","K","2","","","182","main_expt",""
"","bandit","262","803030","0.0-224.0-0.0","20935712","wem/bandit_party_1","APO1EBH3QPZ7","either","1","145","","","","","","","0","0","1","","0.1997223474","0.2","0.4","0.8","0.6","0.0695036973","0.337419987","0.1381226487","0.1997223474","","","","","","","","","","","","","","76","L","3","","","183","main_expt",""
"","bandit","263","804777","0.0-225.0-0.0","20935712","wem/bandit_party_1","APO1EBH3QPZ7","either","1","153","","","","","","","0","0","1","0.1936006223","","0.2","0.4","0.8","0.6","","","","","0.09883674892","0.3334404967","0.1157029232","0.1936006223","","","","","","","","","","76","L","3","","","184","main_expt",""
"","bandit","264","806788","0.0-226.0-0.0","20935712","wem/bandit_party_1","APO1EBH3QPZ7","either","1","499","","","","","","","0","0","1","","0.1794548994","0.2","0.4","0.8","0.6","0.1344132801","0.3049781316","0.09007466759","0.1794548994","","","","","","","","","","","","","","76","L","3","","","185","main_expt",""
"","bandit","265","809019","0.0-227.0-0.0","20935712","wem/bandit_party_1","APO1EBH3QPZ7","either","1","707","","","","","","","0","0","1","0.1679588243","","0.2","0.4","0.8","0.6","","","","","0.1194183803","0.322039184","0.07784091677","0.1679588243","","","","","","","","","","76","L","3","","","186","main_expt",""
"","bandit","266","810642","0.0-228.0-0.0","20935712","wem/bandit_party_1","APO1EBH3QPZ7","either","1","97","","","","","","","0","0","1","0.1692259204","","0.2","0.4","0.8","0.6","","","","","0.1456002269","0.2898485093","0.1332261693","0.1692259204","","","","","","","","","","76","L","3","","","187","main_expt",""
"","bandit","267","812790","0.0-229.0-0.0","20935712","wem/bandit_party_1","APO1EBH3QPZ7","either","1","620","","","","","","","0","0","1","0.1796926114","","0.2","0.4","0.8","0.6","","","","","0.1008589119","0.3046836684","0.1302169342","0.1796926114","","","","","","","","","","76","L","3","","","188","main_expt",""
"","bandit","268","814499","0.0-230.0-0.0","20935712","wem/bandit_party_1","APO1EBH3QPZ7","either","1","179","","","","","","","0","0","1","0.1459867673","","0.2","0.4","0.8","0.6","","","","","0.09109327247","0.3437642557","0.1459867673","0.1463090895","","","","","","","","","","75","K","2","","","189","main_expt",""
"","bandit","269","816490","0.0-231.0-0.0","20935712","wem/bandit_party_1","APO1EBH3QPZ7","either","1","470","","","","","","","1","0","0","0.1930387326","","0.2","0.4","0.8","0.6","","","","","0.133333279","0.3685715368","0.1930387326","0.1670442817","","","","","","","","","","75","K","2","","","190","main_expt",""
"","bandit","270","818418","0.0-232.0-0.0","20935712","wem/bandit_party_1","APO1EBH3QPZ7","either","1","399","","","","","","","0","1","0","","0.1447045196","0.2","0.4","0.8","0.6","0.1253338948","0.4063368095","0.1447045196","0.2148667481","","","","","","","","","","","","","","75","K","2","","","191","main_expt",""
"","bandit","271","820164","0.0-233.0-0.0","20935712","wem/bandit_party_1","APO1EBH3QPZ7","either","1","227","","","","","","","0","0","1","0.1521301445","","0.2","0.4","0.8","0.6","","","","","0.1371372983","0.4194789623","0.1521301445","0.1891029698","","","","","","","","","","75","K","2","","","192","main_expt",""
"","bandit","272","822109","0.0-234.0-0.0","20935712","wem/bandit_party_1","APO1EBH3QPZ7","either","1","414","","","","","","","0","0","1","0.1216552598","","0.2","0.4","0.8","0.6","","","","","0.1269519223","0.3914453041","0.1216552598","0.1818436489","","","","","","","","","","75","K","2","","","193","main_expt",""
"","bandit","273","823770","0.0-235.0-0.0","20935712","wem/bandit_party_1","APO1EBH3QPZ7","either","1","147","","","","","","","1","0","0","0.07681554104","","0.2","0.4","0.8","0.6","","","","","0.1253972088","0.3988429791","0.07681554104","0.2036833838","","","","","","","","","","75","K","2","","","194","main_expt",""
"","bandit","274","825673","0.0-236.0-0.0","20935712","wem/bandit_party_1","APO1EBH3QPZ7","either","1","378","","","","","","","0","0","1","","0.07468822185","0.2","0.4","0.8","0.6","0.1231557279","0.4212514022","0.07468822185","0.2189502041","","","","","","","","","","","","","","75","K","2","","","195","main_expt",""
"","bandit","275","827529","0.0-237.0-0.0","20935712","wem/bandit_party_1","APO1EBH3QPZ7","either","1","334","","","","","","","0","0","1","","0.07634526252","0.2","0.4","0.8","0.6","0.2304226507","0.4128950903","0.07634526252","0.2011136523","","","","","","","","","","","","","","75","K","2","","","196","main_expt",""
"","bandit","276","829372","0.0-238.0-0.0","20935712","wem/bandit_party_1","APO1EBH3QPZ7","either","1","323","","","","","","","0","0","1","","0.06680697181","0.2","0.4","0.8","0.6","0.3102822931","0.3979973083","0.06680697181","0.2295646827","","","","","","","","","","","","","","75","K","2","","","197","main_expt",""
"","bandit","277","831097","0.0-239.0-0.0","20935712","wem/bandit_party_1","APO1EBH3QPZ7","either","1","193","","","","","","","0","0","1","","0.3153467244","0.2","0.4","0.8","0.6","0.3222054514","0.3153467244","0.05107679344","0.2570874699","","","","","","","","","","","","","","74","J","1","","","198","main_expt",""
"","bandit","278","833770","0.0-240.0-0.0","20935712","wem/bandit_party_1","APO1EBH3QPZ7","either","1","1149","","","","","","","0","1","0","","0.3121882746","0.2","0.4","0.8","0.6","0.3416159467","0.3121882746","0.06140804873","0.2215013189","","","","","","","","","","","","","","74","J","1","","","199","main_expt",""
"","bandit","279","835668","0.0-241.0-0.0","20935712","wem/bandit_party_1","APO1EBH3QPZ7","either","1","372","","","","","","","0","0","1","","0.3789620948","0.2","0.4","0.8","0.6","0.3826655938","0.3789620948","0.05697288244","0.1681318695","","","","","","","","","","","","","","74","J","1","","","200","main_expt",""
"","bandit","280","838235","0.0-242.0-0.0","20935712","wem/bandit_party_1","APO1EBH3QPZ7","either","1","1044","","","","","","","0","0","1","0.3575696279","","0.2","0.4","0.8","0.6","","","","","0.4117435103","0.3575696279","0.04802221103","0.1787039029","","","","","","","","","","74","J","1","","","201","main_expt",""
"","bandit","281","840124","0.0-243.0-0.0","20935712","wem/bandit_party_1","APO1EBH3QPZ7","either","1","354","","","","","","","0","0","1","0.3937046418","","0.2","0.4","0.8","0.6","","","","","0.4023622846","0.3937046418","0.04583536071","0.2180442152","","","","","","","","","","74","J","1","","","202","main_expt",""
"","bandit","282","841889","0.0-244.0-0.0","20935712","wem/bandit_party_1","APO1EBH3QPZ7","either","1","233","","","","","","","1","0","0","0.3901943722","","0.2","0.4","0.8","0.6","","","","","0.4225273878","0.3901943722","0.03655969434","0.262784421","","","","","","","","","","74","J","1","","","203","main_expt",""
"","bandit","283","844167","0.0-245.0-0.0","20935712","wem/bandit_party_1","APO1EBH3QPZ7","either","1","745","","","","","","","0","1","0","","0.4099131859","0.2","0.4","0.8","0.6","0.4151046429","0.4099131859","0.05773518339","0.2843732649","","","","","","","","","","","","","","74","J","1","","","204","main_expt",""
"","bandit","284","846241","0.0-246.0-0.0","20935712","wem/bandit_party_1","APO1EBH3QPZ7","either","1","547","","","","","","","0","0","1","","0.4238238901","0.2","0.4","0.8","0.6","0.4288165897","0.4238238901","0.06616346658","0.2549063301","","","","","","","","","","","","","","74","J","1","","","205","main_expt",""
"","bandit","285","849243","0.0-247.0-0.0","20935712","wem/bandit_party_1","APO1EBH3QPZ7","either","1","1484","","","","","","","0","0","1","0.4139837541","","0.2","0.4","0.8","0.6","","","","","0.436745712","0.4139837541","0.09055598832","0.2982701688","","","","","","","","","","74","J","1","","","206","main_expt",""
"","bandit","286","851156","0.0-248.0-0.0","20935712","wem/bandit_party_1","APO1EBH3QPZ7","either","1","393","","","","","","","0","0","1","","0.3544894801","0.2","0.4","0.8","0.6","0.4484652972","0.3544894801","0.07583085731","0.3423773839","","","","","","","","","","","","","","74","J","1","","","207","main_expt",""
"","bandit","287","853622","0.0-249.0-0.0","20935712","wem/bandit_party_1","APO1EBH3QPZ7","either","1","937","","","","","","","0","0","1","0.3321535101","","0.2","0.4","0.8","0.6","","","","","0.4516947584","0.3703609936","0.09768014643","0.3321535101","","","","","","","","","","76","L","3","","","208","main_expt",""
"","bandit","288","855596","0.0-250.0-0.0","20935712","wem/bandit_party_1","APO1EBH3QPZ7","either","1","445","","","","","","","0","0","1","0.08389795445","","0.2","0.4","0.8","0.6","","","","","0.4590139285","0.3590511704","0.08389795445","0.3467721984","","","","","","","","","","75","K","2","","","209","main_expt",""
"","bandit","289","857681","0.0-251.0-0.0","20935712","wem/bandit_party_1","APO1EBH3QPZ7","either","1","562","","","","","","","0","0","1","","0.3781523972","0.2","0.4","0.8","0.6","0.4378910613","0.3781523972","0.07846525543","0.3513447539","","","","","","","","","","","","","","74","J","1","","","210","main_expt",""
"","bandit","290","860880","0.0-252.0-0.0","20935712","wem/bandit_party_1","APO1EBH3QPZ7","either","1","1668","","","","","","","0","1","0","","0.4139384991","0.2","0.4","0.8","0.6","0.4139384991","0.3895188655","0.05906932722","0.4003692624","","","","","","","","","","","","","","72","H","0","img/none_selected.jpg","","211","main_expt",""
"","bandit","291","863107","0.0-253.0-0.0","20935712","wem/bandit_party_1","APO1EBH3QPZ7","either","1","696","","","","","","","0","1","0","","0.3659234609","0.2","0.4","0.8","0.6","0.3659234609","0.4075098947","0.04754192311","0.3949660502","","","","","","","","","","","","","","72","H","0","img/none_selected.jpg","","212","main_expt",""
"","bandit","292","865108","0.0-254.0-0.0","20935712","wem/bandit_party_1","APO1EBH3QPZ7","either","1","470","","","","","","","0","0","1","","0.3180572988","0.2","0.4","0.8","0.6","0.3180572988","0.4191075236","0.05481920189","0.4233479157","","","","","","","","","","","","","","72","H","0","img/none_selected.jpg","","213","main_expt",""
"","bandit","293","867050","0.0-255.0-0.0","20935712","wem/bandit_party_1","APO1EBH3QPZ7","either","1","419","","","","","","","0","0","1","0.3799529118","","0.2","0.4","0.8","0.6","","","","","0.2611162072","0.3799529118","0.07954578011","0.4182751871","","","","","","","","","","74","J","1","","","214","main_expt",""
"","bandit","294","869422","0.0-256.0-0.0","20935712","wem/bandit_party_1","APO1EBH3QPZ7","either","1","850","","","","","","","0","0","1","","0.2331309726","0.2","0.4","0.8","0.6","0.2331309726","0.3924699069","0.1078137614","0.3745823719","","","","","","","","","","","","","","72","H","0","img/none_selected.jpg","","215","main_expt",""
"","bandit","295","871662","0.0-257.0-0.0","20935712","wem/bandit_party_1","APO1EBH3QPZ7","either","1","712","","","","","","","0","0","1","","0.3556657658","0.2","0.4","0.8","0.6","0.2428402293","0.3556657658","0.1269525553","0.3809837923","","","","","","","","","","","","","","74","J","1","","","216","main_expt",""
"","bandit","296","873666","0.0-258.0-0.0","20935712","wem/bandit_party_1","APO1EBH3QPZ7","either","1","484","","","","","","","0","0","1","","0.3870416945","0.2","0.4","0.8","0.6","0.2317762644","0.3870416945","0.1849794572","0.4144294186","","","","","","","","","","","","","","74","J","1","","","217","main_expt",""
"","bandit","297","875637","0.0-259.0-0.0","20935712","wem/bandit_party_1","APO1EBH3QPZ7","either","1","442","","","","","","","0","0","1","","0.3944581396","0.2","0.4","0.8","0.6","0.204309912","0.3944581396","0.1903787706","0.4090742927","","","","","","","","","","","","","","74","J","1","","","218","main_expt",""
"","bandit","298","877550","0.0-260.0-0.0","20935712","wem/bandit_party_1","APO1EBH3QPZ7","either","1","383","","","","","","","0","1","0","","0.4256173987","0.2","0.4","0.8","0.6","0.1685596251","0.4256173987","0.1768508397","0.3869695378","","","","","","","","","","","","","","74","J","1","","","219","main_expt",""
"","bandit","299","879930","0.0-261.0-0.0","20935712","wem/bandit_party_1","APO1EBH3QPZ7","either","1","854","","","","","","","1","0","0","0.4240862242","","0.2","0.4","0.8","0.6","","","","","0.2488487331","0.4240862242","0.2176561852","0.3814250035","","","","","","","","","","74","J","1","","","220","main_expt",""
"","bandit","300","881836","0.0-262.0-0.0","20935712","wem/bandit_party_1","APO1EBH3QPZ7","either","1","377","","","","","","","0","1","0","","0.4364702466","0.2","0.4","0.8","0.6","0.2789816034","0.4364702466","0.2075488201","0.3560431311","","","","","","","","","","","","","","74","J","1","","","221","main_expt",""
"","bandit","301","883724","0.0-263.0-0.0","20935712","wem/bandit_party_1","APO1EBH3QPZ7","either","1","365","","","","","","","0","0","1","0.4512924842","","0.2","0.4","0.8","0.6","","","","","0.242729834","0.4512924842","0.2260831429","0.3424215647","","","","","","","","","","74","J","1","","","222","main_expt",""
"","bandit","302","885751","0.0-264.0-0.0","20935712","wem/bandit_party_1","APO1EBH3QPZ7","either","1","495","","","","","","","1","0","0","0.4649948574","","0.2","0.4","0.8","0.6","","","","","0.196538567","0.4649948574","0.2512075751","0.3118962833","","","","","","","","","","74","J","1","","","223","main_expt",""
"","bandit","303","887680","0.0-265.0-0.0","20935712","wem/bandit_party_1","APO1EBH3QPZ7","either","1","406","","","","","","","0","0","1","","0.4692106987","0.2","0.4","0.8","0.6","0.2189223785","0.4692106987","0.3072691987","0.261290028","","","","","","","","","","","","","","74","J","1","","","224","main_expt",""
"","bandit","304","889604","0.0-266.0-0.0","20935712","wem/bandit_party_1","APO1EBH3QPZ7","either","1","396","","","","","","","0","0","1","","0.4772226815","0.2","0.4","0.8","0.6","0.2131207899","0.4772226815","0.3358063032","0.2748104332","","","","","","","","","","","","","","74","J","1","","","225","main_expt",""
"","bandit","305","891630","0.0-267.0-0.0","20935712","wem/bandit_party_1","APO1EBH3QPZ7","either","1","494","","","","","","","0","0","1","0.4828013869","","0.2","0.4","0.8","0.6","","","","","0.187439681","0.4828013869","0.2994610032","0.2112523614","","","","","","","","","","74","J","1","","","226","main_expt",""
"","bandit","306","893534","0.0-268.0-0.0","20935712","wem/bandit_party_1","APO1EBH3QPZ7","either","1","382","","","","","","","0","0","1","","0.1522087394","0.2","0.4","0.8","0.6","0.1522087394","0.4805292857","0.2719992041","0.1879164098","","","","","","","","","","","","","","72","H","0","img/none_selected.jpg","","227","main_expt",""
"","bandit","307","895414","0.0-269.0-0.0","20935712","wem/bandit_party_1","APO1EBH3QPZ7","either","1","351","","","","","","","0","0","1","","0.1975586059","0.2","0.4","0.8","0.6","0.1975586059","0.4770879938","0.2601066631","0.1857646906","","","","","","","","","","","","","","72","H","0","img/none_selected.jpg","","228","main_expt",""
"","bandit","308","897130","0.0-270.0-0.0","20935712","wem/bandit_party_1","APO1EBH3QPZ7","either","1","193","","","","","","","0","0","1","","0.2280604414","0.2","0.4","0.8","0.6","0.2280604414","0.4830225504","0.2333982712","0.1608888173","","","","","","","","","","","","","","72","H","0","img/none_selected.jpg","","229","main_expt",""
"","bandit","309","900277","0.0-271.0-0.0","20935712","wem/bandit_party_1","APO1EBH3QPZ7","either","1","1630","","","","","","","0","0","1","0.4827210916","","0.2","0.4","0.8","0.6","","","","","0.2120359748","0.4827210916","0.2179366985","0.1139945837","","","","","","","","","","74","J","1","","","230","main_expt",""
"","bandit","310","902074","0.0-272.0-0.0","20935712","wem/bandit_party_1","APO1EBH3QPZ7","either","1","279","","","","","","","0","0","1","","0.4764813513","0.2","0.4","0.8","0.6","0.2260377558","0.4764813513","0.210335649","0.1071229599","","","","","","","","","","","","","","74","J","1","","","231","main_expt",""
"","bandit","311","903961","0.0-273.0-0.0","20935712","wem/bandit_party_1","APO1EBH3QPZ7","either","1","364","","","","","","","0","0","1","0.4794978353","","0.2","0.4","0.8","0.6","","","","","0.2810037348","0.4794978353","0.2154905401","0.1250262501","","","","","","","","","","74","J","1","","","232","main_expt",""
"","bandit","312","905865","0.0-274.0-0.0","20935712","wem/bandit_party_1","APO1EBH3QPZ7","either","1","371","","","","","","","0","1","0","","0.4717583679","0.2","0.4","0.8","0.6","0.3371590923","0.4717583679","0.2199054097","0.1262657767","","","","","","","","","","","","","","74","J","1","","","233","main_expt",""
"","bandit","313","907848","0.0-275.0-0.0","20935712","wem/bandit_party_1","APO1EBH3QPZ7","either","1","452","","","","","","","1","0","0","0.4801470087","","0.2","0.4","0.8","0.6","","","","","0.2614597929","0.4801470087","0.2116885818","0.1436583916","","","","","","","","","","74","J","1","","","234","main_expt",""
"","bandit","314","909877","0.0-276.0-0.0","20935712","wem/bandit_party_1","APO1EBH3QPZ7","either","1","495","","","","","","","0","0","1","","0.4698449305","0.2","0.4","0.8","0.6","0.2855471023","0.4698449305","0.2037112673","0.1776605917","","","","","","","","","","","","","","74","J","1","","","235","main_expt",""
"","bandit","315","911501","0.0-277.0-0.0","20935712","wem/bandit_party_1","APO1EBH3QPZ7","either","1","94","","","","","","","0","0","1","0.4750890902","","0.2","0.4","0.8","0.6","","","","","0.2806831757","0.4750890902","0.2295670059","0.2039581082","","","","","","","","","","74","J","1","","","236","main_expt",""
"","bandit","316","913143","0.0-278.0-0.0","20935712","wem/bandit_party_1","APO1EBH3QPZ7","either","1","117","","","","","","","1","0","0","0.490873849","","0.2","0.4","0.8","0.6","","","","","0.3314479917","0.490873849","0.2602584061","0.1898025468","","","","","","","","","","74","J","1","","","237","main_expt",""
