"consent","trial_type","trial_index","time_elapsed","internal_node_id","subjID","study","MID","cond","drift","rt","responses","button_pressed","key_press","like","value","connected","gems","bombs","no_reward","GemPrChosen","BombPrChosen","GainOverPainPr_0","GainOverPainPr_1","GainOverPainPr_2","GainOverPainPr_3","LosePr_0","LosePr_1","LosePr_2","LosePr_3","WinPr_0","WinPr_1","WinPr_2","WinPr_3","Q0","Q1","Q2","gender","age","ethnicity","label","expt_phase","target","respCharCode","respKey","respChoiceNum","respChoice","practice","trial_counter","trial_label","Q0_index"
"GDM/GDM_behavioral_consent_30min_online.html","consent","0","9583","0.0-0.0","25464157","wem/bandit_party_1","A20X14OMRL0YPZ","either","3","","","","","","","","","","","","","","","","","","","","","","","","","","","","","","","","","","","","","","","","",""
"","survey-text","1","14688","0.0-1.0","25464157","wem/bandit_party_1","A20X14OMRL0YPZ","either","3","4097","{""Q0"":""A20X14OMRL0YPZ""}","","","","","","","","","","","","","","","","","","","","","","","","","","","","","","","","","","","","","","",""
"","button-response","2","18372","0.0-2.0","25464157","wem/bandit_party_1","A20X14OMRL0YPZ","either","3","2680","","2","","","","","","","","","","","","","","","","","","","","","","","","","","","","","","","","","","","","","",""
"","text-replacement","3","29319","0.0-3.0","25464157","wem/bandit_party_1","A20X14OMRL0YPZ","either","3","9944","","","32","","","","","","","","","","","","","","","","","","","","","","","","","","","","","","","","","","","","",""
"","text-replacement","4","38958","0.0-4.0","25464157","wem/bandit_party_1","A20X14OMRL0YPZ","either","3","9637","","","32","","","","","","","","","","","","","","","","","","","","","","","","","","","","","","","","","","","","",""
"","text-replacement","5","49592","0.0-5.0-0.0","25464157","wem/bandit_party_1","A20X14OMRL0YPZ","either","3","10633","","","32","","","","","","","","","","","","","","","","","","","","","","","","","","","","","","","","","","","","",""
"","identification","6","56843","0.0-6.0-0.0","25464157","wem/bandit_party_1","A20X14OMRL0YPZ","either","3","7242","","","","3","3","3","","","","","","","","","","","","","","","","","","","","","","","","pre","identification_pre","the Democratic Party","","","","","","","",""
"","identification","7","64618","0.0-6.0-1.0","25464157","wem/bandit_party_1","A20X14OMRL0YPZ","either","3","6766","","","","0","0","0","","","","","","","","","","","","","","","","","","","","","","","","pre","identification_pre","the Republican party","","","","","","","",""
"","text-replacement","8","69615","0.0-7.0","25464157","wem/bandit_party_1","A20X14OMRL0YPZ","either","3","3995","","","32","","","","","","","","","","","","","","","","","","","","","","","","","","","","","","","","","","","","",""
"","text-replacement","9","75960","0.0-8.0","25464157","wem/bandit_party_1","A20X14OMRL0YPZ","either","3","6344","","","32","","","","","","","","","","","","","","","","","","","","","","","","","","","","","","","","","","","","",""
"","text-replacement","10","83331","0.0-9.0","25464157","wem/bandit_party_1","A20X14OMRL0YPZ","either","3","7368","","","32","","","","","","","","","","","","","","","","","","","","","","","","","","","","","","","","","","","","",""
"","text-replacement","11","86299","0.0-10.0","25464157","wem/bandit_party_1","A20X14OMRL0YPZ","either","3","2967","","","32","","","","","","","","","","","","","","","","","","","","","","","","","","","","","","","","","","","","",""
"","text-replacement","12","91822","0.0-11.0","25464157","wem/bandit_party_1","A20X14OMRL0YPZ","either","3","5521","","","32","","","","","","","","","","","","","","","","","","","","","","","","","","","","","","","","","","","","",""
"","bandit","13","96295","0.0-12.0-0.0","25464157","wem/bandit_party_1","A20X14OMRL0YPZ","either","3","2964","","","","","","","0","0","1","0","0","","","","","0","","","","0","","","","","","","","","","","","","74","J","0","img/none_selected_demo.jpg","true","0","",""
"","bandit","14","98306","0.0-13.0-0.0","25464157","wem/bandit_party_1","A20X14OMRL0YPZ","either","3","507","","","","","","","0","0","1","0","0","","","","","0","","","","0","","","","","","","","","","","","","75","K","0","img/none_selected_demo.jpg","true","0","",""
"","text-replacement","15","109645","0.0-14.0","25464157","wem/bandit_party_1","A20X14OMRL0YPZ","either","3","11337","","","32","","","","","","","","","","","","","","","","","","","","","","","","","","","","","","","","","","","","",""
"","text-replacement","16","116703","0.0-15.0","25464157","wem/bandit_party_1","A20X14OMRL0YPZ","either","3","7058","","","32","","","","","","","","","","","","","","","","","","","","","","","","","","","","","","","","","","","","",""
"","text-replacement","17","125051","0.0-16.0","25464157","wem/bandit_party_1","A20X14OMRL0YPZ","either","3","8346","","","32","","","","","","","","","","","","","","","","","","","","","","","","","","","","","","","","","","","","",""
"","text-replacement","18","127895","0.0-17.0","25464157","wem/bandit_party_1","A20X14OMRL0YPZ","either","3","2842","","","32","","","","","","","","","","","","","","","","","","","","","","","","","","","","","","","","","","","","",""
"","bandit","19","130069","0.0-18.0-0.0","25464157","wem/bandit_party_1","A20X14OMRL0YPZ","either","3","669","","","","","","","0","1","0","","0.8","0.5","0.5","","","0.8","0.2","","","","","","","","","","","","","","","","74","J","0","img/none_selected_demo.jpg","true","0","80_20_practice",""
"","bandit","20","131928","0.0-18.0-1.0","25464157","wem/bandit_party_1","A20X14OMRL0YPZ","either","3","354","","","","","","","1","0","0","0.8","","0.5","0.5","","","","","","","0.8","0.2","","","","","","","","","","","","74","J","0","img/none_selected_demo.jpg","true","0","80_20_practice",""
"","bandit","21","133465","0.0-18.0-2.0","25464157","wem/bandit_party_1","A20X14OMRL0YPZ","either","3","33","","","","","","","0","1","0","","0.8","0.5","0.5","","","0.8","0.2","","","","","","","","","","","","","","","","74","J","0","img/none_selected_demo.jpg","true","0","80_20_practice",""
"","bandit","22","135230","0.0-18.0-3.0","25464157","wem/bandit_party_1","A20X14OMRL0YPZ","either","3","260","","","","","","","0","1","0","","0.8","0.5","0.5","","","0.8","0.2","","","","","","","","","","","","","","","","74","J","0","img/none_selected_demo.jpg","true","0","80_20_practice",""
"","bandit","23","136999","0.0-18.0-4.0","25464157","wem/bandit_party_1","A20X14OMRL0YPZ","either","3","265","","","","","","","0","1","0","","0.8","0.5","0.5","","","0.8","0.2","","","","","","","","","","","","","","","","74","J","0","img/none_selected_demo.jpg","true","0","80_20_practice",""
"","bandit","24","138863","0.0-18.0-5.0","25464157","wem/bandit_party_1","A20X14OMRL0YPZ","either","3","360","","","","","","","0","1","0","","0.8","0.5","0.5","","","0.8","0.2","","","","","","","","","","","","","","","","74","J","0","img/none_selected_demo.jpg","true","0","80_20_practice",""
"","bandit","25","140976","0.0-18.0-6.0","25464157","wem/bandit_party_1","A20X14OMRL0YPZ","either","3","606","","","","","","","0","0","1","0.8","","0.5","0.5","","","","","","","0.8","0.2","","","","","","","","","","","","74","J","0","img/none_selected_demo.jpg","true","0","80_20_practice",""
"","bandit","26","142841","0.0-18.0-7.0","25464157","wem/bandit_party_1","A20X14OMRL0YPZ","either","3","360","","","","","","","0","1","0","","0.8","0.5","0.5","","","0.8","0.2","","","","","","","","","","","","","","","","74","J","0","img/none_selected_demo.jpg","true","0","80_20_practice",""
"","bandit","27","144803","0.0-18.0-8.0","25464157","wem/bandit_party_1","A20X14OMRL0YPZ","either","3","457","","","","","","","1","0","0","0.8","","0.5","0.5","","","","","","","0.8","0.2","","","","","","","","","","","","74","J","0","img/none_selected_demo.jpg","true","0","80_20_practice",""
"","bandit","28","146717","0.0-18.0-9.0","25464157","wem/bandit_party_1","A20X14OMRL0YPZ","either","3","409","","","","","","","0","0","1","0.2","","0.5","0.5","","","","","","","0.8","0.2","","","","","","","","","","","","75","K","1","","true","0","80_20_practice",""
"","bandit","29","148482","0.0-18.0-10.0","25464157","wem/bandit_party_1","A20X14OMRL0YPZ","either","3","262","","","","","","","0","0","1","","0.2","0.5","0.5","","","0.8","0.2","","","","","","","","","","","","","","","","75","K","1","","true","0","80_20_practice",""
"","bandit","30","150605","0.0-18.0-11.0","25464157","wem/bandit_party_1","A20X14OMRL0YPZ","either","3","618","","","","","","","1","0","0","0.2","","0.5","0.5","","","","","","","0.8","0.2","","","","","","","","","","","","75","K","1","","true","0","80_20_practice",""
"","bandit","31","152247","0.0-18.0-12.0","25464157","wem/bandit_party_1","A20X14OMRL0YPZ","either","3","136","","","","","","","0","0","1","","0.2","0.5","0.5","","","0.8","0.2","","","","","","","","","","","","","","","","75","K","1","","true","0","80_20_practice",""
"","bandit","32","154921","0.0-18.0-13.0","25464157","wem/bandit_party_1","A20X14OMRL0YPZ","either","3","1169","","","","","","","0","1","0","","0.8","0.5","0.5","","","0.8","0.2","","","","","","","","","","","","","","","","74","J","0","img/none_selected_demo.jpg","true","0","80_20_practice",""
"","bandit","33","156969","0.0-18.0-14.0","25464157","wem/bandit_party_1","A20X14OMRL0YPZ","either","3","544","","","","","","","1","0","0","0.8","","0.5","0.5","","","","","","","0.8","0.2","","","","","","","","","","","","74","J","0","img/none_selected_demo.jpg","true","0","80_20_practice",""
"","bandit","34","158726","0.0-18.0-15.0","25464157","wem/bandit_party_1","A20X14OMRL0YPZ","either","3","251","","","","","","","1","0","0","0.8","","0.5","0.5","","","","","","","0.8","0.2","","","","","","","","","","","","74","J","0","img/none_selected_demo.jpg","true","0","80_20_practice",""
"","bandit","35","160503","0.0-18.0-16.0","25464157","wem/bandit_party_1","A20X14OMRL0YPZ","either","3","273","","","","","","","0","0","1","","0.2","0.5","0.5","","","0.8","0.2","","","","","","","","","","","","","","","","75","K","1","","true","0","80_20_practice",""
"","bandit","36","162129","0.0-18.0-17.0","25464157","wem/bandit_party_1","A20X14OMRL0YPZ","either","3","122","","","","","","","0","0","1","","0.2","0.5","0.5","","","0.8","0.2","","","","","","","","","","","","","","","","75","K","1","","true","0","80_20_practice",""
"","bandit","37","163726","0.0-18.0-18.0","25464157","wem/bandit_party_1","A20X14OMRL0YPZ","either","3","91","","","","","","","1","0","0","0.8","","0.5","0.5","","","","","","","0.8","0.2","","","","","","","","","","","","74","J","0","img/none_selected_demo.jpg","true","0","80_20_practice",""
"","bandit","38","165505","0.0-18.0-19.0","25464157","wem/bandit_party_1","A20X14OMRL0YPZ","either","3","274","","","","","","","0","0","1","0.8","","0.5","0.5","","","","","","","0.8","0.2","","","","","","","","","","","","74","J","0","img/none_selected_demo.jpg","true","0","80_20_practice",""
"","text-replacement","39","168711","0.0-19.0","25464157","wem/bandit_party_1","A20X14OMRL0YPZ","either","3","3203","","","32","","","","","","","","","","","","","","","","","","","","","","","","","","","","","","","","","","","","",""
"","bandit","40","171437","0.0-20.0-0.0","25464157","wem/bandit_party_1","A20X14OMRL0YPZ","either","3","1218","","","","","","","1","0","0","1","0","","","","","0","1","","","1","0","","","","","","","","","","","","74","J","0","img/none_selected_demo.jpg","true","0","",""
"","text-replacement","41","227562","0.0-21.0","25464157","wem/bandit_party_1","A20X14OMRL0YPZ","either","3","56124","","","32","","","","","","","","","","","","","","","","","","","","","","","","","","","","","","","","","","","","",""
"","text-replacement","42","229822","0.0-22.0","25464157","wem/bandit_party_1","A20X14OMRL0YPZ","either","3","2258","","","32","","","","","","","","","","","","","","","","","","","","","","","","","","","","","","","","","","","","",""
"","text-replacement","43","231332","0.0-23.0","25464157","wem/bandit_party_1","A20X14OMRL0YPZ","either","3","1507","","","32","","","","","","","","","","","","","","","","","","","","","","","","","","","","","","","","","","","","",""
"","text-replacement","44","234380","0.0-24.0","25464157","wem/bandit_party_1","A20X14OMRL0YPZ","either","3","3046","","","32","","","","","","","","","","","","","","","","","","","","","","","","","","","","","","","","","","","","",""
"","text-replacement","45","244946","0.0-25.0","25464157","wem/bandit_party_1","A20X14OMRL0YPZ","either","3","10565","","","32","","","","","","","","","","","","","","","","","","","","","","","","","","","","","","","","","","","","",""
"","text-replacement","46","248106","0.0-26.0","25464157","wem/bandit_party_1","A20X14OMRL0YPZ","either","3","3157","","","32","","","","","","","","","","","","","","","","","","","","","","","","","","","","","","","","","","","","",""
"","text-replacement","47","254917","0.0-27.0","25464157","wem/bandit_party_1","A20X14OMRL0YPZ","either","3","6808","","","32","","","","","","","","","","","","","","","","","","","","","","","","","","","","","","","","","","","","",""
"","text-replacement","48","258019","0.0-28.0","25464157","wem/bandit_party_1","A20X14OMRL0YPZ","either","3","3101","","","32","","","","","","","","","","","","","","","","","","","","","","","","","","","","","","","","","","","","",""
"","text-replacement","49","262830","0.0-29.0","25464157","wem/bandit_party_1","A20X14OMRL0YPZ","either","3","4810","","","32","","","","","","","","","","","","","","","","","","","","","","","","","","","","","","","","","","","","",""
"","text-replacement","50","264656","0.0-30.0","25464157","wem/bandit_party_1","A20X14OMRL0YPZ","either","3","1824","","","32","","","","","","","","","","","","","","","","","","","","","","","","","","","","","","","","","","","","",""
"","text-replacement","51","268946","0.0-31.0","25464157","wem/bandit_party_1","A20X14OMRL0YPZ","either","3","4287","","","32","","","","","","","","","","","","","","","","","","","","","","","","","","","","","","","","","","","","",""
"","bandit","52","270951","0.0-32.0-0.0","25464157","wem/bandit_party_1","A20X14OMRL0YPZ","either","3","499","","","","","","","0","0","1","","0.8","0.5","0.5","0.5","0.5","0.8","0.2","0.6","0.2","","","","","","","","","","","","","","72","H","0","img/none_selected.jpg","true","0","full_practice",""
"","bandit","53","273003","0.0-32.0-1.0","25464157","wem/bandit_party_1","A20X14OMRL0YPZ","either","3","547","","","","","","","1","0","0","0.8","","0.5","0.5","0.5","0.5","","","","","0.8","0.2","0.6","0.2","","","","","","","","","","72","H","0","img/none_selected.jpg","true","0","full_practice",""
"","bandit","54","274688","0.0-32.0-2.0","25464157","wem/bandit_party_1","A20X14OMRL0YPZ","either","3","181","","","","","","","1","0","0","0.8","","0.5","0.5","0.5","0.5","","","","","0.8","0.2","0.6","0.2","","","","","","","","","","72","H","0","img/none_selected.jpg","true","0","full_practice",""
"","bandit","55","276432","0.0-32.0-3.0","25464157","wem/bandit_party_1","A20X14OMRL0YPZ","either","3","237","","","","","","","0","1","0","","0.8","0.5","0.5","0.5","0.5","0.8","0.2","0.6","0.2","","","","","","","","","","","","","","72","H","0","img/none_selected.jpg","true","0","full_practice",""
"","bandit","56","278332","0.0-32.0-4.0","25464157","wem/bandit_party_1","A20X14OMRL0YPZ","either","3","395","","","","","","","0","1","0","","0.8","0.5","0.5","0.5","0.5","0.8","0.2","0.6","0.2","","","","","","","","","","","","","","72","H","0","img/none_selected.jpg","true","0","full_practice",""
"","bandit","57","281097","0.0-32.0-5.0","25464157","wem/bandit_party_1","A20X14OMRL0YPZ","either","3","1259","","","","","","","0","1","0","","0.8","0.5","0.5","0.5","0.5","0.8","0.2","0.6","0.2","","","","","","","","","","","","","","72","H","0","img/none_selected.jpg","true","0","full_practice",""
"","bandit","58","282996","0.0-32.0-6.0","25464157","wem/bandit_party_1","A20X14OMRL0YPZ","either","3","396","","","","","","","0","1","0","","0.8","0.5","0.5","0.5","0.5","0.8","0.2","0.6","0.2","","","","","","","","","","","","","","72","H","0","img/none_selected.jpg","true","0","full_practice",""
"","bandit","59","284616","0.0-32.0-7.0","25464157","wem/bandit_party_1","A20X14OMRL0YPZ","either","3","114","","","","","","","0","1","0","","0.8","0.5","0.5","0.5","0.5","0.8","0.2","0.6","0.2","","","","","","","","","","","","","","72","H","0","img/none_selected.jpg","true","0","full_practice",""
"","bandit","60","286301","0.0-32.0-8.0","25464157","wem/bandit_party_1","A20X14OMRL0YPZ","either","3","181","","","","","","","0","1","0","","0.8","0.5","0.5","0.5","0.5","0.8","0.2","0.6","0.2","","","","","","","","","","","","","","72","H","0","img/none_selected.jpg","true","0","full_practice",""
"","bandit","61","288613","0.0-32.0-9.0","25464157","wem/bandit_party_1","A20X14OMRL0YPZ","either","3","807","","","","","","","1","0","0","0.8","","0.5","0.5","0.5","0.5","","","","","0.8","0.2","0.6","0.2","","","","","","","","","","72","H","0","img/none_selected.jpg","true","0","full_practice",""
"","bandit","62","290250","0.0-32.0-10.0","25464157","wem/bandit_party_1","A20X14OMRL0YPZ","either","3","131","","","","","","","0","1","0","","0.8","0.5","0.5","0.5","0.5","0.8","0.2","0.6","0.2","","","","","","","","","","","","","","72","H","0","img/none_selected.jpg","true","0","full_practice",""
"","bandit","63","291805","0.0-32.0-11.0","25464157","wem/bandit_party_1","A20X14OMRL0YPZ","either","3","51","","","","","","","1","0","0","0.8","","0.5","0.5","0.5","0.5","","","","","0.8","0.2","0.6","0.2","","","","","","","","","","72","H","0","img/none_selected.jpg","true","0","full_practice",""
"","bandit","64","293525","0.0-32.0-12.0","25464157","wem/bandit_party_1","A20X14OMRL0YPZ","either","3","212","","","","","","","1","0","0","0.8","","0.5","0.5","0.5","0.5","","","","","0.8","0.2","0.6","0.2","","","","","","","","","","72","H","0","img/none_selected.jpg","true","0","full_practice",""
"","bandit","65","295286","0.0-32.0-13.0","25464157","wem/bandit_party_1","A20X14OMRL0YPZ","either","3","255","","","","","","","1","0","0","0.8","","0.5","0.5","0.5","0.5","","","","","0.8","0.2","0.6","0.2","","","","","","","","","","72","H","0","img/none_selected.jpg","true","0","full_practice",""
"","bandit","66","296970","0.0-32.0-14.0","25464157","wem/bandit_party_1","A20X14OMRL0YPZ","either","3","180","","","","","","","1","0","0","0.8","","0.5","0.5","0.5","0.5","","","","","0.8","0.2","0.6","0.2","","","","","","","","","","72","H","0","img/none_selected.jpg","true","0","full_practice",""
"","bandit","67","298770","0.0-32.0-15.0","25464157","wem/bandit_party_1","A20X14OMRL0YPZ","either","3","296","","","","","","","0","0","1","0.8","","0.5","0.5","0.5","0.5","","","","","0.8","0.2","0.6","0.2","","","","","","","","","","72","H","0","img/none_selected.jpg","true","0","full_practice",""
"","bandit","68","300615","0.0-32.0-16.0","25464157","wem/bandit_party_1","A20X14OMRL0YPZ","either","3","338","","","","","","","0","0","1","0.8","","0.5","0.5","0.5","0.5","","","","","0.8","0.2","0.6","0.2","","","","","","","","","","72","H","0","img/none_selected.jpg","true","0","full_practice",""
"","bandit","69","302480","0.0-32.0-17.0","25464157","wem/bandit_party_1","A20X14OMRL0YPZ","either","3","361","","","","","","","0","0","1","","0.8","0.5","0.5","0.5","0.5","0.8","0.2","0.6","0.2","","","","","","","","","","","","","","72","H","0","img/none_selected.jpg","true","0","full_practice",""
"","bandit","70","304372","0.0-32.0-18.0","25464157","wem/bandit_party_1","A20X14OMRL0YPZ","either","3","387","","","","","","","0","0","1","","0.2","0.5","0.5","0.5","0.5","0.8","0.2","0.6","0.2","","","","","","","","","","","","","","74","J","1","","true","0","full_practice",""
"","bandit","71","306259","0.0-32.0-19.0","25464157","wem/bandit_party_1","A20X14OMRL0YPZ","either","3","377","","","","","","","0","0","1","","0.2","0.5","0.5","0.5","0.5","0.8","0.2","0.6","0.2","","","","","","","","","","","","","","74","J","1","","true","0","full_practice",""
"","text","72","309680","0.0-33.0","25464157","wem/bandit_party_1","A20X14OMRL0YPZ","either","3","3414","","","32","","","","","","","","","","","","","","","","","","","","","","","","","","","","","","","","","","","","",""
"","text-replacement","73","321697","0.0-34.0","25464157","wem/bandit_party_1","A20X14OMRL0YPZ","either","3","11013","","","32","","","","","","","","","","","","","","","","","","","","","","","","","","","","","","","","","","","","",""
"","text-replacement","74","402880","0.0-35.0","25464157","wem/bandit_party_1","A20X14OMRL0YPZ","either","3","81181","","","32","","","","","","","","","","","","","","","","","","","","","","","","","","","","","","","","","","","","",""
"","text-replacement","75","406076","0.0-36.0","25464157","wem/bandit_party_1","A20X14OMRL0YPZ","either","3","3193","","","32","","","","","","","","","","","","","","","","","","","","","","","","","","","","","","","","","","","","",""
"","text-replacement","76","413180","0.0-37.0","25464157","wem/bandit_party_1","A20X14OMRL0YPZ","either","3","7102","","","32","","","","","","","","","","","","","","","","","","","","","","","","","","","","","","","","","","","","",""
"","text-replacement","77","414934","0.0-38.0","25464157","wem/bandit_party_1","A20X14OMRL0YPZ","either","3","1751","","","32","","","","","","","","","","","","","","","","","","","","","","","","","","","","","","","","","","","","",""
"","survey-multi-choice-replacement","78","419219","0.0-39.0-0.0","25464157","wem/bandit_party_1","A20X14OMRL0YPZ","either","3","4279","","","","","","","","","","","","","","","","","","","","","","","","Money will be added to the pool for <span style='color:blue;'>DEMOCRATS</span>","","","","","","","attn_check","","","","","","","","","0"
"","survey-multi-choice-replacement","79","422840","0.0-40.0-0.0","25464157","wem/bandit_party_1","A20X14OMRL0YPZ","either","3","2612","","","","","","","","","","","","","","","","","","","","","","","","Equal amounts of money will be added to the pool for <span style='color:blue;'>DEMOCRATS</span> and subtracted from the pool for <span style='color:red;'>REPUBLICANS</span>","","","","","","","attn_check","","","","","","","","","2"
"","survey-multi-choice-replacement","80","427314","0.0-41.0-0.0","25464157","wem/bandit_party_1","A20X14OMRL0YPZ","either","3","3466","","","","","","","","","","","","","","","","","","","","","","","","No money will be added to either pool","","","","","","","attn_check","","","","","","","","","3"
"","bandit","81","431016","0.0-42.0-0.0","25464157","wem/bandit_party_1","A20X14OMRL0YPZ","either","3","1196","","","","","","","0","0","1","","0.1646489015","0.2","0.4","0.8","0.6","0.1646489015","0.1426046982","0.4870892339","0.07685641067","","","","","","","","","","","","","","72","H","0","img/none_selected.jpg","","1","main_expt",""
"","bandit","82","432824","0.0-43.0-0.0","25464157","wem/bandit_party_1","A20X14OMRL0YPZ","either","3","300","","","","","","","0","0","1","0.2180431119","","0.2","0.4","0.8","0.6","","","","","0.2180431119","0.1597004976","0.4875162112","0.08388143876","","","","","","","","","","72","H","0","img/none_selected.jpg","","2","main_expt",""
"","bandit","83","434558","0.0-44.0-0.0","25464157","wem/bandit_party_1","A20X14OMRL0YPZ","either","3","227","","","","","","","0","0","1","","0.1381850853","0.2","0.4","0.8","0.6","0.2294217256","0.1381850853","0.4909945117","0.06528774038","","","","","","","","","","","","","","74","J","1","","","3","main_expt",""
"","bandit","84","436504","0.0-45.0-0.0","25464157","wem/bandit_party_1","A20X14OMRL0YPZ","either","3","442","","","","","","","0","1","0","","0.1787932262","0.2","0.4","0.8","0.6","0.2162119515","0.1787932262","0.482579304","0.07987899881","","","","","","","","","","","","","","74","J","1","","","4","main_expt",""
"","bandit","85","438291","0.0-46.0-0.0","25464157","wem/bandit_party_1","A20X14OMRL0YPZ","either","3","278","","","","","","","0","0","1","","0.1795032464","0.2","0.4","0.8","0.6","0.2246316054","0.1795032464","0.4887913002","0.0432391811","","","","","","","","","","","","","","74","J","1","","","5","main_expt",""
"","bandit","86","439850","0.0-47.0-0.0","25464157","wem/bandit_party_1","A20X14OMRL0YPZ","either","3","54","","","","","","","0","0","1","","0.164375756","0.2","0.4","0.8","0.6","0.2061018479","0.164375756","0.4887860333","0.03467601655","","","","","","","","","","","","","","74","J","1","","","6","main_expt",""
"","bandit","87","441714","0.0-48.0-0.0","25464157","wem/bandit_party_1","A20X14OMRL0YPZ","either","3","357","","","","","","","1","0","0","0.4901971563","","0.2","0.4","0.8","0.6","","","","","0.1795347326","0.204957223","0.4901971563","0.05033951668","","","","","","","","","","75","K","2","","","7","main_expt",""
"","bandit","88","443529","0.0-49.0-0.0","25464157","wem/bandit_party_1","A20X14OMRL0YPZ","either","3","308","","","","","","","1","0","0","0.4862230721","","0.2","0.4","0.8","0.6","","","","","0.1290452752","0.2162036531","0.4862230721","0.07676355645","","","","","","","","","","75","K","2","","","8","main_expt",""
"","bandit","89","445543","0.0-50.0-0.0","25464157","wem/bandit_party_1","A20X14OMRL0YPZ","either","3","507","","","","","","","0","1","0","","0.4759730645","0.2","0.4","0.8","0.6","0.1559184374","0.2167418122","0.4759730645","0.08620859221","","","","","","","","","","","","","","75","K","2","","","9","main_expt",""
"","bandit","90","447343","0.0-51.0-0.0","25464157","wem/bandit_party_1","A20X14OMRL0YPZ","either","3","293","","","","","","","0","0","1","0.4560980466","","0.2","0.4","0.8","0.6","","","","","0.1381514788","0.1607923637","0.4560980466","0.1103839657","","","","","","","","","","75","K","2","","","10","main_expt",""
"","bandit","91","448949","0.0-52.0-0.0","25464157","wem/bandit_party_1","A20X14OMRL0YPZ","either","3","99","","","","","","","0","0","1","0.4775116046","","0.2","0.4","0.8","0.6","","","","","0.1271140015","0.1386410957","0.4775116046","0.1334948588","","","","","","","","","","75","K","2","","","11","main_expt",""
"","bandit","92","450969","0.0-53.0-0.0","25464157","wem/bandit_party_1","A20X14OMRL0YPZ","either","3","516","","","","","","","1","0","0","0.4705073552","","0.2","0.4","0.8","0.6","","","","","0.1854664659","0.1718380738","0.4705073552","0.1535602519","","","","","","","","","","75","K","2","","","12","main_expt",""
"","bandit","93","452844","0.0-54.0-0.0","25464157","wem/bandit_party_1","A20X14OMRL0YPZ","either","3","369","","","","","","","1","0","0","0.4851887342","","0.2","0.4","0.8","0.6","","","","","0.1869952656","0.1686303413","0.4851887342","0.127854239","","","","","","","","","","75","K","2","","","13","main_expt",""
"","bandit","94","454657","0.0-55.0-0.0","25464157","wem/bandit_party_1","A20X14OMRL0YPZ","either","3","306","","","","","","","0","0","1","0.4731273917","","0.2","0.4","0.8","0.6","","","","","0.2035171393","0.1460019496","0.4731273917","0.1507911491","","","","","","","","","","75","K","2","","","14","main_expt",""
"","bandit","95","456514","0.0-56.0-0.0","25464157","wem/bandit_party_1","A20X14OMRL0YPZ","either","3","351","","","","","","","0","0","1","0.1741212098","","0.2","0.4","0.8","0.6","","","","","0.2800299461","0.1667614464","0.4585867004","0.1741212098","","","","","","","","","","76","L","3","","","15","main_expt",""
"","bandit","96","458393","0.0-57.0-0.0","25464157","wem/bandit_party_1","A20X14OMRL0YPZ","either","3","371","","","","","","","0","0","1","","0.1918308831","0.2","0.4","0.8","0.6","0.2725454461","0.1973644546","0.4366533258","0.1918308831","","","","","","","","","","","","","","76","L","3","","","16","main_expt",""
"","bandit","97","460175","0.0-58.0-0.0","25464157","wem/bandit_party_1","A20X14OMRL0YPZ","either","3","276","","","","","","","1","0","0","0.4405228744","","0.2","0.4","0.8","0.6","","","","","0.1570621471","0.1873415792","0.4405228744","0.1950212473","","","","","","","","","","75","K","2","","","17","main_expt",""
"","bandit","98","462032","0.0-59.0-0.0","25464157","wem/bandit_party_1","A20X14OMRL0YPZ","either","3","351","","","","","","","1","0","0","0.4678551263","","0.2","0.4","0.8","0.6","","","","","0.1968188506","0.1875860444","0.4678551263","0.2094813194","","","","","","","","","","75","K","2","","","18","main_expt",""
"","bandit","99","463891","0.0-60.0-0.0","25464157","wem/bandit_party_1","A20X14OMRL0YPZ","either","3","354","","","","","","","0","0","1","","0.466140525","0.2","0.4","0.8","0.6","0.2439518204","0.1988439388","0.466140525","0.2628959394","","","","","","","","","","","","","","75","K","2","","","19","main_expt",""
"","bandit","100","465728","0.0-61.0-0.0","25464157","wem/bandit_party_1","A20X14OMRL0YPZ","either","3","330","","","","","","","0","0","1","0.4094087999","","0.2","0.4","0.8","0.6","","","","","0.2806117898","0.1813993393","0.4094087999","0.2116504525","","","","","","","","","","75","K","2","","","20","main_expt",""
"","bandit","101","467526","0.0-62.0-0.0","25464157","wem/bandit_party_1","A20X14OMRL0YPZ","either","3","292","","","","","","","0","0","1","0.4386974508","","0.2","0.4","0.8","0.6","","","","","0.2658005831","0.2012004452","0.4386974508","0.1904426465","","","","","","","","","","75","K","2","","","21","main_expt",""
"","bandit","102","469333","0.0-63.0-0.0","25464157","wem/bandit_party_1","A20X14OMRL0YPZ","either","3","302","","","","","","","0","0","1","0.1581796968","","0.2","0.4","0.8","0.6","","","","","0.2774390086","0.1958646163","0.4505723784","0.1581796968","","","","","","","","","","76","L","3","","","22","main_expt",""
"","bandit","103","471086","0.0-64.0-0.0","25464157","wem/bandit_party_1","A20X14OMRL0YPZ","either","3","247","","","","","","","0","1","0","","0.2626819079","0.2","0.4","0.8","0.6","0.2795917474","0.2626819079","0.4568000239","0.2039009352","","","","","","","","","","","","","","74","J","1","","","23","main_expt",""
"","bandit","104","472841","0.0-65.0-0.0","25464157","wem/bandit_party_1","A20X14OMRL0YPZ","either","3","248","","","","","","","0","0","1","0.2906682881","","0.2","0.4","0.8","0.6","","","","","0.2981059477","0.2906682881","0.4518339256","0.228339491","","","","","","","","","","74","J","1","","","24","main_expt",""
"","bandit","105","474635","0.0-66.0-0.0","25464157","wem/bandit_party_1","A20X14OMRL0YPZ","either","3","288","","","","","","","0","1","0","","0.3270173502","0.2","0.4","0.8","0.6","0.3272059922","0.3270173502","0.4120159309","0.2602465224","","","","","","","","","","","","","","74","J","1","","","25","main_expt",""
"","bandit","106","476468","0.0-67.0-0.0","25464157","wem/bandit_party_1","A20X14OMRL0YPZ","either","3","328","","","","","","","0","0","1","","0.2951289915","0.2","0.4","0.8","0.6","0.3369826645","0.2951289915","0.4134154185","0.1939420306","","","","","","","","","","","","","","74","J","1","","","26","main_expt",""
"","bandit","107","477999","0.0-68.0-0.0","25464157","wem/bandit_party_1","A20X14OMRL0YPZ","either","3","26","","","","","","","0","0","1","0.3520126272","","0.2","0.4","0.8","0.6","","","","","0.2531212506","0.3520126272","0.4031068294","0.2387331149","","","","","","","","","","74","J","1","","","27","main_expt",""
"","bandit","108","479899","0.0-69.0-0.0","25464157","wem/bandit_party_1","A20X14OMRL0YPZ","either","3","394","","","","","","","0","0","1","0.3369287003","","0.2","0.4","0.8","0.6","","","","","0.2170461037","0.3369287003","0.4305883772","0.2183458617","","","","","","","","","","74","J","1","","","28","main_expt",""
"","bandit","109","481707","0.0-70.0-0.0","25464157","wem/bandit_party_1","A20X14OMRL0YPZ","either","3","301","","","","","","","0","1","0","","0.2346211465","0.2","0.4","0.8","0.6","0.2346211465","0.3591799128","0.4383329838","0.2151501268","","","","","","","","","","","","","","72","H","0","img/none_selected.jpg","","29","main_expt",""
"","bandit","110","483513","0.0-71.0-0.0","25464157","wem/bandit_party_1","A20X14OMRL0YPZ","either","3","300","","","","","","","0","0","1","0.2450860663","","0.2","0.4","0.8","0.6","","","","","0.2450860663","0.3324285477","0.4233276099","0.2267233056","","","","","","","","","","72","H","0","img/none_selected.jpg","","30","main_expt",""
"","bandit","111","485302","0.0-72.0-0.0","25464157","wem/bandit_party_1","A20X14OMRL0YPZ","either","3","284","","","","","","","0","0","1","0.2141169407","","0.2","0.4","0.8","0.6","","","","","0.2141169407","0.327032362","0.4016185005","0.2663701676","","","","","","","","","","72","H","0","img/none_selected.jpg","","31","main_expt",""
"","bandit","112","487093","0.0-73.0-0.0","25464157","wem/bandit_party_1","A20X14OMRL0YPZ","either","3","284","","","","","","","1","0","0","0.2347854155","","0.2","0.4","0.8","0.6","","","","","0.2347854155","0.3230905041","0.4134940178","0.275969473","","","","","","","","","","72","H","0","img/none_selected.jpg","","32","main_expt",""
"","bandit","113","488813","0.0-74.0-0.0","25464157","wem/bandit_party_1","A20X14OMRL0YPZ","either","3","214","","","","","","","0","0","1","0.4331174495","","0.2","0.4","0.8","0.6","","","","","0.246596708","0.2969008969","0.4331174495","0.3365270118","","","","","","","","","","75","K","2","","","33","main_expt",""
"","bandit","114","490595","0.0-75.0-0.0","25464157","wem/bandit_party_1","A20X14OMRL0YPZ","either","3","272","","","","","","","0","0","1","0.4454497031","","0.2","0.4","0.8","0.6","","","","","0.1914370393","0.2536392951","0.4454497031","0.2916301021","","","","","","","","","","75","K","2","","","34","main_expt",""
"","bandit","115","492401","0.0-76.0-0.0","25464157","wem/bandit_party_1","A20X14OMRL0YPZ","either","3","300","","","","","","","0","0","1","0.4419706984","","0.2","0.4","0.8","0.6","","","","","0.1408207185","0.2336030597","0.4419706984","0.3236538836","","","","","","","","","","75","K","2","","","35","main_expt",""
"","bandit","116","494200","0.0-77.0-0.0","25464157","wem/bandit_party_1","A20X14OMRL0YPZ","either","3","293","","","","","","","0","0","1","0.3110392291","","0.2","0.4","0.8","0.6","","","","","0.09539735145","0.3110392291","0.4205940312","0.3317439785","","","","","","","","","","74","J","1","","","36","main_expt",""
"","bandit","117","496341","0.0-78.0-0.0","25464157","wem/bandit_party_1","A20X14OMRL0YPZ","either","3","634","","","","","","","0","0","1","","0.3354302382","0.2","0.4","0.8","0.6","0.08867332122","0.3354302382","0.4227305347","0.3620900841","","","","","","","","","","","","","","74","J","1","","","37","main_expt",""
"","bandit","118","498093","0.0-79.0-0.0","25464157","wem/bandit_party_1","A20X14OMRL0YPZ","either","3","245","","","","","","","0","0","1","","0.3359947902","0.2","0.4","0.8","0.6","0.0804097964","0.3359947902","0.3904174821","0.3649119955","","","","","","","","","","","","","","74","J","1","","","38","main_expt",""
"","bandit","119","499704","0.0-80.0-0.0","25464157","wem/bandit_party_1","A20X14OMRL0YPZ","either","3","105","","","","","","","0","0","1","0.1092906338","","0.2","0.4","0.8","0.6","","","","","0.1092906338","0.3719467902","0.3704092514","0.3993258453","","","","","","","","","","72","H","0","img/none_selected.jpg","","39","main_expt",""
"","bandit","120","501414","0.0-81.0-0.0","25464157","wem/bandit_party_1","A20X14OMRL0YPZ","either","3","204","","","","","","","1","0","0","0.08771014895","","0.2","0.4","0.8","0.6","","","","","0.08771014895","0.37180955","0.3250394812","0.43145226","","","","","","","","","","72","H","0","img/none_selected.jpg","","40","main_expt",""
"","bandit","121","503028","0.0-82.0-0.0","25464157","wem/bandit_party_1","A20X14OMRL0YPZ","either","3","104","","","","","","","0","0","1","0.1065106481","","0.2","0.4","0.8","0.6","","","","","0.1065106481","0.3972707938","0.3633775572","0.3925837484","","","","","","","","","","72","H","0","img/none_selected.jpg","","41","main_expt",""
"","bandit","122","504849","0.0-83.0-0.0","25464157","wem/bandit_party_1","A20X14OMRL0YPZ","either","3","315","","","","","","","0","1","0","","0.4020613291","0.2","0.4","0.8","0.6","0.0926848955","0.3981555674","0.3708570881","0.4020613291","","","","","","","","","","","","","","76","L","3","","","42","main_expt",""
"","bandit","123","506753","0.0-84.0-0.0","25464157","wem/bandit_party_1","A20X14OMRL0YPZ","either","3","398","","","","","","","0","0","1","0.4199094288","","0.2","0.4","0.8","0.6","","","","","0.09213729174","0.3698022864","0.3852030547","0.4199094288","","","","","","","","","","76","L","3","","","43","main_expt",""
"","bandit","124","508786","0.0-85.0-0.0","25464157","wem/bandit_party_1","A20X14OMRL0YPZ","either","3","527","","","","","","","0","1","0","","0.4362917367","0.2","0.4","0.8","0.6","0.0950319608","0.3278340923","0.3653477133","0.4362917367","","","","","","","","","","","","","","76","L","3","","","44","main_expt",""
"","bandit","125","510710","0.0-86.0-0.0","25464157","wem/bandit_party_1","A20X14OMRL0YPZ","either","3","419","","","","","","","0","0","1","","0.4310393502","0.2","0.4","0.8","0.6","0.07917944011","0.4004869948","0.3423722135","0.4310393502","","","","","","","","","","","","","","76","L","3","","","45","main_expt",""
"","bandit","126","512559","0.0-87.0-0.0","25464157","wem/bandit_party_1","A20X14OMRL0YPZ","either","3","343","","","","","","","0","0","1","0.4301719659","","0.2","0.4","0.8","0.6","","","","","0.08528552535","0.4389658195","0.2713785315","0.4301719659","","","","","","","","","","76","L","3","","","46","main_expt",""
"","bandit","127","514360","0.0-88.0-0.0","25464157","wem/bandit_party_1","A20X14OMRL0YPZ","either","3","292","","","","","","","0","0","1","0.4274268526","","0.2","0.4","0.8","0.6","","","","","0.08303267599","0.4294918489","0.2675382036","0.4274268526","","","","","","","","","","76","L","3","","","47","main_expt",""
"","bandit","128","516137","0.0-89.0-0.0","25464157","wem/bandit_party_1","A20X14OMRL0YPZ","either","3","271","","","","","","","0","0","1","0.3006553151","","0.2","0.4","0.8","0.6","","","","","0.1183490009","0.3948346084","0.3006553151","0.4559220927","","","","","","","","","","75","K","2","","","48","main_expt",""
"","bandit","129","517682","0.0-90.0-0.0","25464157","wem/bandit_party_1","A20X14OMRL0YPZ","either","3","38","","","","","","","0","0","1","0.4226663974","","0.2","0.4","0.8","0.6","","","","","0.09831357925","0.4226663974","0.2865645246","0.4362936898","","","","","","","","","","74","J","1","","","49","main_expt",""
"","bandit","130","519849","0.0-91.0-0.0","25464157","wem/bandit_party_1","A20X14OMRL0YPZ","either","3","659","","","","","","","0","0","1","","0.0896163698","0.2","0.4","0.8","0.6","0.0896163698","0.3943232949","0.2842330123","0.4001593617","","","","","","","","","","","","","","72","H","0","img/none_selected.jpg","","50","main_expt",""
"","bandit","131","521556","0.0-92.0-0.0","25464157","wem/bandit_party_1","A20X14OMRL0YPZ","either","3","201","","","","","","","0","0","1","","0.3911898034","0.2","0.4","0.8","0.6","0.08239790895","0.3911898034","0.2933637591","0.3737598101","","","","","","","","","","","","","","74","J","1","","","51","main_expt",""
"","bandit","132","523182","0.0-93.0-0.0","25464157","wem/bandit_party_1","A20X14OMRL0YPZ","either","3","119","","","","","","","0","0","1","","0.2802127762","0.2","0.4","0.8","0.6","0.06509061927","0.3897106723","0.2802127762","0.3490564905","","","","","","","","","","","","","","75","K","2","","","52","main_expt",""
"","bandit","133","525722","0.0-94.0-0.0","25464157","wem/bandit_party_1","A20X14OMRL0YPZ","either","3","1033","","","","","","","0","0","1","","0.3606416198","0.2","0.4","0.8","0.6","0.05503049918","0.3977919118","0.2567133084","0.3606416198","","","","","","","","","","","","","","76","L","3","","","53","main_expt",""
"","bandit","134","527396","0.0-95.0-0.0","25464157","wem/bandit_party_1","A20X14OMRL0YPZ","either","3","168","","","","","","","0","0","1","","0.304436262","0.2","0.4","0.8","0.6","0.06606451817","0.3803623479","0.304436262","0.3920172378","","","","","","","","","","","","","","75","K","2","","","54","main_expt",""
"","bandit","135","529276","0.0-96.0-0.0","25464157","wem/bandit_party_1","A20X14OMRL0YPZ","either","3","374","","","","","","","0","0","1","","0.3898030924","0.2","0.4","0.8","0.6","0.0812436444","0.3898030924","0.3050376594","0.3841867886","","","","","","","","","","","","","","74","J","1","","","55","main_expt",""
"","bandit","136","530882","0.0-97.0-0.0","25464157","wem/bandit_party_1","A20X14OMRL0YPZ","either","3","99","","","","","","","0","0","1","","0.05752214818","0.2","0.4","0.8","0.6","0.05752214818","0.4332266089","0.2874076515","0.3752679739","","","","","","","","","","","","","","72","H","0","img/none_selected.jpg","","56","main_expt",""
"","bandit","137","532806","0.0-98.0-0.0","25464157","wem/bandit_party_1","A20X14OMRL0YPZ","either","3","418","","","","","","","1","0","0","0.2633226407","","0.2","0.4","0.8","0.6","","","","","0.05957573693","0.4598680415","0.2633226407","0.3595388075","","","","","","","","","","75","K","2","","","57","main_expt",""
"","bandit","138","534702","0.0-99.0-0.0","25464157","wem/bandit_party_1","A20X14OMRL0YPZ","either","3","388","","","","","","","0","0","1","0.282557186","","0.2","0.4","0.8","0.6","","","","","0.08347810371","0.4510058242","0.282557186","0.2926617498","","","","","","","","","","75","K","2","","","58","main_expt",""
"","bandit","139","536461","0.0-100.0-0.0","25464157","wem/bandit_party_1","A20X14OMRL0YPZ","either","3","253","","","","","","","0","0","1","0.2675679041","","0.2","0.4","0.8","0.6","","","","","0.1166757522","0.4587464736","0.2675679041","0.2854140482","","","","","","","","","","75","K","2","","","59","main_expt",""
"","bandit","140","538332","0.0-101.0-0.0","25464157","wem/bandit_party_1","A20X14OMRL0YPZ","either","3","365","","","","","","","0","0","1","0.2654645802","","0.2","0.4","0.8","0.6","","","","","0.1223048521","0.4534111386","0.2654645802","0.2767785787","","","","","","","","","","75","K","2","","","60","main_expt",""
"","bandit","141","539874","0.0-102.0-0.0","25464157","wem/bandit_party_1","A20X14OMRL0YPZ","either","3","35","","","","","","","0","0","1","","0.3110110239","0.2","0.4","0.8","0.6","0.1341525672","0.4581751116","0.2326588137","0.3110110239","","","","","","","","","","","","","","76","L","3","","","61","main_expt",""
"","bandit","142","541694","0.0-103.0-0.0","25464157","wem/bandit_party_1","A20X14OMRL0YPZ","either","3","312","","","","","","","0","0","1","","0.2739379344","0.2","0.4","0.8","0.6","0.1748443247","0.4447189615","0.2430345153","0.2739379344","","","","","","","","","","","","","","76","L","3","","","62","main_expt",""
"","bandit","143","543589","0.0-104.0-0.0","25464157","wem/bandit_party_1","A20X14OMRL0YPZ","either","3","387","","","","","","","0","0","1","0.2518438402","","0.2","0.4","0.8","0.6","","","","","0.1872250423","0.4351057758","0.2682261916","0.2518438402","","","","","","","","","","76","L","3","","","63","main_expt",""
"","bandit","144","545468","0.0-105.0-0.0","25464157","wem/bandit_party_1","A20X14OMRL0YPZ","either","3","370","","","","","","","0","0","1","","0.216118181","0.2","0.4","0.8","0.6","0.1592276408","0.4559228662","0.3136585585","0.216118181","","","","","","","","","","","","","","76","L","3","","","64","main_expt",""
"","bandit","145","547127","0.0-106.0-0.0","25464157","wem/bandit_party_1","A20X14OMRL0YPZ","either","3","153","","","","","","","0","0","1","0.4526438492","","0.2","0.4","0.8","0.6","","","","","0.1881419285","0.4526438492","0.3208042698","0.1961712117","","","","","","","","","","74","J","1","","","65","main_expt",""
"","bandit","146","549044","0.0-107.0-0.0","25464157","wem/bandit_party_1","A20X14OMRL0YPZ","either","3","408","","","","","","","0","1","0","","0.4604690516","0.2","0.4","0.8","0.6","0.2075830042","0.4604690516","0.3550213758","0.1821057022","","","","","","","","","","","","","","74","J","1","","","66","main_expt",""
"","bandit","147","550905","0.0-108.0-0.0","25464157","wem/bandit_party_1","A20X14OMRL0YPZ","either","3","356","","","","","","","0","0","1","","0.4479534522","0.2","0.4","0.8","0.6","0.210321401","0.4479534522","0.2883445083","0.2221692745","","","","","","","","","","","","","","74","J","1","","","67","main_expt",""
"","bandit","148","552860","0.0-109.0-0.0","25464157","wem/bandit_party_1","A20X14OMRL0YPZ","either","3","447","","","","","","","0","0","1","","0.4420076102","0.2","0.4","0.8","0.6","0.1740681144","0.4420076102","0.2492112051","0.2385328342","","","","","","","","","","","","","","74","J","1","","","68","main_expt",""
"","bandit","149","555264","0.0-110.0-0.0","25464157","wem/bandit_party_1","A20X14OMRL0YPZ","either","3","897","","","","","","","0","0","1","","0.3840886122","0.2","0.4","0.8","0.6","0.1495678232","0.3840886122","0.1725364023","0.2693988132","","","","","","","","","","","","","","74","J","1","","","69","main_expt",""
"","bandit","150","557169","0.0-111.0-0.0","25464157","wem/bandit_party_1","A20X14OMRL0YPZ","either","3","399","","","","","","","0","0","1","0.3764426572","","0.2","0.4","0.8","0.6","","","","","0.1594524764","0.3764426572","0.2081322216","0.2633889128","","","","","","","","","","74","J","1","","","70","main_expt",""
"","bandit","151","558948","0.0-112.0-0.0","25464157","wem/bandit_party_1","A20X14OMRL0YPZ","either","3","273","","","","","","","1","0","0","0.1308665948","","0.2","0.4","0.8","0.6","","","","","0.1308665948","0.3925575972","0.2222096595","0.2881785301","","","","","","","","","","72","H","0","img/none_selected.jpg","","71","main_expt",""
"","bandit","152","560813","0.0-113.0-0.0","25464157","wem/bandit_party_1","A20X14OMRL0YPZ","either","3","360","","","","","","","0","1","0","","0.1413665491","0.2","0.4","0.8","0.6","0.1413665491","0.4055717031","0.2276413934","0.3496752211","","","","","","","","","","","","","","72","H","0","img/none_selected.jpg","","72","main_expt",""
"","bandit","153","562628","0.0-114.0-0.0","25464157","wem/bandit_party_1","A20X14OMRL0YPZ","either","3","307","","","","","","","0","0","1","","0.1562096843","0.2","0.4","0.8","0.6","0.1562096843","0.4313753627","0.202726327","0.3662649551","","","","","","","","","","","","","","72","H","0","img/none_selected.jpg","","73","main_expt",""
"","bandit","154","564556","0.0-115.0-0.0","25464157","wem/bandit_party_1","A20X14OMRL0YPZ","either","3","423","","","","","","","0","0","1","","0.1601549975","0.2","0.4","0.8","0.6","0.1601549975","0.4294283137","0.2465356434","0.3318597218","","","","","","","","","","","","","","72","H","0","img/none_selected.jpg","","74","main_expt",""
"","bandit","155","566504","0.0-116.0-0.0","25464157","wem/bandit_party_1","A20X14OMRL0YPZ","either","3","440","","","","","","","0","0","1","","0.1962365409","0.2","0.4","0.8","0.6","0.1962365409","0.4114775526","0.2780880013","0.3129946244","","","","","","","","","","","","","","72","H","0","img/none_selected.jpg","","75","main_expt",""
"","bandit","156","568279","0.0-117.0-0.0","25464157","wem/bandit_party_1","A20X14OMRL0YPZ","either","3","267","","","","","","","0","0","1","","0.230570622","0.2","0.4","0.8","0.6","0.2315068675","0.4038916894","0.230570622","0.3299880354","","","","","","","","","","","","","","75","K","2","","","76","main_expt",""
"","bandit","157","569866","0.0-118.0-0.0","25464157","wem/bandit_party_1","A20X14OMRL0YPZ","either","3","79","","","","","","","0","0","1","0.1747897532","","0.2","0.4","0.8","0.6","","","","","0.1749603823","0.4028298088","0.1747897532","0.2704336052","","","","","","","","","","75","K","2","","","77","main_expt",""
"","bandit","158","573746","0.0-119.0-0.0","25464157","wem/bandit_party_1","A20X14OMRL0YPZ","either","3","2373","","","","","","","0","0","1","0.2009150394","","0.2","0.4","0.8","0.6","","","","","0.2091975686","0.4004321452","0.2009150394","0.2489008917","","","","","","","","","","75","K","2","","","78","main_expt",""
"","bandit","159","575574","0.0-120.0-0.0","25464157","wem/bandit_party_1","A20X14OMRL0YPZ","either","3","321","","","","","","","0","0","1","","0.3909827091","0.2","0.4","0.8","0.6","0.2699334682","0.3909827091","0.2090883318","0.2182462247","","","","","","","","","","","","","","74","J","1","","","79","main_expt",""
"","bandit","160","577346","0.0-121.0-0.0","25464157","wem/bandit_party_1","A20X14OMRL0YPZ","either","3","266","","","","","","","0","0","1","0.4289339141","","0.2","0.4","0.8","0.6","","","","","0.2712134299","0.4289339141","0.215522018","0.1591694045","","","","","","","","","","74","J","1","","","80","main_expt",""
"","bandit","161","579132","0.0-122.0-0.0","25464157","wem/bandit_party_1","A20X14OMRL0YPZ","either","3","279","","","","","","","0","0","1","0.4256341571","","0.2","0.4","0.8","0.6","","","","","0.2563236188","0.4256341571","0.2655955182","0.1661146317","","","","","","","","","","74","J","1","","","81","main_expt",""
"","bandit","162","580969","0.0-123.0-0.0","25464157","wem/bandit_party_1","A20X14OMRL0YPZ","either","3","329","","","","","","","0","0","1","","0.2474856626","0.2","0.4","0.8","0.6","0.2474856626","0.4153375647","0.2642342948","0.2249160828","","","","","","","","","","","","","","72","H","0","img/none_selected.jpg","","82","main_expt",""
"","bandit","163","582755","0.0-124.0-0.0","25464157","wem/bandit_party_1","A20X14OMRL0YPZ","either","3","280","","","","","","","0","1","0","","0.2338037125","0.2","0.4","0.8","0.6","0.2338037125","0.4239102097","0.2615040017","0.2194800234","","","","","","","","","","","","","","72","H","0","img/none_selected.jpg","","83","main_expt",""
"","bandit","164","584775","0.0-125.0-0.0","25464157","wem/bandit_party_1","A20X14OMRL0YPZ","either","3","507","","","","","","","0","0","1","","0.2929655049","0.2","0.4","0.8","0.6","0.2929655049","0.4021041833","0.3136368113","0.2020024956","","","","","","","","","","","","","","72","H","0","img/none_selected.jpg","","84","main_expt",""
"","bandit","165","586597","0.0-126.0-0.0","25464157","wem/bandit_party_1","A20X14OMRL0YPZ","either","3","317","","","","","","","0","0","1","","0.2755572306","0.2","0.4","0.8","0.6","0.2755572306","0.4322374594","0.2433538552","0.1639230135","","","","","","","","","","","","","","72","H","0","img/none_selected.jpg","","85","main_expt",""
"","bandit","166","590725","0.0-127.0-0.0","25464157","wem/bandit_party_1","A20X14OMRL0YPZ","either","3","2621","","","","","","","0","0","1","","0.2706615249","0.2","0.4","0.8","0.6","0.2706615249","0.4247618508","0.2583740773","0.1423092638","","","","","","","","","","","","","","72","H","0","img/none_selected.jpg","","86","main_expt",""
"","bandit","167","592525","0.0-128.0-0.0","25464157","wem/bandit_party_1","A20X14OMRL0YPZ","either","3","292","","","","","","","0","0","1","0.1623313408","","0.2","0.4","0.8","0.6","","","","","0.3259805539","0.4130492334","0.2656778135","0.1623313408","","","","","","","","","","76","L","3","","","87","main_expt",""
"","bandit","168","594124","0.0-129.0-0.0","25464157","wem/bandit_party_1","A20X14OMRL0YPZ","either","3","91","","","","","","","1","0","0","0.2565525481","","0.2","0.4","0.8","0.6","","","","","0.3471137027","0.3883747858","0.2565525481","0.1459946163","","","","","","","","","","75","K","2","","","88","main_expt",""
"","bandit","169","596237","0.0-130.0-0.0","25464157","wem/bandit_party_1","A20X14OMRL0YPZ","either","3","607","","","","","","","1","0","0","0.2471999074","","0.2","0.4","0.8","0.6","","","","","0.3715311126","0.3950807547","0.2471999074","0.1684807643","","","","","","","","","","75","K","2","","","89","main_expt",""
"","bandit","170","598107","0.0-131.0-0.0","25464157","wem/bandit_party_1","A20X14OMRL0YPZ","either","3","359","","","","","","","0","0","1","0.2204199549","","0.2","0.4","0.8","0.6","","","","","0.3571728809","0.420982679","0.2204199549","0.1937692241","","","","","","","","","","75","K","2","","","90","main_expt",""
"","bandit","171","599950","0.0-132.0-0.0","25464157","wem/bandit_party_1","A20X14OMRL0YPZ","either","3","334","","","","","","","0","0","1","0.2013548925","","0.2","0.4","0.8","0.6","","","","","0.3348642023","0.4012606491","0.2013548925","0.1670397906","","","","","","","","","","75","K","2","","","91","main_expt",""
"","bandit","172","602017","0.0-133.0-0.0","25464157","wem/bandit_party_1","A20X14OMRL0YPZ","either","3","562","","","","","","","0","0","1","","0.174921714","0.2","0.4","0.8","0.6","0.3551195155","0.3950870333","0.174921714","0.1936095216","","","","","","","","","","","","","","75","K","2","","","92","main_expt",""
"","bandit","173","603983","0.0-134.0-0.0","25464157","wem/bandit_party_1","A20X14OMRL0YPZ","either","3","459","","","","","","","0","0","1","0.3797372222","","0.2","0.4","0.8","0.6","","","","","0.3494458231","0.3797372222","0.1972058505","0.2399824117","","","","","","","","","","74","J","1","","","93","main_expt",""
"","bandit","174","606646","0.0-135.0-0.0","25464157","wem/bandit_party_1","A20X14OMRL0YPZ","either","3","1156","","","","","","","0","1","0","","0.3346339076","0.2","0.4","0.8","0.6","0.3759818745","0.3346339076","0.2144007407","0.242536602","","","","","","","","","","","","","","74","J","1","","","94","main_expt",""
"","bandit","175","610092","0.0-136.0-0.0","25464157","wem/bandit_party_1","A20X14OMRL0YPZ","either","3","1939","","","","","","","0","1","0","","0.3467088588","0.2","0.4","0.8","0.6","0.3467088588","0.3433005441","0.2025691914","0.3081296623","","","","","","","","","","","","","","72","H","0","img/none_selected.jpg","","95","main_expt",""
"","bandit","176","612131","0.0-137.0-0.0","25464157","wem/bandit_party_1","A20X14OMRL0YPZ","either","3","532","","","","","","","0","0","1","","0.3520186383","0.2","0.4","0.8","0.6","0.3520186383","0.2900415689","0.1750118246","0.371766452","","","","","","","","","","","","","","72","H","0","img/none_selected.jpg","","96","main_expt",""
"","bandit","177","613988","0.0-138.0-0.0","25464157","wem/bandit_party_1","A20X14OMRL0YPZ","either","3","352","","","","","","","0","0","1","0.3136050561","","0.2","0.4","0.8","0.6","","","","","0.342216001","0.3136050561","0.2433812568","0.3737721809","","","","","","","","","","74","J","1","","","97","main_expt",""
"","bandit","178","615730","0.0-139.0-0.0","25464157","wem/bandit_party_1","A20X14OMRL0YPZ","either","3","231","","","","","","","0","0","1","0.3236610102","","0.2","0.4","0.8","0.6","","","","","0.3775958225","0.3236610102","0.1834100281","0.3662625892","","","","","","","","","","74","J","1","","","98","main_expt",""
"","bandit","179","617315","0.0-140.0-0.0","25464157","wem/bandit_party_1","A20X14OMRL0YPZ","either","3","77","","","","","","","0","0","1","0.146161558","","0.2","0.4","0.8","0.6","","","","","0.3490624926","0.3116662608","0.146161558","0.3912879072","","","","","","","","","","75","K","2","","","99","main_expt",""
"","bandit","180","619265","0.0-141.0-0.0","25464157","wem/bandit_party_1","A20X14OMRL0YPZ","either","3","446","","","","","","","0","0","1","0.3916888764","","0.2","0.4","0.8","0.6","","","","","0.3418910903","0.3806420769","0.1186266926","0.3916888764","","","","","","","","","","76","L","3","","","100","main_expt",""
"","bandit","181","621178","0.0-142.0-0.0","25464157","wem/bandit_party_1","A20X14OMRL0YPZ","either","3","408","","","","","","","0","0","1","0.3825052475","","0.2","0.4","0.8","0.6","","","","","0.3544055354","0.3825052475","0.1467879228","0.3803758031","","","","","","","","","","74","J","1","","","101","main_expt",""
"","bandit","182","623599","0.0-143.0-0.0","25464157","wem/bandit_party_1","A20X14OMRL0YPZ","either","3","914","","","","","","","0","1","0","","0.3580864163","0.2","0.4","0.8","0.6","0.3580864163","0.3799327693","0.1336514036","0.3685266224","","","","","","","","","","","","","","72","H","0","img/none_selected.jpg","","102","main_expt",""
"","bandit","183","625488","0.0-144.0-0.0","25464157","wem/bandit_party_1","A20X14OMRL0YPZ","either","3","383","","","","","","","0","0","1","","0.336528594","0.2","0.4","0.8","0.6","0.336528594","0.3502018886","0.1325092095","0.3754978655","","","","","","","","","","","","","","72","H","0","img/none_selected.jpg","","103","main_expt",""
"","bandit","184","627313","0.0-145.0-0.0","25464157","wem/bandit_party_1","A20X14OMRL0YPZ","either","3","316","","","","","","","0","0","1","","0.3190078166","0.2","0.4","0.8","0.6","0.3190078166","0.3443431466","0.1162839287","0.4033056484","","","","","","","","","","","","","","72","H","0","img/none_selected.jpg","","104","main_expt",""
"","bandit","185","629327","0.0-146.0-0.0","25464157","wem/bandit_party_1","A20X14OMRL0YPZ","either","3","507","","","","","","","0","0","1","","0.115620258","0.2","0.4","0.8","0.6","0.3100940773","0.3551378046","0.115620258","0.3617388181","","","","","","","","","","","","","","75","K","2","","","105","main_expt",""
"","bandit","186","631269","0.0-147.0-0.0","25464157","wem/bandit_party_1","A20X14OMRL0YPZ","either","3","436","","","","","","","0","0","1","","0.1102569517","0.2","0.4","0.8","0.6","0.2964842485","0.3177956882","0.1102569517","0.3656875331","","","","","","","","","","","","","","75","K","2","","","106","main_expt",""
"","bandit","187","633333","0.0-148.0-0.0","25464157","wem/bandit_party_1","A20X14OMRL0YPZ","either","3","556","","","","","","","0","0","1","0.110599846","","0.2","0.4","0.8","0.6","","","","","0.3224579283","0.3463124521","0.110599846","0.3478183852","","","","","","","","","","75","K","2","","","107","main_expt",""
"","bandit","188","635271","0.0-149.0-0.0","25464157","wem/bandit_party_1","A20X14OMRL0YPZ","either","3","431","","","","","","","0","0","1","0.1647947233","","0.2","0.4","0.8","0.6","","","","","0.3365568187","0.330790185","0.1647947233","0.3715517583","","","","","","","","","","75","K","2","","","108","main_expt",""
"","bandit","189","637602","0.0-150.0-0.0","25464157","wem/bandit_party_1","A20X14OMRL0YPZ","either","3","823","","","","","","","0","0","1","","0.146095753","0.2","0.4","0.8","0.6","0.3200824859","0.3259779601","0.146095753","0.3713851569","","","","","","","","","","","","","","75","K","2","","","109","main_expt",""
"","bandit","190","641029","0.0-151.0-0.0","25464157","wem/bandit_party_1","A20X14OMRL0YPZ","either","3","1918","","","","","","","0","0","1","0.1691954855","","0.2","0.4","0.8","0.6","","","","","0.3179471713","0.3169053314","0.1691954855","0.3401672382","","","","","","","","","","75","K","2","","","110","main_expt",""
"","bandit","191","643028","0.0-152.0-0.0","25464157","wem/bandit_party_1","A20X14OMRL0YPZ","either","3","491","","","","","","","0","0","1","0.1690298198","","0.2","0.4","0.8","0.6","","","","","0.3168158386","0.342138516","0.1690298198","0.3242328008","","","","","","","","","","75","K","2","","","111","main_expt",""
"","bandit","192","644874","0.0-153.0-0.0","25464157","wem/bandit_party_1","A20X14OMRL0YPZ","either","3","337","","","","","","","0","0","1","","0.3597886873","0.2","0.4","0.8","0.6","0.3551606626","0.3597886873","0.2196992501","0.2991119965","","","","","","","","","","","","","","74","J","1","","","112","main_expt",""
"","bandit","193","647012","0.0-154.0-0.0","25464157","wem/bandit_party_1","A20X14OMRL0YPZ","either","3","633","","","","","","","0","1","0","","0.3580549124","0.2","0.4","0.8","0.6","0.3615444015","0.3580549124","0.2723467559","0.3364281798","","","","","","","","","","","","","","74","J","1","","","113","main_expt",""
"","bandit","194","648887","0.0-155.0-0.0","25464157","wem/bandit_party_1","A20X14OMRL0YPZ","either","3","368","","","","","","","0","0","1","","0.3556181037","0.2","0.4","0.8","0.6","0.4043222556","0.3556181037","0.2470985199","0.3495122724","","","","","","","","","","","","","","74","J","1","","","114","main_expt",""
"","bandit","195","650946","0.0-156.0-0.0","25464157","wem/bandit_party_1","A20X14OMRL0YPZ","either","3","550","","","","","","","0","0","1","","0.3489042174","0.2","0.4","0.8","0.6","0.4179696435","0.3489042174","0.2482590513","0.324938203","","","","","","","","","","","","","","74","J","1","","","115","main_expt",""
"","bandit","196","652794","0.0-157.0-0.0","25464157","wem/bandit_party_1","A20X14OMRL0YPZ","either","3","341","","","","","","","0","0","1","","0.4324393975","0.2","0.4","0.8","0.6","0.4324393975","0.3466245191","0.1992012358","0.3227512736","","","","","","","","","","","","","","72","H","0","img/none_selected.jpg","","116","main_expt",""
"","bandit","197","664829","0.0-158.0-0.0","25464157","wem/bandit_party_1","A20X14OMRL0YPZ","either","3","10530","","","","","","","0","0","1","0.2585209305","","0.2","0.4","0.8","0.6","","","","","0.4290779421","0.3581754781","0.216355905","0.2585209305","","","","","","","","","","76","L","3","","","117","main_expt",""
"","bandit","198","666386","0.0-159.0-0.0","25464157","wem/bandit_party_1","A20X14OMRL0YPZ","either","3","51","","","","","","","0","0","1","0.1715453935","","0.2","0.4","0.8","0.6","","","","","0.4459264202","0.283939031","0.1715453935","0.2817260076","","","","","","","","","","75","K","2","","","118","main_expt",""
"","bandit","199","668145","0.0-160.0-0.0","25464157","wem/bandit_party_1","A20X14OMRL0YPZ","either","3","251","","","","","","","0","0","1","","0.2992634423","0.2","0.4","0.8","0.6","0.436995295","0.2992634423","0.1843456939","0.328214026","","","","","","","","","","","","","","74","J","1","","","119","main_expt",""
"","bandit","200","670103","0.0-161.0-0.0","25464157","wem/bandit_party_1","A20X14OMRL0YPZ","either","3","451","","","","","","","0","0","1","","0.4151314625","0.2","0.4","0.8","0.6","0.4151314625","0.1878150733","0.1848061615","0.3355603121","","","","","","","","","","","","","","72","H","0","img/none_selected.jpg","","120","main_expt",""
"","bandit","201","671937","0.0-162.0-0.0","25464157","wem/bandit_party_1","A20X14OMRL0YPZ","either","3","323","","","","","","","0","0","1","","0.4384064527","0.2","0.4","0.8","0.6","0.4384064527","0.1447458933","0.1679578636","0.3829587724","","","","","","","","","","","","","","72","H","0","img/none_selected.jpg","","121","main_expt",""
"","bandit","202","673832","0.0-163.0-0.0","25464157","wem/bandit_party_1","A20X14OMRL0YPZ","either","3","387","","","","","","","0","0","1","","0.4417589501","0.2","0.4","0.8","0.6","0.4417589501","0.1176060398","0.197295971","0.3995678287","","","","","","","","","","","","","","72","H","0","img/none_selected.jpg","","122","main_expt",""
"","bandit","203","675846","0.0-164.0-0.0","25464157","wem/bandit_party_1","A20X14OMRL0YPZ","either","3","508","","","","","","","0","0","1","0.1097677055","","0.2","0.4","0.8","0.6","","","","","0.4017154396","0.1097677055","0.2184653352","0.3656739583","","","","","","","","","","74","J","1","","","123","main_expt",""
"","bandit","204","677684","0.0-165.0-0.0","25464157","wem/bandit_party_1","A20X14OMRL0YPZ","either","3","332","","","","","","","0","1","0","","0.2147868977","0.2","0.4","0.8","0.6","0.3619070526","0.08048168986","0.2147868977","0.3862549257","","","","","","","","","","","","","","75","K","2","","","124","main_expt",""
"","bandit","205","679731","0.0-166.0-0.0","25464157","wem/bandit_party_1","A20X14OMRL0YPZ","either","3","541","","","","","","","0","0","1","0.1667936559","","0.2","0.4","0.8","0.6","","","","","0.3567490645","0.07842900555","0.1667936559","0.3593796239","","","","","","","","","","75","K","2","","","125","main_expt",""
"","bandit","206","682455","0.0-167.0-0.0","25464157","wem/bandit_party_1","A20X14OMRL0YPZ","either","3","1216","","","","","","","0","0","1","0.1453295256","","0.2","0.4","0.8","0.6","","","","","0.3558473019","0.08318363027","0.1453295256","0.3413194209","","","","","","","","","","75","K","2","","","126","main_expt",""
"","bandit","207","685093","0.0-168.0-0.0","25464157","wem/bandit_party_1","A20X14OMRL0YPZ","either","3","1128","","","","","","","0","1","0","","0.1635755653","0.2","0.4","0.8","0.6","0.3543069734","0.06812438963","0.1635755653","0.3369929262","","","","","","","","","","","","","","75","K","2","","","127","main_expt",""
"","bandit","208","687029","0.0-169.0-0.0","25464157","wem/bandit_party_1","A20X14OMRL0YPZ","either","3","429","","","","","","","0","0","1","0.1872639566","","0.2","0.4","0.8","0.6","","","","","0.3328374851","0.08303766286","0.1872639566","0.2922989636","","","","","","","","","","75","K","2","","","128","main_expt",""
"","bandit","209","688953","0.0-170.0-0.0","25464157","wem/bandit_party_1","A20X14OMRL0YPZ","either","3","417","","","","","","","0","0","1","","0.2032718864","0.2","0.4","0.8","0.6","0.3238683282","0.09047360051","0.2032718864","0.3095146075","","","","","","","","","","","","","","75","K","2","","","129","main_expt",""
"","bandit","210","691267","0.0-171.0-0.0","25464157","wem/bandit_party_1","A20X14OMRL0YPZ","either","3","804","","","","","","","1","0","0","0.2025864764","","0.2","0.4","0.8","0.6","","","","","0.2750329062","0.131542256","0.2025864764","0.3068425872","","","","","","","","","","75","K","2","","","130","main_expt",""
"","bandit","211","695341","0.0-172.0-0.0","25464157","wem/bandit_party_1","A20X14OMRL0YPZ","either","3","2568","","","","","","","1","0","0","0.2158584071","","0.2","0.4","0.8","0.6","","","","","0.2751886228","0.1492019489","0.2158584071","0.3112504131","","","","","","","","","","75","K","2","","","131","main_expt",""
"","bandit","212","696927","0.0-173.0-0.0","25464157","wem/bandit_party_1","A20X14OMRL0YPZ","either","3","80","","","","","","","1","0","0","0.2105840197","","0.2","0.4","0.8","0.6","","","","","0.2729729886","0.1571188116","0.2105840197","0.3595653039","","","","","","","","","","75","K","2","","","132","main_expt",""
"","bandit","213","699307","0.0-174.0-0.0","25464157","wem/bandit_party_1","A20X14OMRL0YPZ","either","3","871","","","","","","","0","0","1","","0.2328486735","0.2","0.4","0.8","0.6","0.3248088544","0.2021073832","0.2328486735","0.3873527377","","","","","","","","","","","","","","75","K","2","","","133","main_expt",""
"","bandit","214","701459","0.0-175.0-0.0","25464157","wem/bandit_party_1","A20X14OMRL0YPZ","either","3","645","","","","","","","0","0","1","0.2589092944","","0.2","0.4","0.8","0.6","","","","","0.3596446835","0.2693148074","0.2589092944","0.3973884711","","","","","","","","","","75","K","2","","","134","main_expt",""
"","bandit","215","704013","0.0-176.0-0.0","25464157","wem/bandit_party_1","A20X14OMRL0YPZ","either","3","1046","","","","","","","1","0","0","0.2637326353","","0.2","0.4","0.8","0.6","","","","","0.318377279","0.2625780805","0.2637326353","0.4080523157","","","","","","","","","","75","K","2","","","135","main_expt",""
"","bandit","216","707764","0.0-177.0-0.0","25464157","wem/bandit_party_1","A20X14OMRL0YPZ","either","3","2244","","","","","","","0","0","1","","0.2718680576","0.2","0.4","0.8","0.6","0.3160887017","0.2981707722","0.2718680576","0.4176503084","","","","","","","","","","","","","","75","K","2","","","136","main_expt",""
"","bandit","217","712162","0.0-178.0-0.0","25464157","wem/bandit_party_1","A20X14OMRL0YPZ","either","3","2889","","","","","","","0","0","1","0.2919957672","","0.2","0.4","0.8","0.6","","","","","0.2883225013","0.3148158286","0.2919957672","0.3859803947","","","","","","","","","","75","K","2","","","137","main_expt",""
"","bandit","218","714244","0.0-179.0-0.0","25464157","wem/bandit_party_1","A20X14OMRL0YPZ","either","3","573","","","","","","","1","0","0","0.3193993407","","0.2","0.4","0.8","0.6","","","","","0.3009152141","0.3111523267","0.3193993407","0.358492916","","","","","","","","","","75","K","2","","","138","main_expt",""
"","bandit","219","717000","0.0-180.0-0.0","25464157","wem/bandit_party_1","A20X14OMRL0YPZ","either","3","1251","","","","","","","0","0","1","","0.3404434035","0.2","0.4","0.8","0.6","0.293720077","0.3034593298","0.3404434035","0.3608756281","","","","","","","","","","","","","","75","K","2","","","139","main_expt",""
"","bandit","220","719019","0.0-181.0-0.0","25464157","wem/bandit_party_1","A20X14OMRL0YPZ","either","3","513","","","","","","","0","0","1","0.2507495005","","0.2","0.4","0.8","0.6","","","","","0.286059761","0.2507495005","0.3278052243","0.3421836092","","","","","","","","","","74","J","1","","","140","main_expt",""
"","bandit","221","720996","0.0-182.0-0.0","25464157","wem/bandit_party_1","A20X14OMRL0YPZ","either","3","467","","","","","","","0","0","1","","0.2931724706","0.2","0.4","0.8","0.6","0.2931724706","0.2220694513","0.3038906839","0.3737340371","","","","","","","","","","","","","","72","H","0","img/none_selected.jpg","","141","main_expt",""
"","bandit","222","724185","0.0-183.0-0.0","25464157","wem/bandit_party_1","A20X14OMRL0YPZ","either","3","1683","","","","","","","0","0","1","","0.2182180164","0.2","0.4","0.8","0.6","0.2182180164","0.2119249064","0.2924195757","0.3461121542","","","","","","","","","","","","","","72","H","0","img/none_selected.jpg","","142","main_expt",""
"","bandit","223","726105","0.0-184.0-0.0","25464157","wem/bandit_party_1","A20X14OMRL0YPZ","either","3","413","","","","","","","0","0","1","","0.2015475508","0.2","0.4","0.8","0.6","0.2015475508","0.2665135591","0.2816149275","0.3305931074","","","","","","","","","","","","","","72","H","0","img/none_selected.jpg","","143","main_expt",""
"","bandit","224","728423","0.0-185.0-0.0","25464157","wem/bandit_party_1","A20X14OMRL0YPZ","either","3","807","","","","","","","0","0","1","0.2854155153","","0.2","0.4","0.8","0.6","","","","","0.2074070562","0.2854155153","0.2355525614","0.3561039987","","","","","","","","","","74","J","1","","","144","main_expt",""
"","bandit","225","730621","0.0-186.0-0.0","25464157","wem/bandit_party_1","A20X14OMRL0YPZ","either","3","689","","","","","","","0","0","1","0.2521048148","","0.2","0.4","0.8","0.6","","","","","0.1415368311","0.2521048148","0.2185662272","0.3648023512","","","","","","","","","","74","J","1","","","145","main_expt",""
"","bandit","226","732492","0.0-187.0-0.0","25464157","wem/bandit_party_1","A20X14OMRL0YPZ","either","3","362","","","","","","","0","0","1","0.2321266643","","0.2","0.4","0.8","0.6","","","","","0.1549520657","0.2321266643","0.2209315791","0.3450315","","","","","","","","","","74","J","1","","","146","main_expt",""
"","bandit","227","734043","0.0-188.0-0.0","25464157","wem/bandit_party_1","A20X14OMRL0YPZ","either","3","39","","","","","","","0","0","1","0.2889766311","","0.2","0.4","0.8","0.6","","","","","0.1469310363","0.3159383216","0.2889766311","0.2720321141","","","","","","","","","","75","K","2","","","147","main_expt",""
"","bandit","228","736248","0.0-189.0-0.0","25464157","wem/bandit_party_1","A20X14OMRL0YPZ","either","3","696","","","","","","","1","0","0","0.2859466156","","0.2","0.4","0.8","0.6","","","","","0.1332828417","0.2673485129","0.2859466156","0.2598972664","","","","","","","","","","75","K","2","","","148","main_expt",""
"","bandit","229","740308","0.0-190.0-0.0","25464157","wem/bandit_party_1","A20X14OMRL0YPZ","either","3","2549","","","","","","","0","0","1","","0.2343157719","0.2","0.4","0.8","0.6","0.1102010463","0.3348600541","0.2588478233","0.2343157719","","","","","","","","","","","","","","76","L","3","","","149","main_expt",""
"","bandit","230","742135","0.0-191.0-0.0","25464157","wem/bandit_party_1","A20X14OMRL0YPZ","either","3","320","","","","","","","0","0","1","0.2451363599","","0.2","0.4","0.8","0.6","","","","","0.1356103494","0.3659656834","0.2224653457","0.2451363599","","","","","","","","","","76","L","3","","","150","main_expt",""
"","bandit","231","744135","0.0-192.0-0.0","25464157","wem/bandit_party_1","A20X14OMRL0YPZ","either","3","490","","","","","","","0","0","1","","0.2053737132","0.2","0.4","0.8","0.6","0.1621229287","0.36397653","0.2387237716","0.2053737132","","","","","","","","","","","","","","76","L","3","","","151","main_expt",""
"","bandit","232","745783","0.0-193.0-0.0","25464157","wem/bandit_party_1","A20X14OMRL0YPZ","either","3","143","","","","","","","1","0","0","0.2519133504","","0.2","0.4","0.8","0.6","","","","","0.1412745606","0.3710672623","0.2519133504","0.2396242378","","","","","","","","","","75","K","2","","","152","main_expt",""
"","bandit","233","749488","0.0-194.0-0.0","25464157","wem/bandit_party_1","A20X14OMRL0YPZ","either","3","2198","","","","","","","0","0","1","0.3078499427","","0.2","0.4","0.8","0.6","","","","","0.1707580034","0.3828607765","0.3078499427","0.2923277395","","","","","","","","","","75","K","2","","","153","main_expt",""
"","bandit","234","752591","0.0-195.0-0.0","25464157","wem/bandit_party_1","A20X14OMRL0YPZ","either","3","1593","","","","","","","0","0","1","","0.3283820497","0.2","0.4","0.8","0.6","0.1717455462","0.3526468527","0.3283820497","0.3166515581","","","","","","","","","","","","","","75","K","2","","","154","main_expt",""
"","bandit","235","755343","0.0-196.0-0.0","25464157","wem/bandit_party_1","A20X14OMRL0YPZ","either","3","1244","","","","","","","0","1","0","","0.3865981945","0.2","0.4","0.8","0.6","0.1785539081","0.3865981945","0.3303057687","0.3194616596","","","","","","","","","","","","","","74","J","1","","","155","main_expt",""
"","bandit","236","757188","0.0-197.0-0.0","25464157","wem/bandit_party_1","A20X14OMRL0YPZ","either","3","338","","","","","","","0","0","1","","0.4328422877","0.2","0.4","0.8","0.6","0.2175815231","0.4328422877","0.3178912443","0.3767011333","","","","","","","","","","","","","","74","J","1","","","156","main_expt",""
"","bandit","237","759131","0.0-198.0-0.0","25464157","wem/bandit_party_1","A20X14OMRL0YPZ","either","3","435","","","","","","","0","0","1","","0.4224906378","0.2","0.4","0.8","0.6","0.216674397","0.4224906378","0.3236874272","0.3853144204","","","","","","","","","","","","","","74","J","1","","","157","main_expt",""
"","bandit","238","762394","0.0-199.0-0.0","25464157","wem/bandit_party_1","A20X14OMRL0YPZ","either","3","1756","","","","","","","0","0","1","0.4428847078","","0.2","0.4","0.8","0.6","","","","","0.2184316938","0.4428847078","0.3731337511","0.3519128793","","","","","","","","","","74","J","1","","","158","main_expt",""
"","bandit","239","764368","0.0-200.0-0.0","25464157","wem/bandit_party_1","A20X14OMRL0YPZ","either","3","466","","","","","","","1","0","0","0.4498083842","","0.2","0.4","0.8","0.6","","","","","0.2603966468","0.4498083842","0.3758107074","0.3255157266","","","","","","","","","","74","J","1","","","159","main_expt",""
"","bandit","240","767811","0.0-201.0-0.0","25464157","wem/bandit_party_1","A20X14OMRL0YPZ","either","3","1935","","","","","","","0","0","1","0.4319550234","","0.2","0.4","0.8","0.6","","","","","0.2242017374","0.4319550234","0.3494215766","0.379238532","","","","","","","","","","74","J","1","","","160","main_expt",""
"","bandit","241","770519","0.0-202.0-0.0","25464157","wem/bandit_party_1","A20X14OMRL0YPZ","either","3","1199","","","","","","","0","0","1","","0.4417514389","0.2","0.4","0.8","0.6","0.2014027125","0.4417514389","0.3327111917","0.3776335756","","","","","","","","","","","","","","74","J","1","","","161","main_expt",""
"","bandit","242","772614","0.0-203.0-0.0","25464157","wem/bandit_party_1","A20X14OMRL0YPZ","either","3","588","","","","","","","0","1","0","","0.4081293495","0.2","0.4","0.8","0.6","0.2038621466","0.4081293495","0.3171011618","0.2955751891","","","","","","","","","","","","","","74","J","1","","","162","main_expt",""
"","bandit","243","775160","0.0-204.0-0.0","25464157","wem/bandit_party_1","A20X14OMRL0YPZ","either","3","1040","","","","","","","1","0","0","0.4265776113","","0.2","0.4","0.8","0.6","","","","","0.1238136799","0.4265776113","0.364183239","0.30851492","","","","","","","","","","74","J","1","","","163","main_expt",""
"","bandit","244","777830","0.0-205.0-0.0","25464157","wem/bandit_party_1","A20X14OMRL0YPZ","either","3","1164","","","","","","","0","0","1","","0.427472809","0.2","0.4","0.8","0.6","0.1104941302","0.427472809","0.3917374524","0.3074756362","","","","","","","","","","","","","","74","J","1","","","164","main_expt",""
"","bandit","245","780732","0.0-206.0-0.0","25464157","wem/bandit_party_1","A20X14OMRL0YPZ","either","3","1392","","","","","","","0","0","1","","0.4016343469","0.2","0.4","0.8","0.6","0.1099358877","0.4016343469","0.3629360172","0.2743039079","","","","","","","","","","","","","","74","J","1","","","165","main_expt",""
"","bandit","246","783130","0.0-207.0-0.0","25464157","wem/bandit_party_1","A20X14OMRL0YPZ","either","3","890","","","","","","","0","0","1","","0.3578169927","0.2","0.4","0.8","0.6","0.08082918558","0.3578169927","0.3697042915","0.2900226329","","","","","","","","","","","","","","74","J","1","","","166","main_expt",""
"","bandit","247","785088","0.0-208.0-0.0","25464157","wem/bandit_party_1","A20X14OMRL0YPZ","either","3","450","","","","","","","0","0","1","0.3346076013","","0.2","0.4","0.8","0.6","","","","","0.08539074978","0.3346076013","0.3626443337","0.3444017494","","","","","","","","","","74","J","1","","","167","main_expt",""
"","bandit","248","786987","0.0-209.0-0.0","25464157","wem/bandit_party_1","A20X14OMRL0YPZ","either","3","391","","","","","","","0","1","0","","0.1307687804","0.2","0.4","0.8","0.6","0.1307687804","0.36326211","0.3488380128","0.3934904689","","","","","","","","","","","","","","72","H","0","img/none_selected.jpg","","168","main_expt",""
"","bandit","249","789156","0.0-210.0-0.0","25464157","wem/bandit_party_1","A20X14OMRL0YPZ","either","3","661","","","","","","","0","0","1","","0.09435724838","0.2","0.4","0.8","0.6","0.09435724838","0.3389060657","0.3338465455","0.3712778229","","","","","","","","","","","","","","72","H","0","img/none_selected.jpg","","169","main_expt",""
"","bandit","250","790816","0.0-211.0-0.0","25464157","wem/bandit_party_1","A20X14OMRL0YPZ","either","3","153","","","","","","","0","0","1","","0.09371103674","0.2","0.4","0.8","0.6","0.09371103674","0.3820287301","0.3675902536","0.3348119161","","","","","","","","","","","","","","72","H","0","img/none_selected.jpg","","170","main_expt",""
"","bandit","251","792358","0.0-212.0-0.0","25464157","wem/bandit_party_1","A20X14OMRL0YPZ","either","3","33","","","","","","","0","0","1","0.0912992704","","0.2","0.4","0.8","0.6","","","","","0.0912992704","0.3738350687","0.3663425941","0.3697689907","","","","","","","","","","72","H","0","img/none_selected.jpg","","171","main_expt",""
"","bandit","252","794108","0.0-213.0-0.0","25464157","wem/bandit_party_1","A20X14OMRL0YPZ","either","3","241","","","","","","","0","0","1","","0.1053216192","0.2","0.4","0.8","0.6","0.1053216192","0.3449486646","0.3571019768","0.3438364448","","","","","","","","","","","","","","72","H","0","img/none_selected.jpg","","172","main_expt",""
"","bandit","253","795704","0.0-214.0-0.0","25464157","wem/bandit_party_1","A20X14OMRL0YPZ","either","3","89","","","","","","","1","0","0","0.383943734","","0.2","0.4","0.8","0.6","","","","","0.1119971747","0.3754463001","0.383943734","0.4064517123","","","","","","","","","","75","K","2","","","173","main_expt",""
"","bandit","254","797792","0.0-215.0-0.0","25464157","wem/bandit_party_1","A20X14OMRL0YPZ","either","3","577","","","","","","","1","0","0","0.378453819","","0.2","0.4","0.8","0.6","","","","","0.1049574405","0.3983783957","0.378453819","0.4266345201","","","","","","","","","","75","K","2","","","174","main_expt",""
"","bandit","255","799749","0.0-216.0-0.0","25464157","wem/bandit_party_1","A20X14OMRL0YPZ","either","3","450","","","","","","","0","0","1","0.3577460836","","0.2","0.4","0.8","0.6","","","","","0.07351671593","0.4176958341","0.3577460836","0.4413212306","","","","","","","","","","75","K","2","","","175","main_expt",""
"","bandit","256","801904","0.0-217.0-0.0","25464157","wem/bandit_party_1","A20X14OMRL0YPZ","either","3","648","","","","","","","0","0","1","0.3346789668","","0.2","0.4","0.8","0.6","","","","","0.06097876817","0.4336280271","0.3346789668","0.438548454","","","","","","","","","","75","K","2","","","176","main_expt",""
"","bandit","257","803785","0.0-218.0-0.0","25464157","wem/bandit_party_1","A20X14OMRL0YPZ","either","3","372","","","","","","","1","0","0","0.3863917124","","0.2","0.4","0.8","0.6","","","","","0.05873143133","0.3863917124","0.3720341948","0.4350726265","","","","","","","","","","74","J","1","","","177","main_expt",""
"","bandit","258","806336","0.0-219.0-0.0","25464157","wem/bandit_party_1","A20X14OMRL0YPZ","either","3","1042","","","","","","","0","0","1","","0.3826512014","0.2","0.4","0.8","0.6","0.07829718294","0.3826512014","0.4243236705","0.4029859975","","","","","","","","","","","","","","74","J","1","","","178","main_expt",""
"","bandit","259","808398","0.0-220.0-0.0","25464157","wem/bandit_party_1","A20X14OMRL0YPZ","either","3","553","","","","","","","0","1","0","","0.3681046487","0.2","0.4","0.8","0.6","0.05868413977","0.3681046487","0.4396564102","0.3738585124","","","","","","","","","","","","","","74","J","1","","","179","main_expt",""
"","bandit","260","810856","0.0-221.0-0.0","25464157","wem/bandit_party_1","A20X14OMRL0YPZ","either","3","949","","","","","","","0","0","1","","0.374340785","0.2","0.4","0.8","0.6","0.04540529238","0.374340785","0.4501825932","0.3884150149","","","","","","","","","","","","","","74","J","1","","","180","main_expt",""
"","bandit","261","812504","0.0-222.0-0.0","25464157","wem/bandit_party_1","A20X14OMRL0YPZ","either","3","138","","","","","","","0","0","1","","0.04810206047","0.2","0.4","0.8","0.6","0.04810206047","0.3844034803","0.4527537228","0.3977335033","","","","","","","","","","","","","","72","H","0","img/none_selected.jpg","","181","main_expt",""
"","bandit","262","814800","0.0-223.0-0.0","25464157","wem/bandit_party_1","A20X14OMRL0YPZ","either","3","787","","","","","","","0","0","1","","0.0564969073","0.2","0.4","0.8","0.6","0.0564969073","0.3569363444","0.4733821952","0.4194204302","","","","","","","","","","","","","","72","H","0","img/none_selected.jpg","","182","main_expt",""
"","bandit","263","816550","0.0-224.0-0.0","25464157","wem/bandit_party_1","A20X14OMRL0YPZ","either","3","239","","","","","","","0","1","0","","0.4741352064","0.2","0.4","0.8","0.6","0.06674959941","0.3930074682","0.4741352064","0.4050300101","","","","","","","","","","","","","","75","K","2","","","183","main_expt",""
"","bandit","264","818488","0.0-225.0-0.0","25464157","wem/bandit_party_1","A20X14OMRL0YPZ","either","3","429","","","","","","","0","1","0","","0.4835015011","0.2","0.4","0.8","0.6","0.05730522946","0.4105724965","0.4835015011","0.4272992256","","","","","","","","","","","","","","75","K","2","","","184","main_expt",""
"","bandit","265","821563","0.0-226.0-0.0","25464157","wem/bandit_party_1","A20X14OMRL0YPZ","either","3","1567","","","","","","","1","0","0","0.4907566516","","0.2","0.4","0.8","0.6","","","","","0.0759668512","0.4230276401","0.4907566516","0.4213026748","","","","","","","","","","75","K","2","","","185","main_expt",""
"","bandit","266","823777","0.0-227.0-0.0","25464157","wem/bandit_party_1","A20X14OMRL0YPZ","either","3","703","","","","","","","0","1","0","","0.4777100538","0.2","0.4","0.8","0.6","0.0736669194","0.4243078066","0.4777100538","0.3729626057","","","","","","","","","","","","","","75","K","2","","","186","main_expt",""
"","bandit","267","826902","0.0-228.0-0.0","25464157","wem/bandit_party_1","A20X14OMRL0YPZ","either","3","1615","","","","","","","0","0","1","0.4751658893","","0.2","0.4","0.8","0.6","","","","","0.1020870739","0.419104652","0.4751658893","0.4022080601","","","","","","","","","","75","K","2","","","187","main_expt",""
"","bandit","268","828953","0.0-229.0-0.0","25464157","wem/bandit_party_1","A20X14OMRL0YPZ","either","3","540","","","","","","","1","0","0","0.4711403756","","0.2","0.4","0.8","0.6","","","","","0.110066606","0.3917910895","0.4711403756","0.4218987807","","","","","","","","","","75","K","2","","","188","main_expt",""
"","bandit","269","831052","0.0-230.0-0.0","25464157","wem/bandit_party_1","A20X14OMRL0YPZ","either","3","590","","","","","","","1","0","0","0.4848283219","","0.2","0.4","0.8","0.6","","","","","0.1616324423","0.3696037293","0.4848283219","0.4284519853","","","","","","","","","","75","K","2","","","189","main_expt",""
"","bandit","270","832980","0.0-231.0-0.0","25464157","wem/bandit_party_1","A20X14OMRL0YPZ","either","3","416","","","","","","","1","0","0","0.4906713727","","0.2","0.4","0.8","0.6","","","","","0.1401199573","0.3722688899","0.4906713727","0.4104863902","","","","","","","","","","75","K","2","","","190","main_expt",""
"","bandit","271","835607","0.0-232.0-0.0","25464157","wem/bandit_party_1","A20X14OMRL0YPZ","either","3","1119","","","","","","","1","0","0","0.4944082075","","0.2","0.4","0.8","0.6","","","","","0.1782786715","0.3956575009","0.4944082075","0.4071825693","","","","","","","","","","75","K","2","","","191","main_expt",""
"","bandit","272","837946","0.0-233.0-0.0","25464157","wem/bandit_party_1","A20X14OMRL0YPZ","either","3","831","","","","","","","1","0","0","0.4922337742","","0.2","0.4","0.8","0.6","","","","","0.203517815","0.3843500594","0.4922337742","0.4172763132","","","","","","","","","","75","K","2","","","192","main_expt",""
"","bandit","273","839821","0.0-234.0-0.0","25464157","wem/bandit_party_1","A20X14OMRL0YPZ","either","3","367","","","","","","","1","0","0","0.4887356563","","0.2","0.4","0.8","0.6","","","","","0.172030281","0.3801723293","0.4887356563","0.3965334946","","","","","","","","","","75","K","2","","","193","main_expt",""
"","bandit","274","842129","0.0-235.0-0.0","25464157","wem/bandit_party_1","A20X14OMRL0YPZ","either","3","799","","","","","","","1","0","0","0.4850955297","","0.2","0.4","0.8","0.6","","","","","0.1813301739","0.3871645121","0.4850955297","0.383316574","","","","","","","","","","75","K","2","","","194","main_expt",""
"","bandit","275","845484","0.0-236.0-0.0","25464157","wem/bandit_party_1","A20X14OMRL0YPZ","either","3","1848","","","","","","","0","0","1","0.4848341758","","0.2","0.4","0.8","0.6","","","","","0.2284295163","0.3633903175","0.4848341758","0.3965345796","","","","","","","","","","75","K","2","","","195","main_expt",""
"","bandit","276","847363","0.0-237.0-0.0","25464157","wem/bandit_party_1","A20X14OMRL0YPZ","either","3","371","","","","","","","0","0","1","","0.490049139","0.2","0.4","0.8","0.6","0.2501246714","0.3811675741","0.490049139","0.3978469093","","","","","","","","","","","","","","75","K","2","","","196","main_expt",""
"","bandit","277","849760","0.0-238.0-0.0","25464157","wem/bandit_party_1","A20X14OMRL0YPZ","either","3","887","","","","","","","1","0","0","0.4912643012","","0.2","0.4","0.8","0.6","","","","","0.3150809007","0.3487868089","0.4912643012","0.3172926233","","","","","","","","","","75","K","2","","","197","main_expt",""
"","bandit","278","851871","0.0-239.0-0.0","25464157","wem/bandit_party_1","A20X14OMRL0YPZ","either","3","601","","","","","","","1","0","0","0.4793615714","","0.2","0.4","0.8","0.6","","","","","0.3442077965","0.2986771554","0.4793615714","0.3113170709","","","","","","","","","","75","K","2","","","198","main_expt",""
"","bandit","279","854530","0.0-240.0-0.0","25464157","wem/bandit_party_1","A20X14OMRL0YPZ","either","3","1151","","","","","","","0","0","1","0.4661622676","","0.2","0.4","0.8","0.6","","","","","0.3675051223","0.3481418533","0.4661622676","0.3066116159","","","","","","","","","","75","K","2","","","199","main_expt",""
"","bandit","280","856335","0.0-241.0-0.0","25464157","wem/bandit_party_1","A20X14OMRL0YPZ","either","3","297","","","","","","","0","0","1","0.4479238565","","0.2","0.4","0.8","0.6","","","","","0.3044821291","0.353319573","0.4479238565","0.2521122026","","","","","","","","","","75","K","2","","","200","main_expt",""
"","bandit","281","858114","0.0-242.0-0.0","25464157","wem/bandit_party_1","A20X14OMRL0YPZ","either","3","271","","","","","","","0","0","1","0.4429166455","","0.2","0.4","0.8","0.6","","","","","0.3013824411","0.3676338631","0.4429166455","0.2679963248","","","","","","","","","","75","K","2","","","201","main_expt",""
"","bandit","282","860004","0.0-243.0-0.0","25464157","wem/bandit_party_1","A20X14OMRL0YPZ","either","3","380","","","","","","","0","0","1","0.442820363","","0.2","0.4","0.8","0.6","","","","","0.3001954661","0.311657493","0.442820363","0.2076546236","","","","","","","","","","75","K","2","","","202","main_expt",""
"","bandit","283","861783","0.0-244.0-0.0","25464157","wem/bandit_party_1","A20X14OMRL0YPZ","either","3","269","","","","","","","0","0","1","","0.3364041998","0.2","0.4","0.8","0.6","0.3189156814","0.3364041998","0.4539008368","0.1881707852","","","","","","","","","","","","","","74","J","1","","","203","main_expt",""
"","bandit","284","863315","0.0-245.0-0.0","25464157","wem/bandit_party_1","A20X14OMRL0YPZ","either","3","24","","","","","","","0","0","1","","0.3162062407","0.2","0.4","0.8","0.6","0.3162062407","0.3148670147","0.4163307037","0.2057853427","","","","","","","","","","","","","","72","H","0","img/none_selected.jpg","","204","main_expt",""
"","bandit","285","865309","0.0-246.0-0.0","25464157","wem/bandit_party_1","A20X14OMRL0YPZ","either","3","485","","","","","","","0","1","0","","0.347278619","0.2","0.4","0.8","0.6","0.347278619","0.3293187519","0.4045388199","0.2564451259","","","","","","","","","","","","","","72","H","0","img/none_selected.jpg","","205","main_expt",""
"","bandit","286","867297","0.0-247.0-0.0","25464157","wem/bandit_party_1","A20X14OMRL0YPZ","either","3","480","","","","","","","0","0","1","0.2970129147","","0.2","0.4","0.8","0.6","","","","","0.2970129147","0.2705077244","0.4083422121","0.3082896296","","","","","","","","","","72","H","0","img/none_selected.jpg","","206","main_expt",""
"","bandit","287","869100","0.0-248.0-0.0","25464157","wem/bandit_party_1","A20X14OMRL0YPZ","either","3","296","","","","","","","0","0","1","","0.3331481178","0.2","0.4","0.8","0.6","0.3331481178","0.3083591011","0.4033585138","0.3235103938","","","","","","","","","","","","","","72","H","0","img/none_selected.jpg","","207","main_expt",""
"","bandit","288","870942","0.0-249.0-0.0","25464157","wem/bandit_party_1","A20X14OMRL0YPZ","either","3","333","","","","","","","0","0","1","0.3195917859","","0.2","0.4","0.8","0.6","","","","","0.3195917859","0.2489273718","0.3753320851","0.3563539536","","","","","","","","","","72","H","0","img/none_selected.jpg","","208","main_expt",""
"","bandit","289","872719","0.0-250.0-0.0","25464157","wem/bandit_party_1","A20X14OMRL0YPZ","either","3","270","","","","","","","0","0","1","0.3821305916","","0.2","0.4","0.8","0.6","","","","","0.3642345195","0.2224321457","0.3864970555","0.3821305916","","","","","","","","","","76","L","3","","","209","main_expt",""
"","bandit","290","874546","0.0-251.0-0.0","25464157","wem/bandit_party_1","A20X14OMRL0YPZ","either","3","316","","","","","","","1","0","0","0.4067483812","","0.2","0.4","0.8","0.6","","","","","0.3518797164","0.2184729634","0.3894881908","0.4067483812","","","","","","","","","","76","L","3","","","210","main_expt",""
"","bandit","291","876332","0.0-252.0-0.0","25464157","wem/bandit_party_1","A20X14OMRL0YPZ","either","3","280","","","","","","","0","0","1","","0.376825818","0.2","0.4","0.8","0.6","0.3781537602","0.2178464352","0.4052823736","0.376825818","","","","","","","","","","","","","","76","L","3","","","211","main_expt",""
"","bandit","292","878532","0.0-253.0-0.0","25464157","wem/bandit_party_1","A20X14OMRL0YPZ","either","3","691","","","","","","","0","0","1","","0.3481764155","0.2","0.4","0.8","0.6","0.3773353051","0.1644702768","0.3783189977","0.3481764155","","","","","","","","","","","","","","76","L","3","","","212","main_expt",""
"","bandit","293","880124","0.0-254.0-0.0","25464157","wem/bandit_party_1","A20X14OMRL0YPZ","either","3","84","","","","","","","0","0","1","","0.1271660564","0.2","0.4","0.8","0.6","0.3448860985","0.1271660564","0.3804187243","0.3239198888","","","","","","","","","","","","","","74","J","1","","","213","main_expt",""
"","bandit","294","882013","0.0-255.0-0.0","25464157","wem/bandit_party_1","A20X14OMRL0YPZ","either","3","381","","","","","","","0","0","1","","0.1368129038","0.2","0.4","0.8","0.6","0.3622000499","0.1368129038","0.3964056757","0.3592643085","","","","","","","","","","","","","","74","J","1","","","214","main_expt",""
"","bandit","295","883811","0.0-256.0-0.0","25464157","wem/bandit_party_1","A20X14OMRL0YPZ","either","3","290","","","","","","","0","0","1","0.07615368859","","0.2","0.4","0.8","0.6","","","","","0.3408682726","0.07615368859","0.3939862607","0.3482739819","","","","","","","","","","74","J","1","","","215","main_expt",""
"","bandit","296","885878","0.0-257.0-0.0","25464157","wem/bandit_party_1","A20X14OMRL0YPZ","either","3","559","","","","","","","0","0","1","0.07711559412","","0.2","0.4","0.8","0.6","","","","","0.328819006","0.07711559412","0.4062496234","0.2972527025","","","","","","","","","","74","J","1","","","216","main_expt",""
"","bandit","297","887736","0.0-258.0-0.0","25464157","wem/bandit_party_1","A20X14OMRL0YPZ","either","3","352","","","","","","","0","0","1","0.3440498305","","0.2","0.4","0.8","0.6","","","","","0.3229374792","0.07728173513","0.3440498305","0.2850944341","","","","","","","","","","75","K","2","","","217","main_expt",""
"","bandit","298","889659","0.0-259.0-0.0","25464157","wem/bandit_party_1","A20X14OMRL0YPZ","either","3","412","","","","","","","0","0","1","0.3198020565","","0.2","0.4","0.8","0.6","","","","","0.3616220652","0.07919919155","0.3198020565","0.2483413171","","","","","","","","","","75","K","2","","","218","main_expt",""
"","bandit","299","891541","0.0-260.0-0.0","25464157","wem/bandit_party_1","A20X14OMRL0YPZ","either","3","372","","","","","","","0","0","1","0.3078290176","","0.2","0.4","0.8","0.6","","","","","0.3591176528","0.1270410367","0.3078290176","0.2680513607","","","","","","","","","","75","K","2","","","219","main_expt",""
"","bandit","300","893435","0.0-261.0-0.0","25464157","wem/bandit_party_1","A20X14OMRL0YPZ","either","3","383","","","","","","","0","0","1","0.2961895162","","0.2","0.4","0.8","0.6","","","","","0.2758994579","0.1117499599","0.2961895162","0.304668496","","","","","","","","","","75","K","2","","","220","main_expt",""
"","bandit","301","895332","0.0-262.0-0.0","25464157","wem/bandit_party_1","A20X14OMRL0YPZ","either","3","387","","","","","","","0","0","1","0.2773284289","","0.2","0.4","0.8","0.6","","","","","0.3119987931","0.1186324211","0.2658603678","0.2773284289","","","","","","","","","","76","L","3","","","221","main_expt",""
"","bandit","302","897145","0.0-263.0-0.0","25464157","wem/bandit_party_1","A20X14OMRL0YPZ","either","3","306","","","","","","","1","0","0","0.2152506718","","0.2","0.4","0.8","0.6","","","","","0.3106374463","0.1141050397","0.274695037","0.2152506718","","","","","","","","","","76","L","3","","","222","main_expt",""
"","bandit","303","898976","0.0-264.0-0.0","25464157","wem/bandit_party_1","A20X14OMRL0YPZ","either","3","321","","","","","","","0","1","0","","0.2445797097","0.2","0.4","0.8","0.6","0.3131570504","0.1007228699","0.2210940289","0.2445797097","","","","","","","","","","","","","","76","L","3","","","223","main_expt",""
"","bandit","304","900847","0.0-265.0-0.0","25464157","wem/bandit_party_1","A20X14OMRL0YPZ","either","3","363","","","","","","","0","0","1","0.2559263424","","0.2","0.4","0.8","0.6","","","","","0.3025994915","0.1380584308","0.1843933297","0.2559263424","","","","","","","","","","76","L","3","","","224","main_expt",""
"","bandit","305","903102","0.0-266.0-0.0","25464157","wem/bandit_party_1","A20X14OMRL0YPZ","either","3","746","","","","","","","0","0","1","0.2702522324","","0.2","0.4","0.8","0.6","","","","","0.2994132709","0.1393521225","0.212211923","0.2702522324","","","","","","","","","","76","L","3","","","225","main_expt",""
"","bandit","306","905107","0.0-267.0-0.0","25464157","wem/bandit_party_1","A20X14OMRL0YPZ","either","3","494","","","","","","","0","0","1","","0.2646860425","0.2","0.4","0.8","0.6","0.2866794375","0.2094269877","0.2315036379","0.2646860425","","","","","","","","","","","","","","76","L","3","","","226","main_expt",""
"","bandit","307","907158","0.0-268.0-0.0","25464157","wem/bandit_party_1","A20X14OMRL0YPZ","either","3","539","","","","","","","0","0","1","","0.269556559","0.2","0.4","0.8","0.6","0.2299222882","0.2959232149","0.2646353212","0.269556559","","","","","","","","","","","","","","76","L","3","","","227","main_expt",""
"","bandit","308","909187","0.0-269.0-0.0","25464157","wem/bandit_party_1","A20X14OMRL0YPZ","either","3","519","","","","","","","0","0","1","","0.2498152532","0.2","0.4","0.8","0.6","0.2991813551","0.374355758","0.2443517867","0.2498152532","","","","","","","","","","","","","","76","L","3","","","228","main_expt",""
"","bandit","309","911157","0.0-270.0-0.0","25464157","wem/bandit_party_1","A20X14OMRL0YPZ","either","3","459","","","","","","","0","0","1","","0.3295538921","0.2","0.4","0.8","0.6","0.3295538921","0.3876740502","0.2569692975","0.2495566458","","","","","","","","","","","","","","72","H","0","img/none_selected.jpg","","229","main_expt",""
"","bandit","310","913129","0.0-271.0-0.0","25464157","wem/bandit_party_1","A20X14OMRL0YPZ","either","3","465","","","","","","","0","1","0","","0.2713593359","0.2","0.4","0.8","0.6","0.2713593359","0.3341674595","0.2490290172","0.2134382902","","","","","","","","","","","","","","72","H","0","img/none_selected.jpg","","230","main_expt",""
"","bandit","311","915032","0.0-272.0-0.0","25464157","wem/bandit_party_1","A20X14OMRL0YPZ","either","3","396","","","","","","","0","1","0","","0.2746975787","0.2","0.4","0.8","0.6","0.2746975787","0.3558281537","0.2368643707","0.2099205747","","","","","","","","","","","","","","72","H","0","img/none_selected.jpg","","231","main_expt",""
"","bandit","312","917052","0.0-273.0-0.0","25464157","wem/bandit_party_1","A20X14OMRL0YPZ","either","3","512","","","","","","","0","1","0","","0.2817934899","0.2","0.4","0.8","0.6","0.2817934899","0.3293076861","0.2857324616","0.1598609145","","","","","","","","","","","","","","72","H","0","img/none_selected.jpg","","232","main_expt",""
"","bandit","313","918998","0.0-274.0-0.0","25464157","wem/bandit_party_1","A20X14OMRL0YPZ","either","3","432","","","","","","","0","0","1","","0.3139736629","0.2","0.4","0.8","0.6","0.3139736629","0.3271309306","0.226619475","0.1472569172","","","","","","","","","","","","","","72","H","0","img/none_selected.jpg","","233","main_expt",""
"","bandit","314","920996","0.0-275.0-0.0","25464157","wem/bandit_party_1","A20X14OMRL0YPZ","either","3","492","","","","","","","0","0","1","0.3332560948","","0.2","0.4","0.8","0.6","","","","","0.3332560948","0.3510228885","0.2448251662","0.1123375355","","","","","","","","","","72","H","0","img/none_selected.jpg","","234","main_expt",""
"","bandit","315","923343","0.0-276.0-0.0","25464157","wem/bandit_party_1","A20X14OMRL0YPZ","either","3","837","","","","","","","0","1","0","","0.3475281657","0.2","0.4","0.8","0.6","0.3475281657","0.3346663699","0.2996798263","0.1562424728","","","","","","","","","","","","","","72","H","0","img/none_selected.jpg","","235","main_expt",""
"","bandit","316","925678","0.0-277.0-0.0","25464157","wem/bandit_party_1","A20X14OMRL0YPZ","either","3","826","","","","","","","1","0","0","0.3170984437","","0.2","0.4","0.8","0.6","","","","","0.3170984437","0.332043614","0.3220329496","0.1623269298","","","","","","","","","","72","H","0","img/none_selected.jpg","","236","main_expt",""
