"consent","trial_type","trial_index","time_elapsed","internal_node_id","subjID","study","MID","cond","drift","rt","responses","button_pressed","key_press","like","value","connected","gems","bombs","no_reward","GemPrChosen","BombPrChosen","GainOverPainPr_0","GainOverPainPr_1","GainOverPainPr_2","GainOverPainPr_3","LosePr_0","LosePr_1","LosePr_2","LosePr_3","WinPr_0","WinPr_1","WinPr_2","WinPr_3","Q0","Q1","Q2","gender","age","ethnicity","label","expt_phase","target","respCharCode","respKey","respChoiceNum","respChoice","practice","trial_counter","trial_label","Q0_index","view_history"
"GDM/GDM_behavioral_consent_30min_online.html","consent","0","7520","0.0-0.0","26726497","wem/bandit_party_1","APF1EAZT104LQ","either","3","","","","","","","","","","","","","","","","","","","","","","","","","","","","","","","","","","","","","","","","","",""
"","survey-text","1","11430","0.0-1.0","26726497","wem/bandit_party_1","APF1EAZT104LQ","either","3","2880","{""Q0"":""APF1EAZT104LQ""}","","","","","","","","","","","","","","","","","","","","","","","","","","","","","","","","","","","","","","","",""
"","button-response","2","23337","0.0-2.0","26726497","wem/bandit_party_1","APF1EAZT104LQ","either","3","10883","","1","","","","","","","","","","","","","","","","","","","","","","","","","","","","","","","","","","","","","","",""
"","text-replacement","3","30031","0.0-3.0","26726497","wem/bandit_party_1","APF1EAZT104LQ","either","3","5679","","","32","","","","","","","","","","","","","","","","","","","","","","","","","","","","","","","","","","","","","",""
"","text-replacement","4","32067","0.0-4.0","26726497","wem/bandit_party_1","APF1EAZT104LQ","either","3","2026","","","32","","","","","","","","","","","","","","","","","","","","","","","","","","","","","","","","","","","","","",""
"","identification","5","35806","0.0-6.0-0.0","26726497","wem/bandit_party_1","APF1EAZT104LQ","either","3","3667","","","","3","2","3","","","","","","","","","","","","","","","","","","","","","","","","pre","identification_pre","the Republican party","","","","","","","","",""
"","identification","6","40430","0.0-6.0-1.0","26726497","wem/bandit_party_1","APF1EAZT104LQ","either","3","3558","","","","2","3","4","","","","","","","","","","","","","","","","","","","","","","","","pre","identification_pre","the Democratic Party","","","","","","","","",""
"","text-replacement","7","45869","0.0-7.0","26726497","wem/bandit_party_1","APF1EAZT104LQ","either","3","4431","","","32","","","","","","","","","","","","","","","","","","","","","","","","","","","","","","","","","","","","","",""
"","text-replacement","8","46639","0.0-8.0","26726497","wem/bandit_party_1","APF1EAZT104LQ","either","3","748","","","32","","","","","","","","","","","","","","","","","","","","","","","","","","","","","","","","","","","","","",""
"","text-replacement","9","48225","0.0-9.0","26726497","wem/bandit_party_1","APF1EAZT104LQ","either","3","1576","","","32","","","","","","","","","","","","","","","","","","","","","","","","","","","","","","","","","","","","","",""
"","text-replacement","10","50035","0.0-10.0","26726497","wem/bandit_party_1","APF1EAZT104LQ","either","3","1804","","","32","","","","","","","","","","","","","","","","","","","","","","","","","","","","","","","","","","","","","",""
"","text-replacement","11","51673","0.0-11.0","26726497","wem/bandit_party_1","APF1EAZT104LQ","either","3","1632","","","32","","","","","","","","","","","","","","","","","","","","","","","","","","","","","","","","","","","","","",""
"","bandit","12","62952","0.0-12.0-0.0","26726497","wem/bandit_party_1","APF1EAZT104LQ","either","3","9750","","","","","","","0","0","1","0","0","","","","","0","","","","0","","","","","","","","","","","","","74","J","0","img/none_selected_demo.jpg","true","0","","",""
"","bandit","13","65216","0.0-13.0-0.0","26726497","wem/bandit_party_1","APF1EAZT104LQ","either","3","739","","","","","","","0","0","1","0","0","","","","","0","","","","0","","","","","","","","","","","","","75","K","0","img/none_selected_demo.jpg","true","0","","",""
"","text-replacement","14","67156","0.0-14.0","26726497","wem/bandit_party_1","APF1EAZT104LQ","either","3","1927","","","32","","","","","","","","","","","","","","","","","","","","","","","","","","","","","","","","","","","","","",""
"","text-replacement","15","67919","0.0-15.0","26726497","wem/bandit_party_1","APF1EAZT104LQ","either","3","755","","","32","","","","","","","","","","","","","","","","","","","","","","","","","","","","","","","","","","","","","",""
"","text-replacement","16","69218","0.0-16.0","26726497","wem/bandit_party_1","APF1EAZT104LQ","either","3","1290","","","32","","","","","","","","","","","","","","","","","","","","","","","","","","","","","","","","","","","","","",""
"","text-replacement","17","69745","0.0-17.0","26726497","wem/bandit_party_1","APF1EAZT104LQ","either","3","516","","","32","","","","","","","","","","","","","","","","","","","","","","","","","","","","","","","","","","","","","",""
"","bandit","18","73108","0.0-18.0-0.0","26726497","wem/bandit_party_1","APF1EAZT104LQ","either","3","1819","","","","","","","0","0","1","","0.2","0.5","0.5","","","0.8","0.2","","","","","","","","","","","","","","","","75","K","1","","true","0","80_20_practice","",""
"","bandit","19","75753","0.0-18.0-1.0","26726497","wem/bandit_party_1","APF1EAZT104LQ","either","3","1121","","","","","","","0","0","1","0.8","","0.5","0.5","","","","","","","0.8","0.2","","","","","","","","","","","","74","J","0","img/none_selected_demo.jpg","true","0","80_20_practice","",""
"","bandit","20","78056","0.0-18.0-2.0","26726497","wem/bandit_party_1","APF1EAZT104LQ","either","3","771","","","","","","","1","0","0","0.2","","0.5","0.5","","","","","","","0.8","0.2","","","","","","","","","","","","75","K","1","","true","0","80_20_practice","",""
"","bandit","21","80325","0.0-18.0-3.0","26726497","wem/bandit_party_1","APF1EAZT104LQ","either","3","737","","","","","","","0","0","1","0.2","","0.5","0.5","","","","","","","0.8","0.2","","","","","","","","","","","","75","K","1","","true","0","80_20_practice","",""
"","bandit","22","82132","0.0-18.0-4.0","26726497","wem/bandit_party_1","APF1EAZT104LQ","either","3","281","","","","","","","0","0","1","0.2","","0.5","0.5","","","","","","","0.8","0.2","","","","","","","","","","","","75","K","1","","true","0","80_20_practice","",""
"","bandit","23","84060","0.0-18.0-5.0","26726497","wem/bandit_party_1","APF1EAZT104LQ","either","3","399","","","","","","","1","0","0","0.2","","0.5","0.5","","","","","","","0.8","0.2","","","","","","","","","","","","75","K","1","","true","0","80_20_practice","",""
"","bandit","24","86065","0.0-18.0-6.0","26726497","wem/bandit_party_1","APF1EAZT104LQ","either","3","485","","","","","","","1","0","0","0.8","","0.5","0.5","","","","","","","0.8","0.2","","","","","","","","","","","","74","J","0","img/none_selected_demo.jpg","true","0","80_20_practice","",""
"","bandit","25","87971","0.0-18.0-7.0","26726497","wem/bandit_party_1","APF1EAZT104LQ","either","3","359","","","","","","","1","0","0","0.8","","0.5","0.5","","","","","","","0.8","0.2","","","","","","","","","","","","74","J","0","img/none_selected_demo.jpg","true","0","80_20_practice","",""
"","bandit","26","89991","0.0-18.0-8.0","26726497","wem/bandit_party_1","APF1EAZT104LQ","either","3","483","","","","","","","0","0","1","0.2","","0.5","0.5","","","","","","","0.8","0.2","","","","","","","","","","","","75","K","1","","true","0","80_20_practice","",""
"","bandit","27","92122","0.0-18.0-9.0","26726497","wem/bandit_party_1","APF1EAZT104LQ","either","3","608","","","","","","","0","0","1","0.2","","0.5","0.5","","","","","","","0.8","0.2","","","","","","","","","","","","75","K","1","","true","0","80_20_practice","",""
"","bandit","28","94005","0.0-18.0-10.0","26726497","wem/bandit_party_1","APF1EAZT104LQ","either","3","356","","","","","","","0","1","0","","0.8","0.5","0.5","","","0.8","0.2","","","","","","","","","","","","","","","","74","J","0","img/none_selected_demo.jpg","true","0","80_20_practice","",""
"","bandit","29","96467","0.0-18.0-11.0","26726497","wem/bandit_party_1","APF1EAZT104LQ","either","3","931","","","","","","","0","0","1","0.2","","0.5","0.5","","","","","","","0.8","0.2","","","","","","","","","","","","75","K","1","","true","0","80_20_practice","",""
"","bandit","30","98950","0.0-18.0-12.0","26726497","wem/bandit_party_1","APF1EAZT104LQ","either","3","949","","","","","","","0","0","1","","0.2","0.5","0.5","","","0.8","0.2","","","","","","","","","","","","","","","","75","K","1","","true","0","80_20_practice","",""
"","bandit","31","101591","0.0-18.0-13.0","26726497","wem/bandit_party_1","APF1EAZT104LQ","either","3","1115","","","","","","","0","0","1","0.2","","0.5","0.5","","","","","","","0.8","0.2","","","","","","","","","","","","75","K","1","","true","0","80_20_practice","",""
"","bandit","32","103417","0.0-18.0-14.0","26726497","wem/bandit_party_1","APF1EAZT104LQ","either","3","295","","","","","","","0","1","0","","0.8","0.5","0.5","","","0.8","0.2","","","","","","","","","","","","","","","","74","J","0","img/none_selected_demo.jpg","true","0","80_20_practice","",""
"","bandit","33","105437","0.0-18.0-15.0","26726497","wem/bandit_party_1","APF1EAZT104LQ","either","3","481","","","","","","","0","1","0","","0.8","0.5","0.5","","","0.8","0.2","","","","","","","","","","","","","","","","74","J","0","img/none_selected_demo.jpg","true","0","80_20_practice","",""
"","bandit","34","107720","0.0-18.0-16.0","26726497","wem/bandit_party_1","APF1EAZT104LQ","either","3","735","","","","","","","0","0","1","","0.8","0.5","0.5","","","0.8","0.2","","","","","","","","","","","","","","","","74","J","0","img/none_selected_demo.jpg","true","0","80_20_practice","",""
"","bandit","35","109911","0.0-18.0-17.0","26726497","wem/bandit_party_1","APF1EAZT104LQ","either","3","666","","","","","","","0","0","1","","0.2","0.5","0.5","","","0.8","0.2","","","","","","","","","","","","","","","","75","K","1","","true","0","80_20_practice","",""
"","bandit","36","111670","0.0-18.0-18.0","26726497","wem/bandit_party_1","APF1EAZT104LQ","either","3","235","","","","","","","1","0","0","0.8","","0.5","0.5","","","","","","","0.8","0.2","","","","","","","","","","","","74","J","0","img/none_selected_demo.jpg","true","0","80_20_practice","",""
"","bandit","37","113507","0.0-18.0-19.0","26726497","wem/bandit_party_1","APF1EAZT104LQ","either","3","317","","","","","","","1","0","0","0.8","","0.5","0.5","","","","","","","0.8","0.2","","","","","","","","","","","","74","J","0","img/none_selected_demo.jpg","true","0","80_20_practice","",""
"","text-replacement","38","115693","0.0-19.0","26726497","wem/bandit_party_1","APF1EAZT104LQ","either","3","2172","","","32","","","","","","","","","","","","","","","","","","","","","","","","","","","","","","","","","","","","","",""
"","bandit","39","118196","0.0-20.0-0.0","26726497","wem/bandit_party_1","APF1EAZT104LQ","either","3","971","","","","","","","0","1","0","0","1","","","","","0","1","","","1","0","","","","","","","","","","","","75","K","1","","true","0","","",""
"","text-replacement","40","118418","0.0-21.0","26726497","wem/bandit_party_1","APF1EAZT104LQ","either","3","213","","","74","","","","","","","","","","","","","","","","","","","","","","","","","","","","","","","","","","","","","",""
"","text-replacement","41","120602","0.0-22.0","26726497","wem/bandit_party_1","APF1EAZT104LQ","either","3","2175","","","32","","","","","","","","","","","","","","","","","","","","","","","","","","","","","","","","","","","","","",""
"","text-replacement","42","121108","0.0-23.0","26726497","wem/bandit_party_1","APF1EAZT104LQ","either","3","495","","","32","","","","","","","","","","","","","","","","","","","","","","","","","","","","","","","","","","","","","",""
"","text-replacement","43","121532","0.0-24.0","26726497","wem/bandit_party_1","APF1EAZT104LQ","either","3","413","","","32","","","","","","","","","","","","","","","","","","","","","","","","","","","","","","","","","","","","","",""
"","text-replacement","44","121955","0.0-25.0","26726497","wem/bandit_party_1","APF1EAZT104LQ","either","3","395","","","32","","","","","","","","","","","","","","","","","","","","","","","","","","","","","","","","","","","","","",""
"","text-replacement","45","122367","0.0-26.0","26726497","wem/bandit_party_1","APF1EAZT104LQ","either","3","401","","","32","","","","","","","","","","","","","","","","","","","","","","","","","","","","","","","","","","","","","",""
"","text-replacement","46","122736","0.0-27.0","26726497","wem/bandit_party_1","APF1EAZT104LQ","either","3","361","","","32","","","","","","","","","","","","","","","","","","","","","","","","","","","","","","","","","","","","","",""
"","text-replacement","47","123348","0.0-28.0","26726497","wem/bandit_party_1","APF1EAZT104LQ","either","3","602","","","32","","","","","","","","","","","","","","","","","","","","","","","","","","","","","","","","","","","","","",""
"","text-replacement","48","123917","0.0-29.0","26726497","wem/bandit_party_1","APF1EAZT104LQ","either","3","560","","","32","","","","","","","","","","","","","","","","","","","","","","","","","","","","","","","","","","","","","",""
"","text-replacement","49","124355","0.0-30.0","26726497","wem/bandit_party_1","APF1EAZT104LQ","either","3","428","","","32","","","","","","","","","","","","","","","","","","","","","","","","","","","","","","","","","","","","","",""
"","text-replacement","50","125434","0.0-31.0","26726497","wem/bandit_party_1","APF1EAZT104LQ","either","3","1071","","","32","","","","","","","","","","","","","","","","","","","","","","","","","","","","","","","","","","","","","",""
"","bandit","51","128523","0.0-32.0-0.0","26726497","wem/bandit_party_1","APF1EAZT104LQ","either","3","1557","","","","","","","0","0","1","0.8","","0.5","0.5","0.5","0.5","","","","","0.8","0.2","0.6","0.2","","","","","","","","","","72","H","0","img/none_selected.jpg","true","0","full_practice","",""
"","bandit","52","130419","0.0-32.0-1.0","26726497","wem/bandit_party_1","APF1EAZT104LQ","either","3","369","","","","","","","0","1","0","","0.6","0.5","0.5","0.5","0.5","0.8","0.2","0.6","0.2","","","","","","","","","","","","","","75","K","2","","true","0","full_practice","",""
"","bandit","53","132340","0.0-32.0-2.0","26726497","wem/bandit_party_1","APF1EAZT104LQ","either","3","389","","","","","","","0","0","1","0.2","","0.5","0.5","0.5","0.5","","","","","0.8","0.2","0.6","0.2","","","","","","","","","","74","J","1","","true","0","full_practice","",""
"","bandit","54","134158","0.0-32.0-3.0","26726497","wem/bandit_party_1","APF1EAZT104LQ","either","3","292","","","","","","","0","0","1","0.2","","0.5","0.5","0.5","0.5","","","","","0.8","0.2","0.6","0.2","","","","","","","","","","76","L","3","","true","0","full_practice","",""
"","bandit","55","135906","0.0-32.0-4.0","26726497","wem/bandit_party_1","APF1EAZT104LQ","either","3","208","","","","","","","0","1","0","","0.8","0.5","0.5","0.5","0.5","0.8","0.2","0.6","0.2","","","","","","","","","","","","","","72","H","0","img/none_selected.jpg","true","0","full_practice","",""
"","bandit","56","137806","0.0-32.0-5.0","26726497","wem/bandit_party_1","APF1EAZT104LQ","either","3","357","","","","","","","0","1","0","","0.8","0.5","0.5","0.5","0.5","0.8","0.2","0.6","0.2","","","","","","","","","","","","","","72","H","0","img/none_selected.jpg","true","0","full_practice","",""
"","bandit","57","139668","0.0-32.0-6.0","26726497","wem/bandit_party_1","APF1EAZT104LQ","either","3","335","","","","","","","0","0","1","0.6","","0.5","0.5","0.5","0.5","","","","","0.8","0.2","0.6","0.2","","","","","","","","","","75","K","2","","true","0","full_practice","",""
"","bandit","58","141556","0.0-32.0-7.0","26726497","wem/bandit_party_1","APF1EAZT104LQ","either","3","365","","","","","","","0","0","1","0.8","","0.5","0.5","0.5","0.5","","","","","0.8","0.2","0.6","0.2","","","","","","","","","","72","H","0","img/none_selected.jpg","true","0","full_practice","",""
"","bandit","59","143564","0.0-32.0-8.0","26726497","wem/bandit_party_1","APF1EAZT104LQ","either","3","478","","","","","","","0","0","1","","0.2","0.5","0.5","0.5","0.5","0.8","0.2","0.6","0.2","","","","","","","","","","","","","","76","L","3","","true","0","full_practice","",""
"","bandit","60","145520","0.0-32.0-9.0","26726497","wem/bandit_party_1","APF1EAZT104LQ","either","3","417","","","","","","","1","0","0","0.6","","0.5","0.5","0.5","0.5","","","","","0.8","0.2","0.6","0.2","","","","","","","","","","75","K","2","","true","0","full_practice","",""
"","bandit","61","150509","0.0-32.0-10.0","26726497","wem/bandit_party_1","APF1EAZT104LQ","either","3","3430","","","","","","","1","0","0","0.6","","0.5","0.5","0.5","0.5","","","","","0.8","0.2","0.6","0.2","","","","","","","","","","75","K","2","","true","0","full_practice","",""
"","bandit","62","152819","0.0-32.0-11.0","26726497","wem/bandit_party_1","APF1EAZT104LQ","either","3","777","","","","","","","0","1","0","","0.8","0.5","0.5","0.5","0.5","0.8","0.2","0.6","0.2","","","","","","","","","","","","","","72","H","0","img/none_selected.jpg","true","0","full_practice","",""
"","bandit","63","155125","0.0-32.0-12.0","26726497","wem/bandit_party_1","APF1EAZT104LQ","either","3","773","","","","","","","1","0","0","0.2","","0.5","0.5","0.5","0.5","","","","","0.8","0.2","0.6","0.2","","","","","","","","","","74","J","1","","true","0","full_practice","",""
"","bandit","64","163084","0.0-32.0-13.0","26726497","wem/bandit_party_1","APF1EAZT104LQ","either","3","6431","","","","","","","1","0","0","0.6","","0.5","0.5","0.5","0.5","","","","","0.8","0.2","0.6","0.2","","","","","","","","","","75","K","2","","true","0","full_practice","",""
"","bandit","65","165473","0.0-32.0-14.0","26726497","wem/bandit_party_1","APF1EAZT104LQ","either","3","858","","","","","","","1","0","0","0.2","","0.5","0.5","0.5","0.5","","","","","0.8","0.2","0.6","0.2","","","","","","","","","","74","J","1","","true","0","full_practice","",""
"","bandit","66","167708","0.0-32.0-15.0","26726497","wem/bandit_party_1","APF1EAZT104LQ","either","3","706","","","","","","","0","0","1","0.2","","0.5","0.5","0.5","0.5","","","","","0.8","0.2","0.6","0.2","","","","","","","","","","76","L","3","","true","0","full_practice","",""
"","bandit","67","169831","0.0-32.0-16.0","26726497","wem/bandit_party_1","APF1EAZT104LQ","either","3","588","","","","","","","0","1","0","","0.8","0.5","0.5","0.5","0.5","0.8","0.2","0.6","0.2","","","","","","","","","","","","","","72","H","0","img/none_selected.jpg","true","0","full_practice","",""
"","bandit","68","171934","0.0-32.0-17.0","26726497","wem/bandit_party_1","APF1EAZT104LQ","either","3","572","","","","","","","1","0","0","0.2","","0.5","0.5","0.5","0.5","","","","","0.8","0.2","0.6","0.2","","","","","","","","","","74","J","1","","true","0","full_practice","",""
"","bandit","69","174014","0.0-32.0-18.0","26726497","wem/bandit_party_1","APF1EAZT104LQ","either","3","553","","","","","","","0","0","1","0.8","","0.5","0.5","0.5","0.5","","","","","0.8","0.2","0.6","0.2","","","","","","","","","","72","H","0","img/none_selected.jpg","true","0","full_practice","",""
"","bandit","70","176216","0.0-32.0-19.0","26726497","wem/bandit_party_1","APF1EAZT104LQ","either","3","673","","","","","","","0","0","1","0.2","","0.5","0.5","0.5","0.5","","","","","0.8","0.2","0.6","0.2","","","","","","","","","","74","J","1","","true","0","full_practice","",""
"","text","71","186638","0.0-33.0","26726497","wem/bandit_party_1","APF1EAZT104LQ","either","3","10378","","","32","","","","","","","","","","","","","","","","","","","","","","","","","","","","","","","","","","","","","",""
"","text-replacement","72","190832","0.0-34.0","26726497","wem/bandit_party_1","APF1EAZT104LQ","either","3","3146","","","32","","","","","","","","","","","","","","","","","","","","","","","","","","","","","","","","","","","","","",""
"","text-replacement","73","198719","0.0-35.0","26726497","wem/bandit_party_1","APF1EAZT104LQ","either","3","7874","","","32","","","","","","","","","","","","","","","","","","","","","","","","","","","","","","","","","","","","","",""
"","text-replacement","74","199131","0.0-36.0","26726497","wem/bandit_party_1","APF1EAZT104LQ","either","3","405","","","32","","","","","","","","","","","","","","","","","","","","","","","","","","","","","","","","","","","","","",""
"","text-replacement","75","199519","0.0-37.0","26726497","wem/bandit_party_1","APF1EAZT104LQ","either","3","377","","","32","","","","","","","","","","","","","","","","","","","","","","","","","","","","","","","","","","","","","",""
"","text-replacement","76","199986","0.0-38.0","26726497","wem/bandit_party_1","APF1EAZT104LQ","either","3","458","","","32","","","","","","","","","","","","","","","","","","","","","","","","","","","","","","","","","","","","","",""
"","survey-multi-choice-replacement","77","203625","0.0-39.0-0.0","26726497","wem/bandit_party_1","APF1EAZT104LQ","either","3","3599","","","","","","","","","","","","","","","","","","","","","","","","Money will be added to the pool for <span style='color:blue;'>DEMOCRATS</span>","","","","","","","attn_check","","","","","","","","","0",""
"","survey-multi-choice-replacement","78","207412","0.0-40.0-0.0","26726497","wem/bandit_party_1","APF1EAZT104LQ","either","3","2750","","","","","","","","","","","","","","","","","","","","","","","","Money will be subtracted from the pool for <span style='color:red;'>REPUBLICANS</span>","","","","","","","attn_check","","","","","","","","","1",""
"","instructions","79","211974","0.0-40.0-1.0-0.0","26726497","wem/bandit_party_1","APF1EAZT104LQ","either","3","3543","","","","","","","","","","","","","","","","","","","","","","","","","","","","","","","","","","","","","","","","","[{""page_index"":0,""viewing_time"":3538}]"
"","survey-multi-choice-replacement","80","216012","0.0-40.1-0.1","26726497","wem/bandit_party_1","APF1EAZT104LQ","either","3","2993","","","","","","","","","","","","","","","","","","","","","","","","Equal amounts of money will be added to the pool for <span style='color:blue;'>DEMOCRATS</span> and subtracted from the pool for <span style='color:red;'>REPUBLICANS</span>","","","","","","","attn_check","","","","","","","","","2",""
"","survey-multi-choice-replacement","81","219330","0.0-41.0-0.0","26726497","wem/bandit_party_1","APF1EAZT104LQ","either","3","2275","","","","","","","","","","","","","","","","","","","","","","","","Money will be added to the pool for <span style='color:blue;'>DEMOCRATS</span>","","","","","","","attn_check","","","","","","","","","0",""
"","instructions","82","221424","0.0-41.0-1.0-0.0","26726497","wem/bandit_party_1","APF1EAZT104LQ","either","3","1046","","","","","","","","","","","","","","","","","","","","","","","","","","","","","","","","","","","","","","","","","[{""page_index"":0,""viewing_time"":1043}]"
"","survey-multi-choice-replacement","83","224161","0.0-41.1-0.1","26726497","wem/bandit_party_1","APF1EAZT104LQ","either","3","1700","","","","","","","","","","","","","","","","","","","","","","","","Equal amounts of money will be added to the pool for <span style='color:blue;'>DEMOCRATS</span> and subtracted from the pool for <span style='color:red;'>REPUBLICANS</span>","","","","","","","attn_check","","","","","","","","","2",""
"","instructions","84","226132","0.0-41.1-1.1-0.1","26726497","wem/bandit_party_1","APF1EAZT104LQ","either","3","956","","","","","","","","","","","","","","","","","","","","","","","","","","","","","","","","","","","","","","","","","[{""page_index"":0,""viewing_time"":953}]"
"","survey-multi-choice-replacement","85","228645","0.0-41.2-0.2","26726497","wem/bandit_party_1","APF1EAZT104LQ","either","3","1458","","","","","","","","","","","","","","","","","","","","","","","","Money will be subtracted from the pool for <span style='color:red;'>REPUBLICANS</span>","","","","","","","attn_check","","","","","","","","","1",""
"","instructions","86","232389","0.0-41.2-1.2-0.2","26726497","wem/bandit_party_1","APF1EAZT104LQ","either","3","2723","","","","","","","","","","","","","","","","","","","","","","","","","","","","","","","","","","","","","","","","","[{""page_index"":0,""viewing_time"":2723}]"
"","survey-multi-choice-replacement","87","235017","0.0-41.3-0.3","26726497","wem/bandit_party_1","APF1EAZT104LQ","either","3","1587","","","","","","","","","","","","","","","","","","","","","","","","No money will be added to either pool","","","","","","","attn_check","","","","","","","","","3",""
"","bandit","88","238756","0.0-42.0-0.0","26726497","wem/bandit_party_1","APF1EAZT104LQ","either","3","1191","","","","","","","0","0","1","0.4870892339","","0.6","0.8","0.2","0.4","","","","","0.1646489015","0.1426046982","0.4870892339","0.07685641067","","","","","","","","","","75","K","2","","","1","main_expt","",""
"","bandit","89","240675","0.0-43.0-0.0","26726497","wem/bandit_party_1","APF1EAZT104LQ","either","3","389","","","","","","","1","0","0","0.1597004976","","0.6","0.8","0.2","0.4","","","","","0.2180431119","0.1597004976","0.4875162112","0.08388143876","","","","","","","","","","74","J","1","","","2","main_expt","",""
"","bandit","90","242694","0.0-44.0-0.0","26726497","wem/bandit_party_1","APF1EAZT104LQ","either","3","490","","","","","","","0","0","1","0.2294217256","","0.6","0.8","0.2","0.4","","","","","0.2294217256","0.1381850853","0.4909945117","0.06528774038","","","","","","","","","","72","H","0","img/none_selected.jpg","","3","main_expt","",""
"","bandit","91","244389","0.0-45.0-0.0","26726497","wem/bandit_party_1","APF1EAZT104LQ","either","3","167","","","","","","","0","0","1","0.1787932262","","0.6","0.8","0.2","0.4","","","","","0.2162119515","0.1787932262","0.482579304","0.07987899881","","","","","","","","","","74","J","1","","","4","main_expt","",""
"","bandit","92","246222","0.0-46.0-0.0","26726497","wem/bandit_party_1","APF1EAZT104LQ","either","3","305","","","","","","","0","0","1","","0.4887913002","0.6","0.8","0.2","0.4","0.2246316054","0.1795032464","0.4887913002","0.0432391811","","","","","","","","","","","","","","75","K","2","","","5","main_expt","",""
"","bandit","93","248024","0.0-47.0-0.0","26726497","wem/bandit_party_1","APF1EAZT104LQ","either","3","282","","","","","","","0","0","1","0.03467601655","","0.6","0.8","0.2","0.4","","","","","0.2061018479","0.164375756","0.4887860333","0.03467601655","","","","","","","","","","76","L","3","","","6","main_expt","",""
"","bandit","94","249979","0.0-48.0-0.0","26726497","wem/bandit_party_1","APF1EAZT104LQ","either","3","427","","","","","","","1","0","0","0.204957223","","0.6","0.8","0.2","0.4","","","","","0.1795347326","0.204957223","0.4901971563","0.05033951668","","","","","","","","","","74","J","1","","","7","main_expt","",""
"","bandit","95","251871","0.0-49.0-0.0","26726497","wem/bandit_party_1","APF1EAZT104LQ","either","3","350","","","","","","","0","0","1","","0.2162036531","0.6","0.8","0.2","0.4","0.1290452752","0.2162036531","0.4862230721","0.07676355645","","","","","","","","","","","","","","74","J","1","","","8","main_expt","",""
"","bandit","96","253852","0.0-50.0-0.0","26726497","wem/bandit_party_1","APF1EAZT104LQ","either","3","450","","","","","","","0","0","1","0.1559184374","","0.6","0.8","0.2","0.4","","","","","0.1559184374","0.2167418122","0.4759730645","0.08620859221","","","","","","","","","","72","H","0","img/none_selected.jpg","","9","main_expt","",""
"","bandit","97","255719","0.0-51.0-0.0","26726497","wem/bandit_party_1","APF1EAZT104LQ","either","3","300","","","","","","","0","0","1","","0.4560980466","0.6","0.8","0.2","0.4","0.1381514788","0.1607923637","0.4560980466","0.1103839657","","","","","","","","","","","","","","75","K","2","","","10","main_expt","",""
"","bandit","98","257272","0.0-52.0-0.0","26726497","wem/bandit_party_1","APF1EAZT104LQ","either","3","33","","","","","","","0","0","1","","0.1386410957","0.6","0.8","0.2","0.4","0.1271140015","0.1386410957","0.4775116046","0.1334948588","","","","","","","","","","","","","","74","J","1","","","11","main_expt","",""
"","bandit","99","258981","0.0-53.0-0.0","26726497","wem/bandit_party_1","APF1EAZT104LQ","either","3","165","","","","","","","0","0","1","","0.1535602519","0.6","0.8","0.2","0.4","0.1854664659","0.1718380738","0.4705073552","0.1535602519","","","","","","","","","","","","","","76","L","3","","","12","main_expt","",""
"","bandit","100","260803","0.0-54.0-0.0","26726497","wem/bandit_party_1","APF1EAZT104LQ","either","3","288","","","","","","","0","0","1","0.1869952656","","0.6","0.8","0.2","0.4","","","","","0.1869952656","0.1686303413","0.4851887342","0.127854239","","","","","","","","","","72","H","0","img/none_selected.jpg","","13","main_expt","",""
"","bandit","101","262550","0.0-55.0-0.0","26726497","wem/bandit_party_1","APF1EAZT104LQ","either","3","198","","","","","","","0","0","1","","0.4731273917","0.6","0.8","0.2","0.4","0.2035171393","0.1460019496","0.4731273917","0.1507911491","","","","","","","","","","","","","","75","K","2","","","14","main_expt","",""
"","bandit","102","264216","0.0-56.0-0.0","26726497","wem/bandit_party_1","APF1EAZT104LQ","either","3","142","","","","","","","0","0","1","0.1667614464","","0.6","0.8","0.2","0.4","","","","","0.2800299461","0.1667614464","0.4585867004","0.1741212098","","","","","","","","","","74","J","1","","","15","main_expt","",""
"","bandit","103","265757","0.0-57.0-0.0","26726497","wem/bandit_party_1","APF1EAZT104LQ","either","3","10","","","","","","","0","0","1","0.1918308831","","0.6","0.8","0.2","0.4","","","","","0.2725454461","0.1973644546","0.4366533258","0.1918308831","","","","","","","","","","76","L","3","","","16","main_expt","",""
"","bandit","104","267497","0.0-58.0-0.0","26726497","wem/bandit_party_1","APF1EAZT104LQ","either","3","165","","","","","","","0","1","0","","0.4405228744","0.6","0.8","0.2","0.4","0.1570621471","0.1873415792","0.4405228744","0.1950212473","","","","","","","","","","","","","","75","K","2","","","17","main_expt","",""
"","bandit","105","269028","0.0-59.0-0.0","26726497","wem/bandit_party_1","APF1EAZT104LQ","either","3","5","","","","","","","1","0","0","0.1968188506","","0.6","0.8","0.2","0.4","","","","","0.1968188506","0.1875860444","0.4678551263","0.2094813194","","","","","","","","","","72","H","0","img/none_selected.jpg","","18","main_expt","",""
"","bandit","106","270712","0.0-60.0-0.0","26726497","wem/bandit_party_1","APF1EAZT104LQ","either","3","152","","","","","","","0","0","1","0.1988439388","","0.6","0.8","0.2","0.4","","","","","0.2439518204","0.1988439388","0.466140525","0.2628959394","","","","","","","","","","74","J","1","","","19","main_expt","",""
"","bandit","107","272308","0.0-61.0-0.0","26726497","wem/bandit_party_1","APF1EAZT104LQ","either","3","65","","","","","","","0","0","1","","0.4094087999","0.6","0.8","0.2","0.4","0.2806117898","0.1813993393","0.4094087999","0.2116504525","","","","","","","","","","","","","","75","K","2","","","20","main_expt","",""
"","bandit","108","273982","0.0-62.0-0.0","26726497","wem/bandit_party_1","APF1EAZT104LQ","either","3","127","","","","","","","0","0","1","","0.2658005831","0.6","0.8","0.2","0.4","0.2658005831","0.2012004452","0.4386974508","0.1904426465","","","","","","","","","","","","","","72","H","0","img/none_selected.jpg","","21","main_expt","",""
"","bandit","109","275605","0.0-63.0-0.0","26726497","wem/bandit_party_1","APF1EAZT104LQ","either","3","77","","","","","","","0","0","1","0.1958646163","","0.6","0.8","0.2","0.4","","","","","0.2774390086","0.1958646163","0.4505723784","0.1581796968","","","","","","","","","","74","J","1","","","22","main_expt","",""
"","bandit","110","277237","0.0-64.0-0.0","26726497","wem/bandit_party_1","APF1EAZT104LQ","either","3","95","","","","","","","0","0","1","","0.4568000239","0.6","0.8","0.2","0.4","0.2795917474","0.2626819079","0.4568000239","0.2039009352","","","","","","","","","","","","","","75","K","2","","","23","main_expt","",""
"","bandit","111","278782","0.0-65.0-0.0","26726497","wem/bandit_party_1","APF1EAZT104LQ","either","3","3","","","","","","","0","0","1","","0.228339491","0.6","0.8","0.2","0.4","0.2981059477","0.2906682881","0.4518339256","0.228339491","","","","","","","","","","","","","","76","L","3","","","24","main_expt","",""
"","bandit","112","280427","0.0-66.0-0.0","26726497","wem/bandit_party_1","APF1EAZT104LQ","either","3","122","","","","","","","1","0","0","0.3270173502","","0.6","0.8","0.2","0.4","","","","","0.3272059922","0.3270173502","0.4120159309","0.2602465224","","","","","","","","","","74","J","1","","","25","main_expt","",""
"","bandit","113","282314","0.0-67.0-0.0","26726497","wem/bandit_party_1","APF1EAZT104LQ","either","3","347","","","","","","","0","0","1","","0.2951289915","0.6","0.8","0.2","0.4","0.3369826645","0.2951289915","0.4134154185","0.1939420306","","","","","","","","","","","","","","74","J","1","","","26","main_expt","",""
"","bandit","114","283853","0.0-68.0-0.0","26726497","wem/bandit_party_1","APF1EAZT104LQ","either","3","2","","","","","","","0","0","1","0.2531212506","","0.6","0.8","0.2","0.4","","","","","0.2531212506","0.3520126272","0.4031068294","0.2387331149","","","","","","","","","","72","H","0","img/none_selected.jpg","","27","main_expt","",""
"","bandit","115","285686","0.0-69.0-0.0","26726497","wem/bandit_party_1","APF1EAZT104LQ","either","3","300","","","","","","","0","0","1","0.3369287003","","0.6","0.8","0.2","0.4","","","","","0.2170461037","0.3369287003","0.4305883772","0.2183458617","","","","","","","","","","74","J","1","","","28","main_expt","",""
"","bandit","116","288173","0.0-70.0-0.0","26726497","wem/bandit_party_1","APF1EAZT104LQ","either","3","948","","","","","","","0","0","1","","0.2151501268","0.6","0.8","0.2","0.4","0.2346211465","0.3591799128","0.4383329838","0.2151501268","","","","","","","","","","","","","","76","L","3","","","29","main_expt","",""
"","bandit","117","290013","0.0-71.0-0.0","26726497","wem/bandit_party_1","APF1EAZT104LQ","either","3","300","","","","","","","0","1","0","","0.4233276099","0.6","0.8","0.2","0.4","0.2450860663","0.3324285477","0.4233276099","0.2267233056","","","","","","","","","","","","","","75","K","2","","","30","main_expt","",""
"","bandit","118","291594","0.0-72.0-0.0","26726497","wem/bandit_party_1","APF1EAZT104LQ","either","3","32","","","","","","","0","1","0","","0.327032362","0.6","0.8","0.2","0.4","0.2141169407","0.327032362","0.4016185005","0.2663701676","","","","","","","","","","","","","","74","J","1","","","31","main_expt","",""
"","bandit","119","293863","0.0-73.0-0.0","26726497","wem/bandit_party_1","APF1EAZT104LQ","either","3","690","","","","","","","1","0","0","0.3230905041","","0.6","0.8","0.2","0.4","","","","","0.2347854155","0.3230905041","0.4134940178","0.275969473","","","","","","","","","","74","J","1","","","32","main_expt","",""
"","bandit","120","295587","0.0-74.0-0.0","26726497","wem/bandit_party_1","APF1EAZT104LQ","either","3","158","","","","","","","0","1","0","","0.4331174495","0.6","0.8","0.2","0.4","0.246596708","0.2969008969","0.4331174495","0.3365270118","","","","","","","","","","","","","","75","K","2","","","33","main_expt","",""
"","bandit","121","297341","0.0-75.0-0.0","26726497","wem/bandit_party_1","APF1EAZT104LQ","either","3","223","","","","","","","0","0","1","0.1914370393","","0.6","0.8","0.2","0.4","","","","","0.1914370393","0.2536392951","0.4454497031","0.2916301021","","","","","","","","","","72","H","0","img/none_selected.jpg","","34","main_expt","",""
"","bandit","122","299237","0.0-76.0-0.0","26726497","wem/bandit_party_1","APF1EAZT104LQ","either","3","353","","","","","","","0","0","1","0.2336030597","","0.6","0.8","0.2","0.4","","","","","0.1408207185","0.2336030597","0.4419706984","0.3236538836","","","","","","","","","","74","J","1","","","35","main_expt","",""
"","bandit","123","300818","0.0-77.0-0.0","26726497","wem/bandit_party_1","APF1EAZT104LQ","either","3","43","","","","","","","0","0","1","","0.09539735145","0.6","0.8","0.2","0.4","0.09539735145","0.3110392291","0.4205940312","0.3317439785","","","","","","","","","","","","","","72","H","0","img/none_selected.jpg","","36","main_expt","",""
"","bandit","124","302629","0.0-78.0-0.0","26726497","wem/bandit_party_1","APF1EAZT104LQ","either","3","270","","","","","","","0","1","0","","0.4227305347","0.6","0.8","0.2","0.4","0.08867332122","0.3354302382","0.4227305347","0.3620900841","","","","","","","","","","","","","","75","K","2","","","37","main_expt","",""
"","bandit","125","304293","0.0-79.0-0.0","26726497","wem/bandit_party_1","APF1EAZT104LQ","either","3","110","","","","","","","0","0","1","0.0804097964","","0.6","0.8","0.2","0.4","","","","","0.0804097964","0.3359947902","0.3904174821","0.3649119955","","","","","","","","","","72","H","0","img/none_selected.jpg","","38","main_expt","",""
"","bandit","126","305968","0.0-80.0-0.0","26726497","wem/bandit_party_1","APF1EAZT104LQ","either","3","82","","","","","","","0","0","1","0.3719467902","","0.6","0.8","0.2","0.4","","","","","0.1092906338","0.3719467902","0.3704092514","0.3993258453","","","","","","","","","","74","J","1","","","39","main_expt","",""
"","bandit","127","307525","0.0-81.0-0.0","26726497","wem/bandit_party_1","APF1EAZT104LQ","either","3","5","","","","","","","0","1","0","","0.43145226","0.6","0.8","0.2","0.4","0.08771014895","0.37180955","0.3250394812","0.43145226","","","","","","","","","","","","","","76","L","3","","","40","main_expt","",""
"","bandit","128","309132","0.0-82.0-0.0","26726497","wem/bandit_party_1","APF1EAZT104LQ","either","3","53","","","","","","","1","0","0","0.3633775572","","0.6","0.8","0.2","0.4","","","","","0.1065106481","0.3972707938","0.3633775572","0.3925837484","","","","","","","","","","75","K","2","","","41","main_expt","",""
"","bandit","129","310946","0.0-83.0-0.0","26726497","wem/bandit_party_1","APF1EAZT104LQ","either","3","268","","","","","","","0","1","0","","0.3708570881","0.6","0.8","0.2","0.4","0.0926848955","0.3981555674","0.3708570881","0.4020613291","","","","","","","","","","","","","","75","K","2","","","42","main_expt","",""
"","bandit","130","312622","0.0-84.0-0.0","26726497","wem/bandit_party_1","APF1EAZT104LQ","either","3","115","","","","","","","0","0","1","0.3852030547","","0.6","0.8","0.2","0.4","","","","","0.09213729174","0.3698022864","0.3852030547","0.4199094288","","","","","","","","","","75","K","2","","","43","main_expt","",""
"","bandit","131","314250","0.0-85.0-0.0","26726497","wem/bandit_party_1","APF1EAZT104LQ","either","3","87","","","","","","","0","0","1","0.3278340923","","0.6","0.8","0.2","0.4","","","","","0.0950319608","0.3278340923","0.3653477133","0.4362917367","","","","","","","","","","74","J","1","","","44","main_expt","",""
"","bandit","132","316080","0.0-86.0-0.0","26726497","wem/bandit_party_1","APF1EAZT104LQ","either","3","291","","","","","","","1","0","0","0.3423722135","","0.6","0.8","0.2","0.4","","","","","0.07917944011","0.4004869948","0.3423722135","0.4310393502","","","","","","","","","","75","K","2","","","45","main_expt","",""
"","bandit","133","317734","0.0-87.0-0.0","26726497","wem/bandit_party_1","APF1EAZT104LQ","either","3","115","","","","","","","1","0","0","0.08528552535","","0.6","0.8","0.2","0.4","","","","","0.08528552535","0.4389658195","0.2713785315","0.4301719659","","","","","","","","","","72","H","0","img/none_selected.jpg","","46","main_expt","",""
"","bandit","134","319441","0.0-88.0-0.0","26726497","wem/bandit_party_1","APF1EAZT104LQ","either","3","140","","","","","","","0","0","1","0.4294918489","","0.6","0.8","0.2","0.4","","","","","0.08303267599","0.4294918489","0.2675382036","0.4274268526","","","","","","","","","","74","J","1","","","47","main_expt","",""
"","bandit","135","321027","0.0-89.0-0.0","26726497","wem/bandit_party_1","APF1EAZT104LQ","either","3","40","","","","","","","0","0","1","","0.3006553151","0.6","0.8","0.2","0.4","0.1183490009","0.3948346084","0.3006553151","0.4559220927","","","","","","","","","","","","","","75","K","2","","","48","main_expt","",""
"","bandit","136","323447","0.0-90.0-0.0","26726497","wem/bandit_party_1","APF1EAZT104LQ","either","3","879","","","","","","","1","0","0","0.2865645246","","0.6","0.8","0.2","0.4","","","","","0.09831357925","0.4226663974","0.2865645246","0.4362936898","","","","","","","","","","75","K","2","","","49","main_expt","",""
"","bandit","137","324992","0.0-91.0-0.0","26726497","wem/bandit_party_1","APF1EAZT104LQ","either","3","18","","","","","","","0","0","1","0.3943232949","","0.6","0.8","0.2","0.4","","","","","0.0896163698","0.3943232949","0.2842330123","0.4001593617","","","","","","","","","","74","J","1","","","50","main_expt","",""
"","bandit","138","326661","0.0-92.0-0.0","26726497","wem/bandit_party_1","APF1EAZT104LQ","either","3","132","","","","","","","0","0","1","0.08239790895","","0.6","0.8","0.2","0.4","","","","","0.08239790895","0.3911898034","0.2933637591","0.3737598101","","","","","","","","","","72","H","0","img/none_selected.jpg","","51","main_expt","",""
"","bandit","139","328330","0.0-93.0-0.0","26726497","wem/bandit_party_1","APF1EAZT104LQ","either","3","128","","","","","","","0","0","1","","0.2802127762","0.6","0.8","0.2","0.4","0.06509061927","0.3897106723","0.2802127762","0.3490564905","","","","","","","","","","","","","","75","K","2","","","52","main_expt","",""
"","bandit","140","330027","0.0-94.0-0.0","26726497","wem/bandit_party_1","APF1EAZT104LQ","either","3","160","","","","","","","0","1","0","","0.3977919118","0.6","0.8","0.2","0.4","0.05503049918","0.3977919118","0.2567133084","0.3606416198","","","","","","","","","","","","","","74","J","1","","","53","main_expt","",""
"","bandit","141","331781","0.0-95.0-0.0","26726497","wem/bandit_party_1","APF1EAZT104LQ","either","3","220","","","","","","","0","0","1","0.3803623479","","0.6","0.8","0.2","0.4","","","","","0.06606451817","0.3803623479","0.304436262","0.3920172378","","","","","","","","","","74","J","1","","","54","main_expt","",""
"","bandit","142","333344","0.0-96.0-0.0","26726497","wem/bandit_party_1","APF1EAZT104LQ","either","3","20","","","","","","","0","1","0","","0.3050376594","0.6","0.8","0.2","0.4","0.0812436444","0.3898030924","0.3050376594","0.3841867886","","","","","","","","","","","","","","75","K","2","","","55","main_expt","",""
"","bandit","143","334891","0.0-97.0-0.0","26726497","wem/bandit_party_1","APF1EAZT104LQ","either","3","7","","","","","","","1","0","0","0.4332266089","","0.6","0.8","0.2","0.4","","","","","0.05752214818","0.4332266089","0.2874076515","0.3752679739","","","","","","","","","","74","J","1","","","56","main_expt","",""
"","bandit","144","336492","0.0-98.0-0.0","26726497","wem/bandit_party_1","APF1EAZT104LQ","either","3","57","","","","","","","0","1","0","","0.3595388075","0.6","0.8","0.2","0.4","0.05957573693","0.4598680415","0.2633226407","0.3595388075","","","","","","","","","","","","","","76","L","3","","","57","main_expt","",""
"","bandit","145","338183","0.0-99.0-0.0","26726497","wem/bandit_party_1","APF1EAZT104LQ","either","3","153","","","","","","","1","0","0","0.282557186","","0.6","0.8","0.2","0.4","","","","","0.08347810371","0.4510058242","0.282557186","0.2926617498","","","","","","","","","","75","K","2","","","58","main_expt","",""
"","bandit","146","340049","0.0-100.0-0.0","26726497","wem/bandit_party_1","APF1EAZT104LQ","either","3","320","","","","","","","1","0","0","0.4587464736","","0.6","0.8","0.2","0.4","","","","","0.1166757522","0.4587464736","0.2675679041","0.2854140482","","","","","","","","","","74","J","1","","","59","main_expt","",""
"","bandit","147","341858","0.0-101.0-0.0","26726497","wem/bandit_party_1","APF1EAZT104LQ","either","3","253","","","","","","","0","0","1","","0.2654645802","0.6","0.8","0.2","0.4","0.1223048521","0.4534111386","0.2654645802","0.2767785787","","","","","","","","","","","","","","75","K","2","","","60","main_expt","",""
"","bandit","148","343541","0.0-102.0-0.0","26726497","wem/bandit_party_1","APF1EAZT104LQ","either","3","155","","","","","","","0","0","1","0.1341525672","","0.6","0.8","0.2","0.4","","","","","0.1341525672","0.4581751116","0.2326588137","0.3110110239","","","","","","","","","","72","H","0","img/none_selected.jpg","","61","main_expt","",""
"","bandit","149","345352","0.0-103.0-0.0","26726497","wem/bandit_party_1","APF1EAZT104LQ","either","3","268","","","","","","","0","0","1","","0.2739379344","0.6","0.8","0.2","0.4","0.1748443247","0.4447189615","0.2430345153","0.2739379344","","","","","","","","","","","","","","76","L","3","","","62","main_expt","",""
"","bandit","150","347297","0.0-104.0-0.0","26726497","wem/bandit_party_1","APF1EAZT104LQ","either","3","408","","","","","","","0","0","1","","0.2682261916","0.6","0.8","0.2","0.4","0.1872250423","0.4351057758","0.2682261916","0.2518438402","","","","","","","","","","","","","","75","K","2","","","63","main_expt","",""
"","bandit","151","349226","0.0-105.0-0.0","26726497","wem/bandit_party_1","APF1EAZT104LQ","either","3","381","","","","","","","0","0","1","","0.216118181","0.6","0.8","0.2","0.4","0.1592276408","0.4559228662","0.3136585585","0.216118181","","","","","","","","","","","","","","76","L","3","","","64","main_expt","",""
"","bandit","152","350828","0.0-106.0-0.0","26726497","wem/bandit_party_1","APF1EAZT104LQ","either","3","50","","","","","","","0","0","1","","0.4526438492","0.6","0.8","0.2","0.4","0.1881419285","0.4526438492","0.3208042698","0.1961712117","","","","","","","","","","","","","","74","J","1","","","65","main_expt","",""
"","bandit","153","352676","0.0-107.0-0.0","26726497","wem/bandit_party_1","APF1EAZT104LQ","either","3","310","","","","","","","0","1","0","","0.3550213758","0.6","0.8","0.2","0.4","0.2075830042","0.4604690516","0.3550213758","0.1821057022","","","","","","","","","","","","","","75","K","2","","","66","main_expt","",""
"","bandit","154","354546","0.0-108.0-0.0","26726497","wem/bandit_party_1","APF1EAZT104LQ","either","3","338","","","","","","","0","1","0","","0.2883445083","0.6","0.8","0.2","0.4","0.210321401","0.4479534522","0.2883445083","0.2221692745","","","","","","","","","","","","","","75","K","2","","","67","main_expt","",""
"","bandit","155","356452","0.0-109.0-0.0","26726497","wem/bandit_party_1","APF1EAZT104LQ","either","3","350","","","","","","","0","0","1","","0.2492112051","0.6","0.8","0.2","0.4","0.1740681144","0.4420076102","0.2492112051","0.2385328342","","","","","","","","","","","","","","75","K","2","","","68","main_expt","",""
"","bandit","156","358186","0.0-110.0-0.0","26726497","wem/bandit_party_1","APF1EAZT104LQ","either","3","195","","","","","","","0","1","0","","0.1725364023","0.6","0.8","0.2","0.4","0.1495678232","0.3840886122","0.1725364023","0.2693988132","","","","","","","","","","","","","","75","K","2","","","69","main_expt","",""
"","bandit","157","359755","0.0-111.0-0.0","26726497","wem/bandit_party_1","APF1EAZT104LQ","either","3","17","","","","","","","0","0","1","","0.2081322216","0.6","0.8","0.2","0.4","0.1594524764","0.3764426572","0.2081322216","0.2633889128","","","","","","","","","","","","","","75","K","2","","","70","main_expt","",""
"","bandit","158","361413","0.0-112.0-0.0","26726497","wem/bandit_party_1","APF1EAZT104LQ","either","3","127","","","","","","","1","0","0","0.3925575972","","0.6","0.8","0.2","0.4","","","","","0.1308665948","0.3925575972","0.2222096595","0.2881785301","","","","","","","","","","74","J","1","","","71","main_expt","",""
"","bandit","159","364224","0.0-113.0-0.0","26726497","wem/bandit_party_1","APF1EAZT104LQ","either","3","1270","","","","","","","0","0","1","","0.2276413934","0.6","0.8","0.2","0.4","0.1413665491","0.4055717031","0.2276413934","0.3496752211","","","","","","","","","","","","","","75","K","2","","","72","main_expt","",""
"","bandit","160","365858","0.0-114.0-0.0","26726497","wem/bandit_party_1","APF1EAZT104LQ","either","3","85","","","","","","","0","0","1","0.3662649551","","0.6","0.8","0.2","0.4","","","","","0.1562096843","0.4313753627","0.202726327","0.3662649551","","","","","","","","","","76","L","3","","","73","main_expt","",""
"","bandit","161","367607","0.0-115.0-0.0","26726497","wem/bandit_party_1","APF1EAZT104LQ","either","3","155","","","","","","","1","0","0","0.4294283137","","0.6","0.8","0.2","0.4","","","","","0.1601549975","0.4294283137","0.2465356434","0.3318597218","","","","","","","","","","74","J","1","","","74","main_expt","",""
"","bandit","162","369163","0.0-116.0-0.0","26726497","wem/bandit_party_1","APF1EAZT104LQ","either","3","3","","","","","","","0","1","0","","0.4114775526","0.6","0.8","0.2","0.4","0.1962365409","0.4114775526","0.2780880013","0.3129946244","","","","","","","","","","","","","","74","J","1","","","75","main_expt","",""
"","bandit","163","370973","0.0-117.0-0.0","26726497","wem/bandit_party_1","APF1EAZT104LQ","either","3","253","","","","","","","0","0","1","","0.4038916894","0.6","0.8","0.2","0.4","0.2315068675","0.4038916894","0.230570622","0.3299880354","","","","","","","","","","","","","","74","J","1","","","76","main_expt","",""
"","bandit","164","372514","0.0-118.0-0.0","26726497","wem/bandit_party_1","APF1EAZT104LQ","either","3","0","","","","","","","0","0","1","0.4028298088","","0.6","0.8","0.2","0.4","","","","","0.1749603823","0.4028298088","0.1747897532","0.2704336052","","","","","","","","","","74","J","1","","","77","main_expt","",""
"","bandit","165","374518","0.0-119.0-0.0","26726497","wem/bandit_party_1","APF1EAZT104LQ","either","3","463","","","","","","","0","0","1","","0.4004321452","0.6","0.8","0.2","0.4","0.2091975686","0.4004321452","0.2009150394","0.2489008917","","","","","","","","","","","","","","74","J","1","","","78","main_expt","",""
"","bandit","166","377112","0.0-120.0-0.0","26726497","wem/bandit_party_1","APF1EAZT104LQ","either","3","1053","","","","","","","1","0","0","0.2699334682","","0.6","0.8","0.2","0.4","","","","","0.2699334682","0.3909827091","0.2090883318","0.2182462247","","","","","","","","","","72","H","0","img/none_selected.jpg","","79","main_expt","",""
"","bandit","167","379046","0.0-121.0-0.0","26726497","wem/bandit_party_1","APF1EAZT104LQ","either","3","378","","","","","","","0","0","1","0.4289339141","","0.6","0.8","0.2","0.4","","","","","0.2712134299","0.4289339141","0.215522018","0.1591694045","","","","","","","","","","74","J","1","","","80","main_expt","",""
"","bandit","168","380733","0.0-122.0-0.0","26726497","wem/bandit_party_1","APF1EAZT104LQ","either","3","145","","","","","","","0","1","0","","0.4256341571","0.6","0.8","0.2","0.4","0.2563236188","0.4256341571","0.2655955182","0.1661146317","","","","","","","","","","","","","","74","J","1","","","81","main_expt","",""
"","bandit","169","382763","0.0-123.0-0.0","26726497","wem/bandit_party_1","APF1EAZT104LQ","either","3","473","","","","","","","0","1","0","","0.2642342948","0.6","0.8","0.2","0.4","0.2474856626","0.4153375647","0.2642342948","0.2249160828","","","","","","","","","","","","","","75","K","2","","","82","main_expt","",""
"","bandit","170","384678","0.0-124.0-0.0","26726497","wem/bandit_party_1","APF1EAZT104LQ","either","3","390","","","","","","","1","0","0","0.4239102097","","0.6","0.8","0.2","0.4","","","","","0.2338037125","0.4239102097","0.2615040017","0.2194800234","","","","","","","","","","74","J","1","","","83","main_expt","",""
"","bandit","171","386256","0.0-125.0-0.0","26726497","wem/bandit_party_1","APF1EAZT104LQ","either","3","23","","","","","","","0","0","1","","0.3136368113","0.6","0.8","0.2","0.4","0.2929655049","0.4021041833","0.3136368113","0.2020024956","","","","","","","","","","","","","","75","K","2","","","84","main_expt","",""
"","bandit","172","387958","0.0-126.0-0.0","26726497","wem/bandit_party_1","APF1EAZT104LQ","either","3","175","","","","","","","0","0","1","","0.2433538552","0.6","0.8","0.2","0.4","0.2755572306","0.4322374594","0.2433538552","0.1639230135","","","","","","","","","","","","","","75","K","2","","","85","main_expt","",""
"","bandit","173","390317","0.0-127.0-0.0","26726497","wem/bandit_party_1","APF1EAZT104LQ","either","3","830","","","","","","","0","0","1","0.4247618508","","0.6","0.8","0.2","0.4","","","","","0.2706615249","0.4247618508","0.2583740773","0.1423092638","","","","","","","","","","74","J","1","","","86","main_expt","",""
"","bandit","174","392233","0.0-128.0-0.0","26726497","wem/bandit_party_1","APF1EAZT104LQ","either","3","365","","","","","","","0","0","1","","0.2656778135","0.6","0.8","0.2","0.4","0.3259805539","0.4130492334","0.2656778135","0.1623313408","","","","","","","","","","","","","","75","K","2","","","87","main_expt","",""
"","bandit","175","393800","0.0-129.0-0.0","26726497","wem/bandit_party_1","APF1EAZT104LQ","either","3","25","","","","","","","0","0","1","0.1459946163","","0.6","0.8","0.2","0.4","","","","","0.3471137027","0.3883747858","0.2565525481","0.1459946163","","","","","","","","","","76","L","3","","","88","main_expt","",""
"","bandit","176","395349","0.0-130.0-0.0","26726497","wem/bandit_party_1","APF1EAZT104LQ","either","3","2","","","","","","","0","0","1","","0.3950807547","0.6","0.8","0.2","0.4","0.3715311126","0.3950807547","0.2471999074","0.1684807643","","","","","","","","","","","","","","74","J","1","","","89","main_expt","",""
"","bandit","177","397038","0.0-131.0-0.0","26726497","wem/bandit_party_1","APF1EAZT104LQ","either","3","143","","","","","","","0","0","1","","0.2204199549","0.6","0.8","0.2","0.4","0.3571728809","0.420982679","0.2204199549","0.1937692241","","","","","","","","","","","","","","75","K","2","","","90","main_expt","",""
"","bandit","178","398595","0.0-132.0-0.0","26726497","wem/bandit_party_1","APF1EAZT104LQ","either","3","3","","","","","","","0","0","1","0.4012606491","","0.6","0.8","0.2","0.4","","","","","0.3348642023","0.4012606491","0.2013548925","0.1670397906","","","","","","","","","","74","J","1","","","91","main_expt","",""
"","bandit","179","400184","0.0-133.0-0.0","26726497","wem/bandit_party_1","APF1EAZT104LQ","either","3","35","","","","","","","0","0","1","0.3950870333","","0.6","0.8","0.2","0.4","","","","","0.3551195155","0.3950870333","0.174921714","0.1936095216","","","","","","","","","","74","J","1","","","92","main_expt","",""
"","bandit","180","401840","0.0-134.0-0.0","26726497","wem/bandit_party_1","APF1EAZT104LQ","either","3","95","","","","","","","0","0","1","0.3797372222","","0.6","0.8","0.2","0.4","","","","","0.3494458231","0.3797372222","0.1972058505","0.2399824117","","","","","","","","","","74","J","1","","","93","main_expt","",""
"","bandit","181","403464","0.0-135.0-0.0","26726497","wem/bandit_party_1","APF1EAZT104LQ","either","3","73","","","","","","","0","0","1","0.3759818745","","0.6","0.8","0.2","0.4","","","","","0.3759818745","0.3346339076","0.2144007407","0.242536602","","","","","","","","","","72","H","0","img/none_selected.jpg","","94","main_expt","",""
"","bandit","182","405176","0.0-136.0-0.0","26726497","wem/bandit_party_1","APF1EAZT104LQ","either","3","165","","","","","","","1","0","0","0.3433005441","","0.6","0.8","0.2","0.4","","","","","0.3467088588","0.3433005441","0.2025691914","0.3081296623","","","","","","","","","","74","J","1","","","95","main_expt","",""
"","bandit","183","406875","0.0-137.0-0.0","26726497","wem/bandit_party_1","APF1EAZT104LQ","either","3","125","","","","","","","0","1","0","","0.2900415689","0.6","0.8","0.2","0.4","0.3520186383","0.2900415689","0.1750118246","0.371766452","","","","","","","","","","","","","","74","J","1","","","96","main_expt","",""
"","bandit","184","408534","0.0-138.0-0.0","26726497","wem/bandit_party_1","APF1EAZT104LQ","either","3","120","","","","","","","0","0","1","","0.2433812568","0.6","0.8","0.2","0.4","0.342216001","0.3136050561","0.2433812568","0.3737721809","","","","","","","","","","","","","","75","K","2","","","97","main_expt","",""
"","bandit","185","410100","0.0-139.0-0.0","26726497","wem/bandit_party_1","APF1EAZT104LQ","either","3","20","","","","","","","0","0","1","0.1834100281","","0.6","0.8","0.2","0.4","","","","","0.3775958225","0.3236610102","0.1834100281","0.3662625892","","","","","","","","","","75","K","2","","","98","main_expt","",""
"","bandit","186","411783","0.0-140.0-0.0","26726497","wem/bandit_party_1","APF1EAZT104LQ","either","3","140","","","","","","","1","0","0","0.146161558","","0.6","0.8","0.2","0.4","","","","","0.3490624926","0.3116662608","0.146161558","0.3912879072","","","","","","","","","","75","K","2","","","99","main_expt","",""
"","bandit","187","413508","0.0-141.0-0.0","26726497","wem/bandit_party_1","APF1EAZT104LQ","either","3","193","","","","","","","0","0","1","0.3806420769","","0.6","0.8","0.2","0.4","","","","","0.3418910903","0.3806420769","0.1186266926","0.3916888764","","","","","","","","","","74","J","1","","","100","main_expt","",""
"","bandit","188","415229","0.0-142.0-0.0","26726497","wem/bandit_party_1","APF1EAZT104LQ","either","3","150","","","","","","","0","0","1","0.3825052475","","0.6","0.8","0.2","0.4","","","","","0.3544055354","0.3825052475","0.1467879228","0.3803758031","","","","","","","","","","74","J","1","","","101","main_expt","",""
"","bandit","189","416808","0.0-143.0-0.0","26726497","wem/bandit_party_1","APF1EAZT104LQ","either","3","37","","","","","","","0","0","1","","0.1336514036","0.6","0.8","0.2","0.4","0.3580864163","0.3799327693","0.1336514036","0.3685266224","","","","","","","","","","","","","","75","K","2","","","102","main_expt","",""
"","bandit","190","418374","0.0-144.0-0.0","26726497","wem/bandit_party_1","APF1EAZT104LQ","either","3","17","","","","","","","0","1","0","","0.3754978655","0.6","0.8","0.2","0.4","0.336528594","0.3502018886","0.1325092095","0.3754978655","","","","","","","","","","","","","","76","L","3","","","103","main_expt","",""
"","bandit","191","420083","0.0-145.0-0.0","26726497","wem/bandit_party_1","APF1EAZT104LQ","either","3","150","","","","","","","1","0","0","0.3443431466","","0.6","0.8","0.2","0.4","","","","","0.3190078166","0.3443431466","0.1162839287","0.4033056484","","","","","","","","","","74","J","1","","","104","main_expt","",""
"","bandit","192","421760","0.0-146.0-0.0","26726497","wem/bandit_party_1","APF1EAZT104LQ","either","3","138","","","","","","","0","0","1","","0.115620258","0.6","0.8","0.2","0.4","0.3100940773","0.3551378046","0.115620258","0.3617388181","","","","","","","","","","","","","","75","K","2","","","105","main_expt","",""
"","bandit","193","423361","0.0-147.0-0.0","26726497","wem/bandit_party_1","APF1EAZT104LQ","either","3","58","","","","","","","1","0","0","0.3177956882","","0.6","0.8","0.2","0.4","","","","","0.2964842485","0.3177956882","0.1102569517","0.3656875331","","","","","","","","","","74","J","1","","","106","main_expt","",""
"","bandit","194","424995","0.0-148.0-0.0","26726497","wem/bandit_party_1","APF1EAZT104LQ","either","3","80","","","","","","","0","0","1","0.3463124521","","0.6","0.8","0.2","0.4","","","","","0.3224579283","0.3463124521","0.110599846","0.3478183852","","","","","","","","","","74","J","1","","","107","main_expt","",""
"","bandit","195","426581","0.0-149.0-0.0","26726497","wem/bandit_party_1","APF1EAZT104LQ","either","3","47","","","","","","","0","0","1","","0.1647947233","0.6","0.8","0.2","0.4","0.3365568187","0.330790185","0.1647947233","0.3715517583","","","","","","","","","","","","","","75","K","2","","","108","main_expt","",""
"","bandit","196","428132","0.0-150.0-0.0","26726497","wem/bandit_party_1","APF1EAZT104LQ","either","3","5","","","","","","","0","0","1","","0.146095753","0.6","0.8","0.2","0.4","0.3200824859","0.3259779601","0.146095753","0.3713851569","","","","","","","","","","","","","","75","K","2","","","109","main_expt","",""
"","bandit","197","429794","0.0-151.0-0.0","26726497","wem/bandit_party_1","APF1EAZT104LQ","either","3","113","","","","","","","1","0","0","0.3179471713","","0.6","0.8","0.2","0.4","","","","","0.3179471713","0.3169053314","0.1691954855","0.3401672382","","","","","","","","","","72","H","0","img/none_selected.jpg","","110","main_expt","",""
"","bandit","198","431432","0.0-152.0-0.0","26726497","wem/bandit_party_1","APF1EAZT104LQ","either","3","88","","","","","","","1","0","0","0.342138516","","0.6","0.8","0.2","0.4","","","","","0.3168158386","0.342138516","0.1690298198","0.3242328008","","","","","","","","","","74","J","1","","","111","main_expt","",""
"","bandit","199","433068","0.0-153.0-0.0","26726497","wem/bandit_party_1","APF1EAZT104LQ","either","3","95","","","","","","","0","0","1","","0.2196992501","0.6","0.8","0.2","0.4","0.3551606626","0.3597886873","0.2196992501","0.2991119965","","","","","","","","","","","","","","75","K","2","","","112","main_expt","",""
"","bandit","200","434824","0.0-154.0-0.0","26726497","wem/bandit_party_1","APF1EAZT104LQ","either","3","188","","","","","","","0","0","1","","0.3364281798","0.6","0.8","0.2","0.4","0.3615444015","0.3580549124","0.2723467559","0.3364281798","","","","","","","","","","","","","","76","L","3","","","113","main_expt","",""
"","bandit","201","436516","0.0-155.0-0.0","26726497","wem/bandit_party_1","APF1EAZT104LQ","either","3","161","","","","","","","0","0","1","0.4043222556","","0.6","0.8","0.2","0.4","","","","","0.4043222556","0.3556181037","0.2470985199","0.3495122724","","","","","","","","","","72","H","0","img/none_selected.jpg","","114","main_expt","",""
"","bandit","202","438225","0.0-156.0-0.0","26726497","wem/bandit_party_1","APF1EAZT104LQ","either","3","166","","","","","","","0","1","0","","0.3489042174","0.6","0.8","0.2","0.4","0.4179696435","0.3489042174","0.2482590513","0.324938203","","","","","","","","","","","","","","74","J","1","","","115","main_expt","",""
"","bandit","203","439831","0.0-157.0-0.0","26726497","wem/bandit_party_1","APF1EAZT104LQ","either","3","50","","","","","","","0","0","1","","0.1992012358","0.6","0.8","0.2","0.4","0.4324393975","0.3466245191","0.1992012358","0.3227512736","","","","","","","","","","","","","","75","K","2","","","116","main_expt","",""
"","bandit","204","441395","0.0-158.0-0.0","26726497","wem/bandit_party_1","APF1EAZT104LQ","either","3","25","","","","","","","0","0","1","0.3581754781","","0.6","0.8","0.2","0.4","","","","","0.4290779421","0.3581754781","0.216355905","0.2585209305","","","","","","","","","","74","J","1","","","117","main_expt","",""
"","bandit","205","443098","0.0-159.0-0.0","26726497","wem/bandit_party_1","APF1EAZT104LQ","either","3","165","","","","","","","0","0","1","","0.283939031","0.6","0.8","0.2","0.4","0.4459264202","0.283939031","0.1715453935","0.2817260076","","","","","","","","","","","","","","74","J","1","","","118","main_expt","",""
"","bandit","206","444720","0.0-160.0-0.0","26726497","wem/bandit_party_1","APF1EAZT104LQ","either","3","12","","","","","","","0","0","1","0.2992634423","","0.6","0.8","0.2","0.4","","","","","0.436995295","0.2992634423","0.1843456939","0.328214026","","","","","","","","","","74","J","1","","","119","main_expt","",""
"","bandit","207","446260","0.0-161.0-0.0","26726497","wem/bandit_party_1","APF1EAZT104LQ","either","3","3","","","","","","","0","1","0","","0.1848061615","0.6","0.8","0.2","0.4","0.4151314625","0.1878150733","0.1848061615","0.3355603121","","","","","","","","","","","","","","75","K","2","","","120","main_expt","",""
"","bandit","208","447906","0.0-162.0-0.0","26726497","wem/bandit_party_1","APF1EAZT104LQ","either","3","105","","","","","","","0","0","1","","0.4384064527","0.6","0.8","0.2","0.4","0.4384064527","0.1447458933","0.1679578636","0.3829587724","","","","","","","","","","","","","","72","H","0","img/none_selected.jpg","","121","main_expt","",""
"","bandit","209","449532","0.0-163.0-0.0","26726497","wem/bandit_party_1","APF1EAZT104LQ","either","3","80","","","","","","","1","0","0","0.1176060398","","0.6","0.8","0.2","0.4","","","","","0.4417589501","0.1176060398","0.197295971","0.3995678287","","","","","","","","","","74","J","1","","","122","main_expt","",""
"","bandit","210","451204","0.0-164.0-0.0","26726497","wem/bandit_party_1","APF1EAZT104LQ","either","3","122","","","","","","","0","1","0","","0.2184653352","0.6","0.8","0.2","0.4","0.4017154396","0.1097677055","0.2184653352","0.3656739583","","","","","","","","","","","","","","75","K","2","","","123","main_expt","",""
"","bandit","211","452781","0.0-165.0-0.0","26726497","wem/bandit_party_1","APF1EAZT104LQ","either","3","3","","","","","","","0","1","0","","0.2147868977","0.6","0.8","0.2","0.4","0.3619070526","0.08048168986","0.2147868977","0.3862549257","","","","","","","","","","","","","","75","K","2","","","124","main_expt","",""
"","bandit","212","454335","0.0-166.0-0.0","26726497","wem/bandit_party_1","APF1EAZT104LQ","either","3","2","","","","","","","0","0","1","0.1667936559","","0.6","0.8","0.2","0.4","","","","","0.3567490645","0.07842900555","0.1667936559","0.3593796239","","","","","","","","","","75","K","2","","","125","main_expt","",""
"","bandit","213","455937","0.0-167.0-0.0","26726497","wem/bandit_party_1","APF1EAZT104LQ","either","3","52","","","","","","","0","0","1","","0.3413194209","0.6","0.8","0.2","0.4","0.3558473019","0.08318363027","0.1453295256","0.3413194209","","","","","","","","","","","","","","76","L","3","","","126","main_expt","",""
"","bandit","214","457484","0.0-168.0-0.0","26726497","wem/bandit_party_1","APF1EAZT104LQ","either","3","3","","","","","","","0","0","1","0.06812438963","","0.6","0.8","0.2","0.4","","","","","0.3543069734","0.06812438963","0.1635755653","0.3369929262","","","","","","","","","","74","J","1","","","127","main_expt","",""
"","bandit","215","459171","0.0-169.0-0.0","26726497","wem/bandit_party_1","APF1EAZT104LQ","either","3","147","","","","","","","0","0","1","0.1872639566","","0.6","0.8","0.2","0.4","","","","","0.3328374851","0.08303766286","0.1872639566","0.2922989636","","","","","","","","","","75","K","2","","","128","main_expt","",""
"","bandit","216","460752","0.0-170.0-0.0","26726497","wem/bandit_party_1","APF1EAZT104LQ","either","3","32","","","","","","","0","0","1","","0.3238683282","0.6","0.8","0.2","0.4","0.3238683282","0.09047360051","0.2032718864","0.3095146075","","","","","","","","","","","","","","72","H","0","img/none_selected.jpg","","129","main_expt","",""
"","bandit","217","462435","0.0-171.0-0.0","26726497","wem/bandit_party_1","APF1EAZT104LQ","either","3","135","","","","","","","0","0","1","0.131542256","","0.6","0.8","0.2","0.4","","","","","0.2750329062","0.131542256","0.2025864764","0.3068425872","","","","","","","","","","74","J","1","","","130","main_expt","",""
"","bandit","218","464014","0.0-172.0-0.0","26726497","wem/bandit_party_1","APF1EAZT104LQ","either","3","18","","","","","","","0","0","1","0.2158584071","","0.6","0.8","0.2","0.4","","","","","0.2751886228","0.1492019489","0.2158584071","0.3112504131","","","","","","","","","","75","K","2","","","131","main_expt","",""
"","bandit","219","465643","0.0-173.0-0.0","26726497","wem/bandit_party_1","APF1EAZT104LQ","either","3","55","","","","","","","1","0","0","0.3595653039","","0.6","0.8","0.2","0.4","","","","","0.2729729886","0.1571188116","0.2105840197","0.3595653039","","","","","","","","","","76","L","3","","","132","main_expt","",""
"","bandit","220","467222","0.0-174.0-0.0","26726497","wem/bandit_party_1","APF1EAZT104LQ","either","3","33","","","","","","","0","0","1","0.2021073832","","0.6","0.8","0.2","0.4","","","","","0.3248088544","0.2021073832","0.2328486735","0.3873527377","","","","","","","","","","74","J","1","","","133","main_expt","",""
"","bandit","221","468920","0.0-175.0-0.0","26726497","wem/bandit_party_1","APF1EAZT104LQ","either","3","152","","","","","","","0","0","1","0.2589092944","","0.6","0.8","0.2","0.4","","","","","0.3596446835","0.2693148074","0.2589092944","0.3973884711","","","","","","","","","","75","K","2","","","134","main_expt","",""
"","bandit","222","470571","0.0-176.0-0.0","26726497","wem/bandit_party_1","APF1EAZT104LQ","either","3","75","","","","","","","1","0","0","0.4080523157","","0.6","0.8","0.2","0.4","","","","","0.318377279","0.2625780805","0.2637326353","0.4080523157","","","","","","","","","","76","L","3","","","135","main_expt","",""
"","bandit","223","472127","0.0-177.0-0.0","26726497","wem/bandit_party_1","APF1EAZT104LQ","either","3","10","","","","","","","0","0","1","","0.4176503084","0.6","0.8","0.2","0.4","0.3160887017","0.2981707722","0.2718680576","0.4176503084","","","","","","","","","","","","","","76","L","3","","","136","main_expt","",""
"","bandit","224","473715","0.0-178.0-0.0","26726497","wem/bandit_party_1","APF1EAZT104LQ","either","3","38","","","","","","","0","0","1","","0.2919957672","0.6","0.8","0.2","0.4","0.2883225013","0.3148158286","0.2919957672","0.3859803947","","","","","","","","","","","","","","75","K","2","","","137","main_expt","",""
"","bandit","225","475260","0.0-179.0-0.0","26726497","wem/bandit_party_1","APF1EAZT104LQ","either","3","3","","","","","","","1","0","0","0.3009152141","","0.6","0.8","0.2","0.4","","","","","0.3009152141","0.3111523267","0.3193993407","0.358492916","","","","","","","","","","72","H","0","img/none_selected.jpg","","138","main_expt","",""
"","bandit","226","476866","0.0-180.0-0.0","26726497","wem/bandit_party_1","APF1EAZT104LQ","either","3","57","","","","","","","0","1","0","","0.3034593298","0.6","0.8","0.2","0.4","0.293720077","0.3034593298","0.3404434035","0.3608756281","","","","","","","","","","","","","","74","J","1","","","139","main_expt","",""
"","bandit","227","478415","0.0-181.0-0.0","26726497","wem/bandit_party_1","APF1EAZT104LQ","either","3","0","","","","","","","0","0","1","","0.286059761","0.6","0.8","0.2","0.4","0.286059761","0.2507495005","0.3278052243","0.3421836092","","","","","","","","","","","","","","72","H","0","img/none_selected.jpg","","140","main_expt","",""
"","bandit","228","480004","0.0-182.0-0.0","26726497","wem/bandit_party_1","APF1EAZT104LQ","either","3","32","","","","","","","0","0","1","","0.2220694513","0.6","0.8","0.2","0.4","0.2931724706","0.2220694513","0.3038906839","0.3737340371","","","","","","","","","","","","","","74","J","1","","","141","main_expt","",""
"","bandit","229","481638","0.0-183.0-0.0","26726497","wem/bandit_party_1","APF1EAZT104LQ","either","3","65","","","","","","","0","0","1","","0.2924195757","0.6","0.8","0.2","0.4","0.2182180164","0.2119249064","0.2924195757","0.3461121542","","","","","","","","","","","","","","75","K","2","","","142","main_expt","",""
"","bandit","230","483368","0.0-184.0-0.0","26726497","wem/bandit_party_1","APF1EAZT104LQ","either","3","150","","","","","","","0","0","1","0.3305931074","","0.6","0.8","0.2","0.4","","","","","0.2015475508","0.2665135591","0.2816149275","0.3305931074","","","","","","","","","","76","L","3","","","143","main_expt","",""
"","bandit","231","484976","0.0-185.0-0.0","26726497","wem/bandit_party_1","APF1EAZT104LQ","either","3","60","","","","","","","0","0","1","0.2074070562","","0.6","0.8","0.2","0.4","","","","","0.2074070562","0.2854155153","0.2355525614","0.3561039987","","","","","","","","","","72","H","0","img/none_selected.jpg","","144","main_expt","",""
"","bandit","232","486619","0.0-186.0-0.0","26726497","wem/bandit_party_1","APF1EAZT104LQ","either","3","60","","","","","","","0","0","1","0.2185662272","","0.6","0.8","0.2","0.4","","","","","0.1415368311","0.2521048148","0.2185662272","0.3648023512","","","","","","","","","","75","K","2","","","145","main_expt","",""
"","bandit","233","488172","0.0-187.0-0.0","26726497","wem/bandit_party_1","APF1EAZT104LQ","either","3","0","","","","","","","0","0","1","0.2321266643","","0.6","0.8","0.2","0.4","","","","","0.1549520657","0.2321266643","0.2209315791","0.3450315","","","","","","","","","","74","J","1","","","146","main_expt","",""
"","bandit","234","489952","0.0-188.0-0.0","26726497","wem/bandit_party_1","APF1EAZT104LQ","either","3","153","","","","","","","1","0","0","0.2720321141","","0.6","0.8","0.2","0.4","","","","","0.1469310363","0.3159383216","0.2889766311","0.2720321141","","","","","","","","","","76","L","3","","","147","main_expt","",""
"","bandit","235","491882","0.0-189.0-0.0","26726497","wem/bandit_party_1","APF1EAZT104LQ","either","3","328","","","","","","","0","0","1","","0.2598972664","0.6","0.8","0.2","0.4","0.1332828417","0.2673485129","0.2859466156","0.2598972664","","","","","","","","","","","","","","76","L","3","","","148","main_expt","",""
"","bandit","236","493570","0.0-190.0-0.0","26726497","wem/bandit_party_1","APF1EAZT104LQ","either","3","12","","","","","","","0","0","1","","0.2588478233","0.6","0.8","0.2","0.4","0.1102010463","0.3348600541","0.2588478233","0.2343157719","","","","","","","","","","","","","","75","K","2","","","149","main_expt","",""
"","bandit","237","495739","0.0-191.0-0.0","26726497","wem/bandit_party_1","APF1EAZT104LQ","either","3","457","","","","","","","1","0","0","0.3659656834","","0.6","0.8","0.2","0.4","","","","","0.1356103494","0.3659656834","0.2224653457","0.2451363599","","","","","","","","","","74","J","1","","","150","main_expt","",""
"","bandit","238","497669","0.0-192.0-0.0","26726497","wem/bandit_party_1","APF1EAZT104LQ","either","3","246","","","","","","","0","0","1","0.36397653","","0.6","0.8","0.2","0.4","","","","","0.1621229287","0.36397653","0.2387237716","0.2053737132","","","","","","","","","","74","J","1","","","151","main_expt","",""
"","bandit","239","499407","0.0-193.0-0.0","26726497","wem/bandit_party_1","APF1EAZT104LQ","either","3","6","","","","","","","0","0","1","0.3710672623","","0.6","0.8","0.2","0.4","","","","","0.1412745606","0.3710672623","0.2519133504","0.2396242378","","","","","","","","","","74","J","1","","","152","main_expt","",""
"","bandit","240","501729","0.0-194.0-0.0","26726497","wem/bandit_party_1","APF1EAZT104LQ","either","3","534","","","","","","","0","0","1","","0.3078499427","0.6","0.8","0.2","0.4","0.1707580034","0.3828607765","0.3078499427","0.2923277395","","","","","","","","","","","","","","75","K","2","","","153","main_expt","",""
"","bandit","241","503517","0.0-195.0-0.0","26726497","wem/bandit_party_1","APF1EAZT104LQ","either","3","0","","","","","","","0","0","1","0.3526468527","","0.6","0.8","0.2","0.4","","","","","0.1717455462","0.3526468527","0.3283820497","0.3166515581","","","","","","","","","","74","J","1","","","154","main_expt","",""
"","bandit","242","505351","0.0-196.0-0.0","26726497","wem/bandit_party_1","APF1EAZT104LQ","either","3","156","","","","","","","0","0","1","0.1785539081","","0.6","0.8","0.2","0.4","","","","","0.1785539081","0.3865981945","0.3303057687","0.3194616596","","","","","","","","","","72","H","0","img/none_selected.jpg","","155","main_expt","",""
"","bandit","243","507703","0.0-197.0-0.0","26726497","wem/bandit_party_1","APF1EAZT104LQ","either","3","474","","","","","","","0","0","1","0.4328422877","","0.6","0.8","0.2","0.4","","","","","0.2175815231","0.4328422877","0.3178912443","0.3767011333","","","","","","","","","","74","J","1","","","156","main_expt","",""
"","bandit","244","509324","0.0-198.0-0.0","26726497","wem/bandit_party_1","APF1EAZT104LQ","either","3","82","","","","","","","0","1","0","","0.3236874272","0.6","0.8","0.2","0.4","0.216674397","0.4224906378","0.3236874272","0.3853144204","","","","","","","","","","","","","","75","K","2","","","157","main_expt","",""
"","bandit","245","510907","0.0-199.0-0.0","26726497","wem/bandit_party_1","APF1EAZT104LQ","either","3","22","","","","","","","0","1","0","","0.3731337511","0.6","0.8","0.2","0.4","0.2184316938","0.4428847078","0.3731337511","0.3519128793","","","","","","","","","","","","","","75","K","2","","","158","main_expt","",""
"","bandit","246","512563","0.0-200.0-0.0","26726497","wem/bandit_party_1","APF1EAZT104LQ","either","3","117","","","","","","","0","1","0","","0.3255157266","0.6","0.8","0.2","0.4","0.2603966468","0.4498083842","0.3758107074","0.3255157266","","","","","","","","","","","","","","76","L","3","","","159","main_expt","",""
"","bandit","247","514115","0.0-201.0-0.0","26726497","wem/bandit_party_1","APF1EAZT104LQ","either","3","0","","","","","","","0","0","1","0.3494215766","","0.6","0.8","0.2","0.4","","","","","0.2242017374","0.4319550234","0.3494215766","0.379238532","","","","","","","","","","75","K","2","","","160","main_expt","",""
"","bandit","248","515768","0.0-202.0-0.0","26726497","wem/bandit_party_1","APF1EAZT104LQ","either","3","103","","","","","","","0","0","1","0.4417514389","","0.6","0.8","0.2","0.4","","","","","0.2014027125","0.4417514389","0.3327111917","0.3776335756","","","","","","","","","","74","J","1","","","161","main_expt","",""
"","bandit","249","517403","0.0-203.0-0.0","26726497","wem/bandit_party_1","APF1EAZT104LQ","either","3","93","","","","","","","0","0","1","","0.2955751891","0.6","0.8","0.2","0.4","0.2038621466","0.4081293495","0.3171011618","0.2955751891","","","","","","","","","","","","","","76","L","3","","","162","main_expt","",""
"","bandit","250","518961","0.0-204.0-0.0","26726497","wem/bandit_party_1","APF1EAZT104LQ","either","3","5","","","","","","","0","0","1","","0.364183239","0.6","0.8","0.2","0.4","0.1238136799","0.4265776113","0.364183239","0.30851492","","","","","","","","","","","","","","75","K","2","","","163","main_expt","",""
"","bandit","251","520608","0.0-205.0-0.0","26726497","wem/bandit_party_1","APF1EAZT104LQ","either","3","85","","","","","","","0","0","1","0.427472809","","0.6","0.8","0.2","0.4","","","","","0.1104941302","0.427472809","0.3917374524","0.3074756362","","","","","","","","","","74","J","1","","","164","main_expt","",""
"","bandit","252","522468","0.0-206.0-0.0","26726497","wem/bandit_party_1","APF1EAZT104LQ","either","3","311","","","","","","","0","0","1","","0.1099358877","0.6","0.8","0.2","0.4","0.1099358877","0.4016343469","0.3629360172","0.2743039079","","","","","","","","","","","","","","72","H","0","img/none_selected.jpg","","165","main_expt","",""
"","bandit","253","524023","0.0-207.0-0.0","26726497","wem/bandit_party_1","APF1EAZT104LQ","either","3","5","","","","","","","0","0","1","","0.3697042915","0.6","0.8","0.2","0.4","0.08082918558","0.3578169927","0.3697042915","0.2900226329","","","","","","","","","","","","","","75","K","2","","","166","main_expt","",""
"","bandit","254","525767","0.0-208.0-0.0","26726497","wem/bandit_party_1","APF1EAZT104LQ","either","3","195","","","","","","","0","0","1","0.3444017494","","0.6","0.8","0.2","0.4","","","","","0.08539074978","0.3346076013","0.3626443337","0.3444017494","","","","","","","","","","76","L","3","","","167","main_expt","",""
"","bandit","255","527333","0.0-209.0-0.0","26726497","wem/bandit_party_1","APF1EAZT104LQ","either","3","2","","","","","","","0","1","0","","0.3488380128","0.6","0.8","0.2","0.4","0.1307687804","0.36326211","0.3488380128","0.3934904689","","","","","","","","","","","","","","75","K","2","","","168","main_expt","",""
"","bandit","256","528890","0.0-210.0-0.0","26726497","wem/bandit_party_1","APF1EAZT104LQ","either","3","5","","","","","","","0","0","1","","0.3338465455","0.6","0.8","0.2","0.4","0.09435724838","0.3389060657","0.3338465455","0.3712778229","","","","","","","","","","","","","","75","K","2","","","169","main_expt","",""
"","bandit","257","530507","0.0-211.0-0.0","26726497","wem/bandit_party_1","APF1EAZT104LQ","either","3","65","","","","","","","0","1","0","","0.3348119161","0.6","0.8","0.2","0.4","0.09371103674","0.3820287301","0.3675902536","0.3348119161","","","","","","","","","","","","","","76","L","3","","","170","main_expt","",""
"","bandit","258","532082","0.0-212.0-0.0","26726497","wem/bandit_party_1","APF1EAZT104LQ","either","3","5","","","","","","","1","0","0","0.3738350687","","0.6","0.8","0.2","0.4","","","","","0.0912992704","0.3738350687","0.3663425941","0.3697689907","","","","","","","","","","74","J","1","","","171","main_expt","",""
"","bandit","259","533879","0.0-213.0-0.0","26726497","wem/bandit_party_1","APF1EAZT104LQ","either","3","248","","","","","","","1","0","0","0.3449486646","","0.6","0.8","0.2","0.4","","","","","0.1053216192","0.3449486646","0.3571019768","0.3438364448","","","","","","","","","","74","J","1","","","172","main_expt","",""
"","bandit","260","535547","0.0-214.0-0.0","26726497","wem/bandit_party_1","APF1EAZT104LQ","either","3","123","","","","","","","0","0","1","0.3754463001","","0.6","0.8","0.2","0.4","","","","","0.1119971747","0.3754463001","0.383943734","0.4064517123","","","","","","","","","","74","J","1","","","173","main_expt","",""
"","bandit","261","537120","0.0-215.0-0.0","26726497","wem/bandit_party_1","APF1EAZT104LQ","either","3","18","","","","","","","1","0","0","0.378453819","","0.6","0.8","0.2","0.4","","","","","0.1049574405","0.3983783957","0.378453819","0.4266345201","","","","","","","","","","75","K","2","","","174","main_expt","",""
"","bandit","262","538697","0.0-216.0-0.0","26726497","wem/bandit_party_1","APF1EAZT104LQ","either","3","27","","","","","","","0","0","1","","0.4413212306","0.6","0.8","0.2","0.4","0.07351671593","0.4176958341","0.3577460836","0.4413212306","","","","","","","","","","","","","","76","L","3","","","175","main_expt","",""
"","bandit","263","540279","0.0-217.0-0.0","26726497","wem/bandit_party_1","APF1EAZT104LQ","either","3","2","","","","","","","0","0","1","0.06097876817","","0.6","0.8","0.2","0.4","","","","","0.06097876817","0.4336280271","0.3346789668","0.438548454","","","","","","","","","","72","H","0","img/none_selected.jpg","","176","main_expt","",""
"","bandit","264","541843","0.0-218.0-0.0","26726497","wem/bandit_party_1","APF1EAZT104LQ","either","3","12","","","","","","","0","0","1","0.3863917124","","0.6","0.8","0.2","0.4","","","","","0.05873143133","0.3863917124","0.3720341948","0.4350726265","","","","","","","","","","74","J","1","","","177","main_expt","",""
"","bandit","265","543451","0.0-219.0-0.0","26726497","wem/bandit_party_1","APF1EAZT104LQ","either","3","47","","","","","","","0","0","1","0.07829718294","","0.6","0.8","0.2","0.4","","","","","0.07829718294","0.3826512014","0.4243236705","0.4029859975","","","","","","","","","","72","H","0","img/none_selected.jpg","","178","main_expt","",""
"","bandit","266","545102","0.0-220.0-0.0","26726497","wem/bandit_party_1","APF1EAZT104LQ","either","3","100","","","","","","","1","0","0","0.4396564102","","0.6","0.8","0.2","0.4","","","","","0.05868413977","0.3681046487","0.4396564102","0.3738585124","","","","","","","","","","75","K","2","","","179","main_expt","",""
"","bandit","267","546663","0.0-221.0-0.0","26726497","wem/bandit_party_1","APF1EAZT104LQ","either","3","10","","","","","","","0","1","0","","0.4501825932","0.6","0.8","0.2","0.4","0.04540529238","0.374340785","0.4501825932","0.3884150149","","","","","","","","","","","","","","75","K","2","","","180","main_expt","",""
"","bandit","268","548262","0.0-222.0-0.0","26726497","wem/bandit_party_1","APF1EAZT104LQ","either","3","45","","","","","","","0","1","0","","0.4527537228","0.6","0.8","0.2","0.4","0.04810206047","0.3844034803","0.4527537228","0.3977335033","","","","","","","","","","","","","","75","K","2","","","181","main_expt","",""
"","bandit","269","549822","0.0-223.0-0.0","26726497","wem/bandit_party_1","APF1EAZT104LQ","either","3","5","","","","","","","0","0","1","","0.4733821952","0.6","0.8","0.2","0.4","0.0564969073","0.3569363444","0.4733821952","0.4194204302","","","","","","","","","","","","","","75","K","2","","","182","main_expt","",""
"","bandit","270","551396","0.0-224.0-0.0","26726497","wem/bandit_party_1","APF1EAZT104LQ","either","3","2","","","","","","","1","0","0","0.4050300101","","0.6","0.8","0.2","0.4","","","","","0.06674959941","0.3930074682","0.4741352064","0.4050300101","","","","","","","","","","76","L","3","","","183","main_expt","",""
"","bandit","271","552972","0.0-225.0-0.0","26726497","wem/bandit_party_1","APF1EAZT104LQ","either","3","12","","","","","","","0","0","1","0.4105724965","","0.6","0.8","0.2","0.4","","","","","0.05730522946","0.4105724965","0.4835015011","0.4272992256","","","","","","","","","","74","J","1","","","184","main_expt","",""
"","bandit","272","554651","0.0-226.0-0.0","26726497","wem/bandit_party_1","APF1EAZT104LQ","either","3","115","","","","","","","0","0","1","","0.4213026748","0.6","0.8","0.2","0.4","0.0759668512","0.4230276401","0.4907566516","0.4213026748","","","","","","","","","","","","","","76","L","3","","","185","main_expt","",""
"","bandit","273","556271","0.0-227.0-0.0","26726497","wem/bandit_party_1","APF1EAZT104LQ","either","3","63","","","","","","","0","1","0","","0.4777100538","0.6","0.8","0.2","0.4","0.0736669194","0.4243078066","0.4777100538","0.3729626057","","","","","","","","","","","","","","75","K","2","","","186","main_expt","",""
"","bandit","274","557825","0.0-228.0-0.0","26726497","wem/bandit_party_1","APF1EAZT104LQ","either","3","3","","","","","","","1","0","0","0.4751658893","","0.6","0.8","0.2","0.4","","","","","0.1020870739","0.419104652","0.4751658893","0.4022080601","","","","","","","","","","75","K","2","","","187","main_expt","",""
"","bandit","275","559558","0.0-229.0-0.0","26726497","wem/bandit_party_1","APF1EAZT104LQ","either","3","182","","","","","","","1","0","0","0.3917910895","","0.6","0.8","0.2","0.4","","","","","0.110066606","0.3917910895","0.4711403756","0.4218987807","","","","","","","","","","74","J","1","","","188","main_expt","",""
"","bandit","276","561180","0.0-230.0-0.0","26726497","wem/bandit_party_1","APF1EAZT104LQ","either","3","57","","","","","","","0","0","1","","0.4848283219","0.6","0.8","0.2","0.4","0.1616324423","0.3696037293","0.4848283219","0.4284519853","","","","","","","","","","","","","","75","K","2","","","189","main_expt","",""
"","bandit","277","562867","0.0-231.0-0.0","26726497","wem/bandit_party_1","APF1EAZT104LQ","either","3","150","","","","","","","0","0","1","0.1401199573","","0.6","0.8","0.2","0.4","","","","","0.1401199573","0.3722688899","0.4906713727","0.4104863902","","","","","","","","","","72","H","0","img/none_selected.jpg","","190","main_expt","",""
"","bandit","278","564532","0.0-232.0-0.0","26726497","wem/bandit_party_1","APF1EAZT104LQ","either","3","70","","","","","","","0","0","1","0.3956575009","","0.6","0.8","0.2","0.4","","","","","0.1782786715","0.3956575009","0.4944082075","0.4071825693","","","","","","","","","","74","J","1","","","191","main_expt","",""
"","bandit","279","566100","0.0-233.0-0.0","26726497","wem/bandit_party_1","APF1EAZT104LQ","either","3","5","","","","","","","0","0","1","","0.4922337742","0.6","0.8","0.2","0.4","0.203517815","0.3843500594","0.4922337742","0.4172763132","","","","","","","","","","","","","","75","K","2","","","192","main_expt","",""
"","bandit","280","567714","0.0-234.0-0.0","26726497","wem/bandit_party_1","APF1EAZT104LQ","either","3","60","","","","","","","0","0","1","0.3965334946","","0.6","0.8","0.2","0.4","","","","","0.172030281","0.3801723293","0.4887356563","0.3965334946","","","","","","","","","","76","L","3","","","193","main_expt","",""
"","bandit","281","569369","0.0-235.0-0.0","26726497","wem/bandit_party_1","APF1EAZT104LQ","either","3","113","","","","","","","0","0","1","0.1813301739","","0.6","0.8","0.2","0.4","","","","","0.1813301739","0.3871645121","0.4850955297","0.383316574","","","","","","","","","","72","H","0","img/none_selected.jpg","","194","main_expt","",""
"","bandit","282","571023","0.0-236.0-0.0","26726497","wem/bandit_party_1","APF1EAZT104LQ","either","3","88","","","","","","","0","0","1","","0.3633903175","0.6","0.8","0.2","0.4","0.2284295163","0.3633903175","0.4848341758","0.3965345796","","","","","","","","","","","","","","74","J","1","","","195","main_expt","",""
"","bandit","283","572623","0.0-237.0-0.0","26726497","wem/bandit_party_1","APF1EAZT104LQ","either","3","40","","","","","","","0","1","0","","0.490049139","0.6","0.8","0.2","0.4","0.2501246714","0.3811675741","0.490049139","0.3978469093","","","","","","","","","","","","","","75","K","2","","","196","main_expt","",""
"","bandit","284","574269","0.0-238.0-0.0","26726497","wem/bandit_party_1","APF1EAZT104LQ","either","3","87","","","","","","","0","0","1","","0.4912643012","0.6","0.8","0.2","0.4","0.3150809007","0.3487868089","0.4912643012","0.3172926233","","","","","","","","","","","","","","75","K","2","","","197","main_expt","",""
"","bandit","285","575911","0.0-239.0-0.0","26726497","wem/bandit_party_1","APF1EAZT104LQ","either","3","82","","","","","","","1","0","0","0.3113170709","","0.6","0.8","0.2","0.4","","","","","0.3442077965","0.2986771554","0.4793615714","0.3113170709","","","","","","","","","","76","L","3","","","198","main_expt","",""
"","bandit","286","577598","0.0-240.0-0.0","26726497","wem/bandit_party_1","APF1EAZT104LQ","either","3","103","","","","","","","0","0","1","0.3481418533","","0.6","0.8","0.2","0.4","","","","","0.3675051223","0.3481418533","0.4661622676","0.3066116159","","","","","","","","","","74","J","1","","","199","main_expt","",""
"","bandit","287","579235","0.0-241.0-0.0","26726497","wem/bandit_party_1","APF1EAZT104LQ","either","3","90","","","","","","","0","1","0","","0.4479238565","0.6","0.8","0.2","0.4","0.3044821291","0.353319573","0.4479238565","0.2521122026","","","","","","","","","","","","","","75","K","2","","","200","main_expt","",""
"","bandit","288","580886","0.0-242.0-0.0","26726497","wem/bandit_party_1","APF1EAZT104LQ","either","3","98","","","","","","","0","0","1","","0.4429166455","0.6","0.8","0.2","0.4","0.3013824411","0.3676338631","0.4429166455","0.2679963248","","","","","","","","","","","","","","75","K","2","","","201","main_expt","",""
"","bandit","289","582577","0.0-243.0-0.0","26726497","wem/bandit_party_1","APF1EAZT104LQ","either","3","128","","","","","","","1","0","0","0.311657493","","0.6","0.8","0.2","0.4","","","","","0.3001954661","0.311657493","0.442820363","0.2076546236","","","","","","","","","","74","J","1","","","202","main_expt","",""
"","bandit","290","584319","0.0-244.0-0.0","26726497","wem/bandit_party_1","APF1EAZT104LQ","either","3","188","","","","","","","1","0","0","0.3364041998","","0.6","0.8","0.2","0.4","","","","","0.3189156814","0.3364041998","0.4539008368","0.1881707852","","","","","","","","","","74","J","1","","","203","main_expt","",""
"","bandit","291","585913","0.0-245.0-0.0","26726497","wem/bandit_party_1","APF1EAZT104LQ","either","3","35","","","","","","","0","0","1","","0.4163307037","0.6","0.8","0.2","0.4","0.3162062407","0.3148670147","0.4163307037","0.2057853427","","","","","","","","","","","","","","75","K","2","","","204","main_expt","",""
"","bandit","292","587563","0.0-246.0-0.0","26726497","wem/bandit_party_1","APF1EAZT104LQ","either","3","95","","","","","","","0","0","1","","0.3293187519","0.6","0.8","0.2","0.4","0.347278619","0.3293187519","0.4045388199","0.2564451259","","","","","","","","","","","","","","74","J","1","","","205","main_expt","",""
"","bandit","293","589137","0.0-247.0-0.0","26726497","wem/bandit_party_1","APF1EAZT104LQ","either","3","12","","","","","","","0","0","1","0.2970129147","","0.6","0.8","0.2","0.4","","","","","0.2970129147","0.2705077244","0.4083422121","0.3082896296","","","","","","","","","","72","H","0","img/none_selected.jpg","","206","main_expt","",""
"","bandit","294","590809","0.0-248.0-0.0","26726497","wem/bandit_party_1","APF1EAZT104LQ","either","3","112","","","","","","","0","0","1","0.3235103938","","0.6","0.8","0.2","0.4","","","","","0.3331481178","0.3083591011","0.4033585138","0.3235103938","","","","","","","","","","76","L","3","","","207","main_expt","",""
"","bandit","295","592481","0.0-249.0-0.0","26726497","wem/bandit_party_1","APF1EAZT104LQ","either","3","130","","","","","","","0","1","0","","0.3753320851","0.6","0.8","0.2","0.4","0.3195917859","0.2489273718","0.3753320851","0.3563539536","","","","","","","","","","","","","","75","K","2","","","208","main_expt","",""
"","bandit","296","594041","0.0-250.0-0.0","26726497","wem/bandit_party_1","APF1EAZT104LQ","either","3","2","","","","","","","0","0","1","","0.3864970555","0.6","0.8","0.2","0.4","0.3642345195","0.2224321457","0.3864970555","0.3821305916","","","","","","","","","","","","","","75","K","2","","","209","main_expt","",""
"","bandit","297","595747","0.0-251.0-0.0","26726497","wem/bandit_party_1","APF1EAZT104LQ","either","3","152","","","","","","","0","0","1","0.4067483812","","0.6","0.8","0.2","0.4","","","","","0.3518797164","0.2184729634","0.3894881908","0.4067483812","","","","","","","","","","76","L","3","","","210","main_expt","",""
"","bandit","298","597308","0.0-252.0-0.0","26726497","wem/bandit_party_1","APF1EAZT104LQ","either","3","2","","","","","","","0","0","1","","0.4052823736","0.6","0.8","0.2","0.4","0.3781537602","0.2178464352","0.4052823736","0.376825818","","","","","","","","","","","","","","75","K","2","","","211","main_expt","",""
"","bandit","299","598940","0.0-253.0-0.0","26726497","wem/bandit_party_1","APF1EAZT104LQ","either","3","70","","","","","","","0","0","1","0.1644702768","","0.6","0.8","0.2","0.4","","","","","0.3773353051","0.1644702768","0.3783189977","0.3481764155","","","","","","","","","","74","J","1","","","212","main_expt","",""
"","bandit","300","600577","0.0-254.0-0.0","26726497","wem/bandit_party_1","APF1EAZT104LQ","either","3","60","","","","","","","0","0","1","","0.3804187243","0.6","0.8","0.2","0.4","0.3448860985","0.1271660564","0.3804187243","0.3239198888","","","","","","","","","","","","","","75","K","2","","","213","main_expt","",""
"","bandit","301","602322","0.0-255.0-0.0","26726497","wem/bandit_party_1","APF1EAZT104LQ","either","3","203","","","","","","","0","0","1","0.1368129038","","0.6","0.8","0.2","0.4","","","","","0.3622000499","0.1368129038","0.3964056757","0.3592643085","","","","","","","","","","74","J","1","","","214","main_expt","",""
"","bandit","302","603912","0.0-256.0-0.0","26726497","wem/bandit_party_1","APF1EAZT104LQ","either","3","28","","","","","","","0","0","1","0.3408682726","","0.6","0.8","0.2","0.4","","","","","0.3408682726","0.07615368859","0.3939862607","0.3482739819","","","","","","","","","","72","H","0","img/none_selected.jpg","","215","main_expt","",""
"","bandit","303","605747","0.0-257.0-0.0","26726497","wem/bandit_party_1","APF1EAZT104LQ","either","3","293","","","","","","","1","0","0","0.07711559412","","0.6","0.8","0.2","0.4","","","","","0.328819006","0.07711559412","0.4062496234","0.2972527025","","","","","","","","","","74","J","1","","","216","main_expt","",""
"","bandit","304","607477","0.0-258.0-0.0","26726497","wem/bandit_party_1","APF1EAZT104LQ","either","3","160","","","","","","","0","0","1","0.07728173513","","0.6","0.8","0.2","0.4","","","","","0.3229374792","0.07728173513","0.3440498305","0.2850944341","","","","","","","","","","74","J","1","","","217","main_expt","",""
"","bandit","305","609151","0.0-259.0-0.0","26726497","wem/bandit_party_1","APF1EAZT104LQ","either","3","122","","","","","","","0","0","1","0.07919919155","","0.6","0.8","0.2","0.4","","","","","0.3616220652","0.07919919155","0.3198020565","0.2483413171","","","","","","","","","","74","J","1","","","218","main_expt","",""
"","bandit","306","611099","0.0-260.0-0.0","26726497","wem/bandit_party_1","APF1EAZT104LQ","either","3","395","","","","","","","0","0","1","","0.3078290176","0.6","0.8","0.2","0.4","0.3591176528","0.1270410367","0.3078290176","0.2680513607","","","","","","","","","","","","","","75","K","2","","","219","main_expt","",""
"","bandit","307","612783","0.0-261.0-0.0","26726497","wem/bandit_party_1","APF1EAZT104LQ","either","3","125","","","","","","","0","0","1","0.1117499599","","0.6","0.8","0.2","0.4","","","","","0.2758994579","0.1117499599","0.2961895162","0.304668496","","","","","","","","","","74","J","1","","","220","main_expt","",""
"","bandit","308","614418","0.0-262.0-0.0","26726497","wem/bandit_party_1","APF1EAZT104LQ","either","3","72","","","","","","","0","0","1","0.1186324211","","0.6","0.8","0.2","0.4","","","","","0.3119987931","0.1186324211","0.2658603678","0.2773284289","","","","","","","","","","74","J","1","","","221","main_expt","",""
"","bandit","309","616147","0.0-263.0-0.0","26726497","wem/bandit_party_1","APF1EAZT104LQ","either","3","150","","","","","","","0","0","1","","0.2152506718","0.6","0.8","0.2","0.4","0.3106374463","0.1141050397","0.274695037","0.2152506718","","","","","","","","","","","","","","76","L","3","","","222","main_expt","",""
"","bandit","310","617776","0.0-264.0-0.0","26726497","wem/bandit_party_1","APF1EAZT104LQ","either","3","57","","","","","","","0","0","1","","0.1007228699","0.6","0.8","0.2","0.4","0.3131570504","0.1007228699","0.2210940289","0.2445797097","","","","","","","","","","","","","","74","J","1","","","223","main_expt","",""
"","bandit","311","619336","0.0-265.0-0.0","26726497","wem/bandit_party_1","APF1EAZT104LQ","either","3","3","","","","","","","0","0","1","","0.1843933297","0.6","0.8","0.2","0.4","0.3025994915","0.1380584308","0.1843933297","0.2559263424","","","","","","","","","","","","","","75","K","2","","","224","main_expt","",""
"","bandit","312","620999","0.0-266.0-0.0","26726497","wem/bandit_party_1","APF1EAZT104LQ","either","3","107","","","","","","","0","1","0","","0.2994132709","0.6","0.8","0.2","0.4","0.2994132709","0.1393521225","0.212211923","0.2702522324","","","","","","","","","","","","","","72","H","0","img/none_selected.jpg","","225","main_expt","",""
"","bandit","313","622561","0.0-267.0-0.0","26726497","wem/bandit_party_1","APF1EAZT104LQ","either","3","5","","","","","","","0","0","1","","0.2866794375","0.6","0.8","0.2","0.4","0.2866794375","0.2094269877","0.2315036379","0.2646860425","","","","","","","","","","","","","","72","H","0","img/none_selected.jpg","","226","main_expt","",""
"","bandit","314","624123","0.0-268.0-0.0","26726497","wem/bandit_party_1","APF1EAZT104LQ","either","3","2","","","","","","","1","0","0","0.2646353212","","0.6","0.8","0.2","0.4","","","","","0.2299222882","0.2959232149","0.2646353212","0.269556559","","","","","","","","","","75","K","2","","","227","main_expt","",""
"","bandit","315","625871","0.0-269.0-0.0","26726497","wem/bandit_party_1","APF1EAZT104LQ","either","3","178","","","","","","","0","0","1","","0.2991813551","0.6","0.8","0.2","0.4","0.2991813551","0.374355758","0.2443517867","0.2498152532","","","","","","","","","","","","","","72","H","0","img/none_selected.jpg","","228","main_expt","",""
"","bandit","316","627581","0.0-270.0-0.0","26726497","wem/bandit_party_1","APF1EAZT104LQ","either","3","148","","","","","","","0","0","1","0.3876740502","","0.6","0.8","0.2","0.4","","","","","0.3295538921","0.3876740502","0.2569692975","0.2495566458","","","","","","","","","","74","J","1","","","229","main_expt","",""
"","bandit","317","629290","0.0-271.0-0.0","26726497","wem/bandit_party_1","APF1EAZT104LQ","either","3","143","","","","","","","0","0","1","0.3341674595","","0.6","0.8","0.2","0.4","","","","","0.2713593359","0.3341674595","0.2490290172","0.2134382902","","","","","","","","","","74","J","1","","","230","main_expt","",""
