"consent","trial_type","trial_index","time_elapsed","internal_node_id","subjID","study","MID","cond","drift","rt","responses","button_pressed","key_press","like","value","connected","gems","bombs","no_reward","GemPrChosen","BombPrChosen","GainOverPainPr_0","GainOverPainPr_1","GainOverPainPr_2","GainOverPainPr_3","LosePr_0","LosePr_1","LosePr_2","LosePr_3","WinPr_0","WinPr_1","WinPr_2","WinPr_3","Q0","Q1","Q2","gender","age","ethnicity","label","expt_phase","target","respCharCode","respKey","respChoiceNum","respChoice","practice","trial_counter","trial_label","Q0_index"
"GDM/GDM_behavioral_consent_30min_online.html","consent","0","47289","0.0-0.0","28137895","wem/bandit_party_1","A2AEVNP6L22YCC","either","5","","","","","","","","","","","","","","","","","","","","","","","","","","","","","","","","","","","","","","","","",""
"","survey-text","1","56392","0.0-1.0","28137895","wem/bandit_party_1","A2AEVNP6L22YCC","either","5","8078","{""Q0"":""A2AEVNP6L22YCC""}","","","","","","","","","","","","","","","","","","","","","","","","","","","","","","","","","","","","","","",""
"","button-response","2","59921","0.0-2.0","28137895","wem/bandit_party_1","A2AEVNP6L22YCC","either","5","2513","","0","","","","","","","","","","","","","","","","","","","","","","","","","","","","","","","","","","","","","",""
"","text-replacement","3","88017","0.0-3.0","28137895","wem/bandit_party_1","A2AEVNP6L22YCC","either","5","27084","","","32","","","","","","","","","","","","","","","","","","","","","","","","","","","","","","","","","","","","",""
"","text-replacement","4","96834","0.0-4.0","28137895","wem/bandit_party_1","A2AEVNP6L22YCC","either","5","8817","","","32","","","","","","","","","","","","","","","","","","","","","","","","","","","","","","","","","","","","",""
"","identification","5","117936","0.0-6.0-0.0","28137895","wem/bandit_party_1","A2AEVNP6L22YCC","either","5","21061","","","","1","1","0","","","","","","","","","","","","","","","","","","","","","","","","pre","identification_pre","the Democratic Party","","","","","","","",""
"","identification","6","129618","0.0-6.0-1.0","28137895","wem/bandit_party_1","A2AEVNP6L22YCC","either","5","10643","","","","4","4","5","","","","","","","","","","","","","","","","","","","","","","","","pre","identification_pre","the Republican party","","","","","","","",""
"","text-replacement","7","137509","0.0-7.0","28137895","wem/bandit_party_1","A2AEVNP6L22YCC","either","5","6883","","","32","","","","","","","","","","","","","","","","","","","","","","","","","","","","","","","","","","","","",""
"","text-replacement","8","141550","0.0-8.0","28137895","wem/bandit_party_1","A2AEVNP6L22YCC","either","5","4033","","","32","","","","","","","","","","","","","","","","","","","","","","","","","","","","","","","","","","","","",""
"","text-replacement","9","147820","0.0-9.0","28137895","wem/bandit_party_1","A2AEVNP6L22YCC","either","5","6262","","","32","","","","","","","","","","","","","","","","","","","","","","","","","","","","","","","","","","","","",""
"","text-replacement","10","152698","0.0-10.0","28137895","wem/bandit_party_1","A2AEVNP6L22YCC","either","5","4874","","","32","","","","","","","","","","","","","","","","","","","","","","","","","","","","","","","","","","","","",""
"","text-replacement","11","156225","0.0-11.0","28137895","wem/bandit_party_1","A2AEVNP6L22YCC","either","5","3523","","","32","","","","","","","","","","","","","","","","","","","","","","","","","","","","","","","","","","","","",""
"","bandit","12","159431","0.0-12.0-0.0","28137895","wem/bandit_party_1","A2AEVNP6L22YCC","either","5","1626","","","","","","","0","0","1","0","0","","","","","0","","","","0","","","","","","","","","","","","","74","J","0","img/none_selected_demo.jpg","true","0","",""
"","bandit","13","162376","0.0-13.0-0.0","28137895","wem/bandit_party_1","A2AEVNP6L22YCC","either","5","1421","","","","","","","0","0","1","0","0","","","","","0","","","","0","","","","","","","","","","","","","75","K","0","img/none_selected_demo.jpg","true","0","",""
"","text-replacement","14","180816","0.0-14.0","28137895","wem/bandit_party_1","A2AEVNP6L22YCC","either","5","18436","","","32","","","","","","","","","","","","","","","","","","","","","","","","","","","","","","","","","","","","",""
"","text-replacement","15","184021","0.0-15.0","28137895","wem/bandit_party_1","A2AEVNP6L22YCC","either","5","3201","","","32","","","","","","","","","","","","","","","","","","","","","","","","","","","","","","","","","","","","",""
"","text-replacement","16","187825","0.0-16.0","28137895","wem/bandit_party_1","A2AEVNP6L22YCC","either","5","3798","","","32","","","","","","","","","","","","","","","","","","","","","","","","","","","","","","","","","","","","",""
"","text-replacement","17","191450","0.0-17.0","28137895","wem/bandit_party_1","A2AEVNP6L22YCC","either","5","3620","","","32","","","","","","","","","","","","","","","","","","","","","","","","","","","","","","","","","","","","",""
"","bandit","18","194640","0.0-18.0-0.0","28137895","wem/bandit_party_1","A2AEVNP6L22YCC","either","5","1671","","","","","","","1","0","0","0.2","","0.5","0.5","","","","","","","0.8","0.2","","","","","","","","","","","","75","K","1","","true","0","80_20_practice",""
"","bandit","19","197012","0.0-18.0-1.0","28137895","wem/bandit_party_1","A2AEVNP6L22YCC","either","5","848","","","","","","","0","1","0","","0.2","0.5","0.5","","","0.8","0.2","","","","","","","","","","","","","","","","75","K","1","","true","0","80_20_practice",""
"","bandit","20","198963","0.0-18.0-2.0","28137895","wem/bandit_party_1","A2AEVNP6L22YCC","either","5","431","","","","","","","0","1","0","","0.2","0.5","0.5","","","0.8","0.2","","","","","","","","","","","","","","","","75","K","1","","true","0","80_20_practice",""
"","bandit","21","201027","0.0-18.0-3.0","28137895","wem/bandit_party_1","A2AEVNP6L22YCC","either","5","547","","","","","","","0","0","1","0.2","","0.5","0.5","","","","","","","0.8","0.2","","","","","","","","","","","","75","K","1","","true","0","80_20_practice",""
"","bandit","22","202587","0.0-18.0-4.0","28137895","wem/bandit_party_1","A2AEVNP6L22YCC","either","5","40","","","","","","","0","0","1","","0.2","0.5","0.5","","","0.8","0.2","","","","","","","","","","","","","","","","75","K","1","","true","0","80_20_practice",""
"","bandit","23","205019","0.0-18.0-5.0","28137895","wem/bandit_party_1","A2AEVNP6L22YCC","either","5","910","","","","","","","0","0","1","","0.2","0.5","0.5","","","0.8","0.2","","","","","","","","","","","","","","","","75","K","1","","true","0","80_20_practice",""
"","bandit","24","206625","0.0-18.0-6.0","28137895","wem/bandit_party_1","A2AEVNP6L22YCC","either","5","88","","","","","","","0","0","1","","0.2","0.5","0.5","","","0.8","0.2","","","","","","","","","","","","","","","","75","K","1","","true","0","80_20_practice",""
"","bandit","25","208525","0.0-18.0-7.0","28137895","wem/bandit_party_1","A2AEVNP6L22YCC","either","5","379","","","","","","","0","0","1","0.2","","0.5","0.5","","","","","","","0.8","0.2","","","","","","","","","","","","75","K","1","","true","0","80_20_practice",""
"","bandit","26","210157","0.0-18.0-8.0","28137895","wem/bandit_party_1","A2AEVNP6L22YCC","either","5","110","","","","","","","1","0","0","0.8","","0.5","0.5","","","","","","","0.8","0.2","","","","","","","","","","","","74","J","0","img/none_selected_demo.jpg","true","0","80_20_practice",""
"","bandit","27","211803","0.0-18.0-9.0","28137895","wem/bandit_party_1","A2AEVNP6L22YCC","either","5","126","","","","","","","1","0","0","0.8","","0.5","0.5","","","","","","","0.8","0.2","","","","","","","","","","","","74","J","0","img/none_selected_demo.jpg","true","0","80_20_practice",""
"","bandit","28","213357","0.0-18.0-10.0","28137895","wem/bandit_party_1","A2AEVNP6L22YCC","either","5","34","","","","","","","0","1","0","","0.8","0.5","0.5","","","0.8","0.2","","","","","","","","","","","","","","","","74","J","0","img/none_selected_demo.jpg","true","0","80_20_practice",""
"","bandit","29","215603","0.0-18.0-11.0","28137895","wem/bandit_party_1","A2AEVNP6L22YCC","either","5","723","","","","","","","0","0","1","","0.8","0.5","0.5","","","0.8","0.2","","","","","","","","","","","","","","","","74","J","0","img/none_selected_demo.jpg","true","0","80_20_practice",""
"","bandit","30","217245","0.0-18.0-12.0","28137895","wem/bandit_party_1","A2AEVNP6L22YCC","either","5","123","","","","","","","0","1","0","","0.8","0.5","0.5","","","0.8","0.2","","","","","","","","","","","","","","","","74","J","0","img/none_selected_demo.jpg","true","0","80_20_practice",""
"","bandit","31","219178","0.0-18.0-13.0","28137895","wem/bandit_party_1","A2AEVNP6L22YCC","either","5","408","","","","","","","0","0","1","0.8","","0.5","0.5","","","","","","","0.8","0.2","","","","","","","","","","","","74","J","0","img/none_selected_demo.jpg","true","0","80_20_practice",""
"","bandit","32","221311","0.0-18.0-14.0","28137895","wem/bandit_party_1","A2AEVNP6L22YCC","either","5","614","","","","","","","0","0","1","","0.8","0.5","0.5","","","0.8","0.2","","","","","","","","","","","","","","","","74","J","0","img/none_selected_demo.jpg","true","0","80_20_practice",""
"","bandit","33","222925","0.0-18.0-15.0","28137895","wem/bandit_party_1","A2AEVNP6L22YCC","either","5","97","","","","","","","1","0","0","0.8","","0.5","0.5","","","","","","","0.8","0.2","","","","","","","","","","","","74","J","0","img/none_selected_demo.jpg","true","0","80_20_practice",""
"","bandit","34","234360","0.0-18.0-16.0","28137895","wem/bandit_party_1","A2AEVNP6L22YCC","either","5","9914","","","","","","","0","0","1","","0.8","0.5","0.5","","","0.8","0.2","","","","","","","","","","","","","","","","74","J","0","img/none_selected_demo.jpg","true","0","80_20_practice",""
"","bandit","35","236345","0.0-18.0-17.0","28137895","wem/bandit_party_1","A2AEVNP6L22YCC","either","5","468","","","","","","","1","0","0","0.8","","0.5","0.5","","","","","","","0.8","0.2","","","","","","","","","","","","74","J","0","img/none_selected_demo.jpg","true","0","80_20_practice",""
"","bandit","36","238494","0.0-18.0-18.0","28137895","wem/bandit_party_1","A2AEVNP6L22YCC","either","5","629","","","","","","","0","0","1","0.8","","0.5","0.5","","","","","","","0.8","0.2","","","","","","","","","","","","74","J","0","img/none_selected_demo.jpg","true","0","80_20_practice",""
"","bandit","37","240398","0.0-18.0-19.0","28137895","wem/bandit_party_1","A2AEVNP6L22YCC","either","5","385","","","","","","","1","0","0","0.8","","0.5","0.5","","","","","","","0.8","0.2","","","","","","","","","","","","74","J","0","img/none_selected_demo.jpg","true","0","80_20_practice",""
"","text-replacement","38","244478","0.0-19.0","28137895","wem/bandit_party_1","A2AEVNP6L22YCC","either","5","4075","","","32","","","","","","","","","","","","","","","","","","","","","","","","","","","","","","","","","","","","",""
"","bandit","39","247164","0.0-20.0-0.0","28137895","wem/bandit_party_1","A2AEVNP6L22YCC","either","5","1170","","","","","","","1","0","0","1","0","","","","","0","1","","","1","0","","","","","","","","","","","","74","J","0","img/none_selected_demo.jpg","true","0","",""
"","text-replacement","40","251335","0.0-21.0","28137895","wem/bandit_party_1","A2AEVNP6L22YCC","either","5","4167","","","32","","","","","","","","","","","","","","","","","","","","","","","","","","","","","","","","","","","","",""
"","text-replacement","41","256237","0.0-22.0","28137895","wem/bandit_party_1","A2AEVNP6L22YCC","either","5","4898","","","32","","","","","","","","","","","","","","","","","","","","","","","","","","","","","","","","","","","","",""
"","text-replacement","42","257966","0.0-23.0","28137895","wem/bandit_party_1","A2AEVNP6L22YCC","either","5","1725","","","32","","","","","","","","","","","","","","","","","","","","","","","","","","","","","","","","","","","","",""
"","text-replacement","43","263598","0.0-24.0","28137895","wem/bandit_party_1","A2AEVNP6L22YCC","either","5","5625","","","32","","","","","","","","","","","","","","","","","","","","","","","","","","","","","","","","","","","","",""
"","text-replacement","44","277865","0.0-25.0","28137895","wem/bandit_party_1","A2AEVNP6L22YCC","either","5","14260","","","32","","","","","","","","","","","","","","","","","","","","","","","","","","","","","","","","","","","","",""
"","text-replacement","45","280071","0.0-26.0","28137895","wem/bandit_party_1","A2AEVNP6L22YCC","either","5","2200","","","32","","","","","","","","","","","","","","","","","","","","","","","","","","","","","","","","","","","","",""
"","text-replacement","46","281911","0.0-27.0","28137895","wem/bandit_party_1","A2AEVNP6L22YCC","either","5","1832","","","32","","","","","","","","","","","","","","","","","","","","","","","","","","","","","","","","","","","","",""
"","text-replacement","47","285435","0.0-28.0","28137895","wem/bandit_party_1","A2AEVNP6L22YCC","either","5","3520","","","32","","","","","","","","","","","","","","","","","","","","","","","","","","","","","","","","","","","","",""
"","text-replacement","48","287451","0.0-29.0","28137895","wem/bandit_party_1","A2AEVNP6L22YCC","either","5","2010","","","32","","","","","","","","","","","","","","","","","","","","","","","","","","","","","","","","","","","","",""
"","text-replacement","49","289726","0.0-30.0","28137895","wem/bandit_party_1","A2AEVNP6L22YCC","either","5","2271","","","32","","","","","","","","","","","","","","","","","","","","","","","","","","","","","","","","","","","","",""
"","text-replacement","50","293205","0.0-31.0","28137895","wem/bandit_party_1","A2AEVNP6L22YCC","either","5","3471","","","32","","","","","","","","","","","","","","","","","","","","","","","","","","","","","","","","","","","","",""
"","bandit","51","295365","0.0-32.0-0.0","28137895","wem/bandit_party_1","A2AEVNP6L22YCC","either","5","632","","","","","","","0","0","1","","0.8","0.5","0.5","0.5","0.5","0.8","0.2","0.6","0.2","","","","","","","","","","","","","","72","H","0","img/none_selected.jpg","true","0","full_practice",""
"","bandit","52","297295","0.0-32.0-1.0","28137895","wem/bandit_party_1","A2AEVNP6L22YCC","either","5","407","","","","","","","1","0","0","0.8","","0.5","0.5","0.5","0.5","","","","","0.8","0.2","0.6","0.2","","","","","","","","","","72","H","0","img/none_selected.jpg","true","0","full_practice",""
"","bandit","53","299207","0.0-32.0-2.0","28137895","wem/bandit_party_1","A2AEVNP6L22YCC","either","5","395","","","","","","","1","0","0","0.8","","0.5","0.5","0.5","0.5","","","","","0.8","0.2","0.6","0.2","","","","","","","","","","72","H","0","img/none_selected.jpg","true","0","full_practice",""
"","bandit","54","300827","0.0-32.0-3.0","28137895","wem/bandit_party_1","A2AEVNP6L22YCC","either","5","100","","","","","","","1","0","0","0.8","","0.5","0.5","0.5","0.5","","","","","0.8","0.2","0.6","0.2","","","","","","","","","","72","H","0","img/none_selected.jpg","true","0","full_practice",""
"","bandit","55","302647","0.0-32.0-4.0","28137895","wem/bandit_party_1","A2AEVNP6L22YCC","either","5","298","","","","","","","0","0","1","","0.8","0.5","0.5","0.5","0.5","0.8","0.2","0.6","0.2","","","","","","","","","","","","","","72","H","0","img/none_selected.jpg","true","0","full_practice",""
"","bandit","56","304427","0.0-32.0-5.0","28137895","wem/bandit_party_1","A2AEVNP6L22YCC","either","5","261","","","","","","","0","0","1","","0.2","0.5","0.5","0.5","0.5","0.8","0.2","0.6","0.2","","","","","","","","","","","","","","74","J","1","","true","0","full_practice",""
"","bandit","57","306334","0.0-32.0-6.0","28137895","wem/bandit_party_1","A2AEVNP6L22YCC","either","5","393","","","","","","","0","1","0","","0.6","0.5","0.5","0.5","0.5","0.8","0.2","0.6","0.2","","","","","","","","","","","","","","75","K","2","","true","0","full_practice",""
"","bandit","58","308133","0.0-32.0-7.0","28137895","wem/bandit_party_1","A2AEVNP6L22YCC","either","5","282","","","","","","","0","0","1","0.6","","0.5","0.5","0.5","0.5","","","","","0.8","0.2","0.6","0.2","","","","","","","","","","75","K","2","","true","0","full_practice",""
"","bandit","59","310039","0.0-32.0-8.0","28137895","wem/bandit_party_1","A2AEVNP6L22YCC","either","5","385","","","","","","","0","0","1","","0.6","0.5","0.5","0.5","0.5","0.8","0.2","0.6","0.2","","","","","","","","","","","","","","75","K","2","","true","0","full_practice",""
"","bandit","60","311985","0.0-32.0-9.0","28137895","wem/bandit_party_1","A2AEVNP6L22YCC","either","5","421","","","","","","","0","1","0","","0.6","0.5","0.5","0.5","0.5","0.8","0.2","0.6","0.2","","","","","","","","","","","","","","75","K","2","","true","0","full_practice",""
"","bandit","61","313928","0.0-32.0-10.0","28137895","wem/bandit_party_1","A2AEVNP6L22YCC","either","5","421","","","","","","","0","1","0","","0.6","0.5","0.5","0.5","0.5","0.8","0.2","0.6","0.2","","","","","","","","","","","","","","75","K","2","","true","0","full_practice",""
"","bandit","62","315878","0.0-32.0-11.0","28137895","wem/bandit_party_1","A2AEVNP6L22YCC","either","5","429","","","","","","","0","0","1","0.6","","0.5","0.5","0.5","0.5","","","","","0.8","0.2","0.6","0.2","","","","","","","","","","75","K","2","","true","0","full_practice",""
"","bandit","63","317517","0.0-32.0-12.0","28137895","wem/bandit_party_1","A2AEVNP6L22YCC","either","5","46","","","","","","","0","0","1","","0.2","0.5","0.5","0.5","0.5","0.8","0.2","0.6","0.2","","","","","","","","","","","","","","76","L","3","","true","0","full_practice",""
"","bandit","64","319318","0.0-32.0-13.0","28137895","wem/bandit_party_1","A2AEVNP6L22YCC","either","5","283","","","","","","","0","0","1","","0.2","0.5","0.5","0.5","0.5","0.8","0.2","0.6","0.2","","","","","","","","","","","","","","76","L","3","","true","0","full_practice",""
"","bandit","65","320888","0.0-32.0-14.0","28137895","wem/bandit_party_1","A2AEVNP6L22YCC","either","5","52","","","","","","","1","0","0","0.8","","0.5","0.5","0.5","0.5","","","","","0.8","0.2","0.6","0.2","","","","","","","","","","72","H","0","img/none_selected.jpg","true","0","full_practice",""
"","bandit","66","322890","0.0-32.0-15.0","28137895","wem/bandit_party_1","A2AEVNP6L22YCC","either","5","478","","","","","","","1","0","0","0.8","","0.5","0.5","0.5","0.5","","","","","0.8","0.2","0.6","0.2","","","","","","","","","","72","H","0","img/none_selected.jpg","true","0","full_practice",""
"","bandit","67","324840","0.0-32.0-16.0","28137895","wem/bandit_party_1","A2AEVNP6L22YCC","either","5","423","","","","","","","1","0","0","0.8","","0.5","0.5","0.5","0.5","","","","","0.8","0.2","0.6","0.2","","","","","","","","","","72","H","0","img/none_selected.jpg","true","0","full_practice",""
"","bandit","68","326763","0.0-32.0-17.0","28137895","wem/bandit_party_1","A2AEVNP6L22YCC","either","5","399","","","","","","","0","0","1","","0.8","0.5","0.5","0.5","0.5","0.8","0.2","0.6","0.2","","","","","","","","","","","","","","72","H","0","img/none_selected.jpg","true","0","full_practice",""
"","bandit","69","328333","0.0-32.0-18.0","28137895","wem/bandit_party_1","A2AEVNP6L22YCC","either","5","49","","","","","","","1","0","0","0.8","","0.5","0.5","0.5","0.5","","","","","0.8","0.2","0.6","0.2","","","","","","","","","","72","H","0","img/none_selected.jpg","true","0","full_practice",""
"","bandit","70","330012","0.0-32.0-19.0","28137895","wem/bandit_party_1","A2AEVNP6L22YCC","either","5","159","","","","","","","1","0","0","0.8","","0.5","0.5","0.5","0.5","","","","","0.8","0.2","0.6","0.2","","","","","","","","","","72","H","0","img/none_selected.jpg","true","0","full_practice",""
"","text","71","334326","0.0-33.0","28137895","wem/bandit_party_1","A2AEVNP6L22YCC","either","5","4263","","","32","","","","","","","","","","","","","","","","","","","","","","","","","","","","","","","","","","","","",""
"","text-replacement","72","352239","0.0-34.0","28137895","wem/bandit_party_1","A2AEVNP6L22YCC","either","5","16905","","","32","","","","","","","","","","","","","","","","","","","","","","","","","","","","","","","","","","","","",""
"","text-replacement","73","358681","0.0-35.0","28137895","wem/bandit_party_1","A2AEVNP6L22YCC","either","5","6436","","","32","","","","","","","","","","","","","","","","","","","","","","","","","","","","","","","","","","","","",""
"","text-replacement","74","361883","0.0-36.0","28137895","wem/bandit_party_1","A2AEVNP6L22YCC","either","5","3192","","","32","","","","","","","","","","","","","","","","","","","","","","","","","","","","","","","","","","","","",""
"","text-replacement","75","365712","0.0-37.0","28137895","wem/bandit_party_1","A2AEVNP6L22YCC","either","5","3824","","","32","","","","","","","","","","","","","","","","","","","","","","","","","","","","","","","","","","","","",""
"","text-replacement","76","369494","0.0-38.0","28137895","wem/bandit_party_1","A2AEVNP6L22YCC","either","5","3769","","","32","","","","","","","","","","","","","","","","","","","","","","","","","","","","","","","","","","","","",""
"","survey-multi-choice-replacement","77","374431","0.0-39.0-0.0","28137895","wem/bandit_party_1","A2AEVNP6L22YCC","either","5","4908","","","","","","","","","","","","","","","","","","","","","","","","Money will be added to the pool for <span style='color:red;'>REPUBLICANS</span>","","","","","","","attn_check","","","","","","","","","0"
"","survey-multi-choice-replacement","78","379178","0.0-40.0-0.0","28137895","wem/bandit_party_1","A2AEVNP6L22YCC","either","5","3711","","","","","","","","","","","","","","","","","","","","","","","","Equal amounts of money will be added to the pool for <span style='color:red;'>REPUBLICANS</span> and subtracted from the pool for <span style='color:blue;'>DEMOCRATS</span>","","","","","","","attn_check","","","","","","","","","2"
"","survey-multi-choice-replacement","79","384268","0.0-41.0-0.0","28137895","wem/bandit_party_1","A2AEVNP6L22YCC","either","5","4056","","","","","","","","","","","","","","","","","","","","","","","","No money will be added to either pool","","","","","","","attn_check","","","","","","","","","3"
"","bandit","80","388490","0.0-42.0-0.0","28137895","wem/bandit_party_1","A2AEVNP6L22YCC","either","5","1685","","","","","","","0","0","1","0.4265570961","","0.8","0.6","0.4","0.2","","","","","0.4265570961","0.1165465043","0.3897275569","0.3340388524","","","","","","","","","","72","H","0","img/none_selected.jpg","","1","main_expt",""
"","bandit","81","390775","0.0-43.0-0.0","28137895","wem/bandit_party_1","A2AEVNP6L22YCC","either","5","764","","","","","","","0","0","1","0.08371899021","","0.8","0.6","0.4","0.2","","","","","0.4177099958","0.08371899021","0.3911966266","0.3223834482","","","","","","","","","","74","J","1","","","2","main_expt",""
"","bandit","82","392919","0.0-44.0-0.0","28137895","wem/bandit_party_1","A2AEVNP6L22YCC","either","5","616","","","","","","","0","0","1","","0.4074861021","0.8","0.6","0.4","0.2","0.4192185534","0.04339790364","0.4074861021","0.3585509001","","","","","","","","","","","","","","75","K","2","","","3","main_expt",""
"","bandit","83","394764","0.0-45.0-0.0","28137895","wem/bandit_party_1","A2AEVNP6L22YCC","either","5","323","","","","","","","0","1","0","","0.3416436242","0.8","0.6","0.4","0.2","0.4241610434","0.04073472785","0.3965638453","0.3416436242","","","","","","","","","","","","","","76","L","3","","","4","main_expt",""
"","bandit","84","396565","0.0-46.0-0.0","28137895","wem/bandit_party_1","A2AEVNP6L22YCC","either","5","282","","","","","","","0","0","1","","0.3444758892","0.8","0.6","0.4","0.2","0.4284837315","0.04731773769","0.3688269119","0.3444758892","","","","","","","","","","","","","","76","L","3","","","5","main_expt",""
"","bandit","85","399963","0.0-47.0-0.0","28137895","wem/bandit_party_1","A2AEVNP6L22YCC","either","5","1875","","","","","","","1","0","0","0.3574177426","","0.8","0.6","0.4","0.2","","","","","0.4328708062","0.05617088868","0.3865867917","0.3574177426","","","","","","","","","","76","L","3","","","6","main_expt",""
"","bandit","86","402356","0.0-48.0-0.0","28137895","wem/bandit_party_1","A2AEVNP6L22YCC","either","5","835","","","","","","","0","0","1","","0.3634052143","0.8","0.6","0.4","0.2","0.4176545671","0.05606577856","0.4294719924","0.3634052143","","","","","","","","","","","","","","76","L","3","","","7","main_expt",""
"","bandit","87","404257","0.0-49.0-0.0","28137895","wem/bandit_party_1","A2AEVNP6L22YCC","either","5","381","","","","","","","0","0","1","","0.3675420607","0.8","0.6","0.4","0.2","0.4022395488","0.09244853328","0.4210378118","0.3675420607","","","","","","","","","","","","","","76","L","3","","","8","main_expt",""
"","bandit","88","406145","0.0-50.0-0.0","28137895","wem/bandit_party_1","A2AEVNP6L22YCC","either","5","366","","","","","","","0","0","1","0.3921196104","","0.8","0.6","0.4","0.2","","","","","0.3929004949","0.1271341085","0.4502112583","0.3921196104","","","","","","","","","","76","L","3","","","9","main_expt",""
"","bandit","89","408108","0.0-51.0-0.0","28137895","wem/bandit_party_1","A2AEVNP6L22YCC","either","5","448","","","","","","","0","1","0","","0.4452653155","0.8","0.6","0.4","0.2","0.3863711448","0.1370717255","0.4452653155","0.4026182126","","","","","","","","","","","","","","75","K","2","","","10","main_expt",""
"","bandit","90","410468","0.0-52.0-0.0","28137895","wem/bandit_party_1","A2AEVNP6L22YCC","either","5","840","","","","","","","0","0","1","0.4352349267","","0.8","0.6","0.4","0.2","","","","","0.4205849279","0.1275050207","0.4352349267","0.3543069494","","","","","","","","","","75","K","2","","","11","main_expt",""
"","bandit","91","412429","0.0-53.0-0.0","28137895","wem/bandit_party_1","A2AEVNP6L22YCC","either","5","444","","","","","","","1","0","0","0.4029030639","","0.8","0.6","0.4","0.2","","","","","0.4525069231","0.122317004","0.4029030639","0.3504097904","","","","","","","","","","75","K","2","","","12","main_expt",""
"","bandit","92","416130","0.0-54.0-0.0","28137895","wem/bandit_party_1","A2AEVNP6L22YCC","either","5","2183","","","","","","","1","0","0","0.4198147105","","0.8","0.6","0.4","0.2","","","","","0.4485799753","0.1251711411","0.4198147105","0.2787441393","","","","","","","","","","75","K","2","","","13","main_expt",""
"","bandit","93","419274","0.0-55.0-0.0","28137895","wem/bandit_party_1","A2AEVNP6L22YCC","either","5","1628","","","","","","","0","1","0","","0.3761312174","0.8","0.6","0.4","0.2","0.4504049656","0.1380641988","0.3761312174","0.2723245106","","","","","","","","","","","","","","75","K","2","","","14","main_expt",""
"","bandit","94","421692","0.0-56.0-0.0","28137895","wem/bandit_party_1","A2AEVNP6L22YCC","either","5","899","","","","","","","0","1","0","","0.4017507227","0.8","0.6","0.4","0.2","0.4281165459","0.2010812313","0.4017507227","0.3687644442","","","","","","","","","","","","","","75","K","2","","","15","main_expt",""
"","bandit","95","423899","0.0-57.0-0.0","28137895","wem/bandit_party_1","A2AEVNP6L22YCC","either","5","640","","","","","","","0","0","1","0.3859888637","","0.8","0.6","0.4","0.2","","","","","0.4035101098","0.1747275657","0.3859888637","0.3992289848","","","","","","","","","","75","K","2","","","16","main_expt",""
"","bandit","96","426022","0.0-58.0-0.0","28137895","wem/bandit_party_1","A2AEVNP6L22YCC","either","5","611","","","","","","","1","0","0","0.3706978481","","0.8","0.6","0.4","0.2","","","","","0.4063691663","0.1816524112","0.3706978481","0.4067061876","","","","","","","","","","75","K","2","","","17","main_expt",""
"","bandit","97","428543","0.0-59.0-0.0","28137895","wem/bandit_party_1","A2AEVNP6L22YCC","either","5","999","","","","","","","0","1","0","","0.3323991027","0.8","0.6","0.4","0.2","0.4201618032","0.1700798448","0.3323991027","0.3969002131","","","","","","","","","","","","","","75","K","2","","","18","main_expt",""
"","bandit","98","431625","0.0-60.0-0.0","28137895","wem/bandit_party_1","A2AEVNP6L22YCC","either","5","1559","","","","","","","1","0","0","0.3301718366","","0.8","0.6","0.4","0.2","","","","","0.3868389751","0.1998500639","0.3301718366","0.3930099592","","","","","","","","","","75","K","2","","","19","main_expt",""
"","bandit","99","435054","0.0-61.0-0.0","28137895","wem/bandit_party_1","A2AEVNP6L22YCC","either","5","1902","","","","","","","0","0","1","","0.3714618997","0.8","0.6","0.4","0.2","0.3868875991","0.2418808817","0.3714618997","0.3791602553","","","","","","","","","","","","","","75","K","2","","","20","main_expt",""
"","bandit","100","439179","0.0-62.0-0.0","28137895","wem/bandit_party_1","A2AEVNP6L22YCC","either","5","2603","","","","","","","0","0","1","","0.3621694591","0.8","0.6","0.4","0.2","0.4253770554","0.2293341009","0.3621694591","0.4127515201","","","","","","","","","","","","","","75","K","2","","","21","main_expt",""
"","bandit","101","441623","0.0-63.0-0.0","28137895","wem/bandit_party_1","A2AEVNP6L22YCC","either","5","928","","","","","","","0","0","1","0.3648829928","","0.8","0.6","0.4","0.2","","","","","0.4285762007","0.2074184163","0.3648829928","0.4164833055","","","","","","","","","","75","K","2","","","22","main_expt",""
"","bandit","102","444019","0.0-64.0-0.0","28137895","wem/bandit_party_1","A2AEVNP6L22YCC","either","5","876","","","","","","","0","0","1","0.1832507358","","0.8","0.6","0.4","0.2","","","","","0.4082522222","0.1832507358","0.2856994719","0.4143027846","","","","","","","","","","74","J","1","","","23","main_expt",""
"","bandit","103","446421","0.0-65.0-0.0","28137895","wem/bandit_party_1","A2AEVNP6L22YCC","either","5","883","","","","","","","0","0","1","0.1469425149","","0.8","0.6","0.4","0.2","","","","","0.4027270218","0.1469425149","0.3152516524","0.3649270698","","","","","","","","","","74","J","1","","","24","main_expt",""
"","bandit","104","448564","0.0-66.0-0.0","28137895","wem/bandit_party_1","A2AEVNP6L22YCC","either","5","627","","","","","","","0","0","1","0.4100212433","","0.8","0.6","0.4","0.2","","","","","0.4100212433","0.102794739","0.2778145345","0.392676409","","","","","","","","","","72","H","0","img/none_selected.jpg","","25","main_expt",""
"","bandit","105","450462","0.0-67.0-0.0","28137895","wem/bandit_party_1","A2AEVNP6L22YCC","either","5","382","","","","","","","0","0","1","0.4190791169","","0.8","0.6","0.4","0.2","","","","","0.4190791169","0.1173732637","0.3170506137","0.4031565401","","","","","","","","","","72","H","0","img/none_selected.jpg","","26","main_expt",""
"","bandit","106","452364","0.0-68.0-0.0","28137895","wem/bandit_party_1","A2AEVNP6L22YCC","either","5","379","","","","","","","0","0","1","0.4527212376","","0.8","0.6","0.4","0.2","","","","","0.4527212376","0.08835016803","0.3223143746","0.4245959001","","","","","","","","","","72","H","0","img/none_selected.jpg","","27","main_expt",""
"","bandit","107","454264","0.0-69.0-0.0","28137895","wem/bandit_party_1","A2AEVNP6L22YCC","either","5","380","","","","","","","0","0","1","","0.4232885055","0.8","0.6","0.4","0.2","0.4480998813","0.1134440288","0.3234472479","0.4232885055","","","","","","","","","","","","","","76","L","3","","","28","main_expt",""
"","bandit","108","456648","0.0-70.0-0.0","28137895","wem/bandit_party_1","A2AEVNP6L22YCC","either","5","869","","","","","","","1","0","0","0.4495512981","","0.8","0.6","0.4","0.2","","","","","0.4628669208","0.1982905849","0.2881425904","0.4495512981","","","","","","","","","","76","L","3","","","29","main_expt",""
"","bandit","109","458584","0.0-71.0-0.0","28137895","wem/bandit_party_1","A2AEVNP6L22YCC","either","5","418","","","","","","","1","0","0","0.4485299892","","0.8","0.6","0.4","0.2","","","","","0.4565655028","0.2366655967","0.2326555855","0.4485299892","","","","","","","","","","76","L","3","","","30","main_expt",""
"","bandit","110","460667","0.0-72.0-0.0","28137895","wem/bandit_party_1","A2AEVNP6L22YCC","either","5","564","","","","","","","0","0","1","","0.4599237238","0.8","0.6","0.4","0.2","0.4686031056","0.1622470467","0.2364604256","0.4599237238","","","","","","","","","","","","","","76","L","3","","","31","main_expt",""
"","bandit","111","462507","0.0-73.0-0.0","28137895","wem/bandit_party_1","A2AEVNP6L22YCC","either","5","316","","","","","","","0","1","0","","0.2451982598","0.8","0.6","0.4","0.2","0.4659582456","0.1771911602","0.2451982598","0.4508116693","","","","","","","","","","","","","","75","K","2","","","32","main_expt",""
"","bandit","112","464359","0.0-74.0-0.0","28137895","wem/bandit_party_1","A2AEVNP6L22YCC","either","5","331","","","","","","","0","0","1","0.2360369815","","0.8","0.6","0.4","0.2","","","","","0.4810757035","0.1622836308","0.2360369815","0.45101727","","","","","","","","","","75","K","2","","","33","main_expt",""
"","bandit","113","466188","0.0-75.0-0.0","28137895","wem/bandit_party_1","A2AEVNP6L22YCC","either","5","307","","","","","","","0","0","1","0.2317763892","","0.8","0.6","0.4","0.2","","","","","0.4842727378","0.1655985557","0.2317763892","0.4340174653","","","","","","","","","","75","K","2","","","34","main_expt",""
"","bandit","114","468037","0.0-76.0-0.0","28137895","wem/bandit_party_1","A2AEVNP6L22YCC","either","5","329","","","","","","","1","0","0","0.4040147441","","0.8","0.6","0.4","0.2","","","","","0.4745470136","0.1492797185","0.2527891731","0.4040147441","","","","","","","","","","76","L","3","","","35","main_expt",""
"","bandit","115","469846","0.0-77.0-0.0","28137895","wem/bandit_party_1","A2AEVNP6L22YCC","either","5","296","","","","","","","0","0","1","","0.4268829696","0.8","0.6","0.4","0.2","0.4440965139","0.1504543003","0.2641283143","0.4268829696","","","","","","","","","","","","","","76","L","3","","","36","main_expt",""
"","bandit","116","471686","0.0-78.0-0.0","28137895","wem/bandit_party_1","A2AEVNP6L22YCC","either","5","326","","","","","","","0","1","0","","0.4562327564","0.8","0.6","0.4","0.2","0.4544425755","0.1064249526","0.2309310423","0.4562327564","","","","","","","","","","","","","","76","L","3","","","37","main_expt",""
"","bandit","117","473473","0.0-79.0-0.0","28137895","wem/bandit_party_1","A2AEVNP6L22YCC","either","5","267","","","","","","","0","0","1","","0.4481627861","0.8","0.6","0.4","0.2","0.4700138218","0.1346530267","0.2093170459","0.4481627861","","","","","","","","","","","","","","76","L","3","","","38","main_expt",""
"","bandit","118","475294","0.0-80.0-0.0","28137895","wem/bandit_party_1","A2AEVNP6L22YCC","either","5","296","","","","","","","1","0","0","0.4475890948","","0.8","0.6","0.4","0.2","","","","","0.466948448","0.1303494481","0.1398625959","0.4475890948","","","","","","","","","","76","L","3","","","39","main_expt",""
"","bandit","119","476835","0.0-81.0-0.0","28137895","wem/bandit_party_1","A2AEVNP6L22YCC","either","5","22","","","","","","","0","0","1","","0.4501575696","0.8","0.6","0.4","0.2","0.4679256248","0.1492074344","0.09690087606","0.4501575696","","","","","","","","","","","","","","76","L","3","","","40","main_expt",""
"","bandit","120","478677","0.0-82.0-0.0","28137895","wem/bandit_party_1","A2AEVNP6L22YCC","either","5","317","","","","","","","0","0","1","0.4121884666","","0.8","0.6","0.4","0.2","","","","","0.445537573","0.1370672299","0.1129569356","0.4121884666","","","","","","","","","","76","L","3","","","41","main_expt",""
"","bandit","121","480575","0.0-83.0-0.0","28137895","wem/bandit_party_1","A2AEVNP6L22YCC","either","5","376","","","","","","","0","0","1","0.1227033228","","0.8","0.6","0.4","0.2","","","","","0.4521531226","0.08144147181","0.1227033228","0.4379939247","","","","","","","","","","75","K","2","","","42","main_expt",""
"","bandit","122","482594","0.0-84.0-0.0","28137895","wem/bandit_party_1","A2AEVNP6L22YCC","either","5","502","","","","","","","0","0","1","0.06793865388","","0.8","0.6","0.4","0.2","","","","","0.4695072217","0.06793865388","0.08393287497","0.4271747655","","","","","","","","","","74","J","1","","","43","main_expt",""
"","bandit","123","484475","0.0-85.0-0.0","28137895","wem/bandit_party_1","A2AEVNP6L22YCC","either","5","359","","","","","","","0","0","1","","0.05295344446","0.8","0.6","0.4","0.2","0.4807409838","0.05295344446","0.06260074275","0.4480494518","","","","","","","","","","","","","","74","J","1","","","44","main_expt",""
"","bandit","124","486337","0.0-86.0-0.0","28137895","wem/bandit_party_1","A2AEVNP6L22YCC","either","5","335","","","","","","","0","0","1","0.02744239742","","0.8","0.6","0.4","0.2","","","","","0.4507048108","0.02744239742","0.08062123592","0.4269729589","","","","","","","","","","74","J","1","","","45","main_expt",""
"","bandit","125","488195","0.0-87.0-0.0","28137895","wem/bandit_party_1","A2AEVNP6L22YCC","either","5","335","","","","","","","0","0","1","0.4382321206","","0.8","0.6","0.4","0.2","","","","","0.4382321206","0.02347437243","0.1110847749","0.4475746277","","","","","","","","","","72","H","0","img/none_selected.jpg","","46","main_expt",""
"","bandit","126","490028","0.0-88.0-0.0","28137895","wem/bandit_party_1","A2AEVNP6L22YCC","either","5","310","","","","","","","0","0","1","","0.4393937913","0.8","0.6","0.4","0.2","0.4393937913","0.02418160198","0.05346849493","0.4295618238","","","","","","","","","","","","","","72","H","0","img/none_selected.jpg","","47","main_expt",""
"","bandit","127","491989","0.0-89.0-0.0","28137895","wem/bandit_party_1","A2AEVNP6L22YCC","either","5","434","","","","","","","0","1","0","","0.440318131","0.8","0.6","0.4","0.2","0.440318131","0.01182676654","0.04499733497","0.4431907244","","","","","","","","","","","","","","72","H","0","img/none_selected.jpg","","48","main_expt",""
"","bandit","128","494055","0.0-90.0-0.0","28137895","wem/bandit_party_1","A2AEVNP6L22YCC","either","5","545","","","","","","","0","0","1","","0.0186287842","0.8","0.6","0.4","0.2","0.4362102412","0.0186287842","0.07378534534","0.4187732916","","","","","","","","","","","","","","74","J","1","","","49","main_expt",""
"","bandit","129","496260","0.0-91.0-0.0","28137895","wem/bandit_party_1","A2AEVNP6L22YCC","either","5","676","","","","","","","0","0","1","0.44488671","","0.8","0.6","0.4","0.2","","","","","0.44488671","0.02550629551","0.06168845619","0.356579213","","","","","","","","","","72","H","0","img/none_selected.jpg","","50","main_expt",""
"","bandit","130","498190","0.0-92.0-0.0","28137895","wem/bandit_party_1","A2AEVNP6L22YCC","either","5","407","","","","","","","0","0","1","0.4633405548","","0.8","0.6","0.4","0.2","","","","","0.4633405548","0.04366809707","0.1062028567","0.2629404955","","","","","","","","","","72","H","0","img/none_selected.jpg","","51","main_expt",""
"","bandit","131","500085","0.0-93.0-0.0","28137895","wem/bandit_party_1","A2AEVNP6L22YCC","either","5","377","","","","","","","0","0","1","","0.1379608546","0.8","0.6","0.4","0.2","0.4528043762","0.04357168116","0.1379608546","0.2919747068","","","","","","","","","","","","","","75","K","2","","","52","main_expt",""
"","bandit","132","501937","0.0-94.0-0.0","28137895","wem/bandit_party_1","A2AEVNP6L22YCC","either","5","331","","","","","","","0","0","1","0.3809901122","","0.8","0.6","0.4","0.2","","","","","0.4390431751","0.03899227154","0.1356826849","0.3809901122","","","","","","","","","","76","L","3","","","53","main_expt",""
"","bandit","133","503779","0.0-95.0-0.0","28137895","wem/bandit_party_1","A2AEVNP6L22YCC","either","5","319","","","","","","","0","0","1","","0.1038772241","0.8","0.6","0.4","0.2","0.4549270822","0.04009146386","0.1038772241","0.3452518694","","","","","","","","","","","","","","75","K","2","","","54","main_expt",""
"","bandit","134","505744","0.0-96.0-0.0","28137895","wem/bandit_party_1","A2AEVNP6L22YCC","either","5","444","","","","","","","0","0","1","","0.3263112327","0.8","0.6","0.4","0.2","0.4710341864","0.0155768565","0.1689791829","0.3263112327","","","","","","","","","","","","","","76","L","3","","","55","main_expt",""
"","bandit","135","507585","0.0-97.0-0.0","28137895","wem/bandit_party_1","A2AEVNP6L22YCC","either","5","321","","","","","","","0","0","1","","0.1108888145","0.8","0.6","0.4","0.2","0.4745834276","0.02112461672","0.1108888145","0.3308963945","","","","","","","","","","","","","","75","K","2","","","56","main_expt",""
"","bandit","136","509406","0.0-98.0-0.0","28137895","wem/bandit_party_1","A2AEVNP6L22YCC","either","5","298","","","","","","","0","1","0","","0.3150326571","0.8","0.6","0.4","0.2","0.489318572","0.0126553198","0.1206542402","0.3150326571","","","","","","","","","","","","","","76","L","3","","","57","main_expt",""
"","bandit","137","511233","0.0-99.0-0.0","28137895","wem/bandit_party_1","A2AEVNP6L22YCC","either","5","308","","","","","","","0","1","0","","0.3049116772","0.8","0.6","0.4","0.2","0.480037986","0.01131359515","0.09707343937","0.3049116772","","","","","","","","","","","","","","76","L","3","","","58","main_expt",""
"","bandit","138","513048","0.0-100.0-0.0","28137895","wem/bandit_party_1","A2AEVNP6L22YCC","either","5","291","","","","","","","0","0","1","","0.3050987947","0.8","0.6","0.4","0.2","0.4593461039","0.01030075821","0.1044384952","0.3050987947","","","","","","","","","","","","","","76","L","3","","","59","main_expt",""
"","bandit","139","514881","0.0-101.0-0.0","28137895","wem/bandit_party_1","A2AEVNP6L22YCC","either","5","306","","","","","","","0","0","1","0.3274009355","","0.8","0.6","0.4","0.2","","","","","0.446051488","0.005868957973","0.08890369623","0.3274009355","","","","","","","","","","76","L","3","","","60","main_expt",""
"","bandit","140","516675","0.0-102.0-0.0","28137895","wem/bandit_party_1","A2AEVNP6L22YCC","either","5","270","","","","","","","0","0","1","","0.3428943983","0.8","0.6","0.4","0.2","0.4391285327","0.004361943215","0.08921221942","0.3428943983","","","","","","","","","","","","","","76","L","3","","","61","main_expt",""
"","bandit","141","518872","0.0-103.0-0.0","28137895","wem/bandit_party_1","A2AEVNP6L22YCC","either","5","676","","","","","","","0","0","1","","0.09812025034","0.8","0.6","0.4","0.2","0.4063883723","0.005208412743","0.09812025034","0.3549763931","","","","","","","","","","","","","","75","K","2","","","62","main_expt",""
"","bandit","142","520705","0.0-104.0-0.0","28137895","wem/bandit_party_1","A2AEVNP6L22YCC","either","5","305","","","","","","","0","0","1","0.09006279409","","0.8","0.6","0.4","0.2","","","","","0.4330387396","0.006461011255","0.09006279409","0.3496678451","","","","","","","","","","75","K","2","","","63","main_expt",""
"","bandit","143","522591","0.0-105.0-0.0","28137895","wem/bandit_party_1","A2AEVNP6L22YCC","either","5","369","","","","","","","0","0","1","0.1118976224","","0.8","0.6","0.4","0.2","","","","","0.4207902426","0.01267926231","0.1118976224","0.3188537263","","","","","","","","","","75","K","2","","","64","main_expt",""
"","bandit","144","524212","0.0-106.0-0.0","28137895","wem/bandit_party_1","A2AEVNP6L22YCC","either","5","94","","","","","","","0","0","1","0.009732787917","","0.8","0.6","0.4","0.2","","","","","0.3719582347","0.009732787917","0.1053817613","0.3191795336","","","","","","","","","","74","J","1","","","65","main_expt",""
"","bandit","145","526164","0.0-107.0-0.0","28137895","wem/bandit_party_1","A2AEVNP6L22YCC","either","5","416","","","","","","","0","0","1","0.01092542651","","0.8","0.6","0.4","0.2","","","","","0.3748569955","0.01092542651","0.1307356695","0.268616347","","","","","","","","","","74","J","1","","","66","main_expt",""
"","bandit","146","528116","0.0-108.0-0.0","28137895","wem/bandit_party_1","A2AEVNP6L22YCC","either","5","428","","","","","","","0","0","1","","0.02125534741","0.8","0.6","0.4","0.2","0.335252031","0.02125534741","0.1418436428","0.259194563","","","","","","","","","","","","","","74","J","1","","","67","main_expt",""
"","bandit","147","532212","0.0-109.0-0.0","28137895","wem/bandit_party_1","A2AEVNP6L22YCC","either","5","2567","","","","","","","0","0","1","0.02360283027","","0.8","0.6","0.4","0.2","","","","","0.3199157278","0.02360283027","0.1459089566","0.2281204868","","","","","","","","","","74","J","1","","","68","main_expt",""
"","bandit","148","534397","0.0-110.0-0.0","28137895","wem/bandit_party_1","A2AEVNP6L22YCC","either","5","640","","","","","","","0","0","1","0.02539305756","","0.8","0.6","0.4","0.2","","","","","0.3068525281","0.02539305756","0.1809721424","0.2195844169","","","","","","","","","","74","J","1","","","69","main_expt",""
"","bandit","149","536139","0.0-111.0-0.0","28137895","wem/bandit_party_1","A2AEVNP6L22YCC","either","5","210","","","","","","","1","0","0","0.3181076016","","0.8","0.6","0.4","0.2","","","","","0.3181076016","0.05014388586","0.1784068974","0.1883338509","","","","","","","","","","72","H","0","img/none_selected.jpg","","70","main_expt",""
"","bandit","150","538075","0.0-112.0-0.0","28137895","wem/bandit_party_1","A2AEVNP6L22YCC","either","5","408","","","","","","","0","0","1","0.2926426422","","0.8","0.6","0.4","0.2","","","","","0.2926426422","0.04209054697","0.1973023396","0.1639708178","","","","","","","","","","72","H","0","img/none_selected.jpg","","71","main_expt",""
"","bandit","151","540247","0.0-113.0-0.0","28137895","wem/bandit_party_1","A2AEVNP6L22YCC","either","5","643","","","","","","","0","0","1","0.2380263643","","0.8","0.6","0.4","0.2","","","","","0.2380263643","0.05611199342","0.2436342847","0.1312842785","","","","","","","","","","72","H","0","img/none_selected.jpg","","72","main_expt",""
"","bandit","152","542234","0.0-114.0-0.0","28137895","wem/bandit_party_1","A2AEVNP6L22YCC","either","5","457","","","","","","","0","1","0","","0.2407197948","0.8","0.6","0.4","0.2","0.2407197948","0.05293238473","0.1992173182","0.1805041857","","","","","","","","","","","","","","72","H","0","img/none_selected.jpg","","73","main_expt",""
"","bandit","153","544342","0.0-115.0-0.0","28137895","wem/bandit_party_1","A2AEVNP6L22YCC","either","5","576","","","","","","","0","0","1","0.2317468449","","0.8","0.6","0.4","0.2","","","","","0.2317468449","0.0318456884","0.2347098304","0.1739557812","","","","","","","","","","72","H","0","img/none_selected.jpg","","74","main_expt",""
"","bandit","154","546338","0.0-116.0-0.0","28137895","wem/bandit_party_1","A2AEVNP6L22YCC","either","5","427","","","","","","","0","0","1","0.2545997551","","0.8","0.6","0.4","0.2","","","","","0.2545997551","0.03873230677","0.2641442137","0.2434916027","","","","","","","","","","72","H","0","img/none_selected.jpg","","75","main_expt",""
"","bandit","155","548280","0.0-117.0-0.0","28137895","wem/bandit_party_1","A2AEVNP6L22YCC","either","5","421","","","","","","","0","0","1","0.2890845388","","0.8","0.6","0.4","0.2","","","","","0.2890845388","0.03304947682","0.3192644053","0.2438468568","","","","","","","","","","72","H","0","img/none_selected.jpg","","76","main_expt",""
"","bandit","156","550055","0.0-118.0-0.0","28137895","wem/bandit_party_1","A2AEVNP6L22YCC","either","5","246","","","","","","","1","0","0","0.02607887458","","0.8","0.6","0.4","0.2","","","","","0.2386362654","0.02607887458","0.3351132613","0.2425324642","","","","","","","","","","74","J","1","","","77","main_expt",""
"","bandit","157","551927","0.0-119.0-0.0","28137895","wem/bandit_party_1","A2AEVNP6L22YCC","either","5","344","","","","","","","0","0","1","","0.02492981692","0.8","0.6","0.4","0.2","0.2673679704","0.02492981692","0.3086784207","0.205588479","","","","","","","","","","","","","","74","J","1","","","78","main_expt",""
"","bandit","158","553778","0.0-120.0-0.0","28137895","wem/bandit_party_1","A2AEVNP6L22YCC","either","5","313","","","","","","","0","0","1","","0.01824110002","0.8","0.6","0.4","0.2","0.2813811921","0.01824110002","0.3076482073","0.213062191","","","","","","","","","","","","","","74","J","1","","","79","main_expt",""
"","bandit","159","555670","0.0-121.0-0.0","28137895","wem/bandit_party_1","A2AEVNP6L22YCC","either","5","363","","","","","","","0","0","1","0.3605025214","","0.8","0.6","0.4","0.2","","","","","0.2419447949","0.0202176162","0.3605025214","0.1852926048","","","","","","","","","","75","K","2","","","80","main_expt",""
"","bandit","160","557784","0.0-122.0-0.0","28137895","wem/bandit_party_1","A2AEVNP6L22YCC","either","5","590","","","","","","","0","0","1","","0.2332942271","0.8","0.6","0.4","0.2","0.323481111","0.0252752587","0.3286166321","0.2332942271","","","","","","","","","","","","","","76","L","3","","","81","main_expt",""
"","bandit","161","559603","0.0-123.0-0.0","28137895","wem/bandit_party_1","A2AEVNP6L22YCC","either","5","294","","","","","","","1","0","0","0.3459677762","","0.8","0.6","0.4","0.2","","","","","0.3097244961","0.05668457717","0.3459677762","0.2087797338","","","","","","","","","","75","K","2","","","82","main_expt",""
"","bandit","162","561417","0.0-124.0-0.0","28137895","wem/bandit_party_1","A2AEVNP6L22YCC","either","5","291","","","","","","","0","0","1","0.3092751195","","0.8","0.6","0.4","0.2","","","","","0.2787498647","0.07760530004","0.3092751195","0.2049979043","","","","","","","","","","75","K","2","","","83","main_expt",""
"","bandit","163","563217","0.0-125.0-0.0","28137895","wem/bandit_party_1","A2AEVNP6L22YCC","either","5","274","","","","","","","0","1","0","","0.3044630387","0.8","0.6","0.4","0.2","0.2589524449","0.03696005566","0.3044630387","0.2151780091","","","","","","","","","","","","","","75","K","2","","","84","main_expt",""
"","bandit","164","564800","0.0-126.0-0.0","28137895","wem/bandit_party_1","A2AEVNP6L22YCC","either","5","55","","","","","","","0","1","0","","0.2812480587","0.8","0.6","0.4","0.2","0.2769318636","0.04177257934","0.2812480587","0.1497615914","","","","","","","","","","","","","","75","K","2","","","85","main_expt",""
"","bandit","165","566953","0.0-127.0-0.0","28137895","wem/bandit_party_1","A2AEVNP6L22YCC","either","5","628","","","","","","","0","0","1","","0.2506532223","0.8","0.6","0.4","0.2","0.2849222391","0.0385770192","0.2506532223","0.1223687677","","","","","","","","","","","","","","75","K","2","","","86","main_expt",""
"","bandit","166","568804","0.0-128.0-0.0","28137895","wem/bandit_party_1","A2AEVNP6L22YCC","either","5","330","","","","","","","0","0","1","0.2269900387","","0.8","0.6","0.4","0.2","","","","","0.3131087309","0.03720252147","0.2269900387","0.1472857413","","","","","","","","","","75","K","2","","","87","main_expt",""
"","bandit","167","570411","0.0-129.0-0.0","28137895","wem/bandit_party_1","A2AEVNP6L22YCC","either","5","75","","","","","","","0","0","1","","0.1252586248","0.8","0.6","0.4","0.2","0.3038587512","0.06746059371","0.1504729919","0.1252586248","","","","","","","","","","","","","","76","L","3","","","88","main_expt",""
"","bandit","168","572361","0.0-130.0-0.0","28137895","wem/bandit_party_1","A2AEVNP6L22YCC","either","5","433","","","","","","","0","0","1","","0.1194927994","0.8","0.6","0.4","0.2","0.3308022157","0.04069757945","0.1382070302","0.1194927994","","","","","","","","","","","","","","76","L","3","","","89","main_expt",""
"","bandit","169","574418","0.0-131.0-0.0","28137895","wem/bandit_party_1","A2AEVNP6L22YCC","either","5","535","","","","","","","0","0","1","","0.07325379503","0.8","0.6","0.4","0.2","0.3574922351","0.07325379503","0.1364765349","0.1589750007","","","","","","","","","","","","","","74","J","1","","","90","main_expt",""
"","bandit","170","576243","0.0-132.0-0.0","28137895","wem/bandit_party_1","A2AEVNP6L22YCC","either","5","301","","","","","","","0","0","1","","0.06877471811","0.8","0.6","0.4","0.2","0.3729517688","0.06877471811","0.09318196272","0.1859960426","","","","","","","","","","","","","","74","J","1","","","91","main_expt",""
"","bandit","171","577986","0.0-133.0-0.0","28137895","wem/bandit_party_1","A2AEVNP6L22YCC","either","5","216","","","","","","","1","0","0","0.04115987362","","0.8","0.6","0.4","0.2","","","","","0.398352994","0.04115987362","0.06946097624","0.192419488","","","","","","","","","","74","J","1","","","92","main_expt",""
"","bandit","172","579805","0.0-134.0-0.0","28137895","wem/bandit_party_1","A2AEVNP6L22YCC","either","5","297","","","","","","","0","0","1","0.07078892783","","0.8","0.6","0.4","0.2","","","","","0.4135860398","0.07078892783","0.08102832817","0.1716033463","","","","","","","","","","74","J","1","","","93","main_expt",""
"","bandit","173","581609","0.0-135.0-0.0","28137895","wem/bandit_party_1","A2AEVNP6L22YCC","either","5","279","","","","","","","0","0","1","0.05572868433","","0.8","0.6","0.4","0.2","","","","","0.3786880174","0.05572868433","0.1271360848","0.1935897604","","","","","","","","","","74","J","1","","","94","main_expt",""
"","bandit","174","583488","0.0-136.0-0.0","28137895","wem/bandit_party_1","A2AEVNP6L22YCC","either","5","355","","","","","","","0","0","1","","0.05056929995","0.8","0.6","0.4","0.2","0.3823424718","0.05056929995","0.1097592989","0.2193228015","","","","","","","","","","","","","","74","J","1","","","95","main_expt",""
"","bandit","175","585318","0.0-137.0-0.0","28137895","wem/bandit_party_1","A2AEVNP6L22YCC","either","5","308","","","","","","","1","0","0","0.04159874267","","0.8","0.6","0.4","0.2","","","","","0.3642725552","0.04159874267","0.1085490834","0.3262643469","","","","","","","","","","74","J","1","","","96","main_expt",""
"","bandit","176","587023","0.0-138.0-0.0","28137895","wem/bandit_party_1","A2AEVNP6L22YCC","either","5","180","","","","","","","0","0","1","0.03654451862","","0.8","0.6","0.4","0.2","","","","","0.3197717944","0.03654451862","0.1049812554","0.3207405496","","","","","","","","","","74","J","1","","","97","main_expt",""
"","bandit","177","588873","0.0-139.0-0.0","28137895","wem/bandit_party_1","A2AEVNP6L22YCC","either","5","325","","","","","","","0","0","1","0.04190300095","","0.8","0.6","0.4","0.2","","","","","0.2514424369","0.04190300095","0.08177978443","0.3712856991","","","","","","","","","","74","J","1","","","98","main_expt",""
"","bandit","178","590518","0.0-140.0-0.0","28137895","wem/bandit_party_1","A2AEVNP6L22YCC","either","5","121","","","","","","","0","0","1","0.2926772137","","0.8","0.6","0.4","0.2","","","","","0.2926772137","0.08742990617","0.07574087804","0.3740145378","","","","","","","","","","72","H","0","img/none_selected.jpg","","99","main_expt",""
"","bandit","179","592284","0.0-141.0-0.0","28137895","wem/bandit_party_1","A2AEVNP6L22YCC","either","5","247","","","","","","","0","0","1","0.234485335","","0.8","0.6","0.4","0.2","","","","","0.234485335","0.08966523481","0.07829319678","0.3776295542","","","","","","","","","","72","H","0","img/none_selected.jpg","","100","main_expt",""
"","bandit","180","594093","0.0-142.0-0.0","28137895","wem/bandit_party_1","A2AEVNP6L22YCC","either","5","280","","","","","","","0","0","1","0.250352175","","0.8","0.6","0.4","0.2","","","","","0.250352175","0.07849065771","0.07919243683","0.3592666398","","","","","","","","","","72","H","0","img/none_selected.jpg","","101","main_expt",""
"","bandit","181","595900","0.0-143.0-0.0","28137895","wem/bandit_party_1","A2AEVNP6L22YCC","either","5","283","","","","","","","0","0","1","0.2139972863","","0.8","0.6","0.4","0.2","","","","","0.2139972863","0.1054267613","0.1052753188","0.3412191773","","","","","","","","","","72","H","0","img/none_selected.jpg","","102","main_expt",""
"","bandit","182","597644","0.0-144.0-0.0","28137895","wem/bandit_party_1","A2AEVNP6L22YCC","either","5","218","","","","","","","0","0","1","0.20092706","","0.8","0.6","0.4","0.2","","","","","0.20092706","0.1120981937","0.1248526142","0.3133100433","","","","","","","","","","72","H","0","img/none_selected.jpg","","103","main_expt",""
"","bandit","183","599350","0.0-145.0-0.0","28137895","wem/bandit_party_1","A2AEVNP6L22YCC","either","5","185","","","","","","","0","0","1","0.2305366804","","0.8","0.6","0.4","0.2","","","","","0.2305366804","0.1034740879","0.142969925","0.3219148419","","","","","","","","","","72","H","0","img/none_selected.jpg","","104","main_expt",""
"","bandit","184","601008","0.0-146.0-0.0","28137895","wem/bandit_party_1","A2AEVNP6L22YCC","either","5","142","","","","","","","0","0","1","0.2102135581","","0.8","0.6","0.4","0.2","","","","","0.2102135581","0.07597240327","0.13947254","0.3300892518","","","","","","","","","","72","H","0","img/none_selected.jpg","","105","main_expt",""
"","bandit","185","602827","0.0-147.0-0.0","28137895","wem/bandit_party_1","A2AEVNP6L22YCC","either","5","311","","","","","","","0","0","1","","0.1329526997","0.8","0.6","0.4","0.2","0.2219457329","0.1124257427","0.1329526997","0.3401839058","","","","","","","","","","","","","","75","K","2","","","106","main_expt",""
"","bandit","186","604675","0.0-148.0-0.0","28137895","wem/bandit_party_1","A2AEVNP6L22YCC","either","5","322","","","","","","","0","0","1","0.1727290233","","0.8","0.6","0.4","0.2","","","","","0.3048423019","0.1133168519","0.1727290233","0.3784706915","","","","","","","","","","75","K","2","","","107","main_expt",""
"","bandit","187","606492","0.0-149.0-0.0","28137895","wem/bandit_party_1","A2AEVNP6L22YCC","either","5","293","","","","","","","0","1","0","","0.3945753887","0.8","0.6","0.4","0.2","0.258150515","0.1752395656","0.1864487031","0.3945753887","","","","","","","","","","","","","","76","L","3","","","108","main_expt",""
"","bandit","188","608334","0.0-150.0-0.0","28137895","wem/bandit_party_1","A2AEVNP6L22YCC","either","5","316","","","","","","","0","0","1","","0.356827327","0.8","0.6","0.4","0.2","0.1859129148","0.1862973424","0.2463216238","0.356827327","","","","","","","","","","","","","","76","L","3","","","109","main_expt",""
"","bandit","189","610174","0.0-151.0-0.0","28137895","wem/bandit_party_1","A2AEVNP6L22YCC","either","5","315","","","","","","","0","0","1","","0.2344179837","0.8","0.6","0.4","0.2","0.1371624404","0.2015845776","0.2431522628","0.2344179837","","","","","","","","","","","","","","76","L","3","","","110","main_expt",""
"","bandit","190","611842","0.0-152.0-0.0","28137895","wem/bandit_party_1","A2AEVNP6L22YCC","either","5","143","","","","","","","0","0","1","","0.2003651753","0.8","0.6","0.4","0.2","0.1258232978","0.2003651753","0.1757476643","0.2644823096","","","","","","","","","","","","","","74","J","1","","","111","main_expt",""
"","bandit","191","613454","0.0-153.0-0.0","28137895","wem/bandit_party_1","A2AEVNP6L22YCC","either","5","87","","","","","","","0","0","1","","0.2451518953","0.8","0.6","0.4","0.2","0.1529967373","0.21392293","0.2451518953","0.28311182","","","","","","","","","","","","","","75","K","2","","","112","main_expt",""
"","bandit","192","615769","0.0-154.0-0.0","28137895","wem/bandit_party_1","A2AEVNP6L22YCC","either","5","790","","","","","","","0","0","1","0.1606798039","","0.8","0.6","0.4","0.2","","","","","0.148248117","0.1606798039","0.2407836715","0.2413269532","","","","","","","","","","74","J","1","","","113","main_expt",""
"","bandit","193","617584","0.0-155.0-0.0","28137895","wem/bandit_party_1","A2AEVNP6L22YCC","either","5","291","","","","","","","0","0","1","","0.2095980235","0.8","0.6","0.4","0.2","0.1562208239","0.2095980235","0.3099317417","0.3100969134","","","","","","","","","","","","","","74","J","1","","","114","main_expt",""
"","bandit","194","619471","0.0-156.0-0.0","28137895","wem/bandit_party_1","A2AEVNP6L22YCC","either","5","364","","","","","","","0","0","1","0.2550279667","","0.8","0.6","0.4","0.2","","","","","0.2138032898","0.2550279667","0.3180754701","0.329842252","","","","","","","","","","74","J","1","","","115","main_expt",""
"","bandit","195","621101","0.0-157.0-0.0","28137895","wem/bandit_party_1","A2AEVNP6L22YCC","either","5","102","","","","","","","0","0","1","0.2919742107","","0.8","0.6","0.4","0.2","","","","","0.2331260325","0.2471764387","0.2919742107","0.3223706096","","","","","","","","","","75","K","2","","","116","main_expt",""
"","bandit","196","622924","0.0-158.0-0.0","28137895","wem/bandit_party_1","A2AEVNP6L22YCC","either","5","301","","","","","","","0","0","1","","0.2799774295","0.8","0.6","0.4","0.2","0.1826309729","0.2730878341","0.2799774295","0.3098408215","","","","","","","","","","","","","","75","K","2","","","117","main_expt",""
"","bandit","197","624594","0.0-159.0-0.0","28137895","wem/bandit_party_1","A2AEVNP6L22YCC","either","5","146","","","","","","","0","0","1","","0.2646714695","0.8","0.6","0.4","0.2","0.1511269107","0.2071462199","0.2646714695","0.2974554567","","","","","","","","","","","","","","75","K","2","","","118","main_expt",""
"","bandit","198","626335","0.0-160.0-0.0","28137895","wem/bandit_party_1","A2AEVNP6L22YCC","either","5","217","","","","","","","0","0","1","0.1559979654","","0.8","0.6","0.4","0.2","","","","","0.1559979654","0.2275232499","0.3179839519","0.3598468986","","","","","","","","","","72","H","0","img/none_selected.jpg","","119","main_expt",""
"","bandit","199","628292","0.0-161.0-0.0","28137895","wem/bandit_party_1","A2AEVNP6L22YCC","either","5","430","","","","","","","0","1","0","","0.1463004055","0.8","0.6","0.4","0.2","0.1463004055","0.2767559596","0.3302262658","0.2984373086","","","","","","","","","","","","","","72","H","0","img/none_selected.jpg","","120","main_expt",""
"","bandit","200","630167","0.0-162.0-0.0","28137895","wem/bandit_party_1","A2AEVNP6L22YCC","either","5","353","","","","","","","0","0","1","0.1418195479","","0.8","0.6","0.4","0.2","","","","","0.1418195479","0.3448590315","0.3500549905","0.2973090059","","","","","","","","","","72","H","0","img/none_selected.jpg","","121","main_expt",""
"","bandit","201","632059","0.0-163.0-0.0","28137895","wem/bandit_party_1","A2AEVNP6L22YCC","either","5","363","","","","","","","0","0","1","","0.1270782113","0.8","0.6","0.4","0.2","0.1270782113","0.3593301016","0.2686616284","0.3382791822","","","","","","","","","","","","","","72","H","0","img/none_selected.jpg","","122","main_expt",""
"","bandit","202","633909","0.0-164.0-0.0","28137895","wem/bandit_party_1","A2AEVNP6L22YCC","either","5","315","","","","","","","0","0","1","0.1207154071","","0.8","0.6","0.4","0.2","","","","","0.1207154071","0.3680529171","0.2277230314","0.3154347028","","","","","","","","","","72","H","0","img/none_selected.jpg","","123","main_expt",""
"","bandit","203","635488","0.0-165.0-0.0","28137895","wem/bandit_party_1","A2AEVNP6L22YCC","either","5","52","","","","","","","0","0","1","","0.1229329119","0.8","0.6","0.4","0.2","0.1229329119","0.3476523483","0.3287090939","0.2966737815","","","","","","","","","","","","","","72","H","0","img/none_selected.jpg","","124","main_expt",""
"","bandit","204","637378","0.0-166.0-0.0","28137895","wem/bandit_party_1","A2AEVNP6L22YCC","either","5","361","","","","","","","0","0","1","","0.09241122996","0.8","0.6","0.4","0.2","0.09241122996","0.3564603465","0.3687339586","0.3094831126","","","","","","","","","","","","","","72","H","0","img/none_selected.jpg","","125","main_expt",""
"","bandit","205","639134","0.0-167.0-0.0","28137895","wem/bandit_party_1","A2AEVNP6L22YCC","either","5","230","","","","","","","0","0","1","0.08418962236","","0.8","0.6","0.4","0.2","","","","","0.08418962236","0.3550684458","0.3836195774","0.2488993205","","","","","","","","","","72","H","0","img/none_selected.jpg","","126","main_expt",""
"","bandit","206","641005","0.0-168.0-0.0","28137895","wem/bandit_party_1","A2AEVNP6L22YCC","either","5","350","","","","","","","0","0","1","","0.154715772","0.8","0.6","0.4","0.2","0.154715772","0.3235559827","0.3617365958","0.1953487027","","","","","","","","","","","","","","72","H","0","img/none_selected.jpg","","127","main_expt",""
"","bandit","207","642999","0.0-169.0-0.0","28137895","wem/bandit_party_1","A2AEVNP6L22YCC","either","5","468","","","","","","","0","0","1","0.1556709078","","0.8","0.6","0.4","0.2","","","","","0.1556709078","0.312087491","0.3235283493","0.2171889907","","","","","","","","","","72","H","0","img/none_selected.jpg","","128","main_expt",""
"","bandit","208","644864","0.0-170.0-0.0","28137895","wem/bandit_party_1","A2AEVNP6L22YCC","either","5","338","","","","","","","0","0","1","","0.2843272188","0.8","0.6","0.4","0.2","0.1214200615","0.2843272188","0.3453830546","0.2467699801","","","","","","","","","","","","","","74","J","1","","","129","main_expt",""
"","bandit","209","646820","0.0-171.0-0.0","28137895","wem/bandit_party_1","A2AEVNP6L22YCC","either","5","430","","","","","","","0","1","0","","0.3242747857","0.8","0.6","0.4","0.2","0.1377283829","0.2128416856","0.3242747857","0.2814443482","","","","","","","","","","","","","","75","K","2","","","130","main_expt",""
"","bandit","210","648738","0.0-172.0-0.0","28137895","wem/bandit_party_1","A2AEVNP6L22YCC","either","5","368","","","","","","","1","0","0","0.3417201858","","0.8","0.6","0.4","0.2","","","","","0.1397421628","0.2403879813","0.3417201858","0.2834176508","","","","","","","","","","75","K","2","","","131","main_expt",""
"","bandit","211","650698","0.0-173.0-0.0","28137895","wem/bandit_party_1","A2AEVNP6L22YCC","either","5","427","","","","","","","0","0","1","","0.3498614837","0.8","0.6","0.4","0.2","0.1061875113","0.2811421594","0.3498614837","0.2429908031","","","","","","","","","","","","","","75","K","2","","","132","main_expt",""
"","bandit","212","652495","0.0-174.0-0.0","28137895","wem/bandit_party_1","A2AEVNP6L22YCC","either","5","262","","","","","","","1","0","0","0.3134828643","","0.8","0.6","0.4","0.2","","","","","0.07774811701","0.3002858371","0.3134828643","0.3053559495","","","","","","","","","","75","K","2","","","133","main_expt",""
"","bandit","213","654154","0.0-175.0-0.0","28137895","wem/bandit_party_1","A2AEVNP6L22YCC","either","5","134","","","","","","","0","1","0","","0.3554593188","0.8","0.6","0.4","0.2","0.08211281178","0.277406375","0.3554593188","0.2693478067","","","","","","","","","","","","","","75","K","2","","","134","main_expt",""
"","bandit","214","656049","0.0-176.0-0.0","28137895","wem/bandit_party_1","A2AEVNP6L22YCC","either","5","364","","","","","","","0","0","1","","0.3150900126","0.8","0.6","0.4","0.2","0.1123817552","0.2897147582","0.3150900126","0.3369166079","","","","","","","","","","","","","","75","K","2","","","135","main_expt",""
"","bandit","215","657839","0.0-177.0-0.0","28137895","wem/bandit_party_1","A2AEVNP6L22YCC","either","5","258","","","","","","","0","0","1","0.3199395785","","0.8","0.6","0.4","0.2","","","","","0.1478339482","0.3590576628","0.3199395785","0.268603144","","","","","","","","","","75","K","2","","","136","main_expt",""
"","bandit","216","659898","0.0-178.0-0.0","28137895","wem/bandit_party_1","A2AEVNP6L22YCC","either","5","527","","","","","","","1","0","0","0.2373427956","","0.8","0.6","0.4","0.2","","","","","0.1374936615","0.3822427384","0.33362357","0.2373427956","","","","","","","","","","76","L","3","","","137","main_expt",""
"","bandit","217","661779","0.0-179.0-0.0","28137895","wem/bandit_party_1","A2AEVNP6L22YCC","either","5","356","","","","","","","0","0","1","","0.2206869265","0.8","0.6","0.4","0.2","0.159761955","0.3410071165","0.3611324022","0.2206869265","","","","","","","","","","","","","","76","L","3","","","138","main_expt",""
"","bandit","218","663586","0.0-180.0-0.0","28137895","wem/bandit_party_1","A2AEVNP6L22YCC","either","5","281","","","","","","","0","1","0","","0.2177966349","0.8","0.6","0.4","0.2","0.1363721132","0.3738014659","0.3504145086","0.2177966349","","","","","","","","","","","","","","76","L","3","","","139","main_expt",""
"","bandit","219","665354","0.0-181.0-0.0","28137895","wem/bandit_party_1","A2AEVNP6L22YCC","either","5","240","","","","","","","0","1","0","","0.2387685432","0.8","0.6","0.4","0.2","0.1031445192","0.422575493","0.309774603","0.2387685432","","","","","","","","","","","","","","76","L","3","","","140","main_expt",""
"","bandit","220","667175","0.0-182.0-0.0","28137895","wem/bandit_party_1","A2AEVNP6L22YCC","either","5","289","","","","","","","0","0","1","","0.2575087366","0.8","0.6","0.4","0.2","0.09805286369","0.4439129864","0.3506531288","0.2575087366","","","","","","","","","","","","","","76","L","3","","","141","main_expt",""
"","bandit","221","669020","0.0-183.0-0.0","28137895","wem/bandit_party_1","A2AEVNP6L22YCC","either","5","320","","","","","","","0","0","1","0.2392038972","","0.8","0.6","0.4","0.2","","","","","0.1149002948","0.4323802182","0.2965027242","0.2392038972","","","","","","","","","","76","L","3","","","142","main_expt",""
"","bandit","222","670844","0.0-184.0-0.0","28137895","wem/bandit_party_1","A2AEVNP6L22YCC","either","5","297","","","","","","","0","0","1","","0.2216470548","0.8","0.6","0.4","0.2","0.1209542099","0.4358412593","0.2087517366","0.2216470548","","","","","","","","","","","","","","76","L","3","","","143","main_expt",""
"","bandit","223","672683","0.0-185.0-0.0","28137895","wem/bandit_party_1","A2AEVNP6L22YCC","either","5","306","","","","","","","1","0","0","0.2313605626","","0.8","0.6","0.4","0.2","","","","","0.1202521083","0.4407373256","0.2313605626","0.2224896139","","","","","","","","","","75","K","2","","","144","main_expt",""
"","bandit","224","674499","0.0-186.0-0.0","28137895","wem/bandit_party_1","A2AEVNP6L22YCC","either","5","287","","","","","","","0","0","1","","0.1785565547","0.8","0.6","0.4","0.2","0.1619743669","0.4661091035","0.1785565547","0.1925605464","","","","","","","","","","","","","","75","K","2","","","145","main_expt",""
"","bandit","225","676302","0.0-187.0-0.0","28137895","wem/bandit_party_1","A2AEVNP6L22YCC","either","5","277","","","","","","","0","0","1","","0.1770660648","0.8","0.6","0.4","0.2","0.1664631043","0.4637097668","0.1770660648","0.2069800611","","","","","","","","","","","","","","75","K","2","","","146","main_expt",""
"","bandit","226","677835","0.0-188.0-0.0","28137895","wem/bandit_party_1","A2AEVNP6L22YCC","either","5","4","","","","","","","0","0","1","0.1063371611","","0.8","0.6","0.4","0.2","","","","","0.1669241763","0.4700491642","0.1063371611","0.2489662189","","","","","","","","","","75","K","2","","","147","main_expt",""
"","bandit","227","679625","0.0-189.0-0.0","28137895","wem/bandit_party_1","A2AEVNP6L22YCC","either","5","264","","","","","","","0","0","1","","0.1216370817","0.8","0.6","0.4","0.2","0.1581456949","0.4648109734","0.1216370817","0.1946464158","","","","","","","","","","","","","","75","K","2","","","148","main_expt",""
"","bandit","228","681494","0.0-190.0-0.0","28137895","wem/bandit_party_1","A2AEVNP6L22YCC","either","5","340","","","","","","","0","0","1","","0.1024256959","0.8","0.6","0.4","0.2","0.1698392466","0.4635511513","0.1024256959","0.1826562491","","","","","","","","","","","","","","75","K","2","","","149","main_expt",""
"","bandit","229","683375","0.0-191.0-0.0","28137895","wem/bandit_party_1","A2AEVNP6L22YCC","either","5","297","","","","","","","0","0","1","","0.4445017148","0.8","0.6","0.4","0.2","0.2140114634","0.4445017148","0.1371094633","0.1750473563","","","","","","","","","","","","","","74","J","1","","","150","main_expt",""
"","bandit","230","685329","0.0-192.0-0.0","28137895","wem/bandit_party_1","A2AEVNP6L22YCC","either","5","430","","","","","","","0","0","1","0.4434799742","","0.8","0.6","0.4","0.2","","","","","0.2392960001","0.4434799742","0.1702433702","0.1109536645","","","","","","","","","","74","J","1","","","151","main_expt",""
"","bandit","231","687429","0.0-193.0-0.0","28137895","wem/bandit_party_1","A2AEVNP6L22YCC","either","5","568","","","","","","","0","0","1","0.2095863317","","0.8","0.6","0.4","0.2","","","","","0.2095863317","0.4451665291","0.1860489046","0.1143086707","","","","","","","","","","72","H","0","img/none_selected.jpg","","152","main_expt",""
"","bandit","232","689377","0.0-194.0-0.0","28137895","wem/bandit_party_1","A2AEVNP6L22YCC","either","5","429","","","","","","","0","0","1","","0.2543258611","0.8","0.6","0.4","0.2","0.2543258611","0.4401532833","0.2117094388","0.1236290712","","","","","","","","","","","","","","72","H","0","img/none_selected.jpg","","153","main_expt",""
"","bandit","233","691157","0.0-195.0-0.0","28137895","wem/bandit_party_1","A2AEVNP6L22YCC","either","5","255","","","","","","","0","0","1","0.2602259906","","0.8","0.6","0.4","0.2","","","","","0.2602259906","0.4516855879","0.2072389033","0.1600695342","","","","","","","","","","72","H","0","img/none_selected.jpg","","154","main_expt",""
"","bandit","234","693062","0.0-196.0-0.0","28137895","wem/bandit_party_1","A2AEVNP6L22YCC","either","5","377","","","","","","","1","0","0","0.4480264808","","0.8","0.6","0.4","0.2","","","","","0.2750581274","0.4480264808","0.1986333914","0.1770288166","","","","","","","","","","74","J","1","","","155","main_expt",""
"","bandit","235","695016","0.0-197.0-0.0","28137895","wem/bandit_party_1","A2AEVNP6L22YCC","either","5","421","","","","","","","0","0","1","0.4260414265","","0.8","0.6","0.4","0.2","","","","","0.2438045727","0.4260414265","0.2054640346","0.1761817894","","","","","","","","","","74","J","1","","","156","main_expt",""
"","bandit","236","697688","0.0-198.0-0.0","28137895","wem/bandit_party_1","A2AEVNP6L22YCC","either","5","1144","","","","","","","1","0","0","0.4365201507","","0.8","0.6","0.4","0.2","","","","","0.2857025143","0.4365201507","0.1810715383","0.1998830888","","","","","","","","","","74","J","1","","","157","main_expt",""
"","bandit","237","699670","0.0-199.0-0.0","28137895","wem/bandit_party_1","A2AEVNP6L22YCC","either","5","453","","","","","","","0","0","1","0.4076244479","","0.8","0.6","0.4","0.2","","","","","0.2887719476","0.4076244479","0.2118906364","0.2150354531","","","","","","","","","","74","J","1","","","158","main_expt",""
"","bandit","238","701461","0.0-200.0-0.0","28137895","wem/bandit_party_1","A2AEVNP6L22YCC","either","5","265","","","","","","","1","0","0","0.403953851","","0.8","0.6","0.4","0.2","","","","","0.2859462397","0.403953851","0.2293976715","0.2221069796","","","","","","","","","","74","J","1","","","159","main_expt",""
"","bandit","239","703230","0.0-201.0-0.0","28137895","wem/bandit_party_1","A2AEVNP6L22YCC","either","5","231","","","","","","","0","0","1","0.4282135537","","0.8","0.6","0.4","0.2","","","","","0.207432816","0.4282135537","0.2186051381","0.2627335039","","","","","","","","","","74","J","1","","","160","main_expt",""
"","bandit","240","705179","0.0-202.0-0.0","28137895","wem/bandit_party_1","A2AEVNP6L22YCC","either","5","423","","","","","","","0","1","0","","0.4479073124","0.8","0.6","0.4","0.2","0.1611694724","0.4479073124","0.2175927206","0.2922457848","","","","","","","","","","","","","","74","J","1","","","161","main_expt",""
"","bandit","241","707095","0.0-203.0-0.0","28137895","wem/bandit_party_1","A2AEVNP6L22YCC","either","5","385","","","","","","","0","0","1","0.4456201243","","0.8","0.6","0.4","0.2","","","","","0.14378348","0.4456201243","0.2370404117","0.3040212123","","","","","","","","","","74","J","1","","","162","main_expt",""
"","bandit","242","708794","0.0-204.0-0.0","28137895","wem/bandit_party_1","A2AEVNP6L22YCC","either","5","164","","","","","","","0","1","0","","0.4384930657","0.8","0.6","0.4","0.2","0.1707099899","0.4384930657","0.2778780432","0.2933359027","","","","","","","","","","","","","","74","J","1","","","163","main_expt",""
"","bandit","243","710721","0.0-205.0-0.0","28137895","wem/bandit_party_1","A2AEVNP6L22YCC","either","5","392","","","","","","","1","0","0","0.4231568034","","0.8","0.6","0.4","0.2","","","","","0.1933693166","0.4231568034","0.2643388611","0.2388203062","","","","","","","","","","74","J","1","","","164","main_expt",""
"","bandit","244","712788","0.0-206.0-0.0","28137895","wem/bandit_party_1","A2AEVNP6L22YCC","either","5","537","","","","","","","0","0","1","0.4412535734","","0.8","0.6","0.4","0.2","","","","","0.2406324952","0.4412535734","0.1967204453","0.2646204916","","","","","","","","","","74","J","1","","","165","main_expt",""
"","bandit","245","715323","0.0-207.0-0.0","28137895","wem/bandit_party_1","A2AEVNP6L22YCC","either","5","1005","","","","","","","0","0","1","0.438364003","","0.8","0.6","0.4","0.2","","","","","0.2650462377","0.438364003","0.1567937345","0.2591758032","","","","","","","","","","74","J","1","","","166","main_expt",""
"","bandit","246","717142","0.0-208.0-0.0","28137895","wem/bandit_party_1","A2AEVNP6L22YCC","either","5","285","","","","","","","0","0","1","","0.1201482918","0.8","0.6","0.4","0.2","0.245875583","0.4290991351","0.1201482918","0.1955934818","","","","","","","","","","","","","","75","K","2","","","167","main_expt",""
"","bandit","247","718960","0.0-209.0-0.0","28137895","wem/bandit_party_1","A2AEVNP6L22YCC","either","5","290","","","","","","","0","0","1","","0.0936051119","0.8","0.6","0.4","0.2","0.257303599","0.4510860662","0.0936051119","0.2090603634","","","","","","","","","","","","","","75","K","2","","","168","main_expt",""
"","bandit","248","720867","0.0-210.0-0.0","28137895","wem/bandit_party_1","A2AEVNP6L22YCC","either","5","374","","","","","","","0","0","1","","0.2678479696","0.8","0.6","0.4","0.2","0.2993732043","0.4491424364","0.08775096918","0.2678479696","","","","","","","","","","","","","","76","L","3","","","169","main_expt",""
"","bandit","249","722744","0.0-211.0-0.0","28137895","wem/bandit_party_1","A2AEVNP6L22YCC","either","5","332","","","","","","","0","0","1","0.3388977639","","0.8","0.6","0.4","0.2","","","","","0.3388977639","0.4332244901","0.06743429675","0.2532125956","","","","","","","","","","72","H","0","img/none_selected.jpg","","170","main_expt",""
"","bandit","250","724590","0.0-212.0-0.0","28137895","wem/bandit_party_1","A2AEVNP6L22YCC","either","5","308","","","","","","","1","0","0","0.2947926635","","0.8","0.6","0.4","0.2","","","","","0.2947926635","0.4405036994","0.05979118822","0.2568627054","","","","","","","","","","72","H","0","img/none_selected.jpg","","171","main_expt",""
"","bandit","251","726365","0.0-213.0-0.0","28137895","wem/bandit_party_1","A2AEVNP6L22YCC","either","5","238","","","","","","","0","0","1","0.2892529657","","0.8","0.6","0.4","0.2","","","","","0.2892529657","0.4358521759","0.03200499914","0.2451563353","","","","","","","","","","72","H","0","img/none_selected.jpg","","172","main_expt",""
"","bandit","252","728649","0.0-214.0-0.0","28137895","wem/bandit_party_1","A2AEVNP6L22YCC","either","5","752","","","","","","","1","0","0","0.2571917514","","0.8","0.6","0.4","0.2","","","","","0.2571917514","0.4471617722","0.04613358223","0.3003395367","","","","","","","","","","72","H","0","img/none_selected.jpg","","173","main_expt",""
"","bandit","253","730516","0.0-215.0-0.0","28137895","wem/bandit_party_1","A2AEVNP6L22YCC","either","5","329","","","","","","","1","0","0","0.244173221","","0.8","0.6","0.4","0.2","","","","","0.244173221","0.4560251174","0.05969677181","0.2545998681","","","","","","","","","","72","H","0","img/none_selected.jpg","","174","main_expt",""
"","bandit","254","732402","0.0-216.0-0.0","28137895","wem/bandit_party_1","A2AEVNP6L22YCC","either","5","349","","","","","","","0","0","1","","0.2038098688","0.8","0.6","0.4","0.2","0.2038098688","0.4379349024","0.05930066603","0.3383135611","","","","","","","","","","","","","","72","H","0","img/none_selected.jpg","","175","main_expt",""
"","bandit","255","734937","0.0-217.0-0.0","28137895","wem/bandit_party_1","A2AEVNP6L22YCC","either","5","999","","","","","","","0","0","1","0.2053823003","","0.8","0.6","0.4","0.2","","","","","0.2053823003","0.4328841116","0.08110879181","0.3880627729","","","","","","","","","","72","H","0","img/none_selected.jpg","","176","main_expt",""
"","bandit","256","736856","0.0-218.0-0.0","28137895","wem/bandit_party_1","A2AEVNP6L22YCC","either","5","382","","","","","","","0","0","1","0.2193083282","","0.8","0.6","0.4","0.2","","","","","0.2193083282","0.3965365967","0.07611568943","0.3920994557","","","","","","","","","","72","H","0","img/none_selected.jpg","","177","main_expt",""
"","bandit","257","738809","0.0-219.0-0.0","28137895","wem/bandit_party_1","A2AEVNP6L22YCC","either","5","413","","","","","","","0","0","1","0.1904263594","","0.8","0.6","0.4","0.2","","","","","0.1904263594","0.3899234309","0.1220467165","0.3882277994","","","","","","","","","","72","H","0","img/none_selected.jpg","","178","main_expt",""
"","bandit","258","740757","0.0-220.0-0.0","28137895","wem/bandit_party_1","A2AEVNP6L22YCC","either","5","406","","","","","","","0","0","1","0.2212788648","","0.8","0.6","0.4","0.2","","","","","0.2212788648","0.4238443777","0.1698853315","0.3939691408","","","","","","","","","","72","H","0","img/none_selected.jpg","","179","main_expt",""
"","bandit","259","742376","0.0-221.0-0.0","28137895","wem/bandit_party_1","A2AEVNP6L22YCC","either","5","84","","","","","","","0","1","0","","0.4487400994","0.8","0.6","0.4","0.2","0.2640717145","0.4487400994","0.1374762061","0.4074656662","","","","","","","","","","","","","","74","J","1","","","180","main_expt",""
"","bandit","260","744213","0.0-222.0-0.0","28137895","wem/bandit_party_1","A2AEVNP6L22YCC","either","5","305","","","","","","","0","1","0","","0.4314573438","0.8","0.6","0.4","0.2","0.2426483564","0.4314573438","0.09961924189","0.3724421945","","","","","","","","","","","","","","74","J","1","","","181","main_expt",""
"","bandit","261","746017","0.0-223.0-0.0","28137895","wem/bandit_party_1","A2AEVNP6L22YCC","either","5","268","","","","","","","0","0","1","0.4458059303","","0.8","0.6","0.4","0.2","","","","","0.2001563476","0.4458059303","0.1391043194","0.2998177931","","","","","","","","","","74","J","1","","","182","main_expt",""
"","bandit","262","748323","0.0-224.0-0.0","28137895","wem/bandit_party_1","A2AEVNP6L22YCC","either","5","765","","","","","","","0","0","1","0.4485460149","","0.8","0.6","0.4","0.2","","","","","0.2167094124","0.4485460149","0.1336424596","0.3629728763","","","","","","","","","","74","J","1","","","183","main_expt",""
"","bandit","263","750204","0.0-225.0-0.0","28137895","wem/bandit_party_1","A2AEVNP6L22YCC","either","5","351","","","","","","","0","0","1","0.4078350507","","0.8","0.6","0.4","0.2","","","","","0.2402813617","0.4078350507","0.115911235","0.3763603645","","","","","","","","","","74","J","1","","","184","main_expt",""
"","bandit","264","752034","0.0-226.0-0.0","28137895","wem/bandit_party_1","A2AEVNP6L22YCC","either","5","287","","","","","","","0","0","1","","0.1394203739","0.8","0.6","0.4","0.2","0.2745112141","0.3805788675","0.1394203739","0.3472982705","","","","","","","","","","","","","","75","K","2","","","185","main_expt",""
"","bandit","265","753804","0.0-227.0-0.0","28137895","wem/bandit_party_1","A2AEVNP6L22YCC","either","5","235","","","","","","","1","0","0","0.1557479742","","0.8","0.6","0.4","0.2","","","","","0.2774566956","0.4236809331","0.1557479742","0.3095995051","","","","","","","","","","75","K","2","","","186","main_expt",""
"","bandit","266","755615","0.0-228.0-0.0","28137895","wem/bandit_party_1","A2AEVNP6L22YCC","either","5","272","","","","","","","0","0","1","","0.1823611596","0.8","0.6","0.4","0.2","0.2876011691","0.4058627081","0.1823611596","0.2567332284","","","","","","","","","","","","","","75","K","2","","","187","main_expt",""
"","bandit","267","757450","0.0-229.0-0.0","28137895","wem/bandit_party_1","A2AEVNP6L22YCC","either","5","297","","","","","","","0","0","1","0.1854179297","","0.8","0.6","0.4","0.2","","","","","0.2947112378","0.3913346521","0.1854179297","0.2555256861","","","","","","","","","","75","K","2","","","188","main_expt",""
"","bandit","268","759529","0.0-230.0-0.0","28137895","wem/bandit_party_1","A2AEVNP6L22YCC","either","5","541","","","","","","","0","0","1","0.2009875262","","0.8","0.6","0.4","0.2","","","","","0.2581494","0.3760164219","0.1875645599","0.2009875262","","","","","","","","","","76","L","3","","","189","main_expt",""
"","bandit","269","761398","0.0-231.0-0.0","28137895","wem/bandit_party_1","A2AEVNP6L22YCC","either","5","332","","","","","","","0","0","1","","0.2055488595","0.8","0.6","0.4","0.2","0.1756323468","0.3327352817","0.2018323604","0.2055488595","","","","","","","","","","","","","","76","L","3","","","190","main_expt",""
"","bandit","270","763388","0.0-232.0-0.0","28137895","wem/bandit_party_1","A2AEVNP6L22YCC","either","5","454","","","","","","","0","1","0","","0.1506387864","0.8","0.6","0.4","0.2","0.2521570866","0.3015177445","0.221094727","0.1506387864","","","","","","","","","","","","","","76","L","3","","","191","main_expt",""
"","bandit","271","765229","0.0-233.0-0.0","28137895","wem/bandit_party_1","A2AEVNP6L22YCC","either","5","304","","","","","","","0","0","1","","0.2027442266","0.8","0.6","0.4","0.2","0.2964739449","0.2773298268","0.2320570195","0.2027442266","","","","","","","","","","","","","","76","L","3","","","192","main_expt",""
"","bandit","272","767125","0.0-234.0-0.0","28137895","wem/bandit_party_1","A2AEVNP6L22YCC","either","5","355","","","","","","","0","0","1","0.2948950962","","0.8","0.6","0.4","0.2","","","","","0.2612966838","0.2836613797","0.2948950962","0.1969137872","","","","","","","","","","75","K","2","","","193","main_expt",""
"","bandit","273","768931","0.0-235.0-0.0","28137895","wem/bandit_party_1","A2AEVNP6L22YCC","either","5","269","","","","","","","1","0","0","0.2602906927","","0.8","0.6","0.4","0.2","","","","","0.3292914436","0.2799350415","0.2602906927","0.2114994946","","","","","","","","","","75","K","2","","","194","main_expt",""
"","bandit","274","770797","0.0-236.0-0.0","28137895","wem/bandit_party_1","A2AEVNP6L22YCC","either","5","316","","","","","","","0","1","0","","0.1771499101","0.8","0.6","0.4","0.2","0.4070308407","0.2068597772","0.1771499101","0.2467939011","","","","","","","","","","","","","","75","K","2","","","195","main_expt",""
"","bandit","275","772464","0.0-237.0-0.0","28137895","wem/bandit_party_1","A2AEVNP6L22YCC","either","5","132","","","","","","","0","0","1","0.1746274925","","0.8","0.6","0.4","0.2","","","","","0.3494820729","0.2679469531","0.1746274925","0.2731811988","","","","","","","","","","75","K","2","","","196","main_expt",""
"","bandit","276","774337","0.0-238.0-0.0","28137895","wem/bandit_party_1","A2AEVNP6L22YCC","either","5","334","","","","","","","0","0","1","0.193224684","","0.8","0.6","0.4","0.2","","","","","0.3571939809","0.2448078588","0.193224684","0.2512114903","","","","","","","","","","75","K","2","","","197","main_expt",""
"","bandit","277","776130","0.0-239.0-0.0","28137895","wem/bandit_party_1","A2AEVNP6L22YCC","either","5","260","","","","","","","1","0","0","0.382430028","","0.8","0.6","0.4","0.2","","","","","0.382430028","0.2433987968","0.1771509929","0.190651112","","","","","","","","","","72","H","0","img/none_selected.jpg","","198","main_expt",""
"","bandit","278","778041","0.0-240.0-0.0","28137895","wem/bandit_party_1","A2AEVNP6L22YCC","either","5","374","","","","","","","0","1","0","","0.3353474301","0.8","0.6","0.4","0.2","0.3353474301","0.2653624242","0.2466668772","0.1701189695","","","","","","","","","","","","","","72","H","0","img/none_selected.jpg","","199","main_expt",""
"","bandit","279","779661","0.0-241.0-0.0","28137895","wem/bandit_party_1","A2AEVNP6L22YCC","either","5","75","","","","","","","0","0","1","0.3321976498","","0.8","0.6","0.4","0.2","","","","","0.3321976498","0.2551376492","0.2477816141","0.1656975488","","","","","","","","","","72","H","0","img/none_selected.jpg","","200","main_expt",""
"","bandit","280","781685","0.0-242.0-0.0","28137895","wem/bandit_party_1","A2AEVNP6L22YCC","either","5","485","","","","","","","0","0","1","0.3218117355","","0.8","0.6","0.4","0.2","","","","","0.3218117355","0.2660639347","0.2744817861","0.1647298582","","","","","","","","","","72","H","0","img/none_selected.jpg","","201","main_expt",""
"","bandit","281","783295","0.0-243.0-0.0","28137895","wem/bandit_party_1","A2AEVNP6L22YCC","either","5","69","","","","","","","0","0","1","0.2949214693","","0.8","0.6","0.4","0.2","","","","","0.2949214693","0.2220900594","0.3043062986","0.1242041815","","","","","","","","","","72","H","0","img/none_selected.jpg","","202","main_expt",""
"","bandit","282","786504","0.0-244.0-0.0","28137895","wem/bandit_party_1","A2AEVNP6L22YCC","either","5","1671","","","","","","","0","0","1","0.1543353204","","0.8","0.6","0.4","0.2","","","","","0.300077299","0.1543353204","0.272185569","0.1684487429","","","","","","","","","","74","J","1","","","203","main_expt",""
"","bandit","283","788354","0.0-245.0-0.0","28137895","wem/bandit_party_1","A2AEVNP6L22YCC","either","5","319","","","","","","","0","0","1","","0.1605482003","0.8","0.6","0.4","0.2","0.2866085977","0.1605482003","0.2610767704","0.1666409686","","","","","","","","","","","","","","74","J","1","","","204","main_expt",""
"","bandit","284","790045","0.0-246.0-0.0","28137895","wem/bandit_party_1","A2AEVNP6L22YCC","either","5","149","","","","","","","0","0","1","","0.1406914754","0.8","0.6","0.4","0.2","0.2695546272","0.1406914754","0.2832615928","0.2197286508","","","","","","","","","","","","","","74","J","1","","","205","main_expt",""
"","bandit","285","791922","0.0-247.0-0.0","28137895","wem/bandit_party_1","A2AEVNP6L22YCC","either","5","334","","","","","","","0","0","1","0.2622178416","","0.8","0.6","0.4","0.2","","","","","0.2622178416","0.1138947463","0.300913322","0.2754509052","","","","","","","","","","72","H","0","img/none_selected.jpg","","206","main_expt",""
"","bandit","286","793713","0.0-248.0-0.0","28137895","wem/bandit_party_1","A2AEVNP6L22YCC","either","5","256","","","","","","","0","0","1","0.2498186578","","0.8","0.6","0.4","0.2","","","","","0.2498186578","0.1096702189","0.3260258847","0.2664869377","","","","","","","","","","72","H","0","img/none_selected.jpg","","207","main_expt",""
"","bandit","287","795613","0.0-249.0-0.0","28137895","wem/bandit_party_1","A2AEVNP6L22YCC","either","5","367","","","","","","","0","0","1","0.2335358635","","0.8","0.6","0.4","0.2","","","","","0.2335358635","0.09922356593","0.3173829003","0.2686565688","","","","","","","","","","72","H","0","img/none_selected.jpg","","208","main_expt",""
"","bandit","288","797588","0.0-250.0-0.0","28137895","wem/bandit_party_1","A2AEVNP6L22YCC","either","5","441","","","","","","","1","0","0","0.3153846937","","0.8","0.6","0.4","0.2","","","","","0.2638942681","0.101567507","0.3153846937","0.2380255957","","","","","","","","","","75","K","2","","","209","main_expt",""
"","bandit","289","799465","0.0-251.0-0.0","28137895","wem/bandit_party_1","A2AEVNP6L22YCC","either","5","334","","","","","","","0","0","1","0.3010876552","","0.8","0.6","0.4","0.2","","","","","0.2526926237","0.08675379402","0.3010876552","0.2507768727","","","","","","","","","","75","K","2","","","210","main_expt",""
"","bandit","290","801244","0.0-252.0-0.0","28137895","wem/bandit_party_1","A2AEVNP6L22YCC","either","5","253","","","","","","","0","0","1","0.2864900033","","0.8","0.6","0.4","0.2","","","","","0.2740367769","0.07512021269","0.2864900033","0.2685142319","","","","","","","","","","75","K","2","","","211","main_expt",""
"","bandit","291","802862","0.0-253.0-0.0","28137895","wem/bandit_party_1","A2AEVNP6L22YCC","either","5","82","","","","","","","0","0","1","","0.260511483","0.8","0.6","0.4","0.2","0.2440836191","0.08144254236","0.3163372434","0.260511483","","","","","","","","","","","","","","76","L","3","","","212","main_expt",""
"","bandit","292","806040","0.0-254.0-0.0","28137895","wem/bandit_party_1","A2AEVNP6L22YCC","either","5","1638","","","","","","","0","0","1","0.2579605047","","0.8","0.6","0.4","0.2","","","","","0.2341903104","0.06585574052","0.2701305136","0.2579605047","","","","","","","","","","76","L","3","","","213","main_expt",""
"","bandit","293","808019","0.0-255.0-0.0","28137895","wem/bandit_party_1","A2AEVNP6L22YCC","either","5","441","","","","","","","0","0","1","","0.302599165","0.8","0.6","0.4","0.2","0.2097526345","0.08686614453","0.302599165","0.2470456849","","","","","","","","","","","","","","75","K","2","","","214","main_expt",""
"","bandit","294","810426","0.0-256.0-0.0","28137895","wem/bandit_party_1","A2AEVNP6L22YCC","either","5","866","","","","","","","0","0","1","","0.2968005471","0.8","0.6","0.4","0.2","0.1796882487","0.1068548489","0.2968005471","0.3285383036","","","","","","","","","","","","","","75","K","2","","","215","main_expt",""
"","bandit","295","812436","0.0-257.0-0.0","28137895","wem/bandit_party_1","A2AEVNP6L22YCC","either","5","468","","","","","","","0","0","1","","0.3780044773","0.8","0.6","0.4","0.2","0.2237900511","0.1211736082","0.2835536598","0.3780044773","","","","","","","","","","","","","","76","L","3","","","216","main_expt",""
"","bandit","296","814528","0.0-258.0-0.0","28137895","wem/bandit_party_1","A2AEVNP6L22YCC","either","5","551","","","","","","","0","0","1","","0.3939228946","0.8","0.6","0.4","0.2","0.2265358539","0.09343701815","0.2520762718","0.3939228946","","","","","","","","","","","","","","76","L","3","","","217","main_expt",""
"","bandit","297","816752","0.0-259.0-0.0","28137895","wem/bandit_party_1","A2AEVNP6L22YCC","either","5","687","","","","","","","0","0","1","","0.2562699476","0.8","0.6","0.4","0.2","0.2364013437","0.1001055386","0.2562699476","0.3198270803","","","","","","","","","","","","","","75","K","2","","","218","main_expt",""
"","bandit","298","818643","0.0-260.0-0.0","28137895","wem/bandit_party_1","A2AEVNP6L22YCC","either","5","348","","","","","","","0","0","1","","0.3002431464","0.8","0.6","0.4","0.2","0.2810560361","0.09524874014","0.3002431464","0.3502502288","","","","","","","","","","","","","","75","K","2","","","219","main_expt",""
"","bandit","299","821054","0.0-261.0-0.0","28137895","wem/bandit_party_1","A2AEVNP6L22YCC","either","5","872","","","","","","","0","0","1","0.3402456168","","0.8","0.6","0.4","0.2","","","","","0.3027429446","0.1304899995","0.3365413303","0.3402456168","","","","","","","","","","76","L","3","","","220","main_expt",""
"","bandit","300","823894","0.0-262.0-0.0","28137895","wem/bandit_party_1","A2AEVNP6L22YCC","either","5","1299","","","","","","","0","0","1","0.2946103072","","0.8","0.6","0.4","0.2","","","","","0.3132134988","0.1272814923","0.2946103072","0.3770059732","","","","","","","","","","75","K","2","","","221","main_expt",""
"","bandit","301","825851","0.0-263.0-0.0","28137895","wem/bandit_party_1","A2AEVNP6L22YCC","either","5","413","","","","","","","0","0","1","","0.1654407056","0.8","0.6","0.4","0.2","0.2424821827","0.1654407056","0.3267284332","0.3864421123","","","","","","","","","","","","","","74","J","1","","","222","main_expt",""
"","bandit","302","827828","0.0-264.0-0.0","28137895","wem/bandit_party_1","A2AEVNP6L22YCC","either","5","436","","","","","","","0","0","1","0.2595367495","","0.8","0.6","0.4","0.2","","","","","0.2595367495","0.1788325852","0.3175152631","0.4205211408","","","","","","","","","","72","H","0","img/none_selected.jpg","","223","main_expt",""
"","bandit","303","831094","0.0-265.0-0.0","28137895","wem/bandit_party_1","A2AEVNP6L22YCC","either","5","1720","","","","","","","0","0","1","0.328819141","","0.8","0.6","0.4","0.2","","","","","0.328819141","0.1736623033","0.3192400935","0.4131889957","","","","","","","","","","72","H","0","img/none_selected.jpg","","224","main_expt",""
"","bandit","304","833202","0.0-266.0-0.0","28137895","wem/bandit_party_1","A2AEVNP6L22YCC","either","5","566","","","","","","","0","0","1","","0.1721911447","0.8","0.6","0.4","0.2","0.356121412","0.1721911447","0.3096750449","0.4001513574","","","","","","","","","","","","","","74","J","1","","","225","main_expt",""
"","bandit","305","835561","0.0-267.0-0.0","28137895","wem/bandit_party_1","A2AEVNP6L22YCC","either","5","815","","","","","","","0","0","1","0.2133818582","","0.8","0.6","0.4","0.2","","","","","0.3394019192","0.2133818582","0.3142833063","0.3963688582","","","","","","","","","","74","J","1","","","226","main_expt",""
"","bandit","306","837534","0.0-268.0-0.0","28137895","wem/bandit_party_1","A2AEVNP6L22YCC","either","5","435","","","","","","","0","0","1","0.2860553004","","0.8","0.6","0.4","0.2","","","","","0.2860553004","0.2620007467","0.3096885674","0.3979714495","","","","","","","","","","72","H","0","img/none_selected.jpg","","227","main_expt",""
"","bandit","307","839552","0.0-269.0-0.0","28137895","wem/bandit_party_1","A2AEVNP6L22YCC","either","5","475","","","","","","","0","0","1","","0.3048295172","0.8","0.6","0.4","0.2","0.2967856672","0.2961930455","0.3048295172","0.3811043637","","","","","","","","","","","","","","75","K","2","","","228","main_expt",""
"","bandit","308","841432","0.0-270.0-0.0","28137895","wem/bandit_party_1","A2AEVNP6L22YCC","either","5","348","","","","","","","1","0","0","0.3488149186","","0.8","0.6","0.4","0.2","","","","","0.2857745529","0.3081123415","0.2553920021","0.3488149186","","","","","","","","","","76","L","3","","","229","main_expt",""
"","bandit","309","843297","0.0-271.0-0.0","28137895","wem/bandit_party_1","A2AEVNP6L22YCC","either","5","327","","","","","","","0","0","1","","0.2883621188","0.8","0.6","0.4","0.2","0.2589404948","0.3027177586","0.2783794412","0.2883621188","","","","","","","","","","","","","","76","L","3","","","230","main_expt",""
"","bandit","310","845323","0.0-272.0-0.0","28137895","wem/bandit_party_1","A2AEVNP6L22YCC","either","5","491","","","","","","","0","0","1","","0.2444465504","0.8","0.6","0.4","0.2","0.2628441024","0.2495346478","0.2735536708","0.2444465504","","","","","","","","","","","","","","76","L","3","","","231","main_expt",""
"","bandit","311","847127","0.0-273.0-0.0","28137895","wem/bandit_party_1","A2AEVNP6L22YCC","either","5","260","","","","","","","0","0","1","","0.2262440502","0.8","0.6","0.4","0.2","0.276537748","0.2185872191","0.2262440502","0.2996930955","","","","","","","","","","","","","","75","K","2","","","232","main_expt",""
"","bandit","312","849100","0.0-274.0-0.0","28137895","wem/bandit_party_1","A2AEVNP6L22YCC","either","5","426","","","","","","","0","0","1","0.2171974885","","0.8","0.6","0.4","0.2","","","","","0.2485723575","0.1874863907","0.2171974885","0.3103031796","","","","","","","","","","75","K","2","","","233","main_expt",""
"","bandit","313","851338","0.0-275.0-0.0","28137895","wem/bandit_party_1","A2AEVNP6L22YCC","either","5","707","","","","","","","0","0","1","","0.2951485073","0.8","0.6","0.4","0.2","0.2172766866","0.2165838284","0.2951485073","0.2971988612","","","","","","","","","","","","","","75","K","2","","","234","main_expt",""
"","bandit","314","853712","0.0-276.0-0.0","28137895","wem/bandit_party_1","A2AEVNP6L22YCC","either","5","836","","","","","","","0","0","1","0.3266576642","","0.8","0.6","0.4","0.2","","","","","0.221542824","0.1791302586","0.3135740045","0.3266576642","","","","","","","","","","76","L","3","","","235","main_expt",""
"","bandit","315","855687","0.0-277.0-0.0","28137895","wem/bandit_party_1","A2AEVNP6L22YCC","either","5","437","","","","","","","0","0","1","","0.2945285262","0.8","0.6","0.4","0.2","0.2200573756","0.2463713802","0.2945285262","0.3596878827","","","","","","","","","","","","","","75","K","2","","","236","main_expt",""
"","bandit","316","858172","0.0-278.0-0.0","28137895","wem/bandit_party_1","A2AEVNP6L22YCC","either","5","941","","","","","","","0","0","1","0.2797454337","","0.8","0.6","0.4","0.2","","","","","0.2146478317","0.2204623923","0.2797454337","0.3951370387","","","","","","","","","","75","K","2","","","237","main_expt",""
