"consent","trial_type","trial_index","time_elapsed","internal_node_id","subjID","study","MID","cond","drift","rt","responses","button_pressed","key_press","like","value","connected","gems","bombs","no_reward","GemPrChosen","BombPrChosen","GainOverPainPr_0","GainOverPainPr_1","GainOverPainPr_2","GainOverPainPr_3","LosePr_0","LosePr_1","LosePr_2","LosePr_3","WinPr_0","WinPr_1","WinPr_2","WinPr_3","Q0","Q1","Q2","gender","age","ethnicity","label","expt_phase","target","respCharCode","respKey","respChoiceNum","respChoice","practice","trial_counter","trial_label","Q0_index"
"GDM/GDM_behavioral_consent_30min_online.html","consent","0","10802","0.0-0.0","28148127","wem/bandit_party_1","A2531UD0IGT731","either","4","","","","","","","","","","","","","","","","","","","","","","","","","","","","","","","","","","","","","","","","",""
"","survey-text","1","19031","0.0-1.0","28148127","wem/bandit_party_1","A2531UD0IGT731","either","4","7214","{""Q0"":""A2531UD0IGT731""}","","","","","","","","","","","","","","","","","","","","","","","","","","","","","","","","","","","","","","",""
"","button-response","2","21807","0.0-2.0","28148127","wem/bandit_party_1","A2531UD0IGT731","either","4","1763","","0","","","","","","","","","","","","","","","","","","","","","","","","","","","","","","","","","","","","","",""
"","text-replacement","3","36723","0.0-3.0","28148127","wem/bandit_party_1","A2531UD0IGT731","either","4","13908","","","32","","","","","","","","","","","","","","","","","","","","","","","","","","","","","","","","","","","","",""
"","text-replacement","4","51557","0.0-4.0","28148127","wem/bandit_party_1","A2531UD0IGT731","either","4","14830","","","32","","","","","","","","","","","","","","","","","","","","","","","","","","","","","","","","","","","","",""
"","identification","5","59524","0.0-6.0-0.0","28148127","wem/bandit_party_1","A2531UD0IGT731","either","4","7939","","","","1","0","0","","","","","","","","","","","","","","","","","","","","","","","","pre","identification_pre","the Democratic Party","","","","","","","",""
"","identification","6","66972","0.0-6.0-1.0","28148127","wem/bandit_party_1","A2531UD0IGT731","either","4","6423","","","","5","5","4","","","","","","","","","","","","","","","","","","","","","","","","pre","identification_pre","the Republican party","","","","","","","",""
"","text-replacement","7","73582","0.0-7.0","28148127","wem/bandit_party_1","A2531UD0IGT731","either","4","5607","","","32","","","","","","","","","","","","","","","","","","","","","","","","","","","","","","","","","","","","",""
"","text-replacement","8","84880","0.0-8.0","28148127","wem/bandit_party_1","A2531UD0IGT731","either","4","11294","","","32","","","","","","","","","","","","","","","","","","","","","","","","","","","","","","","","","","","","",""
"","text-replacement","9","97020","0.0-9.0","28148127","wem/bandit_party_1","A2531UD0IGT731","either","4","12137","","","32","","","","","","","","","","","","","","","","","","","","","","","","","","","","","","","","","","","","",""
"","text-replacement","10","104975","0.0-10.0","28148127","wem/bandit_party_1","A2531UD0IGT731","either","4","7949","","","32","","","","","","","","","","","","","","","","","","","","","","","","","","","","","","","","","","","","",""
"","text-replacement","11","112103","0.0-11.0","28148127","wem/bandit_party_1","A2531UD0IGT731","either","4","7124","","","32","","","","","","","","","","","","","","","","","","","","","","","","","","","","","","","","","","","","",""
"","bandit","12","117464","0.0-12.0-0.0","28148127","wem/bandit_party_1","A2531UD0IGT731","either","4","3847","","","","","","","0","0","1","0","0","","","","","0","","","","0","","","","","","","","","","","","","74","J","0","img/none_selected_demo.jpg","true","0","",""
"","bandit","13","120599","0.0-13.0-0.0","28148127","wem/bandit_party_1","A2531UD0IGT731","either","4","1621","","","","","","","0","0","1","0","0","","","","","0","","","","0","","","","","","","","","","","","","75","K","0","img/none_selected_demo.jpg","true","0","",""
"","text-replacement","14","129518","0.0-14.0","28148127","wem/bandit_party_1","A2531UD0IGT731","either","4","8915","","","32","","","","","","","","","","","","","","","","","","","","","","","","","","","","","","","","","","","","",""
"","text-replacement","15","173330","0.0-15.0","28148127","wem/bandit_party_1","A2531UD0IGT731","either","4","43809","","","32","","","","","","","","","","","","","","","","","","","","","","","","","","","","","","","","","","","","",""
"","text-replacement","16","190330","0.0-16.0","28148127","wem/bandit_party_1","A2531UD0IGT731","either","4","16997","","","32","","","","","","","","","","","","","","","","","","","","","","","","","","","","","","","","","","","","",""
"","text-replacement","17","195136","0.0-17.0","28148127","wem/bandit_party_1","A2531UD0IGT731","either","4","4803","","","32","","","","","","","","","","","","","","","","","","","","","","","","","","","","","","","","","","","","",""
"","bandit","18","198707","0.0-18.0-0.0","28148127","wem/bandit_party_1","A2531UD0IGT731","either","4","2057","","","","","","","1","0","0","0.8","","0.5","0.5","","","","","","","0.8","0.2","","","","","","","","","","","","74","J","0","img/none_selected_demo.jpg","true","0","80_20_practice",""
"","bandit","19","201486","0.0-18.0-1.0","28148127","wem/bandit_party_1","A2531UD0IGT731","either","4","1254","","","","","","","0","1","0","","0.2","0.5","0.5","","","0.8","0.2","","","","","","","","","","","","","","","","75","K","1","","true","0","80_20_practice",""
"","bandit","20","203795","0.0-18.0-2.0","28148127","wem/bandit_party_1","A2531UD0IGT731","either","4","798","","","","","","","0","1","0","","0.8","0.5","0.5","","","0.8","0.2","","","","","","","","","","","","","","","","74","J","0","img/none_selected_demo.jpg","true","0","80_20_practice",""
"","bandit","21","206357","0.0-18.0-3.0","28148127","wem/bandit_party_1","A2531UD0IGT731","either","4","1050","","","","","","","0","0","1","0.2","","0.5","0.5","","","","","","","0.8","0.2","","","","","","","","","","","","75","K","1","","true","0","80_20_practice",""
"","bandit","22","208612","0.0-18.0-4.0","28148127","wem/bandit_party_1","A2531UD0IGT731","either","4","742","","","","","","","0","1","0","","0.8","0.5","0.5","","","0.8","0.2","","","","","","","","","","","","","","","","74","J","0","img/none_selected_demo.jpg","true","0","80_20_practice",""
"","bandit","23","210642","0.0-18.0-5.0","28148127","wem/bandit_party_1","A2531UD0IGT731","either","4","521","","","","","","","0","0","1","","0.2","0.5","0.5","","","0.8","0.2","","","","","","","","","","","","","","","","75","K","1","","true","0","80_20_practice",""
"","bandit","24","213570","0.0-18.0-6.0","28148127","wem/bandit_party_1","A2531UD0IGT731","either","4","1414","","","","","","","1","0","0","0.8","","0.5","0.5","","","","","","","0.8","0.2","","","","","","","","","","","","74","J","0","img/none_selected_demo.jpg","true","0","80_20_practice",""
"","bandit","25","216142","0.0-18.0-7.0","28148127","wem/bandit_party_1","A2531UD0IGT731","either","4","1058","","","","","","","0","0","1","0.2","","0.5","0.5","","","","","","","0.8","0.2","","","","","","","","","","","","75","K","1","","true","0","80_20_practice",""
"","bandit","26","218083","0.0-18.0-8.0","28148127","wem/bandit_party_1","A2531UD0IGT731","either","4","422","","","","","","","1","0","0","0.8","","0.5","0.5","","","","","","","0.8","0.2","","","","","","","","","","","","74","J","0","img/none_selected_demo.jpg","true","0","80_20_practice",""
"","bandit","27","220182","0.0-18.0-9.0","28148127","wem/bandit_party_1","A2531UD0IGT731","either","4","583","","","","","","","1","0","0","0.8","","0.5","0.5","","","","","","","0.8","0.2","","","","","","","","","","","","74","J","0","img/none_selected_demo.jpg","true","0","80_20_practice",""
"","bandit","28","222271","0.0-18.0-10.0","28148127","wem/bandit_party_1","A2531UD0IGT731","either","4","578","","","","","","","1","0","0","0.8","","0.5","0.5","","","","","","","0.8","0.2","","","","","","","","","","","","74","J","0","img/none_selected_demo.jpg","true","0","80_20_practice",""
"","bandit","29","224298","0.0-18.0-11.0","28148127","wem/bandit_party_1","A2531UD0IGT731","either","4","513","","","","","","","0","1","0","","0.8","0.5","0.5","","","0.8","0.2","","","","","","","","","","","","","","","","74","J","0","img/none_selected_demo.jpg","true","0","80_20_practice",""
"","bandit","30","226271","0.0-18.0-12.0","28148127","wem/bandit_party_1","A2531UD0IGT731","either","4","462","","","","","","","0","1","0","","0.8","0.5","0.5","","","0.8","0.2","","","","","","","","","","","","","","","","74","J","0","img/none_selected_demo.jpg","true","0","80_20_practice",""
"","bandit","31","228224","0.0-18.0-13.0","28148127","wem/bandit_party_1","A2531UD0IGT731","either","4","439","","","","","","","1","0","0","0.8","","0.5","0.5","","","","","","","0.8","0.2","","","","","","","","","","","","74","J","0","img/none_selected_demo.jpg","true","0","80_20_practice",""
"","bandit","32","230747","0.0-18.0-14.0","28148127","wem/bandit_party_1","A2531UD0IGT731","either","4","1012","","","","","","","0","1","0","","0.8","0.5","0.5","","","0.8","0.2","","","","","","","","","","","","","","","","74","J","0","img/none_selected_demo.jpg","true","0","80_20_practice",""
"","bandit","33","232851","0.0-18.0-15.0","28148127","wem/bandit_party_1","A2531UD0IGT731","either","4","592","","","","","","","0","0","1","0.2","","0.5","0.5","","","","","","","0.8","0.2","","","","","","","","","","","","75","K","1","","true","0","80_20_practice",""
"","bandit","34","235049","0.0-18.0-16.0","28148127","wem/bandit_party_1","A2531UD0IGT731","either","4","683","","","","","","","0","0","1","","0.2","0.5","0.5","","","0.8","0.2","","","","","","","","","","","","","","","","75","K","1","","true","0","80_20_practice",""
"","bandit","35","236905","0.0-18.0-17.0","28148127","wem/bandit_party_1","A2531UD0IGT731","either","4","344","","","","","","","0","1","0","","0.8","0.5","0.5","","","0.8","0.2","","","","","","","","","","","","","","","","74","J","0","img/none_selected_demo.jpg","true","0","80_20_practice",""
"","bandit","36","238792","0.0-18.0-18.0","28148127","wem/bandit_party_1","A2531UD0IGT731","either","4","367","","","","","","","0","0","1","0.8","","0.5","0.5","","","","","","","0.8","0.2","","","","","","","","","","","","74","J","0","img/none_selected_demo.jpg","true","0","80_20_practice",""
"","bandit","37","240863","0.0-18.0-19.0","28148127","wem/bandit_party_1","A2531UD0IGT731","either","4","556","","","","","","","1","0","0","0.2","","0.5","0.5","","","","","","","0.8","0.2","","","","","","","","","","","","75","K","1","","true","0","80_20_practice",""
"","text-replacement","38","245662","0.0-19.0","28148127","wem/bandit_party_1","A2531UD0IGT731","either","4","4795","","","32","","","","","","","","","","","","","","","","","","","","","","","","","","","","","","","","","","","","",""
"","bandit","39","247676","0.0-20.0-0.0","28148127","wem/bandit_party_1","A2531UD0IGT731","either","4","499","","","","","","","1","0","0","1","0","","","","","0","1","","","1","0","","","","","","","","","","","","74","J","0","img/none_selected_demo.jpg","true","0","",""
"","text-replacement","40","257079","0.0-21.0","28148127","wem/bandit_party_1","A2531UD0IGT731","either","4","9398","","","32","","","","","","","","","","","","","","","","","","","","","","","","","","","","","","","","","","","","",""
"","text-replacement","41","266129","0.0-22.0","28148127","wem/bandit_party_1","A2531UD0IGT731","either","4","9045","","","32","","","","","","","","","","","","","","","","","","","","","","","","","","","","","","","","","","","","",""
"","text-replacement","42","269576","0.0-23.0","28148127","wem/bandit_party_1","A2531UD0IGT731","either","4","3444","","","32","","","","","","","","","","","","","","","","","","","","","","","","","","","","","","","","","","","","",""
"","text-replacement","43","1084174","0.0-24.0","28148127","wem/bandit_party_1","A2531UD0IGT731","either","4","814594","","","32","","","","","","","","","","","","","","","","","","","","","","","","","","","","","","","","","","","","",""
"","text-replacement","44","1092985","0.0-25.0","28148127","wem/bandit_party_1","A2531UD0IGT731","either","4","8807","","","32","","","","","","","","","","","","","","","","","","","","","","","","","","","","","","","","","","","","",""
"","text-replacement","45","1096167","0.0-26.0","28148127","wem/bandit_party_1","A2531UD0IGT731","either","4","3178","","","32","","","","","","","","","","","","","","","","","","","","","","","","","","","","","","","","","","","","",""
"","text-replacement","46","1103167","0.0-27.0","28148127","wem/bandit_party_1","A2531UD0IGT731","either","4","6996","","","32","","","","","","","","","","","","","","","","","","","","","","","","","","","","","","","","","","","","",""
"","text-replacement","47","1108543","0.0-28.0","28148127","wem/bandit_party_1","A2531UD0IGT731","either","4","5372","","","32","","","","","","","","","","","","","","","","","","","","","","","","","","","","","","","","","","","","",""
"","text-replacement","48","1114204","0.0-29.0","28148127","wem/bandit_party_1","A2531UD0IGT731","either","4","5657","","","32","","","","","","","","","","","","","","","","","","","","","","","","","","","","","","","","","","","","",""
"","text-replacement","49","1116785","0.0-30.0","28148127","wem/bandit_party_1","A2531UD0IGT731","either","4","2577","","","32","","","","","","","","","","","","","","","","","","","","","","","","","","","","","","","","","","","","",""
"","text-replacement","50","1119404","0.0-31.0","28148127","wem/bandit_party_1","A2531UD0IGT731","either","4","2613","","","32","","","","","","","","","","","","","","","","","","","","","","","","","","","","","","","","","","","","",""
"","bandit","51","1121622","0.0-32.0-0.0","28148127","wem/bandit_party_1","A2531UD0IGT731","either","4","705","","","","","","","1","0","0","0.8","","0.5","0.5","0.5","0.5","","","","","0.8","0.2","0.6","0.2","","","","","","","","","","72","H","0","img/none_selected.jpg","true","0","full_practice",""
"","bandit","52","1123828","0.0-32.0-1.0","28148127","wem/bandit_party_1","A2531UD0IGT731","either","4","689","","","","","","","0","0","1","0.2","","0.5","0.5","0.5","0.5","","","","","0.8","0.2","0.6","0.2","","","","","","","","","","74","J","1","","true","0","full_practice",""
"","bandit","53","1125758","0.0-32.0-2.0","28148127","wem/bandit_party_1","A2531UD0IGT731","either","4","421","","","","","","","0","0","1","","0.6","0.5","0.5","0.5","0.5","0.8","0.2","0.6","0.2","","","","","","","","","","","","","","75","K","2","","true","0","full_practice",""
"","bandit","54","1127309","0.0-32.0-3.0","28148127","wem/bandit_party_1","A2531UD0IGT731","either","4","39","","","","","","","0","0","1","","0.2","0.5","0.5","0.5","0.5","0.8","0.2","0.6","0.2","","","","","","","","","","","","","","76","L","3","","true","0","full_practice",""
"","bandit","55","1129157","0.0-32.0-4.0","28148127","wem/bandit_party_1","A2531UD0IGT731","either","4","325","","","","","","","1","0","0","0.8","","0.5","0.5","0.5","0.5","","","","","0.8","0.2","0.6","0.2","","","","","","","","","","72","H","0","img/none_selected.jpg","true","0","full_practice",""
"","bandit","56","1131065","0.0-32.0-5.0","28148127","wem/bandit_party_1","A2531UD0IGT731","either","4","391","","","","","","","1","0","0","0.8","","0.5","0.5","0.5","0.5","","","","","0.8","0.2","0.6","0.2","","","","","","","","","","72","H","0","img/none_selected.jpg","true","0","full_practice",""
"","bandit","57","1132904","0.0-32.0-6.0","28148127","wem/bandit_party_1","A2531UD0IGT731","either","4","328","","","","","","","1","0","0","0.8","","0.5","0.5","0.5","0.5","","","","","0.8","0.2","0.6","0.2","","","","","","","","","","72","H","0","img/none_selected.jpg","true","0","full_practice",""
"","bandit","58","1134765","0.0-32.0-7.0","28148127","wem/bandit_party_1","A2531UD0IGT731","either","4","347","","","","","","","1","0","0","0.8","","0.5","0.5","0.5","0.5","","","","","0.8","0.2","0.6","0.2","","","","","","","","","","72","H","0","img/none_selected.jpg","true","0","full_practice",""
"","bandit","59","1136737","0.0-32.0-8.0","28148127","wem/bandit_party_1","A2531UD0IGT731","either","4","457","","","","","","","0","0","1","0.8","","0.5","0.5","0.5","0.5","","","","","0.8","0.2","0.6","0.2","","","","","","","","","","72","H","0","img/none_selected.jpg","true","0","full_practice",""
"","bandit","60","1138542","0.0-32.0-9.0","28148127","wem/bandit_party_1","A2531UD0IGT731","either","4","291","","","","","","","0","0","1","0.2","","0.5","0.5","0.5","0.5","","","","","0.8","0.2","0.6","0.2","","","","","","","","","","74","J","1","","true","0","full_practice",""
"","bandit","61","1140430","0.0-32.0-10.0","28148127","wem/bandit_party_1","A2531UD0IGT731","either","4","368","","","","","","","0","1","0","","0.6","0.5","0.5","0.5","0.5","0.8","0.2","0.6","0.2","","","","","","","","","","","","","","75","K","2","","true","0","full_practice",""
"","bandit","62","1142293","0.0-32.0-11.0","28148127","wem/bandit_party_1","A2531UD0IGT731","either","4","346","","","","","","","0","0","1","","0.2","0.5","0.5","0.5","0.5","0.8","0.2","0.6","0.2","","","","","","","","","","","","","","76","L","3","","true","0","full_practice",""
"","bandit","63","1144174","0.0-32.0-12.0","28148127","wem/bandit_party_1","A2531UD0IGT731","either","4","364","","","","","","","1","0","0","0.8","","0.5","0.5","0.5","0.5","","","","","0.8","0.2","0.6","0.2","","","","","","","","","","72","H","0","img/none_selected.jpg","true","0","full_practice",""
"","bandit","64","1146031","0.0-32.0-13.0","28148127","wem/bandit_party_1","A2531UD0IGT731","either","4","340","","","","","","","0","1","0","","0.8","0.5","0.5","0.5","0.5","0.8","0.2","0.6","0.2","","","","","","","","","","","","","","72","H","0","img/none_selected.jpg","true","0","full_practice",""
"","bandit","65","1147877","0.0-32.0-14.0","28148127","wem/bandit_party_1","A2531UD0IGT731","either","4","331","","","","","","","0","0","1","","0.6","0.5","0.5","0.5","0.5","0.8","0.2","0.6","0.2","","","","","","","","","","","","","","75","K","2","","true","0","full_practice",""
"","bandit","66","1149733","0.0-32.0-15.0","28148127","wem/bandit_party_1","A2531UD0IGT731","either","4","347","","","","","","","0","0","1","0.8","","0.5","0.5","0.5","0.5","","","","","0.8","0.2","0.6","0.2","","","","","","","","","","72","H","0","img/none_selected.jpg","true","0","full_practice",""
"","bandit","67","1151790","0.0-32.0-16.0","28148127","wem/bandit_party_1","A2531UD0IGT731","either","4","546","","","","","","","0","0","1","","0.2","0.5","0.5","0.5","0.5","0.8","0.2","0.6","0.2","","","","","","","","","","","","","","74","J","1","","true","0","full_practice",""
"","bandit","68","1153601","0.0-32.0-17.0","28148127","wem/bandit_party_1","A2531UD0IGT731","either","4","298","","","","","","","0","0","1","","0.6","0.5","0.5","0.5","0.5","0.8","0.2","0.6","0.2","","","","","","","","","","","","","","75","K","2","","true","0","full_practice",""
"","bandit","69","1155787","0.0-32.0-18.0","28148127","wem/bandit_party_1","A2531UD0IGT731","either","4","667","","","","","","","0","0","1","0.2","","0.5","0.5","0.5","0.5","","","","","0.8","0.2","0.6","0.2","","","","","","","","","","76","L","3","","true","0","full_practice",""
"","bandit","70","1157615","0.0-32.0-19.0","28148127","wem/bandit_party_1","A2531UD0IGT731","either","4","304","","","","","","","1","0","0","0.8","","0.5","0.5","0.5","0.5","","","","","0.8","0.2","0.6","0.2","","","","","","","","","","72","H","0","img/none_selected.jpg","true","0","full_practice",""
"","text","71","1162502","0.0-33.0","28148127","wem/bandit_party_1","A2531UD0IGT731","either","4","4858","","","32","","","","","","","","","","","","","","","","","","","","","","","","","","","","","","","","","","","","",""
"","text-replacement","72","1182360","0.0-34.0","28148127","wem/bandit_party_1","A2531UD0IGT731","either","4","18854","","","32","","","","","","","","","","","","","","","","","","","","","","","","","","","","","","","","","","","","",""
"","text-replacement","73","1193606","0.0-35.0","28148127","wem/bandit_party_1","A2531UD0IGT731","either","4","11239","","","32","","","","","","","","","","","","","","","","","","","","","","","","","","","","","","","","","","","","",""
"","text-replacement","74","1198111","0.0-36.0","28148127","wem/bandit_party_1","A2531UD0IGT731","either","4","4501","","","32","","","","","","","","","","","","","","","","","","","","","","","","","","","","","","","","","","","","",""
"","text-replacement","75","1202931","0.0-37.0","28148127","wem/bandit_party_1","A2531UD0IGT731","either","4","4814","","","32","","","","","","","","","","","","","","","","","","","","","","","","","","","","","","","","","","","","",""
"","text-replacement","76","1228072","0.0-38.0","28148127","wem/bandit_party_1","A2531UD0IGT731","either","4","25135","","","32","","","","","","","","","","","","","","","","","","","","","","","","","","","","","","","","","","","","",""
"","survey-multi-choice-replacement","77","1234870","0.0-39.0-0.0","28148127","wem/bandit_party_1","A2531UD0IGT731","either","4","6780","","","","","","","","","","","","","","","","","","","","","","","","Money will be added to the pool for <span style='color:red;'>REPUBLICANS</span>","","","","","","","attn_check","","","","","","","","","0"
"","survey-multi-choice-replacement","78","1242201","0.0-40.0-0.0","28148127","wem/bandit_party_1","A2531UD0IGT731","either","4","6304","","","","","","","","","","","","","","","","","","","","","","","","Equal amounts of money will be added to the pool for <span style='color:red;'>REPUBLICANS</span> and subtracted from the pool for <span style='color:blue;'>DEMOCRATS</span>","","","","","","","attn_check","","","","","","","","","2"
"","survey-multi-choice-replacement","79","1247192","0.0-41.0-0.0","28148127","wem/bandit_party_1","A2531UD0IGT731","either","4","3971","","","","","","","","","","","","","","","","","","","","","","","","No money will be added to either pool","","","","","","","attn_check","","","","","","","","","3"
"","bandit","80","1251760","0.0-42.0-0.0","28148127","wem/bandit_party_1","A2531UD0IGT731","either","4","2052","","","","","","","0","0","1","0.3525715257","","0.6","0.2","0.4","0.8","","","","","0.3525715257","0.3242650943","0.2771551185","0.3894728165","","","","","","","","","","72","H","0","img/none_selected.jpg","","1","main_expt",""
"","bandit","81","1254670","0.0-43.0-0.0","28148127","wem/bandit_party_1","A2531UD0IGT731","either","4","1401","","","","","","","0","0","1","","0.3296228245","0.6","0.2","0.4","0.8","0.390153736","0.3296228245","0.3030893157","0.363660736","","","","","","","","","","","","","","74","J","1","","","2","main_expt",""
"","bandit","82","1257044","0.0-44.0-0.0","28148127","wem/bandit_party_1","A2531UD0IGT731","either","4","863","","","","","","","0","0","1","0.3211059343","","0.6","0.2","0.4","0.8","","","","","0.3725447061","0.3102780753","0.3211059343","0.3842171554","","","","","","","","","","75","K","2","","","3","main_expt",""
"","bandit","83","1259258","0.0-45.0-0.0","28148127","wem/bandit_party_1","A2531UD0IGT731","either","4","688","","","","","","","0","0","1","0.3831963053","","0.6","0.2","0.4","0.8","","","","","0.3431524481","0.2749892112","0.2804386453","0.3831963053","","","","","","","","","","76","L","3","","","4","main_expt",""
"","bandit","84","1261631","0.0-46.0-0.0","28148127","wem/bandit_party_1","A2531UD0IGT731","either","4","860","","","","","","","0","0","1","0.2609559086","","0.6","0.2","0.4","0.8","","","","","0.3448007793","0.3037824898","0.2609559086","0.4056596471","","","","","","","","","","75","K","2","","","5","main_expt",""
"","bandit","85","1263996","0.0-47.0-0.0","28148127","wem/bandit_party_1","A2531UD0IGT731","either","4","849","","","","","","","0","0","1","","0.3217417103","0.6","0.2","0.4","0.8","0.3980888019","0.3217417103","0.2259287768","0.4409946319","","","","","","","","","","","","","","74","J","1","","","6","main_expt",""
"","bandit","86","1266106","0.0-48.0-0.0","28148127","wem/bandit_party_1","A2531UD0IGT731","either","4","590","","","","","","","0","0","1","","0.3693121862","0.6","0.2","0.4","0.8","0.3693121862","0.3018715163","0.2433618728","0.3821747998","","","","","","","","","","","","","","72","H","0","img/none_selected.jpg","","7","main_expt",""
"","bandit","87","1270626","0.0-49.0-0.0","28148127","wem/bandit_party_1","A2531UD0IGT731","either","4","3006","","","","","","","1","0","0","0.2933697555","","0.6","0.2","0.4","0.8","","","","","0.2933697555","0.3643645816","0.2025356769","0.3841844813","","","","","","","","","","72","H","0","img/none_selected.jpg","","8","main_expt",""
"","bandit","88","1272544","0.0-50.0-0.0","28148127","wem/bandit_party_1","A2531UD0IGT731","either","4","402","","","","","","","0","0","1","0.3036212831","","0.6","0.2","0.4","0.8","","","","","0.3036212831","0.3418610374","0.1441028094","0.3412237964","","","","","","","","","","72","H","0","img/none_selected.jpg","","9","main_expt",""
"","bandit","89","1274533","0.0-51.0-0.0","28148127","wem/bandit_party_1","A2531UD0IGT731","either","4","474","","","","","","","0","0","1","0.308020301","","0.6","0.2","0.4","0.8","","","","","0.308020301","0.3190157878","0.1736005971","0.3256420777","","","","","","","","","","72","H","0","img/none_selected.jpg","","10","main_expt",""
"","bandit","90","1276338","0.0-52.0-0.0","28148127","wem/bandit_party_1","A2531UD0IGT731","either","4","290","","","","","","","0","0","1","","0.2998731478","0.6","0.2","0.4","0.8","0.3065973113","0.2998731478","0.1836365694","0.3514007431","","","","","","","","","","","","","","74","J","1","","","11","main_expt",""
"","bandit","91","1278096","0.0-53.0-0.0","28148127","wem/bandit_party_1","A2531UD0IGT731","either","4","237","","","","","","","1","0","0","0.3722032088","","0.6","0.2","0.4","0.8","","","","","0.3271859636","0.2942822571","0.2143869662","0.3722032088","","","","","","","","","","76","L","3","","","12","main_expt",""
"","bandit","92","1279924","0.0-54.0-0.0","28148127","wem/bandit_party_1","A2531UD0IGT731","either","4","313","","","","","","","0","0","1","0.3681707299","","0.6","0.2","0.4","0.8","","","","","0.2761076709","0.3009212619","0.1637139448","0.3681707299","","","","","","","","","","76","L","3","","","13","main_expt",""
"","bandit","93","1281884","0.0-55.0-0.0","28148127","wem/bandit_party_1","A2531UD0IGT731","either","4","447","","","","","","","0","0","1","","0.2311164494","0.6","0.2","0.4","0.8","0.2311164494","0.3227424667","0.1488535162","0.3528222564","","","","","","","","","","","","","","72","H","0","img/none_selected.jpg","","14","main_expt",""
"","bandit","94","1283690","0.0-56.0-0.0","28148127","wem/bandit_party_1","A2531UD0IGT731","either","4","291","","","","","","","0","0","1","","0.1332411271","0.6","0.2","0.4","0.8","0.2905977425","0.3547546862","0.1332411271","0.3738838661","","","","","","","","","","","","","","75","K","2","","","15","main_expt",""
"","bandit","95","1285452","0.0-57.0-0.0","28148127","wem/bandit_party_1","A2531UD0IGT731","either","4","243","","","","","","","1","0","0","0.3385239332","","0.6","0.2","0.4","0.8","","","","","0.2924554969","0.3241157583","0.09882415698","0.3385239332","","","","","","","","","","76","L","3","","","16","main_expt",""
"","bandit","96","1287381","0.0-58.0-0.0","28148127","wem/bandit_party_1","A2531UD0IGT731","either","4","411","","","","","","","0","0","1","0.3111355138","","0.6","0.2","0.4","0.8","","","","","0.3114836302","0.3363410386","0.1069157009","0.3111355138","","","","","","","","","","76","L","3","","","17","main_expt",""
"","bandit","97","1289167","0.0-59.0-0.0","28148127","wem/bandit_party_1","A2531UD0IGT731","either","4","266","","","","","","","0","0","1","0.3487767647","","0.6","0.2","0.4","0.8","","","","","0.3215333475","0.3880947854","0.134958137","0.3487767647","","","","","","","","","","76","L","3","","","18","main_expt",""
"","bandit","98","1291037","0.0-60.0-0.0","28148127","wem/bandit_party_1","A2531UD0IGT731","either","4","354","","","","","","","0","0","1","","0.3010303499","0.6","0.2","0.4","0.8","0.2733398822","0.4116912081","0.1230418706","0.3010303499","","","","","","","","","","","","","","76","L","3","","","19","main_expt",""
"","bandit","99","1292723","0.0-61.0-0.0","28148127","wem/bandit_party_1","A2531UD0IGT731","either","4","169","","","","","","","0","0","1","0.2351410235","","0.6","0.2","0.4","0.8","","","","","0.2351410235","0.3973894305","0.09866604889","0.2907203997","","","","","","","","","","72","H","0","img/none_selected.jpg","","20","main_expt",""
"","bandit","100","1294663","0.0-62.0-0.0","28148127","wem/bandit_party_1","A2531UD0IGT731","either","4","415","","","","","","","0","0","1","0.3088108907","","0.6","0.2","0.4","0.8","","","","","0.2257810982","0.369037109","0.1021222834","0.3088108907","","","","","","","","","","76","L","3","","","21","main_expt",""
"","bandit","101","1296654","0.0-63.0-0.0","28148127","wem/bandit_party_1","A2531UD0IGT731","either","4","476","","","","","","","0","0","1","0.349202701","","0.6","0.2","0.4","0.8","","","","","0.2221856846","0.4179468344","0.1234138809","0.349202701","","","","","","","","","","76","L","3","","","22","main_expt",""
"","bandit","102","1298522","0.0-64.0-0.0","28148127","wem/bandit_party_1","A2531UD0IGT731","either","4","346","","","","","","","0","0","1","","0.2127124712","0.6","0.2","0.4","0.8","0.2127124712","0.4276062926","0.1030640584","0.3785068464","","","","","","","","","","","","","","72","H","0","img/none_selected.jpg","","23","main_expt",""
"","bandit","103","1300329","0.0-65.0-0.0","28148127","wem/bandit_party_1","A2531UD0IGT731","either","4","288","","","","","","","0","0","1","","0.4078122208","0.6","0.2","0.4","0.8","0.1882566648","0.4078122208","0.1261035851","0.4012919653","","","","","","","","","","","","","","74","J","1","","","24","main_expt",""
"","bandit","104","1302211","0.0-66.0-0.0","28148127","wem/bandit_party_1","A2531UD0IGT731","either","4","362","","","","","","","0","0","1","0.1796705612","","0.6","0.2","0.4","0.8","","","","","0.1273223766","0.3950411191","0.1796705612","0.400899794","","","","","","","","","","75","K","2","","","25","main_expt",""
"","bandit","105","1304070","0.0-67.0-0.0","28148127","wem/bandit_party_1","A2531UD0IGT731","either","4","341","","","","","","","0","0","1","0.15747458","","0.6","0.2","0.4","0.8","","","","","0.15747458","0.4322303329","0.2414651519","0.4126274585","","","","","","","","","","72","H","0","img/none_selected.jpg","","26","main_expt",""
"","bandit","106","1305900","0.0-68.0-0.0","28148127","wem/bandit_party_1","A2531UD0IGT731","either","4","318","","","","","","","0","0","1","0.1442684908","","0.6","0.2","0.4","0.8","","","","","0.1442684908","0.4353643722","0.2005374927","0.3992263875","","","","","","","","","","72","H","0","img/none_selected.jpg","","27","main_expt",""
"","bandit","107","1307871","0.0-69.0-0.0","28148127","wem/bandit_party_1","A2531UD0IGT731","either","4","452","","","","","","","0","0","1","","0.2255404594","0.6","0.2","0.4","0.8","0.2255404594","0.4464017809","0.3197257227","0.3846584236","","","","","","","","","","","","","","72","H","0","img/none_selected.jpg","","28","main_expt",""
"","bandit","108","1309809","0.0-70.0-0.0","28148127","wem/bandit_party_1","A2531UD0IGT731","either","4","423","","","","","","","0","1","0","","0.2730951691","0.6","0.2","0.4","0.8","0.2730951691","0.4417109462","0.3141869899","0.3561298134","","","","","","","","","","","","","","72","H","0","img/none_selected.jpg","","29","main_expt",""
"","bandit","109","1311801","0.0-71.0-0.0","28148127","wem/bandit_party_1","A2531UD0IGT731","either","4","474","","","","","","","0","0","1","","0.2890412698","0.6","0.2","0.4","0.8","0.2890412698","0.4065908859","0.3445991012","0.3101363315","","","","","","","","","","","","","","72","H","0","img/none_selected.jpg","","30","main_expt",""
"","bandit","110","1313667","0.0-72.0-0.0","28148127","wem/bandit_party_1","A2531UD0IGT731","either","4","344","","","","","","","1","0","0","0.3322219809","","0.6","0.2","0.4","0.8","","","","","0.3309226042","0.3954582793","0.3456655029","0.3322219809","","","","","","","","","","76","L","3","","","31","main_expt",""
"","bandit","111","1315653","0.0-73.0-0.0","28148127","wem/bandit_party_1","A2531UD0IGT731","either","4","465","","","","","","","0","0","1","","0.3516269472","0.6","0.2","0.4","0.8","0.3519301717","0.3716723047","0.3826172224","0.3516269472","","","","","","","","","","","","","","76","L","3","","","32","main_expt",""
"","bandit","112","1317491","0.0-74.0-0.0","28148127","wem/bandit_party_1","A2531UD0IGT731","either","4","321","","","","","","","0","0","1","0.3852085553","","0.6","0.2","0.4","0.8","","","","","0.3414953842","0.3799724366","0.3804083149","0.3852085553","","","","","","","","","","76","L","3","","","33","main_expt",""
"","bandit","113","1319460","0.0-75.0-0.0","28148127","wem/bandit_party_1","A2531UD0IGT731","either","4","450","","","","","","","0","0","1","","0.4196644934","0.6","0.2","0.4","0.8","0.2938412915","0.409480615","0.3808178469","0.4196644934","","","","","","","","","","","","","","76","L","3","","","34","main_expt",""
"","bandit","114","1321348","0.0-76.0-0.0","28148127","wem/bandit_party_1","A2531UD0IGT731","either","4","360","","","","","","","1","0","0","0.420891004","","0.6","0.2","0.4","0.8","","","","","0.2256616696","0.3869649509","0.376129724","0.420891004","","","","","","","","","","76","L","3","","","35","main_expt",""
"","bandit","115","1323222","0.0-77.0-0.0","28148127","wem/bandit_party_1","A2531UD0IGT731","either","4","354","","","","","","","0","0","1","0.3808881167","","0.6","0.2","0.4","0.8","","","","","0.2525957923","0.3045389962","0.4027809904","0.3808881167","","","","","","","","","","76","L","3","","","36","main_expt",""
"","bandit","116","1325047","0.0-78.0-0.0","28148127","wem/bandit_party_1","A2531UD0IGT731","either","4","303","","","","","","","0","0","1","","0.3634360393","0.6","0.2","0.4","0.8","0.2333373749","0.2954217214","0.3715556026","0.3634360393","","","","","","","","","","","","","","76","L","3","","","37","main_expt",""
"","bandit","117","1326986","0.0-79.0-0.0","28148127","wem/bandit_party_1","A2531UD0IGT731","either","4","419","","","","","","","1","0","0","0.3432691328","","0.6","0.2","0.4","0.8","","","","","0.2126884676","0.2749906923","0.354842885","0.3432691328","","","","","","","","","","76","L","3","","","38","main_expt",""
"","bandit","118","1328960","0.0-80.0-0.0","28148127","wem/bandit_party_1","A2531UD0IGT731","either","4","456","","","","","","","0","0","1","0.3113322025","","0.6","0.2","0.4","0.8","","","","","0.212498526","0.2911873598","0.3066825603","0.3113322025","","","","","","","","","","76","L","3","","","39","main_expt",""
"","bandit","119","1330987","0.0-81.0-0.0","28148127","wem/bandit_party_1","A2531UD0IGT731","either","4","505","","","","","","","0","0","1","0.3298138996","","0.6","0.2","0.4","0.8","","","","","0.2031275136","0.3066149412","0.3208648015","0.3298138996","","","","","","","","","","76","L","3","","","40","main_expt",""
"","bandit","120","1332922","0.0-82.0-0.0","28148127","wem/bandit_party_1","A2531UD0IGT731","either","4","424","","","","","","","1","0","0","0.3590557929","","0.6","0.2","0.4","0.8","","","","","0.2409224204","0.2612722093","0.2774570704","0.3590557929","","","","","","","","","","76","L","3","","","41","main_expt",""
"","bandit","121","1335464","0.0-83.0-0.0","28148127","wem/bandit_party_1","A2531UD0IGT731","either","4","1025","","","","","","","0","1","0","","0.3455434044","0.6","0.2","0.4","0.8","0.2166695961","0.2579482203","0.3092882543","0.3455434044","","","","","","","","","","","","","","76","L","3","","","42","main_expt",""
"","bandit","122","1337575","0.0-84.0-0.0","28148127","wem/bandit_party_1","A2531UD0IGT731","either","4","589","","","","","","","0","0","1","0.4020043176","","0.6","0.2","0.4","0.8","","","","","0.2314197793","0.2232302517","0.3161251671","0.4020043176","","","","","","","","","","76","L","3","","","43","main_expt",""
"","bandit","123","1339503","0.0-85.0-0.0","28148127","wem/bandit_party_1","A2531UD0IGT731","either","4","395","","","","","","","0","1","0","","0.4088695108","0.6","0.2","0.4","0.8","0.1889371852","0.2435669349","0.3032549762","0.4088695108","","","","","","","","","","","","","","76","L","3","","","44","main_expt",""
"","bandit","124","1342007","0.0-86.0-0.0","28148127","wem/bandit_party_1","A2531UD0IGT731","either","4","986","","","","","","","0","0","1","0.3914045207","","0.6","0.2","0.4","0.8","","","","","0.2152104473","0.1885724617","0.3012359134","0.3914045207","","","","","","","","","","76","L","3","","","45","main_expt",""
"","bandit","125","1343815","0.0-87.0-0.0","28148127","wem/bandit_party_1","A2531UD0IGT731","either","4","286","","","","","","","0","0","1","0.3682142312","","0.6","0.2","0.4","0.8","","","","","0.2260726972","0.104230756","0.2994346937","0.3682142312","","","","","","","","","","76","L","3","","","46","main_expt",""
"","bandit","126","1345660","0.0-88.0-0.0","28148127","wem/bandit_party_1","A2531UD0IGT731","either","4","331","","","","","","","0","0","1","0.3462276735","","0.6","0.2","0.4","0.8","","","","","0.2330399618","0.09013225529","0.3169549043","0.3462276735","","","","","","","","","","76","L","3","","","47","main_expt",""
"","bandit","127","1348358","0.0-89.0-0.0","28148127","wem/bandit_party_1","A2531UD0IGT731","either","4","1153","","","","","","","0","0","1","","0.3501405617","0.6","0.2","0.4","0.8","0.2769685944","0.1066227192","0.3137179834","0.3501405617","","","","","","","","","","","","","","76","L","3","","","48","main_expt",""
"","bandit","128","1350491","0.0-90.0-0.0","28148127","wem/bandit_party_1","A2531UD0IGT731","either","4","616","","","","","","","0","1","0","","0.2954986192","0.6","0.2","0.4","0.8","0.2954986192","0.1273062614","0.3026837323","0.3607669766","","","","","","","","","","","","","","72","H","0","img/none_selected.jpg","","49","main_expt",""
"","bandit","129","1353455","0.0-91.0-0.0","28148127","wem/bandit_party_1","A2531UD0IGT731","either","4","1443","","","","","","","0","0","1","0.2730110453","","0.6","0.2","0.4","0.8","","","","","0.2730110453","0.08158159543","0.2690248343","0.3776327681","","","","","","","","","","72","H","0","img/none_selected.jpg","","50","main_expt",""
"","bandit","130","1356085","0.0-92.0-0.0","28148127","wem/bandit_party_1","A2531UD0IGT731","either","4","1094","","","","","","","1","0","0","0.2672659715","","0.6","0.2","0.4","0.8","","","","","0.2672659715","0.08035098666","0.2407215714","0.3922012959","","","","","","","","","","72","H","0","img/none_selected.jpg","","51","main_expt",""
"","bandit","131","1358191","0.0-93.0-0.0","28148127","wem/bandit_party_1","A2531UD0IGT731","either","4","585","","","","","","","0","0","1","0.2552972095","","0.6","0.2","0.4","0.8","","","","","0.2552972095","0.1007468434","0.2758158767","0.3532085343","","","","","","","","","","72","H","0","img/none_selected.jpg","","52","main_expt",""
"","bandit","132","1360992","0.0-94.0-0.0","28148127","wem/bandit_party_1","A2531UD0IGT731","either","4","1281","","","","","","","0","0","1","0.1954439593","","0.6","0.2","0.4","0.8","","","","","0.1954439593","0.1479770317","0.2661511239","0.3597378762","","","","","","","","","","72","H","0","img/none_selected.jpg","","53","main_expt",""
"","bandit","133","1362910","0.0-95.0-0.0","28148127","wem/bandit_party_1","A2531UD0IGT731","either","4","389","","","","","","","0","0","1","","0.1250298759","0.6","0.2","0.4","0.8","0.1250298759","0.1450389045","0.250303373","0.3553644404","","","","","","","","","","","","","","72","H","0","img/none_selected.jpg","","54","main_expt",""
"","bandit","134","1364996","0.0-96.0-0.0","28148127","wem/bandit_party_1","A2531UD0IGT731","either","4","565","","","","","","","0","0","1","0.1224949652","","0.6","0.2","0.4","0.8","","","","","0.1224949652","0.1678096349","0.1850572083","0.3427354451","","","","","","","","","","72","H","0","img/none_selected.jpg","","55","main_expt",""
"","bandit","135","1367227","0.0-97.0-0.0","28148127","wem/bandit_party_1","A2531UD0IGT731","either","4","709","","","","","","","0","0","1","","0.1312048923","0.6","0.2","0.4","0.8","0.1312048923","0.1748395718","0.2410157884","0.3158877586","","","","","","","","","","","","","","72","H","0","img/none_selected.jpg","","56","main_expt",""
"","bandit","136","1369053","0.0-98.0-0.0","28148127","wem/bandit_party_1","A2531UD0IGT731","either","4","309","","","","","","","1","0","0","0.3224611445","","0.6","0.2","0.4","0.8","","","","","0.14452077","0.146986137","0.2657224069","0.3224611445","","","","","","","","","","76","L","3","","","57","main_expt",""
"","bandit","137","1371449","0.0-99.0-0.0","28148127","wem/bandit_party_1","A2531UD0IGT731","either","4","874","","","","","","","1","0","0","0.3378672788","","0.6","0.2","0.4","0.8","","","","","0.1198415177","0.1316135006","0.2361308133","0.3378672788","","","","","","","","","","76","L","3","","","58","main_expt",""
"","bandit","138","1373136","0.0-100.0-0.0","28148127","wem/bandit_party_1","A2531UD0IGT731","either","4","162","","","","","","","0","0","1","","0.3438075972","0.6","0.2","0.4","0.8","0.1674914914","0.1776120447","0.2078360154","0.3438075972","","","","","","","","","","","","","","76","L","3","","","59","main_expt",""
"","bandit","139","1375998","0.0-101.0-0.0","28148127","wem/bandit_party_1","A2531UD0IGT731","either","4","1340","","","","","","","1","0","0","0.2950987239","","0.6","0.2","0.4","0.8","","","","","0.147959707","0.2034864675","0.2256957235","0.2950987239","","","","","","","","","","76","L","3","","","60","main_expt",""
"","bandit","140","1378417","0.0-102.0-0.0","28148127","wem/bandit_party_1","A2531UD0IGT731","either","4","898","","","","","","","0","1","0","","0.2939622289","0.6","0.2","0.4","0.8","0.1217284172","0.1325668513","0.2713547376","0.2939622289","","","","","","","","","","","","","","76","L","3","","","61","main_expt",""
"","bandit","141","1381309","0.0-103.0-0.0","28148127","wem/bandit_party_1","A2531UD0IGT731","either","4","1372","","","","","","","0","0","1","0.2907096119","","0.6","0.2","0.4","0.8","","","","","0.1392905859","0.125492747","0.2800078023","0.2907096119","","","","","","","","","","76","L","3","","","62","main_expt",""
"","bandit","142","1383530","0.0-104.0-0.0","28148127","wem/bandit_party_1","A2531UD0IGT731","either","4","675","","","","","","","0","0","1","","0.1953314019","0.6","0.2","0.4","0.8","0.1953314019","0.1081989139","0.362183352","0.2696382907","","","","","","","","","","","","","","72","H","0","img/none_selected.jpg","","63","main_expt",""
"","bandit","143","1385753","0.0-105.0-0.0","28148127","wem/bandit_party_1","A2531UD0IGT731","either","4","696","","","","","","","0","0","1","","0.09104284411","0.6","0.2","0.4","0.8","0.2618523415","0.09104284411","0.3354395381","0.2496415039","","","","","","","","","","","","","","74","J","1","","","64","main_expt",""
"","bandit","144","1387574","0.0-106.0-0.0","28148127","wem/bandit_party_1","A2531UD0IGT731","either","4","295","","","","","","","0","0","1","0.2893845237","","0.6","0.2","0.4","0.8","","","","","0.2686672798","0.1264903162","0.2893845237","0.2364994079","","","","","","","","","","75","K","2","","","65","main_expt",""
"","bandit","145","1389596","0.0-107.0-0.0","28148127","wem/bandit_party_1","A2531UD0IGT731","either","4","496","","","","","","","0","0","1","","0.2541683514","0.6","0.2","0.4","0.8","0.2451656397","0.1665937301","0.2355717356","0.2541683514","","","","","","","","","","","","","","76","L","3","","","66","main_expt",""
"","bandit","146","1392346","0.0-108.0-0.0","28148127","wem/bandit_party_1","A2531UD0IGT731","either","4","1233","","","","","","","0","0","1","0.2985471382","","0.6","0.2","0.4","0.8","","","","","0.2445320338","0.1740025863","0.2848755716","0.2985471382","","","","","","","","","","76","L","3","","","67","main_expt",""
"","bandit","147","1395514","0.0-109.0-0.0","28148127","wem/bandit_party_1","A2531UD0IGT731","either","4","1653","","","","","","","0","0","1","","0.3391290389","0.6","0.2","0.4","0.8","0.2261158315","0.2300011382","0.3341158043","0.3391290389","","","","","","","","","","","","","","76","L","3","","","68","main_expt",""
"","bandit","148","1398285","0.0-110.0-0.0","28148127","wem/bandit_party_1","A2531UD0IGT731","either","4","1246","","","","","","","0","0","1","","0.1627286519","0.6","0.2","0.4","0.8","0.1627286519","0.1768594062","0.3253412689","0.3114764975","","","","","","","","","","","","","","72","H","0","img/none_selected.jpg","","69","main_expt",""
"","bandit","149","1401306","0.0-111.0-0.0","28148127","wem/bandit_party_1","A2531UD0IGT731","either","4","1494","","","","","","","0","0","1","0.1301009224","","0.6","0.2","0.4","0.8","","","","","0.1301009224","0.1906145184","0.3280915152","0.3056328376","","","","","","","","","","72","H","0","img/none_selected.jpg","","70","main_expt",""
"","bandit","150","1403330","0.0-112.0-0.0","28148127","wem/bandit_party_1","A2531UD0IGT731","either","4","492","","","","","","","0","0","1","","0.1356707761","0.6","0.2","0.4","0.8","0.1356707761","0.1451664327","0.3772643828","0.3445325487","","","","","","","","","","","","","","72","H","0","img/none_selected.jpg","","71","main_expt",""
"","bandit","151","1405487","0.0-113.0-0.0","28148127","wem/bandit_party_1","A2531UD0IGT731","either","4","637","","","","","","","1","0","0","0.1045412551","","0.6","0.2","0.4","0.8","","","","","0.1045412551","0.1091447996","0.4074174212","0.364612409","","","","","","","","","","72","H","0","img/none_selected.jpg","","72","main_expt",""
"","bandit","152","1407707","0.0-114.0-0.0","28148127","wem/bandit_party_1","A2531UD0IGT731","either","4","707","","","","","","","0","0","1","0.0867882282","","0.6","0.2","0.4","0.8","","","","","0.0867882282","0.1248737042","0.3736299767","0.4454774056","","","","","","","","","","72","H","0","img/none_selected.jpg","","73","main_expt",""
"","bandit","153","1409707","0.0-115.0-0.0","28148127","wem/bandit_party_1","A2531UD0IGT731","either","4","487","","","","","","","0","0","1","","0.1018359722","0.6","0.2","0.4","0.8","0.1018359722","0.1073746888","0.383211712","0.4492830973","","","","","","","","","","","","","","72","H","0","img/none_selected.jpg","","74","main_expt",""
"","bandit","154","1411755","0.0-116.0-0.0","28148127","wem/bandit_party_1","A2531UD0IGT731","either","4","534","","","","","","","0","0","1","","0.09443707336","0.6","0.2","0.4","0.8","0.09443707336","0.1051395745","0.3681962321","0.449321966","","","","","","","","","","","","","","72","H","0","img/none_selected.jpg","","75","main_expt",""
"","bandit","155","1413765","0.0-117.0-0.0","28148127","wem/bandit_party_1","A2531UD0IGT731","either","4","490","","","","","","","1","0","0","0.4299726132","","0.6","0.2","0.4","0.8","","","","","0.08768691443","0.09171451076","0.3574328021","0.4299726132","","","","","","","","","","76","L","3","","","76","main_expt",""
"","bandit","156","1415812","0.0-118.0-0.0","28148127","wem/bandit_party_1","A2531UD0IGT731","either","4","531","","","","","","","0","0","1","","0.4349340462","0.6","0.2","0.4","0.8","0.07744448812","0.1256070833","0.4041720962","0.4349340462","","","","","","","","","","","","","","76","L","3","","","77","main_expt",""
"","bandit","157","1418180","0.0-119.0-0.0","28148127","wem/bandit_party_1","A2531UD0IGT731","either","4","847","","","","","","","0","0","1","0.4112950215","","0.6","0.2","0.4","0.8","","","","","0.05712631425","0.1398604905","0.4000946746","0.4112950215","","","","","","","","","","76","L","3","","","78","main_expt",""
"","bandit","158","1420180","0.0-120.0-0.0","28148127","wem/bandit_party_1","A2531UD0IGT731","either","4","478","","","","","","","1","0","0","0.4123046053","","0.6","0.2","0.4","0.8","","","","","0.03981704588","0.1303191282","0.425248604","0.4123046053","","","","","","","","","","76","L","3","","","79","main_expt",""
"","bandit","159","1422174","0.0-121.0-0.0","28148127","wem/bandit_party_1","A2531UD0IGT731","either","4","473","","","","","","","0","0","1","0.4345430878","","0.6","0.2","0.4","0.8","","","","","0.02961196177","0.1491340647","0.4263383456","0.4345430878","","","","","","","","","","76","L","3","","","80","main_expt",""
"","bandit","160","1424177","0.0-122.0-0.0","28148127","wem/bandit_party_1","A2531UD0IGT731","either","4","487","","","","","","","1","0","0","0.4255274095","","0.6","0.2","0.4","0.8","","","","","0.0408206899","0.1484119081","0.4377411966","0.4255274095","","","","","","","","","","76","L","3","","","81","main_expt",""
"","bandit","161","1426118","0.0-123.0-0.0","28148127","wem/bandit_party_1","A2531UD0IGT731","either","4","419","","","","","","","0","1","0","","0.4266934287","0.6","0.2","0.4","0.8","0.03491361241","0.135460029","0.4263216968","0.4266934287","","","","","","","","","","","","","","76","L","3","","","82","main_expt",""
"","bandit","162","1428218","0.0-124.0-0.0","28148127","wem/bandit_party_1","A2531UD0IGT731","either","4","581","","","","","","","0","1","0","","0.4321646522","0.6","0.2","0.4","0.8","0.01881925386","0.09497461961","0.4536492548","0.4321646522","","","","","","","","","","","","","","76","L","3","","","83","main_expt",""
"","bandit","163","1430338","0.0-125.0-0.0","28148127","wem/bandit_party_1","A2531UD0IGT731","either","4","584","","","","","","","1","0","0","0.43129245","","0.6","0.2","0.4","0.8","","","","","0.03441768066","0.0956585677","0.4344769981","0.43129245","","","","","","","","","","76","L","3","","","84","main_expt",""
"","bandit","164","1432623","0.0-126.0-0.0","28148127","wem/bandit_party_1","A2531UD0IGT731","either","4","766","","","","","","","1","0","0","0.4307495417","","0.6","0.2","0.4","0.8","","","","","0.04015732792","0.08427930603","0.4167097255","0.4307495417","","","","","","","","","","76","L","3","","","85","main_expt",""
"","bandit","165","1434638","0.0-127.0-0.0","28148127","wem/bandit_party_1","A2531UD0IGT731","either","4","493","","","","","","","1","0","0","0.4327415212","","0.6","0.2","0.4","0.8","","","","","0.0462821445","0.09540141202","0.4215971904","0.4327415212","","","","","","","","","","76","L","3","","","86","main_expt",""
"","bandit","166","1436600","0.0-128.0-0.0","28148127","wem/bandit_party_1","A2531UD0IGT731","either","4","445","","","","","","","0","0","1","0.4507305815","","0.6","0.2","0.4","0.8","","","","","0.07236867375","0.06504543429","0.3962725568","0.4507305815","","","","","","","","","","76","L","3","","","87","main_expt",""
"","bandit","167","1438572","0.0-129.0-0.0","28148127","wem/bandit_party_1","A2531UD0IGT731","either","4","443","","","","","","","1","0","0","0.4571393315","","0.6","0.2","0.4","0.8","","","","","0.1132918069","0.05894337134","0.4038430626","0.4571393315","","","","","","","","","","76","L","3","","","88","main_expt",""
"","bandit","168","1441046","0.0-130.0-0.0","28148127","wem/bandit_party_1","A2531UD0IGT731","either","4","947","","","","","","","0","0","1","0.4639779763","","0.6","0.2","0.4","0.8","","","","","0.1466354559","0.06803635399","0.4247877058","0.4639779763","","","","","","","","","","76","L","3","","","89","main_expt",""
"","bandit","169","1442926","0.0-131.0-0.0","28148127","wem/bandit_party_1","A2531UD0IGT731","either","4","359","","","","","","","1","0","0","0.4620017245","","0.6","0.2","0.4","0.8","","","","","0.1746819083","0.09657856289","0.4196700557","0.4620017245","","","","","","","","","","76","L","3","","","90","main_expt",""
"","bandit","170","1444930","0.0-132.0-0.0","28148127","wem/bandit_party_1","A2531UD0IGT731","either","4","479","","","","","","","0","0","1","0.4492963398","","0.6","0.2","0.4","0.8","","","","","0.1864657318","0.08522031428","0.401758082","0.4492963398","","","","","","","","","","76","L","3","","","91","main_expt",""
"","bandit","171","1447070","0.0-133.0-0.0","28148127","wem/bandit_party_1","A2531UD0IGT731","either","4","624","","","","","","","1","0","0","0.462009279","","0.6","0.2","0.4","0.8","","","","","0.2124622091","0.07078380504","0.3422099147","0.462009279","","","","","","","","","","76","L","3","","","92","main_expt",""
"","bandit","172","1448980","0.0-134.0-0.0","28148127","wem/bandit_party_1","A2531UD0IGT731","either","4","392","","","","","","","0","0","1","","0.4363090379","0.6","0.2","0.4","0.8","0.245786276","0.0564278809","0.3279059742","0.4363090379","","","","","","","","","","","","","","76","L","3","","","93","main_expt",""
"","bandit","173","1451132","0.0-135.0-0.0","28148127","wem/bandit_party_1","A2531UD0IGT731","either","4","624","","","","","","","0","0","1","0.4457519602","","0.6","0.2","0.4","0.8","","","","","0.2316759231","0.06067733924","0.3155724737","0.4457519602","","","","","","","","","","76","L","3","","","94","main_expt",""
"","bandit","174","1453182","0.0-136.0-0.0","28148127","wem/bandit_party_1","A2531UD0IGT731","either","4","525","","","","","","","0","0","1","0.4231248902","","0.6","0.2","0.4","0.8","","","","","0.2231756969","0.08632751489","0.3519625041","0.4231248902","","","","","","","","","","76","L","3","","","95","main_expt",""
"","bandit","175","1455123","0.0-137.0-0.0","28148127","wem/bandit_party_1","A2531UD0IGT731","either","4","421","","","","","","","0","0","1","0.4210676831","","0.6","0.2","0.4","0.8","","","","","0.1957128212","0.08481729553","0.3661455107","0.4210676831","","","","","","","","","","76","L","3","","","96","main_expt",""
"","bandit","176","1457150","0.0-138.0-0.0","28148127","wem/bandit_party_1","A2531UD0IGT731","either","4","507","","","","","","","0","0","1","0.4022895305","","0.6","0.2","0.4","0.8","","","","","0.1638116915","0.08386440452","0.3558031673","0.4022895305","","","","","","","","","","76","L","3","","","97","main_expt",""
"","bandit","177","1458856","0.0-139.0-0.0","28148127","wem/bandit_party_1","A2531UD0IGT731","either","4","183","","","","","","","1","0","0","0.4187351015","","0.6","0.2","0.4","0.8","","","","","0.1405816365","0.0940701929","0.3558230887","0.4187351015","","","","","","","","","","76","L","3","","","98","main_expt",""
"","bandit","178","1460714","0.0-140.0-0.0","28148127","wem/bandit_party_1","A2531UD0IGT731","either","4","334","","","","","","","0","0","1","0.3981340028","","0.6","0.2","0.4","0.8","","","","","0.1435678602","0.1285058524","0.3064708089","0.3981340028","","","","","","","","","","76","L","3","","","99","main_expt",""
"","bandit","179","1462847","0.0-141.0-0.0","28148127","wem/bandit_party_1","A2531UD0IGT731","either","4","611","","","","","","","0","0","1","0.3520446815","","0.6","0.2","0.4","0.8","","","","","0.1478754355","0.065882019","0.352498313","0.3520446815","","","","","","","","","","76","L","3","","","100","main_expt",""
"","bandit","180","1464825","0.0-142.0-0.0","28148127","wem/bandit_party_1","A2531UD0IGT731","either","4","456","","","","","","","0","0","1","0.3715523215","","0.6","0.2","0.4","0.8","","","","","0.1532559328","0.05692140794","0.3511810171","0.3715523215","","","","","","","","","","76","L","3","","","101","main_expt",""
"","bandit","181","1466948","0.0-143.0-0.0","28148127","wem/bandit_party_1","A2531UD0IGT731","either","4","607","","","","","","","0","0","1","0.3966955113","","0.6","0.2","0.4","0.8","","","","","0.15857411","0.04322280369","0.3246867477","0.3966955113","","","","","","","","","","76","L","3","","","102","main_expt",""
"","bandit","182","1468960","0.0-144.0-0.0","28148127","wem/bandit_party_1","A2531UD0IGT731","either","4","484","","","","","","","0","0","1","0.3865714765","","0.6","0.2","0.4","0.8","","","","","0.1552377357","0.05121437093","0.2827689756","0.3865714765","","","","","","","","","","76","L","3","","","103","main_expt",""
"","bandit","183","1471936","0.0-145.0-0.0","28148127","wem/bandit_party_1","A2531UD0IGT731","either","4","1448","","","","","","","1","0","0","0.3440646931","","0.6","0.2","0.4","0.8","","","","","0.1584193753","0.06548077564","0.3307995119","0.3440646931","","","","","","","","","","76","L","3","","","104","main_expt",""
"","bandit","184","1475785","0.0-146.0-0.0","28148127","wem/bandit_party_1","A2531UD0IGT731","either","4","2335","","","","","","","0","0","1","0.330981063","","0.6","0.2","0.4","0.8","","","","","0.192058402","0.07577357845","0.3078297571","0.330981063","","","","","","","","","","76","L","3","","","105","main_expt",""
"","bandit","185","1478643","0.0-147.0-0.0","28148127","wem/bandit_party_1","A2531UD0IGT731","either","4","1338","","","","","","","0","0","1","","0.3317280627","0.6","0.2","0.4","0.8","0.1562344916","0.09041352565","0.3202685942","0.3317280627","","","","","","","","","","","","","","76","L","3","","","106","main_expt",""
"","bandit","186","1481650","0.0-148.0-0.0","28148127","wem/bandit_party_1","A2531UD0IGT731","either","4","1492","","","","","","","0","0","1","0.2760665195","","0.6","0.2","0.4","0.8","","","","","0.1493116313","0.1184921167","0.3163418234","0.2760665195","","","","","","","","","","76","L","3","","","107","main_expt",""
"","bandit","187","1483844","0.0-149.0-0.0","28148127","wem/bandit_party_1","A2531UD0IGT731","either","4","669","","","","","","","1","0","0","0.2826301941","","0.6","0.2","0.4","0.8","","","","","0.1357435498","0.1057615429","0.3425943818","0.2826301941","","","","","","","","","","76","L","3","","","108","main_expt",""
"","bandit","188","1485934","0.0-150.0-0.0","28148127","wem/bandit_party_1","A2531UD0IGT731","either","4","566","","","","","","","1","0","0","0.318117281","","0.6","0.2","0.4","0.8","","","","","0.1164074326","0.1464484126","0.2852030557","0.318117281","","","","","","","","","","76","L","3","","","109","main_expt",""
"","bandit","189","1487897","0.0-151.0-0.0","28148127","wem/bandit_party_1","A2531UD0IGT731","either","4","436","","","","","","","1","0","0","0.3358587519","","0.6","0.2","0.4","0.8","","","","","0.1444451916","0.1641354829","0.3392406975","0.3358587519","","","","","","","","","","76","L","3","","","110","main_expt",""
"","bandit","190","1489847","0.0-152.0-0.0","28148127","wem/bandit_party_1","A2531UD0IGT731","either","4","424","","","","","","","0","0","1","0.3031660534","","0.6","0.2","0.4","0.8","","","","","0.09905323685","0.1386891192","0.3023411017","0.3031660534","","","","","","","","","","76","L","3","","","111","main_expt",""
"","bandit","191","1491763","0.0-153.0-0.0","28148127","wem/bandit_party_1","A2531UD0IGT731","either","4","391","","","","","","","0","1","0","","0.2773548355","0.6","0.2","0.4","0.8","0.09652445584","0.1847512065","0.296849772","0.2773548355","","","","","","","","","","","","","","76","L","3","","","112","main_expt",""
"","bandit","192","1493865","0.0-154.0-0.0","28148127","wem/bandit_party_1","A2531UD0IGT731","either","4","575","","","","","","","0","0","1","","0.2370758425","0.6","0.2","0.4","0.8","0.09961189632","0.1304555333","0.2673419259","0.2370758425","","","","","","","","","","","","","","76","L","3","","","113","main_expt",""
"","bandit","193","1495937","0.0-155.0-0.0","28148127","wem/bandit_party_1","A2531UD0IGT731","either","4","551","","","","","","","0","0","1","0.1821928837","","0.6","0.2","0.4","0.8","","","","","0.1036139638","0.1770102637","0.2670531803","0.1821928837","","","","","","","","","","76","L","3","","","114","main_expt",""
"","bandit","194","1498100","0.0-156.0-0.0","28148127","wem/bandit_party_1","A2531UD0IGT731","either","4","625","","","","","","","0","0","1","0.1315453283","","0.6","0.2","0.4","0.8","","","","","0.0968506792","0.1564651975","0.2825009356","0.1315453283","","","","","","","","","","76","L","3","","","115","main_expt",""
"","bandit","195","1500289","0.0-157.0-0.0","28148127","wem/bandit_party_1","A2531UD0IGT731","either","4","661","","","","","","","0","0","1","","0.1102777544","0.6","0.2","0.4","0.8","0.08782875681","0.1665702367","0.3237719372","0.1102777544","","","","","","","","","","","","","","76","L","3","","","116","main_expt",""
"","bandit","196","1502345","0.0-158.0-0.0","28148127","wem/bandit_party_1","A2531UD0IGT731","either","4","530","","","","","","","0","0","1","","0.1101610351","0.6","0.2","0.4","0.8","0.06031800864","0.1530687496","0.3154846423","0.1101610351","","","","","","","","","","","","","","76","L","3","","","117","main_expt",""
"","bandit","197","1504631","0.0-159.0-0.0","28148127","wem/bandit_party_1","A2531UD0IGT731","either","4","761","","","","","","","0","0","1","0.05633053331","","0.6","0.2","0.4","0.8","","","","","0.05633053331","0.1674206906","0.2584508078","0.122460482","","","","","","","","","","72","H","0","img/none_selected.jpg","","118","main_expt",""
"","bandit","198","1506604","0.0-160.0-0.0","28148127","wem/bandit_party_1","A2531UD0IGT731","either","4","447","","","","","","","0","0","1","","0.07530514027","0.6","0.2","0.4","0.8","0.07530514027","0.1990215448","0.2141905193","0.1451868924","","","","","","","","","","","","","","72","H","0","img/none_selected.jpg","","119","main_expt",""
"","bandit","199","1508545","0.0-161.0-0.0","28148127","wem/bandit_party_1","A2531UD0IGT731","either","4","418","","","","","","","0","0","1","","0.2208640619","0.6","0.2","0.4","0.8","0.09639595661","0.2208640619","0.2341954374","0.09092593383","","","","","","","","","","","","","","74","J","1","","","120","main_expt",""
"","bandit","200","1510443","0.0-162.0-0.0","28148127","wem/bandit_party_1","A2531UD0IGT731","either","4","380","","","","","","","1","0","0","0.1886372651","","0.6","0.2","0.4","0.8","","","","","0.1421799471","0.2602917539","0.1886372651","0.1080456108","","","","","","","","","","75","K","2","","","121","main_expt",""
"","bandit","201","1512381","0.0-163.0-0.0","28148127","wem/bandit_party_1","A2531UD0IGT731","either","4","417","","","","","","","0","0","1","","0.1597592322","0.6","0.2","0.4","0.8","0.1624760489","0.2512498235","0.1597592322","0.1169053248","","","","","","","","","","","","","","75","K","2","","","122","main_expt",""
"","bandit","202","1514276","0.0-164.0-0.0","28148127","wem/bandit_party_1","A2531UD0IGT731","either","4","370","","","","","","","0","0","1","0.1895266442","","0.6","0.2","0.4","0.8","","","","","0.1640214383","0.2266242761","0.1895266442","0.1571594809","","","","","","","","","","75","K","2","","","123","main_expt",""
"","bandit","203","1516141","0.0-165.0-0.0","28148127","wem/bandit_party_1","A2531UD0IGT731","either","4","349","","","","","","","0","1","0","","0.2042850732","0.6","0.2","0.4","0.8","0.2014340991","0.2373824638","0.2042850732","0.2231804049","","","","","","","","","","","","","","75","K","2","","","124","main_expt",""
"","bandit","204","1518026","0.0-166.0-0.0","28148127","wem/bandit_party_1","A2531UD0IGT731","either","4","348","","","","","","","1","0","0","0.1812515389","","0.6","0.2","0.4","0.8","","","","","0.2229229076","0.2538727107","0.1812515389","0.2232794356","","","","","","","","","","75","K","2","","","125","main_expt",""
"","bandit","205","1519845","0.0-167.0-0.0","28148127","wem/bandit_party_1","A2531UD0IGT731","either","4","298","","","","","","","0","1","0","","0.1694736183","0.6","0.2","0.4","0.8","0.2324712723","0.290219491","0.1694736183","0.2316903634","","","","","","","","","","","","","","75","K","2","","","126","main_expt",""
"","bandit","206","1521754","0.0-168.0-0.0","28148127","wem/bandit_party_1","A2531UD0IGT731","either","4","380","","","","","","","0","0","1","","0.1624528765","0.6","0.2","0.4","0.8","0.2628391623","0.2542505169","0.1624528765","0.2337524142","","","","","","","","","","","","","","75","K","2","","","127","main_expt",""
"","bandit","207","1523610","0.0-169.0-0.0","28148127","wem/bandit_party_1","A2531UD0IGT731","either","4","331","","","","","","","0","0","1","","0.1632982916","0.6","0.2","0.4","0.8","0.2654356302","0.2582316027","0.1632982916","0.2198210178","","","","","","","","","","","","","","75","K","2","","","128","main_expt",""
"","bandit","208","1525695","0.0-170.0-0.0","28148127","wem/bandit_party_1","A2531UD0IGT731","either","4","557","","","","","","","0","0","1","0.2264598068","","0.6","0.2","0.4","0.8","","","","","0.2070569149","0.3267566011","0.2264598068","0.2280168395","","","","","","","","","","75","K","2","","","129","main_expt",""
"","bandit","209","1527801","0.0-171.0-0.0","28148127","wem/bandit_party_1","A2531UD0IGT731","either","4","571","","","","","","","0","0","1","0.202760285","","0.6","0.2","0.4","0.8","","","","","0.2579182239","0.3323271388","0.202760285","0.243895296","","","","","","","","","","75","K","2","","","130","main_expt",""
"","bandit","210","1529997","0.0-172.0-0.0","28148127","wem/bandit_party_1","A2531UD0IGT731","either","4","674","","","","","","","0","0","1","0.1585094705","","0.6","0.2","0.4","0.8","","","","","0.2329110821","0.2666668646","0.1585094705","0.2164454501","","","","","","","","","","75","K","2","","","131","main_expt",""
"","bandit","211","1532156","0.0-173.0-0.0","28148127","wem/bandit_party_1","A2531UD0IGT731","either","4","633","","","","","","","0","0","1","","0.1304261544","0.6","0.2","0.4","0.8","0.2400232435","0.2359119393","0.1304261544","0.200468731","","","","","","","","","","","","","","75","K","2","","","132","main_expt",""
"","bandit","212","1533908","0.0-174.0-0.0","28148127","wem/bandit_party_1","A2531UD0IGT731","either","4","226","","","","","","","0","0","1","0.2540740643","","0.6","0.2","0.4","0.8","","","","","0.2084798617","0.2540740643","0.09339990826","0.2038597077","","","","","","","","","","74","J","1","","","133","main_expt",""
"","bandit","213","1536172","0.0-175.0-0.0","28148127","wem/bandit_party_1","A2531UD0IGT731","either","4","734","","","","","","","0","0","1","","0.2034544","0.6","0.2","0.4","0.8","0.2034544","0.2414927735","0.08524612959","0.2263269307","","","","","","","","","","","","","","72","H","0","img/none_selected.jpg","","134","main_expt",""
"","bandit","214","1539142","0.0-176.0-0.0","28148127","wem/bandit_party_1","A2531UD0IGT731","either","4","1444","","","","","","","0","0","1","","0.2686469146","0.6","0.2","0.4","0.8","0.2088958693","0.2632369982","0.0622033461","0.2686469146","","","","","","","","","","","","","","76","L","3","","","135","main_expt",""
"","bandit","215","1541013","0.0-177.0-0.0","28148127","wem/bandit_party_1","A2531UD0IGT731","either","4","347","","","","","","","0","0","1","","0.05632890875","0.6","0.2","0.4","0.8","0.2573758916","0.3032623762","0.05632890875","0.3170393738","","","","","","","","","","","","","","75","K","2","","","136","main_expt",""
"","bandit","216","1542858","0.0-178.0-0.0","28148127","wem/bandit_party_1","A2531UD0IGT731","either","4","315","","","","","","","0","0","1","","0.06052980877","0.6","0.2","0.4","0.8","0.2467438462","0.2984046037","0.06052980877","0.338962466","","","","","","","","","","","","","","75","K","2","","","137","main_expt",""
"","bandit","217","1544757","0.0-179.0-0.0","28148127","wem/bandit_party_1","A2531UD0IGT731","either","4","373","","","","","","","0","0","1","","0.1038497792","0.6","0.2","0.4","0.8","0.2221944767","0.3110629865","0.1038497792","0.3586643031","","","","","","","","","","","","","","75","K","2","","","138","main_expt",""
"","bandit","218","1546595","0.0-180.0-0.0","28148127","wem/bandit_party_1","A2531UD0IGT731","either","4","306","","","","","","","0","0","1","","0.08561062373","0.6","0.2","0.4","0.8","0.2750517365","0.3048373826","0.08561062373","0.3430902759","","","","","","","","","","","","","","75","K","2","","","139","main_expt",""
"","bandit","219","1548454","0.0-181.0-0.0","28148127","wem/bandit_party_1","A2531UD0IGT731","either","4","337","","","","","","","0","1","0","","0.3163642845","0.6","0.2","0.4","0.8","0.277474309","0.3163642845","0.08025295029","0.3777112835","","","","","","","","","","","","","","74","J","1","","","140","main_expt",""
"","bandit","220","1550576","0.0-182.0-0.0","28148127","wem/bandit_party_1","A2531UD0IGT731","either","4","587","","","","","","","0","0","1","","0.2213861514","0.6","0.2","0.4","0.8","0.2932007391","0.2213861514","0.09309891757","0.4276051364","","","","","","","","","","","","","","74","J","1","","","141","main_expt",""
"","bandit","221","1552494","0.0-183.0-0.0","28148127","wem/bandit_party_1","A2531UD0IGT731","either","4","400","","","","","","","0","0","1","","0.2492613222","0.6","0.2","0.4","0.8","0.3001807938","0.2492613222","0.1107976638","0.4312347149","","","","","","","","","","","","","","74","J","1","","","142","main_expt",""
"","bandit","222","1555086","0.0-184.0-0.0","28148127","wem/bandit_party_1","A2531UD0IGT731","either","4","1076","","","","","","","0","0","1","","0.2645663874","0.6","0.2","0.4","0.8","0.3640878437","0.2645663874","0.09575525052","0.386657586","","","","","","","","","","","","","","74","J","1","","","143","main_expt",""
"","bandit","223","1557026","0.0-185.0-0.0","28148127","wem/bandit_party_1","A2531UD0IGT731","either","4","414","","","","","","","0","0","1","","0.2928215939","0.6","0.2","0.4","0.8","0.2706796495","0.2928215939","0.07222794989","0.3409851627","","","","","","","","","","","","","","74","J","1","","","144","main_expt",""
"","bandit","224","1558924","0.0-186.0-0.0","28148127","wem/bandit_party_1","A2531UD0IGT731","either","4","370","","","","","","","0","1","0","","0.3178979655","0.6","0.2","0.4","0.8","0.2359726437","0.3178979655","0.03203798906","0.3538709708","","","","","","","","","","","","","","74","J","1","","","145","main_expt",""
"","bandit","225","1560869","0.0-187.0-0.0","28148127","wem/bandit_party_1","A2531UD0IGT731","either","4","418","","","","","","","0","0","1","","0.2850957273","0.6","0.2","0.4","0.8","0.2200332621","0.2850957273","0.03073079809","0.2745956728","","","","","","","","","","","","","","74","J","1","","","146","main_expt",""
"","bandit","226","1562807","0.0-188.0-0.0","28148127","wem/bandit_party_1","A2531UD0IGT731","either","4","408","","","","","","","0","0","1","","0.2483519338","0.6","0.2","0.4","0.8","0.1957794229","0.2483519338","0.05105424151","0.2375793476","","","","","","","","","","","","","","74","J","1","","","147","main_expt",""
"","bandit","227","1564738","0.0-189.0-0.0","28148127","wem/bandit_party_1","A2531UD0IGT731","either","4","405","","","","","","","0","0","1","","0.2309770791","0.6","0.2","0.4","0.8","0.1790722045","0.2309770791","0.04045355104","0.2954602587","","","","","","","","","","","","","","74","J","1","","","148","main_expt",""
"","bandit","228","1566454","0.0-190.0-0.0","28148127","wem/bandit_party_1","A2531UD0IGT731","either","4","193","","","","","","","0","0","1","0.2189150546","","0.6","0.2","0.4","0.8","","","","","0.2189150546","0.1759049641","0.06416506337","0.3435099865","","","","","","","","","","72","H","0","img/none_selected.jpg","","149","main_expt",""
"","bandit","229","1568295","0.0-191.0-0.0","28148127","wem/bandit_party_1","A2531UD0IGT731","either","4","310","","","","","","","0","0","1","0.268900415","","0.6","0.2","0.4","0.8","","","","","0.2119229637","0.1910702346","0.07819388902","0.268900415","","","","","","","","","","76","L","3","","","150","main_expt",""
"","bandit","230","1570119","0.0-192.0-0.0","28148127","wem/bandit_party_1","A2531UD0IGT731","either","4","289","","","","","","","0","0","1","","0.1186979887","0.6","0.2","0.4","0.8","0.2472398003","0.1799178466","0.1186979887","0.2326488896","","","","","","","","","","","","","","75","K","2","","","151","main_expt",""
"","bandit","231","1571904","0.0-193.0-0.0","28148127","wem/bandit_party_1","A2531UD0IGT731","either","4","262","","","","","","","0","0","1","","0.1826140084","0.6","0.2","0.4","0.8","0.2148428051","0.1826140084","0.1084773402","0.2768057641","","","","","","","","","","","","","","74","J","1","","","152","main_expt",""
"","bandit","232","1573784","0.0-194.0-0.0","28148127","wem/bandit_party_1","A2531UD0IGT731","either","4","353","","","","","","","0","0","1","0.147924298","","0.6","0.2","0.4","0.8","","","","","0.1598057249","0.147924298","0.1314289417","0.2997660112","","","","","","","","","","74","J","1","","","153","main_expt",""
"","bandit","233","1575628","0.0-195.0-0.0","28148127","wem/bandit_party_1","A2531UD0IGT731","either","4","312","","","","","","","0","0","1","","0.1388357139","0.6","0.2","0.4","0.8","0.1489099923","0.1388357139","0.1354051011","0.3196464983","","","","","","","","","","","","","","74","J","1","","","154","main_expt",""
"","bandit","234","1577500","0.0-196.0-0.0","28148127","wem/bandit_party_1","A2531UD0IGT731","either","4","353","","","","","","","0","0","1","","0.1502541116","0.6","0.2","0.4","0.8","0.1502541116","0.1658398244","0.1085215933","0.3141654429","","","","","","","","","","","","","","72","H","0","img/none_selected.jpg","","155","main_expt",""
"","bandit","235","1579234","0.0-197.0-0.0","28148127","wem/bandit_party_1","A2531UD0IGT731","either","4","208","","","","","","","1","0","0","0.1383379057","","0.6","0.2","0.4","0.8","","","","","0.1605084188","0.1104921729","0.1383379057","0.2667217688","","","","","","","","","","75","K","2","","","156","main_expt",""
"","bandit","236","1581088","0.0-198.0-0.0","28148127","wem/bandit_party_1","A2531UD0IGT731","either","4","327","","","","","","","0","0","1","0.1428990181","","0.6","0.2","0.4","0.8","","","","","0.1684101418","0.09530810267","0.1428990181","0.2867075714","","","","","","","","","","75","K","2","","","157","main_expt",""
"","bandit","237","1583007","0.0-199.0-0.0","28148127","wem/bandit_party_1","A2531UD0IGT731","either","4","391","","","","","","","0","0","1","","0.07455979893","0.6","0.2","0.4","0.8","0.1807688322","0.1211627972","0.07455979893","0.2788639118","","","","","","","","","","","","","","75","K","2","","","158","main_expt",""
"","bandit","238","1585044","0.0-200.0-0.0","28148127","wem/bandit_party_1","A2531UD0IGT731","either","4","509","","","","","","","0","0","1","","0.1009372764","0.6","0.2","0.4","0.8","0.1516426412","0.1012897464","0.1009372764","0.3020710819","","","","","","","","","","","","","","75","K","2","","","159","main_expt",""
"","bandit","239","1586880","0.0-201.0-0.0","28148127","wem/bandit_party_1","A2531UD0IGT731","either","4","312","","","","","","","0","0","1","","0.05118862797","0.6","0.2","0.4","0.8","0.1638698877","0.1188035868","0.05118862797","0.3404227007","","","","","","","","","","","","","","75","K","2","","","160","main_expt",""
"","bandit","240","1588705","0.0-202.0-0.0","28148127","wem/bandit_party_1","A2531UD0IGT731","either","4","302","","","","","","","0","1","0","","0.1606836622","0.6","0.2","0.4","0.8","0.1645359983","0.1606836622","0.05265847637","0.2876249865","","","","","","","","","","","","","","74","J","1","","","161","main_expt",""
"","bandit","241","1590661","0.0-203.0-0.0","28148127","wem/bandit_party_1","A2531UD0IGT731","either","4","422","","","","","","","0","0","1","","0.1859884171","0.6","0.2","0.4","0.8","0.2509918509","0.1859884171","0.07938684611","0.2401308511","","","","","","","","","","","","","","74","J","1","","","162","main_expt",""
"","bandit","242","1592594","0.0-204.0-0.0","28148127","wem/bandit_party_1","A2531UD0IGT731","either","4","401","","","","","","","0","0","1","0.0970900163","","0.6","0.2","0.4","0.8","","","","","0.1883685458","0.2528258464","0.0970900163","0.2486605046","","","","","","","","","","75","K","2","","","163","main_expt",""
"","bandit","243","1594437","0.0-205.0-0.0","28148127","wem/bandit_party_1","A2531UD0IGT731","either","4","288","","","","","","","0","0","1","","0.07401968201","0.6","0.2","0.4","0.8","0.2179532334","0.2515292425","0.07401968201","0.22675384","","","","","","","","","","","","","","75","K","2","","","164","main_expt",""
"","bandit","244","1596112","0.0-206.0-0.0","28148127","wem/bandit_party_1","A2531UD0IGT731","either","4","147","","","","","","","0","1","0","","0.2068970429","0.6","0.2","0.4","0.8","0.2143704678","0.2068970429","0.06633104104","0.2841151948","","","","","","","","","","","","","","74","J","1","","","165","main_expt",""
"","bandit","245","1597924","0.0-207.0-0.0","28148127","wem/bandit_party_1","A2531UD0IGT731","either","4","294","","","","","","","0","0","1","","0.1413778631","0.6","0.2","0.4","0.8","0.2175899085","0.1413778631","0.05309652092","0.2842980464","","","","","","","","","","","","","","74","J","1","","","166","main_expt",""
"","bandit","246","1599892","0.0-208.0-0.0","28148127","wem/bandit_party_1","A2531UD0IGT731","either","4","438","","","","","","","0","0","1","0.3007590714","","0.6","0.2","0.4","0.8","","","","","0.2137120923","0.1999497975","0.07357446968","0.3007590714","","","","","","","","","","76","L","3","","","167","main_expt",""
"","bandit","247","1601747","0.0-209.0-0.0","28148127","wem/bandit_party_1","A2531UD0IGT731","either","4","323","","","","","","","0","1","0","","0.2331560811","0.6","0.2","0.4","0.8","0.2331560811","0.1696145944","0.1054325378","0.2884936601","","","","","","","","","","","","","","72","H","0","img/none_selected.jpg","","168","main_expt",""
"","bandit","248","1603854","0.0-210.0-0.0","28148127","wem/bandit_party_1","A2531UD0IGT731","either","4","583","","","","","","","0","0","1","","0.2367963754","0.6","0.2","0.4","0.8","0.2367963754","0.1338518967","0.08536867429","0.2803439438","","","","","","","","","","","","","","72","H","0","img/none_selected.jpg","","169","main_expt",""
"","bandit","249","1605700","0.0-211.0-0.0","28148127","wem/bandit_party_1","A2531UD0IGT731","either","4","320","","","","","","","0","1","0","","0.1307598277","0.6","0.2","0.4","0.8","0.2378050175","0.1307598277","0.1083432756","0.3010437192","","","","","","","","","","","","","","74","J","1","","","170","main_expt",""
"","bandit","250","1607528","0.0-212.0-0.0","28148127","wem/bandit_party_1","A2531UD0IGT731","either","4","305","","","","","","","0","0","1","0.1200375331","","0.6","0.2","0.4","0.8","","","","","0.2253696972","0.1200375331","0.09185370626","0.3243802095","","","","","","","","","","74","J","1","","","171","main_expt",""
"","bandit","251","1609350","0.0-213.0-0.0","28148127","wem/bandit_party_1","A2531UD0IGT731","either","4","270","","","","","","","0","0","1","","0.07514546963","0.6","0.2","0.4","0.8","0.2903394368","0.07514546963","0.09458096772","0.3140094691","","","","","","","","","","","","","","74","J","1","","","172","main_expt",""
"","bandit","252","1611493","0.0-214.0-0.0","28148127","wem/bandit_party_1","A2531UD0IGT731","either","4","624","","","","","","","0","0","1","","0.07704486673","0.6","0.2","0.4","0.8","0.2384828248","0.07704486673","0.1016296913","0.2433770114","","","","","","","","","","","","","","74","J","1","","","173","main_expt",""
"","bandit","253","1613401","0.0-215.0-0.0","28148127","wem/bandit_party_1","A2531UD0IGT731","either","4","391","","","","","","","0","0","1","","0.04061738922","0.6","0.2","0.4","0.8","0.2823111034","0.04061738922","0.117107939","0.2080779891","","","","","","","","","","","","","","74","J","1","","","174","main_expt",""
"","bandit","254","1615288","0.0-216.0-0.0","28148127","wem/bandit_party_1","A2531UD0IGT731","either","4","358","","","","","","","0","0","1","","0.02968316822","0.6","0.2","0.4","0.8","0.292147578","0.02968316822","0.1254773658","0.2211365803","","","","","","","","","","","","","","74","J","1","","","175","main_expt",""
"","bandit","255","1617026","0.0-217.0-0.0","28148127","wem/bandit_party_1","A2531UD0IGT731","either","4","216","","","","","","","0","1","0","","0.04419366322","0.6","0.2","0.4","0.8","0.2928295457","0.04419366322","0.1518856622","0.231280906","","","","","","","","","","","","","","74","J","1","","","176","main_expt",""
"","bandit","256","1619228","0.0-218.0-0.0","28148127","wem/bandit_party_1","A2531UD0IGT731","either","4","656","","","","","","","0","0","1","","0.04140429262","0.6","0.2","0.4","0.8","0.297241693","0.04140429262","0.1502483312","0.1689881391","","","","","","","","","","","","","","74","J","1","","","177","main_expt",""
"","bandit","257","1621067","0.0-219.0-0.0","28148127","wem/bandit_party_1","A2531UD0IGT731","either","4","304","","","","","","","0","0","1","","0.06103489621","0.6","0.2","0.4","0.8","0.276241128","0.06103489621","0.2073149786","0.1699404395","","","","","","","","","","","","","","74","J","1","","","178","main_expt",""
"","bandit","258","1623811","0.0-220.0-0.0","28148127","wem/bandit_party_1","A2531UD0IGT731","either","4","1200","","","","","","","0","0","1","0.2405339857","","0.6","0.2","0.4","0.8","","","","","0.2405339857","0.053608248","0.1928578162","0.1571972967","","","","","","","","","","72","H","0","img/none_selected.jpg","","179","main_expt",""
"","bandit","259","1625659","0.0-221.0-0.0","28148127","wem/bandit_party_1","A2531UD0IGT731","either","4","314","","","","","","","0","0","1","","0.1412953234","0.6","0.2","0.4","0.8","0.233428307","0.06289379635","0.1412953234","0.1567782565","","","","","","","","","","","","","","75","K","2","","","180","main_expt",""
"","bandit","260","1627254","0.0-222.0-0.0","28148127","wem/bandit_party_1","A2531UD0IGT731","either","4","74","","","","","","","0","0","1","","0.07748386732","0.6","0.2","0.4","0.8","0.1459310114","0.07748386732","0.1258774719","0.1492691696","","","","","","","","","","","","","","74","J","1","","","181","main_expt",""
"","bandit","261","1629888","0.0-223.0-0.0","28148127","wem/bandit_party_1","A2531UD0IGT731","either","4","1115","","","","","","","0","0","1","","0.096714051","0.6","0.2","0.4","0.8","0.1796360657","0.096714051","0.1121960069","0.1609613705","","","","","","","","","","","","","","74","J","1","","","182","main_expt",""
"","bandit","262","1631916","0.0-224.0-0.0","28148127","wem/bandit_party_1","A2531UD0IGT731","either","4","503","","","","","","","0","0","1","","0.05351369794","0.6","0.2","0.4","0.8","0.1907874973","0.05351369794","0.08335286121","0.1982891881","","","","","","","","","","","","","","74","J","1","","","183","main_expt",""
"","bandit","263","1633853","0.0-225.0-0.0","28148127","wem/bandit_party_1","A2531UD0IGT731","either","4","409","","","","","","","0","0","1","0.08854511538","","0.6","0.2","0.4","0.8","","","","","0.1451627339","0.08854511538","0.1085923678","0.1703318442","","","","","","","","","","74","J","1","","","184","main_expt",""
"","bandit","264","1636715","0.0-226.0-0.0","28148127","wem/bandit_party_1","A2531UD0IGT731","either","4","1308","","","","","","","0","1","0","","0.136385666","0.6","0.2","0.4","0.8","0.1692531577","0.136385666","0.1113654269","0.09566746086","","","","","","","","","","","","","","74","J","1","","","185","main_expt",""
"","bandit","265","1639012","0.0-227.0-0.0","28148127","wem/bandit_party_1","A2531UD0IGT731","either","4","774","","","","","","","0","0","1","","0.1848043888","0.6","0.2","0.4","0.8","0.1885113298","0.1848043888","0.1383531569","0.1254261761","","","","","","","","","","","","","","74","J","1","","","186","main_expt",""
"","bandit","266","1641181","0.0-228.0-0.0","28148127","wem/bandit_party_1","A2531UD0IGT731","either","4","635","","","","","","","0","0","1","","0.1640989128","0.6","0.2","0.4","0.8","0.2088125345","0.1640989128","0.1739713275","0.1081798115","","","","","","","","","","","","","","74","J","1","","","187","main_expt",""
"","bandit","267","1643384","0.0-229.0-0.0","28148127","wem/bandit_party_1","A2531UD0IGT731","either","4","676","","","","","","","0","0","1","","0.1301402021","0.6","0.2","0.4","0.8","0.2228369986","0.1301402021","0.1926366302","0.08529062399","","","","","","","","","","","","","","74","J","1","","","188","main_expt",""
"","bandit","268","1645407","0.0-230.0-0.0","28148127","wem/bandit_party_1","A2531UD0IGT731","either","4","486","","","","","","","0","0","1","","0.1980942663","0.6","0.2","0.4","0.8","0.2567428292","0.1980942663","0.2499935398","0.07250281893","","","","","","","","","","","","","","74","J","1","","","189","main_expt",""
"","bandit","269","1647544","0.0-231.0-0.0","28148127","wem/bandit_party_1","A2531UD0IGT731","either","4","623","","","","","","","0","0","1","","0.1842725295","0.6","0.2","0.4","0.8","0.3177850294","0.1842725295","0.2367317824","0.07895395147","","","","","","","","","","","","","","74","J","1","","","190","main_expt",""
"","bandit","270","1649491","0.0-232.0-0.0","28148127","wem/bandit_party_1","A2531UD0IGT731","either","4","429","","","","","","","0","0","1","","0.2087081259","0.6","0.2","0.4","0.8","0.2876912335","0.2087081259","0.2515026666","0.06204701637","","","","","","","","","","","","","","74","J","1","","","191","main_expt",""
"","bandit","271","1652157","0.0-233.0-0.0","28148127","wem/bandit_party_1","A2531UD0IGT731","either","4","1145","","","","","","","0","0","1","","0.1800110976","0.6","0.2","0.4","0.8","0.2383873749","0.1800110976","0.2451916405","0.064067899","","","","","","","","","","","","","","74","J","1","","","192","main_expt",""
"","bandit","272","1654088","0.0-234.0-0.0","28148127","wem/bandit_party_1","A2531UD0IGT731","either","4","406","","","","","","","0","0","1","0.24690957","","0.6","0.2","0.4","0.8","","","","","0.24690957","0.1519186298","0.2353451433","0.1286650472","","","","","","","","","","72","H","0","img/none_selected.jpg","","193","main_expt",""
"","bandit","273","1656208","0.0-235.0-0.0","28148127","wem/bandit_party_1","A2531UD0IGT731","either","4","590","","","","","","","0","0","1","0.307075739","","0.6","0.2","0.4","0.8","","","","","0.2728455101","0.1431656489","0.307075739","0.1746490116","","","","","","","","","","75","K","2","","","194","main_expt",""
"","bandit","274","1658039","0.0-236.0-0.0","28148127","wem/bandit_party_1","A2531UD0IGT731","either","4","308","","","","","","","0","0","1","0.129035247","","0.6","0.2","0.4","0.8","","","","","0.2421292151","0.1868251083","0.3011001907","0.129035247","","","","","","","","","","76","L","3","","","195","main_expt",""
"","bandit","275","1660004","0.0-237.0-0.0","28148127","wem/bandit_party_1","A2531UD0IGT731","either","4","421","","","","","","","0","0","1","","0.176624335","0.6","0.2","0.4","0.8","0.2598052724","0.176624335","0.2861216794","0.09052040682","","","","","","","","","","","","","","74","J","1","","","196","main_expt",""
"","bandit","276","1666691","0.0-238.0-0.0","28148127","wem/bandit_party_1","A2531UD0IGT731","either","4","5156","","","","","","","0","0","1","","0.2540930088","0.6","0.2","0.4","0.8","0.2540930088","0.2383323772","0.2121549007","0.08675464884","","","","","","","","","","","","","","72","H","0","img/none_selected.jpg","","197","main_expt",""
"","bandit","277","1670034","0.0-239.0-0.0","28148127","wem/bandit_party_1","A2531UD0IGT731","either","4","1824","","","","","","","0","0","1","0.2460150375","","0.6","0.2","0.4","0.8","","","","","0.2460150375","0.260618614","0.260340052","0.09429549835","","","","","","","","","","72","H","0","img/none_selected.jpg","","198","main_expt",""
"","bandit","278","1672130","0.0-240.0-0.0","28148127","wem/bandit_party_1","A2531UD0IGT731","either","4","563","","","","","","","1","0","0","0.2935067364","","0.6","0.2","0.4","0.8","","","","","0.2217343644","0.2935067364","0.3009562829","0.09303778716","","","","","","","","","","74","J","1","","","199","main_expt",""
"","bandit","279","1675735","0.0-241.0-0.0","28148127","wem/bandit_party_1","A2531UD0IGT731","either","4","2072","","","","","","","0","0","1","0.362920627","","0.6","0.2","0.4","0.8","","","","","0.2830302048","0.362920627","0.3430896668","0.07354084322","","","","","","","","","","74","J","1","","","200","main_expt",""
"","bandit","280","1677667","0.0-242.0-0.0","28148127","wem/bandit_party_1","A2531UD0IGT731","either","4","406","","","","","","","0","0","1","","0.3119044903","0.6","0.2","0.4","0.8","0.3175621279","0.3119044903","0.2973668079","0.08115367452","","","","","","","","","","","","","","74","J","1","","","201","main_expt",""
"","bandit","281","1679627","0.0-243.0-0.0","28148127","wem/bandit_party_1","A2531UD0IGT731","either","4","431","","","","","","","0","0","1","0.3095695708","","0.6","0.2","0.4","0.8","","","","","0.3049471546","0.3095695708","0.3219337599","0.0774842685","","","","","","","","","","74","J","1","","","202","main_expt",""
"","bandit","282","1681489","0.0-244.0-0.0","28148127","wem/bandit_party_1","A2531UD0IGT731","either","4","334","","","","","","","0","0","1","0.3229991028","","0.6","0.2","0.4","0.8","","","","","0.2975042969","0.3005459379","0.3229991028","0.09704724367","","","","","","","","","","75","K","2","","","203","main_expt",""
"","bandit","283","1683370","0.0-245.0-0.0","28148127","wem/bandit_party_1","A2531UD0IGT731","either","4","353","","","","","","","0","0","1","","0.3077995671","0.6","0.2","0.4","0.8","0.2268457719","0.3116824409","0.3077995671","0.1224111047","","","","","","","","","","","","","","75","K","2","","","204","main_expt",""
"","bandit","284","1685181","0.0-246.0-0.0","28148127","wem/bandit_party_1","A2531UD0IGT731","either","4","282","","","","","","","0","1","0","","0.3070199156","0.6","0.2","0.4","0.8","0.2582085449","0.3291635812","0.3070199156","0.1627664319","","","","","","","","","","","","","","75","K","2","","","205","main_expt",""
"","bandit","285","1687038","0.0-247.0-0.0","28148127","wem/bandit_party_1","A2531UD0IGT731","either","4","336","","","","","","","0","0","1","","0.3109683939","0.6","0.2","0.4","0.8","0.2841247045","0.4008790519","0.3109683939","0.1604236747","","","","","","","","","","","","","","75","K","2","","","206","main_expt",""
"","bandit","286","1688899","0.0-248.0-0.0","28148127","wem/bandit_party_1","A2531UD0IGT731","either","4","333","","","","","","","1","0","0","0.126388554","","0.6","0.2","0.4","0.8","","","","","0.3333225396","0.4202180382","0.2845075958","0.126388554","","","","","","","","","","76","L","3","","","207","main_expt",""
"","bandit","287","1690744","0.0-249.0-0.0","28148127","wem/bandit_party_1","A2531UD0IGT731","either","4","314","","","","","","","0","0","1","0.1602309633","","0.6","0.2","0.4","0.8","","","","","0.290219871","0.4168586074","0.2419557814","0.1602309633","","","","","","","","","","76","L","3","","","208","main_expt",""
"","bandit","288","1692597","0.0-250.0-0.0","28148127","wem/bandit_party_1","A2531UD0IGT731","either","4","324","","","","","","","0","0","1","0.2009997365","","0.6","0.2","0.4","0.8","","","","","0.3426384504","0.3949328033","0.2449545816","0.2009997365","","","","","","","","","","76","L","3","","","209","main_expt",""
"","bandit","289","1694427","0.0-251.0-0.0","28148127","wem/bandit_party_1","A2531UD0IGT731","either","4","304","","","","","","","0","0","1","0.1997114924","","0.6","0.2","0.4","0.8","","","","","0.2932754766","0.41782505","0.2176860071","0.1997114924","","","","","","","","","","76","L","3","","","210","main_expt",""
"","bandit","290","1696177","0.0-252.0-0.0","28148127","wem/bandit_party_1","A2531UD0IGT731","either","4","216","","","","","","","0","0","1","0.2460847292","","0.6","0.2","0.4","0.8","","","","","0.2522206247","0.4377941382","0.2460847292","0.2631807131","","","","","","","","","","75","K","2","","","211","main_expt",""
"","bandit","291","1698029","0.0-253.0-0.0","28148127","wem/bandit_party_1","A2531UD0IGT731","either","4","317","","","","","","","0","0","1","","0.4619006446","0.6","0.2","0.4","0.8","0.2323705111","0.4619006446","0.2017704833","0.2008991105","","","","","","","","","","","","","","74","J","1","","","212","main_expt",""
"","bandit","292","1699961","0.0-254.0-0.0","28148127","wem/bandit_party_1","A2531UD0IGT731","either","4","403","","","","","","","0","0","1","","0.2815580385","0.6","0.2","0.4","0.8","0.2815580385","0.4508737721","0.1891715169","0.1656487101","","","","","","","","","","","","","","72","H","0","img/none_selected.jpg","","213","main_expt",""
"","bandit","293","1701588","0.0-255.0-0.0","28148127","wem/bandit_party_1","A2531UD0IGT731","either","4","91","","","","","","","0","0","1","0.213788386","","0.6","0.2","0.4","0.8","","","","","0.2955812139","0.4639731149","0.1819308411","0.213788386","","","","","","","","","","76","L","3","","","214","main_expt",""
"","bandit","294","1703453","0.0-256.0-0.0","28148127","wem/bandit_party_1","A2531UD0IGT731","either","4","332","","","","","","","0","0","1","","0.1406935411","0.6","0.2","0.4","0.8","0.2988647484","0.4690757113","0.1406935411","0.2206736926","","","","","","","","","","","","","","75","K","2","","","215","main_expt",""
"","bandit","295","1705057","0.0-257.0-0.0","28148127","wem/bandit_party_1","A2531UD0IGT731","either","4","85","","","","","","","0","1","0","","0.206739756","0.6","0.2","0.4","0.8","0.3361974059","0.4685680314","0.206739756","0.2270120675","","","","","","","","","","","","","","75","K","2","","","216","main_expt",""
"","bandit","296","1707314","0.0-258.0-0.0","28148127","wem/bandit_party_1","A2531UD0IGT731","either","4","733","","","","","","","0","0","1","0.178624692","","0.6","0.2","0.4","0.8","","","","","0.2764506131","0.4873952874","0.178624692","0.2561581829","","","","","","","","","","75","K","2","","","217","main_expt",""
"","bandit","297","1709223","0.0-259.0-0.0","28148127","wem/bandit_party_1","A2531UD0IGT731","either","4","368","","","","","","","0","1","0","","0.2021641755","0.6","0.2","0.4","0.8","0.299893698","0.4790671899","0.2021641755","0.2785758431","","","","","","","","","","","","","","75","K","2","","","218","main_expt",""
"","bandit","298","1711475","0.0-260.0-0.0","28148127","wem/bandit_party_1","A2531UD0IGT731","either","4","721","","","","","","","0","0","1","","0.2076996705","0.6","0.2","0.4","0.8","0.3213687962","0.4769795117","0.2076996705","0.2707863597","","","","","","","","","","","","","","75","K","2","","","219","main_expt",""
"","bandit","299","1713490","0.0-261.0-0.0","28148127","wem/bandit_party_1","A2531UD0IGT731","either","4","478","","","","","","","0","0","1","","0.2479045362","0.6","0.2","0.4","0.8","0.3782095139","0.4746148145","0.2479045362","0.2262269101","","","","","","","","","","","","","","75","K","2","","","220","main_expt",""
"","bandit","300","1715323","0.0-262.0-0.0","28148127","wem/bandit_party_1","A2531UD0IGT731","either","4","305","","","","","","","0","0","1","","0.4789253058","0.6","0.2","0.4","0.8","0.3572699546","0.4789253058","0.251163546","0.2522421151","","","","","","","","","","","","","","74","J","1","","","221","main_expt",""
"","bandit","301","1716876","0.0-263.0-0.0","28148127","wem/bandit_party_1","A2531UD0IGT731","either","4","0","","","","","","","0","0","1","","0.2653622565","0.6","0.2","0.4","0.8","0.332217079","0.4765400837","0.2653622565","0.2323100388","","","","","","","","","","","","","","75","K","2","","","222","main_expt",""
"","bandit","302","1718776","0.0-264.0-0.0","28148127","wem/bandit_party_1","A2531UD0IGT731","either","4","370","","","","","","","1","0","0","0.2034578964","","0.6","0.2","0.4","0.8","","","","","0.3327789551","0.4872993944","0.2034578964","0.2013525365","","","","","","","","","","75","K","2","","","223","main_expt",""
"","bandit","303","1721344","0.0-265.0-0.0","28148127","wem/bandit_party_1","A2531UD0IGT731","either","4","1048","","","","","","","0","0","1","0.1176985371","","0.6","0.2","0.4","0.8","","","","","0.3720138676","0.4864577786","0.1176985371","0.2017363432","","","","","","","","","","75","K","2","","","224","main_expt",""
"","bandit","304","1723680","0.0-266.0-0.0","28148127","wem/bandit_party_1","A2531UD0IGT731","either","4","804","","","","","","","0","0","1","","0.08531446518","0.6","0.2","0.4","0.8","0.4035982493","0.4815865163","0.08531446518","0.1608447522","","","","","","","","","","","","","","75","K","2","","","225","main_expt",""
"","bandit","305","1726966","0.0-267.0-0.0","28148127","wem/bandit_party_1","A2531UD0IGT731","either","4","1758","","","","","","","0","0","1","","0.0901010045","0.6","0.2","0.4","0.8","0.3538577565","0.4781941344","0.0901010045","0.2023183299","","","","","","","","","","","","","","75","K","2","","","226","main_expt",""
"","bandit","306","1729717","0.0-268.0-0.0","28148127","wem/bandit_party_1","A2531UD0IGT731","either","4","1223","","","","","","","0","1","0","","0.06499555022","0.6","0.2","0.4","0.8","0.4205879778","0.4742279627","0.06499555022","0.1555458008","","","","","","","","","","","","","","75","K","2","","","227","main_expt",""
"","bandit","307","1731924","0.0-269.0-0.0","28148127","wem/bandit_party_1","A2531UD0IGT731","either","4","676","","","","","","","0","0","1","","0.06967502077","0.6","0.2","0.4","0.8","0.4082381823","0.4597327255","0.06967502077","0.1210896773","","","","","","","","","","","","","","75","K","2","","","228","main_expt",""
"","bandit","308","1734180","0.0-270.0-0.0","28148127","wem/bandit_party_1","A2531UD0IGT731","either","4","736","","","","","","","0","0","1","","0.07642173418","0.6","0.2","0.4","0.8","0.4274963613","0.4733003713","0.07642173418","0.1206830913","","","","","","","","","","","","","","75","K","2","","","229","main_expt",""
"","bandit","309","1736089","0.0-271.0-0.0","28148127","wem/bandit_party_1","A2531UD0IGT731","either","4","375","","","","","","","0","0","1","","0.04973788902","0.6","0.2","0.4","0.8","0.4362488765","0.4832022084","0.04973788902","0.1334008039","","","","","","","","","","","","","","75","K","2","","","230","main_expt",""
"","bandit","310","1738089","0.0-272.0-0.0","28148127","wem/bandit_party_1","A2531UD0IGT731","either","4","469","","","","","","","0","0","1","0.07419495466","","0.6","0.2","0.4","0.8","","","","","0.4420629534","0.4802630573","0.07419495466","0.1048467088","","","","","","","","","","75","K","2","","","231","main_expt",""
"","bandit","311","1739990","0.0-273.0-0.0","28148127","wem/bandit_party_1","A2531UD0IGT731","either","4","371","","","","","","","0","0","1","","0.08125260149","0.6","0.2","0.4","0.8","0.4287414635","0.4739318499","0.08125260149","0.1184002818","","","","","","","","","","","","","","75","K","2","","","232","main_expt",""
"","bandit","312","1742027","0.0-274.0-0.0","28148127","wem/bandit_party_1","A2531UD0IGT731","either","4","505","","","","","","","0","0","1","","0.06057073796","0.6","0.2","0.4","0.8","0.4395511981","0.4709765286","0.06057073796","0.08533064469","","","","","","","","","","","","","","75","K","2","","","233","main_expt",""
"","bandit","313","1744016","0.0-275.0-0.0","28148127","wem/bandit_party_1","A2531UD0IGT731","either","4","457","","","","","","","0","0","1","","0.1037411708","0.6","0.2","0.4","0.8","0.4479240545","0.4658145356","0.1037411708","0.1190123434","","","","","","","","","","","","","","75","K","2","","","234","main_expt",""
"","bandit","314","1746646","0.0-276.0-0.0","28148127","wem/bandit_party_1","A2531UD0IGT731","either","4","1086","","","","","","","1","0","0","0.1267441937","","0.6","0.2","0.4","0.8","","","","","0.4476644646","0.4312508187","0.1267441937","0.1392024459","","","","","","","","","","75","K","2","","","235","main_expt",""
"","bandit","315","1749045","0.0-277.0-0.0","28148127","wem/bandit_party_1","A2531UD0IGT731","either","4","868","","","","","","","0","0","1","","0.1002206095","0.6","0.2","0.4","0.8","0.457106966","0.4323277229","0.1002206095","0.1076242464","","","","","","","","","","","","","","75","K","2","","","236","main_expt",""
"","bandit","316","1751279","0.0-278.0-0.0","28148127","wem/bandit_party_1","A2531UD0IGT731","either","4","698","","","","","","","0","0","1","","0.08353940566","0.6","0.2","0.4","0.8","0.4097288684","0.4517679415","0.08353940566","0.1539911713","","","","","","","","","","","","","","75","K","2","","","237","main_expt",""
