"consent","trial_type","trial_index","time_elapsed","internal_node_id","subjID","study","MID","cond","drift","rt","responses","button_pressed","key_press","like","value","connected","gems","bombs","no_reward","GemPrChosen","BombPrChosen","GainOverPainPr_0","GainOverPainPr_1","GainOverPainPr_2","GainOverPainPr_3","LosePr_0","LosePr_1","LosePr_2","LosePr_3","WinPr_0","WinPr_1","WinPr_2","WinPr_3","Q0","Q1","Q2","gender","age","ethnicity","label","expt_phase","target","respCharCode","respKey","respChoiceNum","respChoice","practice","trial_counter","trial_label","Q0_index"
"GDM/GDM_behavioral_consent_30min_online.html","consent","0","10957","0.0-0.0","28663748","wem/bandit_party_1","A3RDH0U2H6JCBC","either","4","","","","","","","","","","","","","","","","","","","","","","","","","","","","","","","","","","","","","","","","",""
"","survey-text","1","17123","0.0-1.0","28663748","wem/bandit_party_1","A3RDH0U2H6JCBC","either","4","5155","{""Q0"":""A3RDH0U2H6JCBC""}","","","","","","","","","","","","","","","","","","","","","","","","","","","","","","","","","","","","","","",""
"","button-response","2","19481","0.0-2.0","28663748","wem/bandit_party_1","A3RDH0U2H6JCBC","either","4","1349","","0","","","","","","","","","","","","","","","","","","","","","","","","","","","","","","","","","","","","","",""
"","text-replacement","3","28943","0.0-3.0","28663748","wem/bandit_party_1","A3RDH0U2H6JCBC","either","4","8454","","","32","","","","","","","","","","","","","","","","","","","","","","","","","","","","","","","","","","","","",""
"","text-replacement","4","35906","0.0-4.0","28663748","wem/bandit_party_1","A3RDH0U2H6JCBC","either","4","6960","","","32","","","","","","","","","","","","","","","","","","","","","","","","","","","","","","","","","","","","",""
"","identification","5","46750","0.0-6.0-0.0","28663748","wem/bandit_party_1","A3RDH0U2H6JCBC","either","4","10820","","","","0","2","0","","","","","","","","","","","","","","","","","","","","","","","","pre","identification_pre","the Democratic Party","","","","","","","",""
"","identification","6","54667","0.0-6.0-1.0","28663748","wem/bandit_party_1","A3RDH0U2H6JCBC","either","4","6896","","","","1","5","1","","","","","","","","","","","","","","","","","","","","","","","","pre","identification_pre","the Republican party","","","","","","","",""
"","text-replacement","7","60426","0.0-7.0","28663748","wem/bandit_party_1","A3RDH0U2H6JCBC","either","4","4757","","","32","","","","","","","","","","","","","","","","","","","","","","","","","","","","","","","","","","","","",""
"","text-replacement","8","65016","0.0-8.0","28663748","wem/bandit_party_1","A3RDH0U2H6JCBC","either","4","4588","","","32","","","","","","","","","","","","","","","","","","","","","","","","","","","","","","","","","","","","",""
"","text-replacement","9","70747","0.0-9.0","28663748","wem/bandit_party_1","A3RDH0U2H6JCBC","either","4","5728","","","32","","","","","","","","","","","","","","","","","","","","","","","","","","","","","","","","","","","","",""
"","text-replacement","10","72995","0.0-10.0","28663748","wem/bandit_party_1","A3RDH0U2H6JCBC","either","4","2245","","","32","","","","","","","","","","","","","","","","","","","","","","","","","","","","","","","","","","","","",""
"","text-replacement","11","78351","0.0-11.0","28663748","wem/bandit_party_1","A3RDH0U2H6JCBC","either","4","5354","","","32","","","","","","","","","","","","","","","","","","","","","","","","","","","","","","","","","","","","",""
"","bandit","12","81691","0.0-12.0-0.0","28663748","wem/bandit_party_1","A3RDH0U2H6JCBC","either","4","1829","","","","","","","0","0","1","0","0","","","","","0","","","","0","","","","","","","","","","","","","74","J","0","img/none_selected_demo.jpg","true","0","",""
"","bandit","13","84194","0.0-13.0-0.0","28663748","wem/bandit_party_1","A3RDH0U2H6JCBC","either","4","995","","","","","","","0","0","1","0","0","","","","","0","","","","0","","","","","","","","","","","","","75","K","0","img/none_selected_demo.jpg","true","0","",""
"","text-replacement","14","87787","0.0-14.0","28663748","wem/bandit_party_1","A3RDH0U2H6JCBC","either","4","3591","","","32","","","","","","","","","","","","","","","","","","","","","","","","","","","","","","","","","","","","",""
"","text-replacement","15","94151","0.0-15.0","28663748","wem/bandit_party_1","A3RDH0U2H6JCBC","either","4","6361","","","32","","","","","","","","","","","","","","","","","","","","","","","","","","","","","","","","","","","","",""
"","text-replacement","16","100482","0.0-16.0","28663748","wem/bandit_party_1","A3RDH0U2H6JCBC","either","4","6329","","","32","","","","","","","","","","","","","","","","","","","","","","","","","","","","","","","","","","","","",""
"","text-replacement","17","103906","0.0-17.0","28663748","wem/bandit_party_1","A3RDH0U2H6JCBC","either","4","3421","","","32","","","","","","","","","","","","","","","","","","","","","","","","","","","","","","","","","","","","",""
"","bandit","18","106912","0.0-18.0-0.0","28663748","wem/bandit_party_1","A3RDH0U2H6JCBC","either","4","1497","","","","","","","1","0","0","0.8","","0.5","0.5","","","","","","","0.8","0.2","","","","","","","","","","","","74","J","0","img/none_selected_demo.jpg","true","0","80_20_practice",""
"","bandit","19","108880","0.0-18.0-1.0","28663748","wem/bandit_party_1","A3RDH0U2H6JCBC","either","4","462","","","","","","","1","0","0","0.2","","0.5","0.5","","","","","","","0.8","0.2","","","","","","","","","","","","75","K","1","","true","0","80_20_practice",""
"","bandit","20","110699","0.0-18.0-2.0","28663748","wem/bandit_party_1","A3RDH0U2H6JCBC","either","4","308","","","","","","","0","0","1","","0.8","0.5","0.5","","","0.8","0.2","","","","","","","","","","","","","","","","74","J","0","img/none_selected_demo.jpg","true","0","80_20_practice",""
"","bandit","21","112432","0.0-18.0-3.0","28663748","wem/bandit_party_1","A3RDH0U2H6JCBC","either","4","226","","","","","","","1","0","0","0.2","","0.5","0.5","","","","","","","0.8","0.2","","","","","","","","","","","","75","K","1","","true","0","80_20_practice",""
"","bandit","22","114179","0.0-18.0-4.0","28663748","wem/bandit_party_1","A3RDH0U2H6JCBC","either","4","240","","","","","","","0","0","1","0.2","","0.5","0.5","","","","","","","0.8","0.2","","","","","","","","","","","","75","K","1","","true","0","80_20_practice",""
"","bandit","23","115850","0.0-18.0-5.0","28663748","wem/bandit_party_1","A3RDH0U2H6JCBC","either","4","162","","","","","","","1","0","0","0.8","","0.5","0.5","","","","","","","0.8","0.2","","","","","","","","","","","","74","J","0","img/none_selected_demo.jpg","true","0","80_20_practice",""
"","bandit","24","117542","0.0-18.0-6.0","28663748","wem/bandit_party_1","A3RDH0U2H6JCBC","either","4","183","","","","","","","1","0","0","0.8","","0.5","0.5","","","","","","","0.8","0.2","","","","","","","","","","","","74","J","0","img/none_selected_demo.jpg","true","0","80_20_practice",""
"","bandit","25","119104","0.0-18.0-7.0","28663748","wem/bandit_party_1","A3RDH0U2H6JCBC","either","4","56","","","","","","","0","0","1","0.2","","0.5","0.5","","","","","","","0.8","0.2","","","","","","","","","","","","75","K","1","","true","0","80_20_practice",""
"","bandit","26","120650","0.0-18.0-8.0","28663748","wem/bandit_party_1","A3RDH0U2H6JCBC","either","4","37","","","","","","","1","0","0","0.8","","0.5","0.5","","","","","","","0.8","0.2","","","","","","","","","","","","74","J","0","img/none_selected_demo.jpg","true","0","80_20_practice",""
"","bandit","27","122236","0.0-18.0-9.0","28663748","wem/bandit_party_1","A3RDH0U2H6JCBC","either","4","75","","","","","","","0","0","1","0.2","","0.5","0.5","","","","","","","0.8","0.2","","","","","","","","","","","","75","K","1","","true","0","80_20_practice",""
"","bandit","28","123762","0.0-18.0-10.0","28663748","wem/bandit_party_1","A3RDH0U2H6JCBC","either","4","16","","","","","","","1","0","0","0.8","","0.5","0.5","","","","","","","0.8","0.2","","","","","","","","","","","","74","J","0","img/none_selected_demo.jpg","true","0","80_20_practice",""
"","bandit","29","125523","0.0-18.0-11.0","28663748","wem/bandit_party_1","A3RDH0U2H6JCBC","either","4","252","","","","","","","1","0","0","0.8","","0.5","0.5","","","","","","","0.8","0.2","","","","","","","","","","","","74","J","0","img/none_selected_demo.jpg","true","0","80_20_practice",""
"","bandit","30","127218","0.0-18.0-12.0","28663748","wem/bandit_party_1","A3RDH0U2H6JCBC","either","4","187","","","","","","","0","1","0","","0.8","0.5","0.5","","","0.8","0.2","","","","","","","","","","","","","","","","74","J","0","img/none_selected_demo.jpg","true","0","80_20_practice",""
"","bandit","31","129070","0.0-18.0-13.0","28663748","wem/bandit_party_1","A3RDH0U2H6JCBC","either","4","344","","","","","","","1","0","0","0.8","","0.5","0.5","","","","","","","0.8","0.2","","","","","","","","","","","","74","J","0","img/none_selected_demo.jpg","true","0","80_20_practice",""
"","bandit","32","130833","0.0-18.0-14.0","28663748","wem/bandit_party_1","A3RDH0U2H6JCBC","either","4","255","","","","","","","1","0","0","0.8","","0.5","0.5","","","","","","","0.8","0.2","","","","","","","","","","","","74","J","0","img/none_selected_demo.jpg","true","0","80_20_practice",""
"","bandit","33","132442","0.0-18.0-15.0","28663748","wem/bandit_party_1","A3RDH0U2H6JCBC","either","4","101","","","","","","","0","1","0","","0.8","0.5","0.5","","","0.8","0.2","","","","","","","","","","","","","","","","74","J","0","img/none_selected_demo.jpg","true","0","80_20_practice",""
"","bandit","34","134354","0.0-18.0-16.0","28663748","wem/bandit_party_1","A3RDH0U2H6JCBC","either","4","403","","","","","","","0","1","0","","0.8","0.5","0.5","","","0.8","0.2","","","","","","","","","","","","","","","","74","J","0","img/none_selected_demo.jpg","true","0","80_20_practice",""
"","bandit","35","136083","0.0-18.0-17.0","28663748","wem/bandit_party_1","A3RDH0U2H6JCBC","either","4","219","","","","","","","0","0","1","0.8","","0.5","0.5","","","","","","","0.8","0.2","","","","","","","","","","","","74","J","0","img/none_selected_demo.jpg","true","0","80_20_practice",""
"","bandit","36","137792","0.0-18.0-18.0","28663748","wem/bandit_party_1","A3RDH0U2H6JCBC","either","4","201","","","","","","","1","0","0","0.8","","0.5","0.5","","","","","","","0.8","0.2","","","","","","","","","","","","74","J","0","img/none_selected_demo.jpg","true","0","80_20_practice",""
"","bandit","37","139534","0.0-18.0-19.0","28663748","wem/bandit_party_1","A3RDH0U2H6JCBC","either","4","236","","","","","","","0","1","0","","0.8","0.5","0.5","","","0.8","0.2","","","","","","","","","","","","","","","","74","J","0","img/none_selected_demo.jpg","true","0","80_20_practice",""
"","text-replacement","38","141450","0.0-19.0","28663748","wem/bandit_party_1","A3RDH0U2H6JCBC","either","4","1912","","","32","","","","","","","","","","","","","","","","","","","","","","","","","","","","","","","","","","","","",""
"","bandit","39","144882","0.0-20.0-0.0","28663748","wem/bandit_party_1","A3RDH0U2H6JCBC","either","4","1923","","","","","","","1","0","0","1","0","","","","","0","1","","","1","0","","","","","","","","","","","","74","J","0","img/none_selected_demo.jpg","true","0","",""
"","text-replacement","40","294519","0.0-21.0","28663748","wem/bandit_party_1","A3RDH0U2H6JCBC","either","4","149631","","","32","","","","","","","","","","","","","","","","","","","","","","","","","","","","","","","","","","","","",""
"","text-replacement","41","296481","0.0-22.0","28663748","wem/bandit_party_1","A3RDH0U2H6JCBC","either","4","1959","","","32","","","","","","","","","","","","","","","","","","","","","","","","","","","","","","","","","","","","",""
"","text-replacement","42","305935","0.0-23.0","28663748","wem/bandit_party_1","A3RDH0U2H6JCBC","either","4","9452","","","32","","","","","","","","","","","","","","","","","","","","","","","","","","","","","","","","","","","","",""
"","text-replacement","43","308171","0.0-24.0","28663748","wem/bandit_party_1","A3RDH0U2H6JCBC","either","4","2232","","","32","","","","","","","","","","","","","","","","","","","","","","","","","","","","","","","","","","","","",""
"","text-replacement","44","314867","0.0-25.0","28663748","wem/bandit_party_1","A3RDH0U2H6JCBC","either","4","6693","","","32","","","","","","","","","","","","","","","","","","","","","","","","","","","","","","","","","","","","",""
"","text-replacement","45","316743","0.0-26.0","28663748","wem/bandit_party_1","A3RDH0U2H6JCBC","either","4","1872","","","32","","","","","","","","","","","","","","","","","","","","","","","","","","","","","","","","","","","","",""
"","text-replacement","46","322939","0.0-27.0","28663748","wem/bandit_party_1","A3RDH0U2H6JCBC","either","4","6192","","","32","","","","","","","","","","","","","","","","","","","","","","","","","","","","","","","","","","","","",""
"","text-replacement","47","328360","0.0-28.0","28663748","wem/bandit_party_1","A3RDH0U2H6JCBC","either","4","5416","","","32","","","","","","","","","","","","","","","","","","","","","","","","","","","","","","","","","","","","",""
"","text-replacement","48","333315","0.0-29.0","28663748","wem/bandit_party_1","A3RDH0U2H6JCBC","either","4","4952","","","32","","","","","","","","","","","","","","","","","","","","","","","","","","","","","","","","","","","","",""
"","text-replacement","49","334283","0.0-30.0","28663748","wem/bandit_party_1","A3RDH0U2H6JCBC","either","4","965","","","32","","","","","","","","","","","","","","","","","","","","","","","","","","","","","","","","","","","","",""
"","text-replacement","50","339855","0.0-31.0","28663748","wem/bandit_party_1","A3RDH0U2H6JCBC","either","4","5568","","","32","","","","","","","","","","","","","","","","","","","","","","","","","","","","","","","","","","","","",""
"","bandit","51","350362","0.0-32.0-0.0","28663748","wem/bandit_party_1","A3RDH0U2H6JCBC","either","4","8998","","","","","","","1","0","0","0.8","","0.5","0.5","0.5","0.5","","","","","0.8","0.2","0.6","0.2","","","","","","","","","","72","H","0","img/none_selected.jpg","true","0","full_practice",""
"","bandit","52","352365","0.0-32.0-1.0","28663748","wem/bandit_party_1","A3RDH0U2H6JCBC","either","4","493","","","","","","","0","0","1","","0.8","0.5","0.5","0.5","0.5","0.8","0.2","0.6","0.2","","","","","","","","","","","","","","72","H","0","img/none_selected.jpg","true","0","full_practice",""
"","bandit","53","354170","0.0-32.0-2.0","28663748","wem/bandit_party_1","A3RDH0U2H6JCBC","either","4","294","","","","","","","1","0","0","0.8","","0.5","0.5","0.5","0.5","","","","","0.8","0.2","0.6","0.2","","","","","","","","","","72","H","0","img/none_selected.jpg","true","0","full_practice",""
"","bandit","54","355923","0.0-32.0-3.0","28663748","wem/bandit_party_1","A3RDH0U2H6JCBC","either","4","242","","","","","","","0","0","1","","0.8","0.5","0.5","0.5","0.5","0.8","0.2","0.6","0.2","","","","","","","","","","","","","","72","H","0","img/none_selected.jpg","true","0","full_practice",""
"","bandit","55","357676","0.0-32.0-4.0","28663748","wem/bandit_party_1","A3RDH0U2H6JCBC","either","4","243","","","","","","","1","0","0","0.8","","0.5","0.5","0.5","0.5","","","","","0.8","0.2","0.6","0.2","","","","","","","","","","72","H","0","img/none_selected.jpg","true","0","full_practice",""
"","bandit","56","359474","0.0-32.0-5.0","28663748","wem/bandit_party_1","A3RDH0U2H6JCBC","either","4","290","","","","","","","1","0","0","0.8","","0.5","0.5","0.5","0.5","","","","","0.8","0.2","0.6","0.2","","","","","","","","","","72","H","0","img/none_selected.jpg","true","0","full_practice",""
"","bandit","57","361266","0.0-32.0-6.0","28663748","wem/bandit_party_1","A3RDH0U2H6JCBC","either","4","283","","","","","","","1","0","0","0.8","","0.5","0.5","0.5","0.5","","","","","0.8","0.2","0.6","0.2","","","","","","","","","","72","H","0","img/none_selected.jpg","true","0","full_practice",""
"","bandit","58","363078","0.0-32.0-7.0","28663748","wem/bandit_party_1","A3RDH0U2H6JCBC","either","4","300","","","","","","","1","0","0","0.8","","0.5","0.5","0.5","0.5","","","","","0.8","0.2","0.6","0.2","","","","","","","","","","72","H","0","img/none_selected.jpg","true","0","full_practice",""
"","bandit","59","364953","0.0-32.0-8.0","28663748","wem/bandit_party_1","A3RDH0U2H6JCBC","either","4","367","","","","","","","1","0","0","0.8","","0.5","0.5","0.5","0.5","","","","","0.8","0.2","0.6","0.2","","","","","","","","","","72","H","0","img/none_selected.jpg","true","0","full_practice",""
"","bandit","60","367098","0.0-32.0-9.0","28663748","wem/bandit_party_1","A3RDH0U2H6JCBC","either","4","639","","","","","","","0","0","1","0.8","","0.5","0.5","0.5","0.5","","","","","0.8","0.2","0.6","0.2","","","","","","","","","","72","H","0","img/none_selected.jpg","true","0","full_practice",""
"","bandit","61","368868","0.0-32.0-10.0","28663748","wem/bandit_party_1","A3RDH0U2H6JCBC","either","4","259","","","","","","","0","1","0","","0.8","0.5","0.5","0.5","0.5","0.8","0.2","0.6","0.2","","","","","","","","","","","","","","72","H","0","img/none_selected.jpg","true","0","full_practice",""
"","bandit","62","370562","0.0-32.0-11.0","28663748","wem/bandit_party_1","A3RDH0U2H6JCBC","either","4","182","","","","","","","0","0","1","","0.8","0.5","0.5","0.5","0.5","0.8","0.2","0.6","0.2","","","","","","","","","","","","","","72","H","0","img/none_selected.jpg","true","0","full_practice",""
"","bandit","63","372248","0.0-32.0-12.0","28663748","wem/bandit_party_1","A3RDH0U2H6JCBC","either","4","181","","","","","","","1","0","0","0.8","","0.5","0.5","0.5","0.5","","","","","0.8","0.2","0.6","0.2","","","","","","","","","","72","H","0","img/none_selected.jpg","true","0","full_practice",""
"","bandit","64","374019","0.0-32.0-13.0","28663748","wem/bandit_party_1","A3RDH0U2H6JCBC","either","4","261","","","","","","","0","1","0","","0.8","0.5","0.5","0.5","0.5","0.8","0.2","0.6","0.2","","","","","","","","","","","","","","72","H","0","img/none_selected.jpg","true","0","full_practice",""
"","bandit","65","375708","0.0-32.0-14.0","28663748","wem/bandit_party_1","A3RDH0U2H6JCBC","either","4","177","","","","","","","1","0","0","0.8","","0.5","0.5","0.5","0.5","","","","","0.8","0.2","0.6","0.2","","","","","","","","","","72","H","0","img/none_selected.jpg","true","0","full_practice",""
"","bandit","66","377355","0.0-32.0-15.0","28663748","wem/bandit_party_1","A3RDH0U2H6JCBC","either","4","135","","","","","","","1","0","0","0.8","","0.5","0.5","0.5","0.5","","","","","0.8","0.2","0.6","0.2","","","","","","","","","","72","H","0","img/none_selected.jpg","true","0","full_practice",""
"","bandit","67","381594","0.0-32.0-16.0","28663748","wem/bandit_party_1","A3RDH0U2H6JCBC","either","4","2729","","","","","","","1","0","0","0.8","","0.5","0.5","0.5","0.5","","","","","0.8","0.2","0.6","0.2","","","","","","","","","","72","H","0","img/none_selected.jpg","true","0","full_practice",""
"","bandit","68","383195","0.0-32.0-17.0","28663748","wem/bandit_party_1","A3RDH0U2H6JCBC","either","4","91","","","","","","","0","1","0","","0.8","0.5","0.5","0.5","0.5","0.8","0.2","0.6","0.2","","","","","","","","","","","","","","72","H","0","img/none_selected.jpg","true","0","full_practice",""
"","bandit","69","384929","0.0-32.0-18.0","28663748","wem/bandit_party_1","A3RDH0U2H6JCBC","either","4","221","","","","","","","1","0","0","0.8","","0.5","0.5","0.5","0.5","","","","","0.8","0.2","0.6","0.2","","","","","","","","","","72","H","0","img/none_selected.jpg","true","0","full_practice",""
"","bandit","70","386445","0.0-32.0-19.0","28663748","wem/bandit_party_1","A3RDH0U2H6JCBC","either","4","7","","","","","","","1","0","0","0.8","","0.5","0.5","0.5","0.5","","","","","0.8","0.2","0.6","0.2","","","","","","","","","","72","H","0","img/none_selected.jpg","true","0","full_practice",""
"","text","71","388676","0.0-33.0","28663748","wem/bandit_party_1","A3RDH0U2H6JCBC","either","4","2213","","","32","","","","","","","","","","","","","","","","","","","","","","","","","","","","","","","","","","","","",""
"","text-replacement","72","425311","0.0-34.0","28663748","wem/bandit_party_1","A3RDH0U2H6JCBC","either","4","35627","","","32","","","","","","","","","","","","","","","","","","","","","","","","","","","","","","","","","","","","",""
"","text-replacement","73","435170","0.0-35.0","28663748","wem/bandit_party_1","A3RDH0U2H6JCBC","either","4","9854","","","32","","","","","","","","","","","","","","","","","","","","","","","","","","","","","","","","","","","","",""
"","text-replacement","74","441055","0.0-36.0","28663748","wem/bandit_party_1","A3RDH0U2H6JCBC","either","4","5880","","","32","","","","","","","","","","","","","","","","","","","","","","","","","","","","","","","","","","","","",""
"","text-replacement","75","445682","0.0-37.0","28663748","wem/bandit_party_1","A3RDH0U2H6JCBC","either","4","4623","","","32","","","","","","","","","","","","","","","","","","","","","","","","","","","","","","","","","","","","",""
"","text-replacement","76","449682","0.0-38.0","28663748","wem/bandit_party_1","A3RDH0U2H6JCBC","either","4","3994","","","32","","","","","","","","","","","","","","","","","","","","","","","","","","","","","","","","","","","","",""
"","survey-multi-choice-replacement","77","455047","0.0-39.0-0.0","28663748","wem/bandit_party_1","A3RDH0U2H6JCBC","either","4","5352","","","","","","","","","","","","","","","","","","","","","","","","Money will be added to the pool for <span style='color:red;'>REPUBLICANS</span>","","","","","","","attn_check","","","","","","","","","0"
"","survey-multi-choice-replacement","78","459298","0.0-40.0-0.0","28663748","wem/bandit_party_1","A3RDH0U2H6JCBC","either","4","3233","","","","","","","","","","","","","","","","","","","","","","","","Equal amounts of money will be added to the pool for <span style='color:red;'>REPUBLICANS</span> and subtracted from the pool for <span style='color:blue;'>DEMOCRATS</span>","","","","","","","attn_check","","","","","","","","","2"
"","survey-multi-choice-replacement","79","462502","0.0-41.0-0.0","28663748","wem/bandit_party_1","A3RDH0U2H6JCBC","either","4","2198","","","","","","","","","","","","","","","","","","","","","","","","No money will be added to either pool","","","","","","","attn_check","","","","","","","","","3"
"","bandit","80","466791","0.0-42.0-0.0","28663748","wem/bandit_party_1","A3RDH0U2H6JCBC","either","4","1779","","","","","","","1","0","0","0.2771551185","","0.6","0.2","0.8","0.4","","","","","0.2771551185","0.3242650943","0.3894728165","0.3525715257","","","","","","","","","","72","H","0","img/none_selected.jpg","","1","main_expt",""
"","bandit","81","470338","0.0-43.0-0.0","28663748","wem/bandit_party_1","A3RDH0U2H6JCBC","either","4","2041","","","","","","","0","0","1","0.3030893157","","0.6","0.2","0.8","0.4","","","","","0.3030893157","0.3296228245","0.363660736","0.390153736","","","","","","","","","","72","H","0","img/none_selected.jpg","","2","main_expt",""
"","bandit","82","472684","0.0-44.0-0.0","28663748","wem/bandit_party_1","A3RDH0U2H6JCBC","either","4","835","","","","","","","0","0","1","0.3211059343","","0.6","0.2","0.8","0.4","","","","","0.3211059343","0.3102780753","0.3842171554","0.3725447061","","","","","","","","","","72","H","0","img/none_selected.jpg","","3","main_expt",""
"","bandit","83","474786","0.0-45.0-0.0","28663748","wem/bandit_party_1","A3RDH0U2H6JCBC","either","4","592","","","","","","","0","0","1","","0.2749892112","0.6","0.2","0.8","0.4","0.2804386453","0.2749892112","0.3831963053","0.3431524481","","","","","","","","","","","","","","74","J","1","","","4","main_expt",""
"","bandit","84","477328","0.0-46.0-0.0","28663748","wem/bandit_party_1","A3RDH0U2H6JCBC","either","4","1029","","","","","","","0","0","1","","0.3037824898","0.6","0.2","0.8","0.4","0.2609559086","0.3037824898","0.4056596471","0.3448007793","","","","","","","","","","","","","","74","J","1","","","5","main_expt",""
"","bandit","85","481299","0.0-47.0-0.0","28663748","wem/bandit_party_1","A3RDH0U2H6JCBC","either","4","2457","","","","","","","0","1","0","","0.3217417103","0.6","0.2","0.8","0.4","0.2259287768","0.3217417103","0.4409946319","0.3980888019","","","","","","","","","","","","","","74","J","1","","","6","main_expt",""
"","bandit","86","483130","0.0-48.0-0.0","28663748","wem/bandit_party_1","A3RDH0U2H6JCBC","either","4","321","","","","","","","0","0","1","0.3018715163","","0.6","0.2","0.8","0.4","","","","","0.2433618728","0.3018715163","0.3821747998","0.3693121862","","","","","","","","","","74","J","1","","","7","main_expt",""
"","bandit","87","484858","0.0-49.0-0.0","28663748","wem/bandit_party_1","A3RDH0U2H6JCBC","either","4","218","","","","","","","0","0","1","","0.3643645816","0.6","0.2","0.8","0.4","0.2025356769","0.3643645816","0.3841844813","0.2933697555","","","","","","","","","","","","","","74","J","1","","","8","main_expt",""
"","bandit","88","486626","0.0-50.0-0.0","28663748","wem/bandit_party_1","A3RDH0U2H6JCBC","either","4","256","","","","","","","0","0","1","0.3412237964","","0.6","0.2","0.8","0.4","","","","","0.1441028094","0.3418610374","0.3412237964","0.3036212831","","","","","","","","","","75","K","2","","","9","main_expt",""
"","bandit","89","488237","0.0-51.0-0.0","28663748","wem/bandit_party_1","A3RDH0U2H6JCBC","either","4","96","","","","","","","0","0","1","0.3256420777","","0.6","0.2","0.8","0.4","","","","","0.1736005971","0.3190157878","0.3256420777","0.308020301","","","","","","","","","","75","K","2","","","10","main_expt",""
"","bandit","90","490252","0.0-52.0-0.0","28663748","wem/bandit_party_1","A3RDH0U2H6JCBC","either","4","499","","","","","","","0","0","1","0.3514007431","","0.6","0.2","0.8","0.4","","","","","0.1836365694","0.2998731478","0.3514007431","0.3065973113","","","","","","","","","","75","K","2","","","11","main_expt",""
"","bandit","91","491880","0.0-53.0-0.0","28663748","wem/bandit_party_1","A3RDH0U2H6JCBC","either","4","118","","","","","","","1","0","0","0.3271859636","","0.6","0.2","0.8","0.4","","","","","0.2143869662","0.2942822571","0.3722032088","0.3271859636","","","","","","","","","","76","L","3","","","12","main_expt",""
"","bandit","92","493897","0.0-54.0-0.0","28663748","wem/bandit_party_1","A3RDH0U2H6JCBC","either","4","507","","","","","","","0","1","0","","0.2761076709","0.6","0.2","0.8","0.4","0.1637139448","0.3009212619","0.3681707299","0.2761076709","","","","","","","","","","","","","","76","L","3","","","13","main_expt",""
"","bandit","93","495754","0.0-55.0-0.0","28663748","wem/bandit_party_1","A3RDH0U2H6JCBC","either","4","345","","","","","","","0","0","1","0.2311164494","","0.6","0.2","0.8","0.4","","","","","0.1488535162","0.3227424667","0.3528222564","0.2311164494","","","","","","","","","","76","L","3","","","14","main_expt",""
"","bandit","94","497269","0.0-56.0-0.0","28663748","wem/bandit_party_1","A3RDH0U2H6JCBC","either","4","1","","","","","","","0","1","0","","0.2905977425","0.6","0.2","0.8","0.4","0.1332411271","0.3547546862","0.3738838661","0.2905977425","","","","","","","","","","","","","","76","L","3","","","15","main_expt",""
"","bandit","95","499724","0.0-57.0-0.0","28663748","wem/bandit_party_1","A3RDH0U2H6JCBC","either","4","947","","","","","","","0","0","1","0.2924554969","","0.6","0.2","0.8","0.4","","","","","0.09882415698","0.3241157583","0.3385239332","0.2924554969","","","","","","","","","","76","L","3","","","16","main_expt",""
"","bandit","96","501715","0.0-58.0-0.0","28663748","wem/bandit_party_1","A3RDH0U2H6JCBC","either","4","479","","","","","","","0","0","1","0.3114836302","","0.6","0.2","0.8","0.4","","","","","0.1069157009","0.3363410386","0.3111355138","0.3114836302","","","","","","","","","","76","L","3","","","17","main_expt",""
"","bandit","97","503576","0.0-59.0-0.0","28663748","wem/bandit_party_1","A3RDH0U2H6JCBC","either","4","344","","","","","","","0","0","1","0.3215333475","","0.6","0.2","0.8","0.4","","","","","0.134958137","0.3880947854","0.3487767647","0.3215333475","","","","","","","","","","76","L","3","","","18","main_expt",""
"","bandit","98","505362","0.0-60.0-0.0","28663748","wem/bandit_party_1","A3RDH0U2H6JCBC","either","4","274","","","","","","","0","0","1","0.2733398822","","0.6","0.2","0.8","0.4","","","","","0.1230418706","0.4116912081","0.3010303499","0.2733398822","","","","","","","","","","76","L","3","","","19","main_expt",""
"","bandit","99","507146","0.0-61.0-0.0","28663748","wem/bandit_party_1","A3RDH0U2H6JCBC","either","4","273","","","","","","","0","0","1","0.2907203997","","0.6","0.2","0.8","0.4","","","","","0.09866604889","0.3973894305","0.2907203997","0.2351410235","","","","","","","","","","75","K","2","","","20","main_expt",""
"","bandit","100","508987","0.0-62.0-0.0","28663748","wem/bandit_party_1","A3RDH0U2H6JCBC","either","4","328","","","","","","","0","0","1","","0.3088108907","0.6","0.2","0.8","0.4","0.1021222834","0.369037109","0.3088108907","0.2257810982","","","","","","","","","","","","","","75","K","2","","","21","main_expt",""
"","bandit","101","510657","0.0-63.0-0.0","28663748","wem/bandit_party_1","A3RDH0U2H6JCBC","either","4","156","","","","","","","0","1","0","","0.4179468344","0.6","0.2","0.8","0.4","0.1234138809","0.4179468344","0.349202701","0.2221856846","","","","","","","","","","","","","","74","J","1","","","22","main_expt",""
"","bandit","102","512378","0.0-64.0-0.0","28663748","wem/bandit_party_1","A3RDH0U2H6JCBC","either","4","209","","","","","","","0","0","1","0.4276062926","","0.6","0.2","0.8","0.4","","","","","0.1030640584","0.4276062926","0.3785068464","0.2127124712","","","","","","","","","","74","J","1","","","23","main_expt",""
"","bandit","103","514042","0.0-65.0-0.0","28663748","wem/bandit_party_1","A3RDH0U2H6JCBC","either","4","153","","","","","","","0","0","1","0.4078122208","","0.6","0.2","0.8","0.4","","","","","0.1261035851","0.4078122208","0.4012919653","0.1882566648","","","","","","","","","","74","J","1","","","24","main_expt",""
"","bandit","104","515752","0.0-66.0-0.0","28663748","wem/bandit_party_1","A3RDH0U2H6JCBC","either","4","201","","","","","","","0","0","1","","0.3950411191","0.6","0.2","0.8","0.4","0.1796705612","0.3950411191","0.400899794","0.1273223766","","","","","","","","","","","","","","74","J","1","","","25","main_expt",""
"","bandit","105","517386","0.0-67.0-0.0","28663748","wem/bandit_party_1","A3RDH0U2H6JCBC","either","4","122","","","","","","","0","0","1","","0.2414651519","0.6","0.2","0.8","0.4","0.2414651519","0.4322303329","0.4126274585","0.15747458","","","","","","","","","","","","","","72","H","0","img/none_selected.jpg","","26","main_expt",""
"","bandit","106","519082","0.0-68.0-0.0","28663748","wem/bandit_party_1","A3RDH0U2H6JCBC","either","4","185","","","","","","","0","0","1","","0.2005374927","0.6","0.2","0.8","0.4","0.2005374927","0.4353643722","0.3992263875","0.1442684908","","","","","","","","","","","","","","72","H","0","img/none_selected.jpg","","27","main_expt",""
"","bandit","107","521096","0.0-69.0-0.0","28663748","wem/bandit_party_1","A3RDH0U2H6JCBC","either","4","501","","","","","","","0","1","0","","0.3197257227","0.6","0.2","0.8","0.4","0.3197257227","0.4464017809","0.3846584236","0.2255404594","","","","","","","","","","","","","","72","H","0","img/none_selected.jpg","","28","main_expt",""
"","bandit","108","523466","0.0-70.0-0.0","28663748","wem/bandit_party_1","A3RDH0U2H6JCBC","either","4","859","","","","","","","1","0","0","0.3141869899","","0.6","0.2","0.8","0.4","","","","","0.3141869899","0.4417109462","0.3561298134","0.2730951691","","","","","","","","","","72","H","0","img/none_selected.jpg","","29","main_expt",""
"","bandit","109","525331","0.0-71.0-0.0","28663748","wem/bandit_party_1","A3RDH0U2H6JCBC","either","4","353","","","","","","","0","1","0","","0.3445991012","0.6","0.2","0.8","0.4","0.3445991012","0.4065908859","0.3101363315","0.2890412698","","","","","","","","","","","","","","72","H","0","img/none_selected.jpg","","30","main_expt",""
"","bandit","110","527154","0.0-72.0-0.0","28663748","wem/bandit_party_1","A3RDH0U2H6JCBC","either","4","311","","","","","","","1","0","0","0.3456655029","","0.6","0.2","0.8","0.4","","","","","0.3456655029","0.3954582793","0.3322219809","0.3309226042","","","","","","","","","","72","H","0","img/none_selected.jpg","","31","main_expt",""
"","bandit","111","528890","0.0-73.0-0.0","28663748","wem/bandit_party_1","A3RDH0U2H6JCBC","either","4","225","","","","","","","0","1","0","","0.3826172224","0.6","0.2","0.8","0.4","0.3826172224","0.3716723047","0.3516269472","0.3519301717","","","","","","","","","","","","","","72","H","0","img/none_selected.jpg","","32","main_expt",""
"","bandit","112","530723","0.0-74.0-0.0","28663748","wem/bandit_party_1","A3RDH0U2H6JCBC","either","4","325","","","","","","","0","0","1","0.3804083149","","0.6","0.2","0.8","0.4","","","","","0.3804083149","0.3799724366","0.3852085553","0.3414953842","","","","","","","","","","72","H","0","img/none_selected.jpg","","33","main_expt",""
"","bandit","113","532501","0.0-75.0-0.0","28663748","wem/bandit_party_1","A3RDH0U2H6JCBC","either","4","268","","","","","","","0","1","0","","0.3808178469","0.6","0.2","0.8","0.4","0.3808178469","0.409480615","0.4196644934","0.2938412915","","","","","","","","","","","","","","72","H","0","img/none_selected.jpg","","34","main_expt",""
"","bandit","114","534195","0.0-76.0-0.0","28663748","wem/bandit_party_1","A3RDH0U2H6JCBC","either","4","183","","","","","","","0","1","0","","0.376129724","0.6","0.2","0.8","0.4","0.376129724","0.3869649509","0.420891004","0.2256616696","","","","","","","","","","","","","","72","H","0","img/none_selected.jpg","","35","main_expt",""
"","bandit","115","536163","0.0-77.0-0.0","28663748","wem/bandit_party_1","A3RDH0U2H6JCBC","either","4","456","","","","","","","0","0","1","","0.4027809904","0.6","0.2","0.8","0.4","0.4027809904","0.3045389962","0.3808881167","0.2525957923","","","","","","","","","","","","","","72","H","0","img/none_selected.jpg","","36","main_expt",""
"","bandit","116","537811","0.0-78.0-0.0","28663748","wem/bandit_party_1","A3RDH0U2H6JCBC","either","4","136","","","","","","","0","0","1","","0.3715556026","0.6","0.2","0.8","0.4","0.3715556026","0.2954217214","0.3634360393","0.2333373749","","","","","","","","","","","","","","72","H","0","img/none_selected.jpg","","37","main_expt",""
"","bandit","117","539587","0.0-79.0-0.0","28663748","wem/bandit_party_1","A3RDH0U2H6JCBC","either","4","263","","","","","","","0","0","1","0.354842885","","0.6","0.2","0.8","0.4","","","","","0.354842885","0.2749906923","0.3432691328","0.2126884676","","","","","","","","","","72","H","0","img/none_selected.jpg","","38","main_expt",""
"","bandit","118","541387","0.0-80.0-0.0","28663748","wem/bandit_party_1","A3RDH0U2H6JCBC","either","4","288","","","","","","","0","0","1","","0.3066825603","0.6","0.2","0.8","0.4","0.3066825603","0.2911873598","0.3113322025","0.212498526","","","","","","","","","","","","","","72","H","0","img/none_selected.jpg","","39","main_expt",""
"","bandit","119","543198","0.0-81.0-0.0","28663748","wem/bandit_party_1","A3RDH0U2H6JCBC","either","4","299","","","","","","","1","0","0","0.3208648015","","0.6","0.2","0.8","0.4","","","","","0.3208648015","0.3066149412","0.3298138996","0.2031275136","","","","","","","","","","72","H","0","img/none_selected.jpg","","40","main_expt",""
"","bandit","120","553487","0.0-82.0-0.0","28663748","wem/bandit_party_1","A3RDH0U2H6JCBC","either","4","8776","","","","","","","0","0","1","0.2774570704","","0.6","0.2","0.8","0.4","","","","","0.2774570704","0.2612722093","0.3590557929","0.2409224204","","","","","","","","","","72","H","0","img/none_selected.jpg","","41","main_expt",""
"","bandit","121","555164","0.0-83.0-0.0","28663748","wem/bandit_party_1","A3RDH0U2H6JCBC","either","4","163","","","","","","","0","0","1","","0.3092882543","0.6","0.2","0.8","0.4","0.3092882543","0.2579482203","0.3455434044","0.2166695961","","","","","","","","","","","","","","72","H","0","img/none_selected.jpg","","42","main_expt",""
"","bandit","122","556857","0.0-84.0-0.0","28663748","wem/bandit_party_1","A3RDH0U2H6JCBC","either","4","183","","","","","","","0","0","1","","0.2232302517","0.6","0.2","0.8","0.4","0.3161251671","0.2232302517","0.4020043176","0.2314197793","","","","","","","","","","","","","","74","J","1","","","43","main_expt",""
"","bandit","123","558675","0.0-85.0-0.0","28663748","wem/bandit_party_1","A3RDH0U2H6JCBC","either","4","308","","","","","","","0","0","1","0.2435669349","","0.6","0.2","0.8","0.4","","","","","0.3032549762","0.2435669349","0.4088695108","0.1889371852","","","","","","","","","","74","J","1","","","44","main_expt",""
"","bandit","124","563839","0.0-86.0-0.0","28663748","wem/bandit_party_1","A3RDH0U2H6JCBC","either","4","3652","","","","","","","0","0","1","0.3914045207","","0.6","0.2","0.8","0.4","","","","","0.3012359134","0.1885724617","0.3914045207","0.2152104473","","","","","","","","","","75","K","2","","","45","main_expt",""
"","bandit","125","565378","0.0-87.0-0.0","28663748","wem/bandit_party_1","A3RDH0U2H6JCBC","either","4","26","","","","","","","0","0","1","","0.2260726972","0.6","0.2","0.8","0.4","0.2994346937","0.104230756","0.3682142312","0.2260726972","","","","","","","","","","","","","","76","L","3","","","46","main_expt",""
"","bandit","126","566957","0.0-88.0-0.0","28663748","wem/bandit_party_1","A3RDH0U2H6JCBC","either","4","63","","","","","","","1","0","0","0.3462276735","","0.6","0.2","0.8","0.4","","","","","0.3169549043","0.09013225529","0.3462276735","0.2330399618","","","","","","","","","","75","K","2","","","47","main_expt",""
"","bandit","127","568498","0.0-89.0-0.0","28663748","wem/bandit_party_1","A3RDH0U2H6JCBC","either","4","28","","","","","","","0","0","1","0.3501405617","","0.6","0.2","0.8","0.4","","","","","0.3137179834","0.1066227192","0.3501405617","0.2769685944","","","","","","","","","","75","K","2","","","48","main_expt",""
"","bandit","128","570457","0.0-90.0-0.0","28663748","wem/bandit_party_1","A3RDH0U2H6JCBC","either","4","447","","","","","","","0","0","1","0.3607669766","","0.6","0.2","0.8","0.4","","","","","0.3026837323","0.1273062614","0.3607669766","0.2954986192","","","","","","","","","","75","K","2","","","49","main_expt",""
"","bandit","129","572329","0.0-91.0-0.0","28663748","wem/bandit_party_1","A3RDH0U2H6JCBC","either","4","359","","","","","","","0","0","1","","0.08158159543","0.6","0.2","0.8","0.4","0.2690248343","0.08158159543","0.3776327681","0.2730110453","","","","","","","","","","","","","","74","J","1","","","50","main_expt",""
"","bandit","130","574055","0.0-92.0-0.0","28663748","wem/bandit_party_1","A3RDH0U2H6JCBC","either","4","212","","","","","","","1","0","0","0.2407215714","","0.6","0.2","0.8","0.4","","","","","0.2407215714","0.08035098666","0.3922012959","0.2672659715","","","","","","","","","","72","H","0","img/none_selected.jpg","","51","main_expt",""
"","bandit","131","575836","0.0-93.0-0.0","28663748","wem/bandit_party_1","A3RDH0U2H6JCBC","either","4","265","","","","","","","0","0","1","","0.2758158767","0.6","0.2","0.8","0.4","0.2758158767","0.1007468434","0.3532085343","0.2552972095","","","","","","","","","","","","","","72","H","0","img/none_selected.jpg","","52","main_expt",""
"","bandit","132","577626","0.0-94.0-0.0","28663748","wem/bandit_party_1","A3RDH0U2H6JCBC","either","4","277","","","","","","","0","0","1","","0.2661511239","0.6","0.2","0.8","0.4","0.2661511239","0.1479770317","0.3597378762","0.1954439593","","","","","","","","","","","","","","72","H","0","img/none_selected.jpg","","53","main_expt",""
"","bandit","133","579389","0.0-95.0-0.0","28663748","wem/bandit_party_1","A3RDH0U2H6JCBC","either","4","247","","","","","","","0","0","1","0.1450389045","","0.6","0.2","0.8","0.4","","","","","0.250303373","0.1450389045","0.3553644404","0.1250298759","","","","","","","","","","74","J","1","","","54","main_expt",""
"","bandit","134","581097","0.0-96.0-0.0","28663748","wem/bandit_party_1","A3RDH0U2H6JCBC","either","4","197","","","","","","","0","1","0","","0.3427354451","0.6","0.2","0.8","0.4","0.1850572083","0.1678096349","0.3427354451","0.1224949652","","","","","","","","","","","","","","75","K","2","","","55","main_expt",""
"","bandit","135","582915","0.0-97.0-0.0","28663748","wem/bandit_party_1","A3RDH0U2H6JCBC","either","4","304","","","","","","","0","0","1","0.3158877586","","0.6","0.2","0.8","0.4","","","","","0.2410157884","0.1748395718","0.3158877586","0.1312048923","","","","","","","","","","75","K","2","","","56","main_expt",""
"","bandit","136","584692","0.0-98.0-0.0","28663748","wem/bandit_party_1","A3RDH0U2H6JCBC","either","4","265","","","","","","","0","0","1","0.3224611445","","0.6","0.2","0.8","0.4","","","","","0.2657224069","0.146986137","0.3224611445","0.14452077","","","","","","","","","","75","K","2","","","57","main_expt",""
"","bandit","137","586507","0.0-99.0-0.0","28663748","wem/bandit_party_1","A3RDH0U2H6JCBC","either","4","298","","","","","","","0","0","1","","0.3378672788","0.6","0.2","0.8","0.4","0.2361308133","0.1316135006","0.3378672788","0.1198415177","","","","","","","","","","","","","","75","K","2","","","58","main_expt",""
"","bandit","138","588251","0.0-100.0-0.0","28663748","wem/bandit_party_1","A3RDH0U2H6JCBC","either","4","233","","","","","","","1","0","0","0.1674914914","","0.6","0.2","0.8","0.4","","","","","0.2078360154","0.1776120447","0.3438075972","0.1674914914","","","","","","","","","","76","L","3","","","59","main_expt",""
"","bandit","139","590116","0.0-101.0-0.0","28663748","wem/bandit_party_1","A3RDH0U2H6JCBC","either","4","351","","","","","","","0","0","1","0.147959707","","0.6","0.2","0.8","0.4","","","","","0.2256957235","0.2034864675","0.2950987239","0.147959707","","","","","","","","","","76","L","3","","","60","main_expt",""
"","bandit","140","592051","0.0-102.0-0.0","28663748","wem/bandit_party_1","A3RDH0U2H6JCBC","either","4","425","","","","","","","0","0","1","0.1217284172","","0.6","0.2","0.8","0.4","","","","","0.2713547376","0.1325668513","0.2939622289","0.1217284172","","","","","","","","","","76","L","3","","","61","main_expt",""
"","bandit","141","594026","0.0-103.0-0.0","28663748","wem/bandit_party_1","A3RDH0U2H6JCBC","either","4","464","","","","","","","0","0","1","0.1392905859","","0.6","0.2","0.8","0.4","","","","","0.2800078023","0.125492747","0.2907096119","0.1392905859","","","","","","","","","","76","L","3","","","62","main_expt",""
"","bandit","142","595878","0.0-104.0-0.0","28663748","wem/bandit_party_1","A3RDH0U2H6JCBC","either","4","338","","","","","","","0","1","0","","0.362183352","0.6","0.2","0.8","0.4","0.362183352","0.1081989139","0.2696382907","0.1953314019","","","","","","","","","","","","","","72","H","0","img/none_selected.jpg","","63","main_expt",""
"","bandit","143","597658","0.0-105.0-0.0","28663748","wem/bandit_party_1","A3RDH0U2H6JCBC","either","4","267","","","","","","","1","0","0","0.3354395381","","0.6","0.2","0.8","0.4","","","","","0.3354395381","0.09104284411","0.2496415039","0.2618523415","","","","","","","","","","72","H","0","img/none_selected.jpg","","64","main_expt",""
"","bandit","144","659239","0.0-106.0-0.0","28663748","wem/bandit_party_1","A3RDH0U2H6JCBC","either","4","60065","","","","","","","1","0","0","0.2893845237","","0.6","0.2","0.8","0.4","","","","","0.2893845237","0.1264903162","0.2364994079","0.2686672798","","","","","","","","","","72","H","0","img/none_selected.jpg","","65","main_expt",""
"","bandit","145","660970","0.0-107.0-0.0","28663748","wem/bandit_party_1","A3RDH0U2H6JCBC","either","4","218","","","","","","","0","0","1","0.2355717356","","0.6","0.2","0.8","0.4","","","","","0.2355717356","0.1665937301","0.2541683514","0.2451656397","","","","","","","","","","72","H","0","img/none_selected.jpg","","66","main_expt",""
"","bandit","146","662866","0.0-108.0-0.0","28663748","wem/bandit_party_1","A3RDH0U2H6JCBC","either","4","382","","","","","","","0","0","1","0.2848755716","","0.6","0.2","0.8","0.4","","","","","0.2848755716","0.1740025863","0.2985471382","0.2445320338","","","","","","","","","","72","H","0","img/none_selected.jpg","","67","main_expt",""
"","bandit","147","664570","0.0-109.0-0.0","28663748","wem/bandit_party_1","A3RDH0U2H6JCBC","either","4","196","","","","","","","0","1","0","","0.3341158043","0.6","0.2","0.8","0.4","0.3341158043","0.2300011382","0.3391290389","0.2261158315","","","","","","","","","","","","","","72","H","0","img/none_selected.jpg","","68","main_expt",""
"","bandit","148","666394","0.0-110.0-0.0","28663748","wem/bandit_party_1","A3RDH0U2H6JCBC","either","4","309","","","","","","","0","0","1","","0.3253412689","0.6","0.2","0.8","0.4","0.3253412689","0.1768594062","0.3114764975","0.1627286519","","","","","","","","","","","","","","72","H","0","img/none_selected.jpg","","69","main_expt",""
"","bandit","149","668370","0.0-111.0-0.0","28663748","wem/bandit_party_1","A3RDH0U2H6JCBC","either","4","463","","","","","","","0","0","1","0.3280915152","","0.6","0.2","0.8","0.4","","","","","0.3280915152","0.1906145184","0.3056328376","0.1301009224","","","","","","","","","","72","H","0","img/none_selected.jpg","","70","main_expt",""
"","bandit","150","670134","0.0-112.0-0.0","28663748","wem/bandit_party_1","A3RDH0U2H6JCBC","either","4","255","","","","","","","0","0","1","0.1451664327","","0.6","0.2","0.8","0.4","","","","","0.3772643828","0.1451664327","0.3445325487","0.1356707761","","","","","","","","","","74","J","1","","","71","main_expt",""
"","bandit","151","671985","0.0-113.0-0.0","28663748","wem/bandit_party_1","A3RDH0U2H6JCBC","either","4","337","","","","","","","1","0","0","0.364612409","","0.6","0.2","0.8","0.4","","","","","0.4074174212","0.1091447996","0.364612409","0.1045412551","","","","","","","","","","75","K","2","","","72","main_expt",""
"","bandit","152","673916","0.0-114.0-0.0","28663748","wem/bandit_party_1","A3RDH0U2H6JCBC","either","4","417","","","","","","","1","0","0","0.4454774056","","0.6","0.2","0.8","0.4","","","","","0.3736299767","0.1248737042","0.4454774056","0.0867882282","","","","","","","","","","75","K","2","","","73","main_expt",""
"","bandit","153","675866","0.0-115.0-0.0","28663748","wem/bandit_party_1","A3RDH0U2H6JCBC","either","4","436","","","","","","","0","1","0","","0.4492830973","0.6","0.2","0.8","0.4","0.383211712","0.1073746888","0.4492830973","0.1018359722","","","","","","","","","","","","","","75","K","2","","","74","main_expt",""
"","bandit","154","677754","0.0-116.0-0.0","28663748","wem/bandit_party_1","A3RDH0U2H6JCBC","either","4","373","","","","","","","0","0","1","0.449321966","","0.6","0.2","0.8","0.4","","","","","0.3681962321","0.1051395745","0.449321966","0.09443707336","","","","","","","","","","75","K","2","","","75","main_expt",""
"","bandit","155","679617","0.0-117.0-0.0","28663748","wem/bandit_party_1","A3RDH0U2H6JCBC","either","4","335","","","","","","","0","1","0","","0.4299726132","0.6","0.2","0.8","0.4","0.3574328021","0.09171451076","0.4299726132","0.08768691443","","","","","","","","","","","","","","75","K","2","","","76","main_expt",""
"","bandit","156","681494","0.0-118.0-0.0","28663748","wem/bandit_party_1","A3RDH0U2H6JCBC","either","4","363","","","","","","","0","0","1","0.4349340462","","0.6","0.2","0.8","0.4","","","","","0.4041720962","0.1256070833","0.4349340462","0.07744448812","","","","","","","","","","75","K","2","","","77","main_expt",""
"","bandit","157","683282","0.0-119.0-0.0","28663748","wem/bandit_party_1","A3RDH0U2H6JCBC","either","4","273","","","","","","","1","0","0","0.4112950215","","0.6","0.2","0.8","0.4","","","","","0.4000946746","0.1398604905","0.4112950215","0.05712631425","","","","","","","","","","75","K","2","","","78","main_expt",""
"","bandit","158","685250","0.0-120.0-0.0","28663748","wem/bandit_party_1","A3RDH0U2H6JCBC","either","4","455","","","","","","","1","0","0","0.4123046053","","0.6","0.2","0.8","0.4","","","","","0.425248604","0.1303191282","0.4123046053","0.03981704588","","","","","","","","","","75","K","2","","","79","main_expt",""
"","bandit","159","687179","0.0-121.0-0.0","28663748","wem/bandit_party_1","A3RDH0U2H6JCBC","either","4","410","","","","","","","1","0","0","0.4345430878","","0.6","0.2","0.8","0.4","","","","","0.4263383456","0.1491340647","0.4345430878","0.02961196177","","","","","","","","","","75","K","2","","","80","main_expt",""
"","bandit","160","689170","0.0-122.0-0.0","28663748","wem/bandit_party_1","A3RDH0U2H6JCBC","either","4","478","","","","","","","1","0","0","0.4255274095","","0.6","0.2","0.8","0.4","","","","","0.4377411966","0.1484119081","0.4255274095","0.0408206899","","","","","","","","","","75","K","2","","","81","main_expt",""
"","bandit","161","691067","0.0-123.0-0.0","28663748","wem/bandit_party_1","A3RDH0U2H6JCBC","either","4","381","","","","","","","0","0","1","0.4266934287","","0.6","0.2","0.8","0.4","","","","","0.4263216968","0.135460029","0.4266934287","0.03491361241","","","","","","","","","","75","K","2","","","82","main_expt",""
"","bandit","162","692854","0.0-124.0-0.0","28663748","wem/bandit_party_1","A3RDH0U2H6JCBC","either","4","273","","","","","","","1","0","0","0.4321646522","","0.6","0.2","0.8","0.4","","","","","0.4536492548","0.09497461961","0.4321646522","0.01881925386","","","","","","","","","","75","K","2","","","83","main_expt",""
"","bandit","163","694899","0.0-125.0-0.0","28663748","wem/bandit_party_1","A3RDH0U2H6JCBC","either","4","531","","","","","","","0","0","1","0.43129245","","0.6","0.2","0.8","0.4","","","","","0.4344769981","0.0956585677","0.43129245","0.03441768066","","","","","","","","","","75","K","2","","","84","main_expt",""
"","bandit","164","696713","0.0-126.0-0.0","28663748","wem/bandit_party_1","A3RDH0U2H6JCBC","either","4","301","","","","","","","1","0","0","0.4307495417","","0.6","0.2","0.8","0.4","","","","","0.4167097255","0.08427930603","0.4307495417","0.04015732792","","","","","","","","","","75","K","2","","","85","main_expt",""
"","bandit","165","698586","0.0-127.0-0.0","28663748","wem/bandit_party_1","A3RDH0U2H6JCBC","either","4","356","","","","","","","0","1","0","","0.4327415212","0.6","0.2","0.8","0.4","0.4215971904","0.09540141202","0.4327415212","0.0462821445","","","","","","","","","","","","","","75","K","2","","","86","main_expt",""
"","bandit","166","701819","0.0-128.0-0.0","28663748","wem/bandit_party_1","A3RDH0U2H6JCBC","either","4","1719","","","","","","","0","1","0","","0.4507305815","0.6","0.2","0.8","0.4","0.3962725568","0.06504543429","0.4507305815","0.07236867375","","","","","","","","","","","","","","75","K","2","","","87","main_expt",""
"","bandit","167","703803","0.0-129.0-0.0","28663748","wem/bandit_party_1","A3RDH0U2H6JCBC","either","4","469","","","","","","","1","0","0","0.4571393315","","0.6","0.2","0.8","0.4","","","","","0.4038430626","0.05894337134","0.4571393315","0.1132918069","","","","","","","","","","75","K","2","","","88","main_expt",""
"","bandit","168","707441","0.0-130.0-0.0","28663748","wem/bandit_party_1","A3RDH0U2H6JCBC","either","4","2123","","","","","","","0","1","0","","0.4639779763","0.6","0.2","0.8","0.4","0.4247877058","0.06803635399","0.4639779763","0.1466354559","","","","","","","","","","","","","","75","K","2","","","89","main_expt",""
"","bandit","169","709381","0.0-131.0-0.0","28663748","wem/bandit_party_1","A3RDH0U2H6JCBC","either","4","427","","","","","","","0","1","0","","0.4620017245","0.6","0.2","0.8","0.4","0.4196700557","0.09657856289","0.4620017245","0.1746819083","","","","","","","","","","","","","","75","K","2","","","90","main_expt",""
"","bandit","170","717898","0.0-132.0-0.0","28663748","wem/bandit_party_1","A3RDH0U2H6JCBC","either","4","7006","","","","","","","0","0","1","0.4492963398","","0.6","0.2","0.8","0.4","","","","","0.401758082","0.08522031428","0.4492963398","0.1864657318","","","","","","","","","","75","K","2","","","91","main_expt",""
"","bandit","171","719844","0.0-133.0-0.0","28663748","wem/bandit_party_1","A3RDH0U2H6JCBC","either","4","435","","","","","","","0","0","1","","0.462009279","0.6","0.2","0.8","0.4","0.3422099147","0.07078380504","0.462009279","0.2124622091","","","","","","","","","","","","","","75","K","2","","","92","main_expt",""
"","bandit","172","722250","0.0-134.0-0.0","28663748","wem/bandit_party_1","A3RDH0U2H6JCBC","either","4","891","","","","","","","0","0","1","0.4363090379","","0.6","0.2","0.8","0.4","","","","","0.3279059742","0.0564278809","0.4363090379","0.245786276","","","","","","","","","","75","K","2","","","93","main_expt",""
"","bandit","173","724048","0.0-135.0-0.0","28663748","wem/bandit_party_1","A3RDH0U2H6JCBC","either","4","280","","","","","","","0","0","1","0.4457519602","","0.6","0.2","0.8","0.4","","","","","0.3155724737","0.06067733924","0.4457519602","0.2316759231","","","","","","","","","","75","K","2","","","94","main_expt",""
"","bandit","174","725875","0.0-136.0-0.0","28663748","wem/bandit_party_1","A3RDH0U2H6JCBC","either","4","313","","","","","","","0","0","1","0.2231756969","","0.6","0.2","0.8","0.4","","","","","0.3519625041","0.08632751489","0.4231248902","0.2231756969","","","","","","","","","","76","L","3","","","95","main_expt",""
"","bandit","175","727706","0.0-137.0-0.0","28663748","wem/bandit_party_1","A3RDH0U2H6JCBC","either","4","313","","","","","","","0","0","1","","0.08481729553","0.6","0.2","0.8","0.4","0.3661455107","0.08481729553","0.4210676831","0.1957128212","","","","","","","","","","","","","","74","J","1","","","96","main_expt",""
"","bandit","176","729442","0.0-138.0-0.0","28663748","wem/bandit_party_1","A3RDH0U2H6JCBC","either","4","221","","","","","","","0","1","0","","0.3558031673","0.6","0.2","0.8","0.4","0.3558031673","0.08386440452","0.4022895305","0.1638116915","","","","","","","","","","","","","","72","H","0","img/none_selected.jpg","","97","main_expt",""
"","bandit","177","731522","0.0-139.0-0.0","28663748","wem/bandit_party_1","A3RDH0U2H6JCBC","either","4","564","","","","","","","1","0","0","0.3558230887","","0.6","0.2","0.8","0.4","","","","","0.3558230887","0.0940701929","0.4187351015","0.1405816365","","","","","","","","","","72","H","0","img/none_selected.jpg","","98","main_expt",""
"","bandit","178","750624","0.0-140.0-0.0","28663748","wem/bandit_party_1","A3RDH0U2H6JCBC","either","4","17584","","","","","","","0","0","1","0.3064708089","","0.6","0.2","0.8","0.4","","","","","0.3064708089","0.1285058524","0.3981340028","0.1435678602","","","","","","","","","","72","H","0","img/none_selected.jpg","","99","main_expt",""
"","bandit","179","752204","0.0-141.0-0.0","28663748","wem/bandit_party_1","A3RDH0U2H6JCBC","either","4","63","","","","","","","0","0","1","0.352498313","","0.6","0.2","0.8","0.4","","","","","0.352498313","0.065882019","0.3520446815","0.1478754355","","","","","","","","","","72","H","0","img/none_selected.jpg","","100","main_expt",""
"","bandit","180","755170","0.0-142.0-0.0","28663748","wem/bandit_party_1","A3RDH0U2H6JCBC","either","4","1452","","","","","","","0","0","1","0.3511810171","","0.6","0.2","0.8","0.4","","","","","0.3511810171","0.05692140794","0.3715523215","0.1532559328","","","","","","","","","","72","H","0","img/none_selected.jpg","","101","main_expt",""
"","bandit","181","757170","0.0-143.0-0.0","28663748","wem/bandit_party_1","A3RDH0U2H6JCBC","either","4","492","","","","","","","1","0","0","0.3246867477","","0.6","0.2","0.8","0.4","","","","","0.3246867477","0.04322280369","0.3966955113","0.15857411","","","","","","","","","","72","H","0","img/none_selected.jpg","","102","main_expt",""
"","bandit","182","759157","0.0-144.0-0.0","28663748","wem/bandit_party_1","A3RDH0U2H6JCBC","either","4","468","","","","","","","0","0","1","0.2827689756","","0.6","0.2","0.8","0.4","","","","","0.2827689756","0.05121437093","0.3865714765","0.1552377357","","","","","","","","","","72","H","0","img/none_selected.jpg","","103","main_expt",""
"","bandit","183","761046","0.0-145.0-0.0","28663748","wem/bandit_party_1","A3RDH0U2H6JCBC","either","4","372","","","","","","","0","0","1","0.3307995119","","0.6","0.2","0.8","0.4","","","","","0.3307995119","0.06548077564","0.3440646931","0.1584193753","","","","","","","","","","72","H","0","img/none_selected.jpg","","104","main_expt",""
"","bandit","184","762891","0.0-146.0-0.0","28663748","wem/bandit_party_1","A3RDH0U2H6JCBC","either","4","327","","","","","","","1","0","0","0.3078297571","","0.6","0.2","0.8","0.4","","","","","0.3078297571","0.07577357845","0.330981063","0.192058402","","","","","","","","","","72","H","0","img/none_selected.jpg","","105","main_expt",""
"","bandit","185","764723","0.0-147.0-0.0","28663748","wem/bandit_party_1","A3RDH0U2H6JCBC","either","4","317","","","","","","","0","0","1","","0.3202685942","0.6","0.2","0.8","0.4","0.3202685942","0.09041352565","0.3317280627","0.1562344916","","","","","","","","","","","","","","72","H","0","img/none_selected.jpg","","106","main_expt",""
"","bandit","186","766667","0.0-148.0-0.0","28663748","wem/bandit_party_1","A3RDH0U2H6JCBC","either","4","428","","","","","","","1","0","0","0.3163418234","","0.6","0.2","0.8","0.4","","","","","0.3163418234","0.1184921167","0.2760665195","0.1493116313","","","","","","","","","","72","H","0","img/none_selected.jpg","","107","main_expt",""
"","bandit","187","768515","0.0-149.0-0.0","28663748","wem/bandit_party_1","A3RDH0U2H6JCBC","either","4","332","","","","","","","0","0","1","0.3425943818","","0.6","0.2","0.8","0.4","","","","","0.3425943818","0.1057615429","0.2826301941","0.1357435498","","","","","","","","","","72","H","0","img/none_selected.jpg","","108","main_expt",""
"","bandit","188","770249","0.0-150.0-0.0","28663748","wem/bandit_party_1","A3RDH0U2H6JCBC","either","4","220","","","","","","","0","0","1","0.2852030557","","0.6","0.2","0.8","0.4","","","","","0.2852030557","0.1464484126","0.318117281","0.1164074326","","","","","","","","","","72","H","0","img/none_selected.jpg","","109","main_expt",""
"","bandit","189","771960","0.0-151.0-0.0","28663748","wem/bandit_party_1","A3RDH0U2H6JCBC","either","4","194","","","","","","","0","0","1","0.3392406975","","0.6","0.2","0.8","0.4","","","","","0.3392406975","0.1641354829","0.3358587519","0.1444451916","","","","","","","","","","72","H","0","img/none_selected.jpg","","110","main_expt",""
"","bandit","190","773722","0.0-152.0-0.0","28663748","wem/bandit_party_1","A3RDH0U2H6JCBC","either","4","246","","","","","","","1","0","0","0.1386891192","","0.6","0.2","0.8","0.4","","","","","0.3023411017","0.1386891192","0.3031660534","0.09905323685","","","","","","","","","","74","J","1","","","111","main_expt",""
"","bandit","191","775578","0.0-153.0-0.0","28663748","wem/bandit_party_1","A3RDH0U2H6JCBC","either","4","341","","","","","","","0","0","1","0.1847512065","","0.6","0.2","0.8","0.4","","","","","0.296849772","0.1847512065","0.2773548355","0.09652445584","","","","","","","","","","74","J","1","","","112","main_expt",""
"","bandit","192","777466","0.0-154.0-0.0","28663748","wem/bandit_party_1","A3RDH0U2H6JCBC","either","4","379","","","","","","","0","0","1","","0.1304555333","0.6","0.2","0.8","0.4","0.2673419259","0.1304555333","0.2370758425","0.09961189632","","","","","","","","","","","","","","74","J","1","","","113","main_expt",""
"","bandit","193","779284","0.0-155.0-0.0","28663748","wem/bandit_party_1","A3RDH0U2H6JCBC","either","4","301","","","","","","","0","0","1","","0.1770102637","0.6","0.2","0.8","0.4","0.2670531803","0.1770102637","0.1821928837","0.1036139638","","","","","","","","","","","","","","74","J","1","","","114","main_expt",""
"","bandit","194","781251","0.0-156.0-0.0","28663748","wem/bandit_party_1","A3RDH0U2H6JCBC","either","4","458","","","","","","","0","0","1","","0.1564651975","0.6","0.2","0.8","0.4","0.2825009356","0.1564651975","0.1315453283","0.0968506792","","","","","","","","","","","","","","74","J","1","","","115","main_expt",""
"","bandit","195","783185","0.0-157.0-0.0","28663748","wem/bandit_party_1","A3RDH0U2H6JCBC","either","4","418","","","","","","","0","0","1","","0.1665702367","0.6","0.2","0.8","0.4","0.3237719372","0.1665702367","0.1102777544","0.08782875681","","","","","","","","","","","","","","74","J","1","","","116","main_expt",""
"","bandit","196","785123","0.0-158.0-0.0","28663748","wem/bandit_party_1","A3RDH0U2H6JCBC","either","4","421","","","","","","","0","0","1","0.1101610351","","0.6","0.2","0.8","0.4","","","","","0.3154846423","0.1530687496","0.1101610351","0.06031800864","","","","","","","","","","75","K","2","","","117","main_expt",""
"","bandit","197","787053","0.0-159.0-0.0","28663748","wem/bandit_party_1","A3RDH0U2H6JCBC","either","4","411","","","","","","","0","0","1","0.122460482","","0.6","0.2","0.8","0.4","","","","","0.2584508078","0.1674206906","0.122460482","0.05633053331","","","","","","","","","","75","K","2","","","118","main_expt",""
"","bandit","198","788931","0.0-160.0-0.0","28663748","wem/bandit_party_1","A3RDH0U2H6JCBC","either","4","360","","","","","","","0","0","1","0.07530514027","","0.6","0.2","0.8","0.4","","","","","0.2141905193","0.1990215448","0.1451868924","0.07530514027","","","","","","","","","","76","L","3","","","119","main_expt",""
"","bandit","199","790795","0.0-161.0-0.0","28663748","wem/bandit_party_1","A3RDH0U2H6JCBC","either","4","348","","","","","","","0","0","1","0.09639595661","","0.6","0.2","0.8","0.4","","","","","0.2341954374","0.2208640619","0.09092593383","0.09639595661","","","","","","","","","","76","L","3","","","120","main_expt",""
"","bandit","200","792587","0.0-162.0-0.0","28663748","wem/bandit_party_1","A3RDH0U2H6JCBC","either","4","275","","","","","","","0","0","1","","0.1080456108","0.6","0.2","0.8","0.4","0.1886372651","0.2602917539","0.1080456108","0.1421799471","","","","","","","","","","","","","","75","K","2","","","121","main_expt",""
"","bandit","201","794436","0.0-163.0-0.0","28663748","wem/bandit_party_1","A3RDH0U2H6JCBC","either","4","334","","","","","","","0","0","1","","0.2512498235","0.6","0.2","0.8","0.4","0.1597592322","0.2512498235","0.1169053248","0.1624760489","","","","","","","","","","","","","","74","J","1","","","122","main_expt",""
"","bandit","202","796316","0.0-164.0-0.0","28663748","wem/bandit_party_1","A3RDH0U2H6JCBC","either","4","363","","","","","","","0","0","1","0.1895266442","","0.6","0.2","0.8","0.4","","","","","0.1895266442","0.2266242761","0.1571594809","0.1640214383","","","","","","","","","","72","H","0","img/none_selected.jpg","","123","main_expt",""
"","bandit","203","798195","0.0-165.0-0.0","28663748","wem/bandit_party_1","A3RDH0U2H6JCBC","either","4","368","","","","","","","0","0","1","0.2042850732","","0.6","0.2","0.8","0.4","","","","","0.2042850732","0.2373824638","0.2231804049","0.2014340991","","","","","","","","","","72","H","0","img/none_selected.jpg","","124","main_expt",""
"","bandit","204","800066","0.0-166.0-0.0","28663748","wem/bandit_party_1","A3RDH0U2H6JCBC","either","4","354","","","","","","","0","0","1","","0.1812515389","0.6","0.2","0.8","0.4","0.1812515389","0.2538727107","0.2232794356","0.2229229076","","","","","","","","","","","","","","72","H","0","img/none_selected.jpg","","125","main_expt",""
"","bandit","205","801995","0.0-167.0-0.0","28663748","wem/bandit_party_1","A3RDH0U2H6JCBC","either","4","413","","","","","","","0","0","1","","0.290219491","0.6","0.2","0.8","0.4","0.1694736183","0.290219491","0.2316903634","0.2324712723","","","","","","","","","","","","","","74","J","1","","","126","main_expt",""
"","bandit","206","803857","0.0-168.0-0.0","28663748","wem/bandit_party_1","A3RDH0U2H6JCBC","either","4","346","","","","","","","0","0","1","","0.2542505169","0.6","0.2","0.8","0.4","0.1624528765","0.2542505169","0.2337524142","0.2628391623","","","","","","","","","","","","","","74","J","1","","","127","main_expt",""
"","bandit","207","805729","0.0-169.0-0.0","28663748","wem/bandit_party_1","A3RDH0U2H6JCBC","either","4","362","","","","","","","0","0","1","","0.2582316027","0.6","0.2","0.8","0.4","0.1632982916","0.2582316027","0.2198210178","0.2654356302","","","","","","","","","","","","","","74","J","1","","","128","main_expt",""
"","bandit","208","807594","0.0-170.0-0.0","28663748","wem/bandit_party_1","A3RDH0U2H6JCBC","either","4","349","","","","","","","0","0","1","","0.2280168395","0.6","0.2","0.8","0.4","0.2264598068","0.3267566011","0.2280168395","0.2070569149","","","","","","","","","","","","","","75","K","2","","","129","main_expt",""
"","bandit","209","809418","0.0-171.0-0.0","28663748","wem/bandit_party_1","A3RDH0U2H6JCBC","either","4","305","","","","","","","0","0","1","0.243895296","","0.6","0.2","0.8","0.4","","","","","0.202760285","0.3323271388","0.243895296","0.2579182239","","","","","","","","","","75","K","2","","","130","main_expt",""
"","bandit","210","811234","0.0-172.0-0.0","28663748","wem/bandit_party_1","A3RDH0U2H6JCBC","either","4","306","","","","","","","0","1","0","","0.2164454501","0.6","0.2","0.8","0.4","0.1585094705","0.2666668646","0.2164454501","0.2329110821","","","","","","","","","","","","","","75","K","2","","","131","main_expt",""
"","bandit","211","813308","0.0-173.0-0.0","28663748","wem/bandit_party_1","A3RDH0U2H6JCBC","either","4","557","","","","","","","0","0","1","0.200468731","","0.6","0.2","0.8","0.4","","","","","0.1304261544","0.2359119393","0.200468731","0.2400232435","","","","","","","","","","75","K","2","","","132","main_expt",""
"","bandit","212","815133","0.0-174.0-0.0","28663748","wem/bandit_party_1","A3RDH0U2H6JCBC","either","4","310","","","","","","","0","0","1","0.2038597077","","0.6","0.2","0.8","0.4","","","","","0.09339990826","0.2540740643","0.2038597077","0.2084798617","","","","","","","","","","75","K","2","","","133","main_expt",""
"","bandit","213","817119","0.0-175.0-0.0","28663748","wem/bandit_party_1","A3RDH0U2H6JCBC","either","4","470","","","","","","","1","0","0","0.2263269307","","0.6","0.2","0.8","0.4","","","","","0.08524612959","0.2414927735","0.2263269307","0.2034544","","","","","","","","","","75","K","2","","","134","main_expt",""
"","bandit","214","818979","0.0-176.0-0.0","28663748","wem/bandit_party_1","A3RDH0U2H6JCBC","either","4","342","","","","","","","0","0","1","0.2686469146","","0.6","0.2","0.8","0.4","","","","","0.0622033461","0.2632369982","0.2686469146","0.2088958693","","","","","","","","","","75","K","2","","","135","main_expt",""
"","bandit","215","820627","0.0-177.0-0.0","28663748","wem/bandit_party_1","A3RDH0U2H6JCBC","either","4","132","","","","","","","0","0","1","0.3170393738","","0.6","0.2","0.8","0.4","","","","","0.05632890875","0.3032623762","0.3170393738","0.2573758916","","","","","","","","","","75","K","2","","","136","main_expt",""
"","bandit","216","822452","0.0-178.0-0.0","28663748","wem/bandit_party_1","A3RDH0U2H6JCBC","either","4","307","","","","","","","0","0","1","0.338962466","","0.6","0.2","0.8","0.4","","","","","0.06052980877","0.2984046037","0.338962466","0.2467438462","","","","","","","","","","75","K","2","","","137","main_expt",""
"","bandit","217","824355","0.0-179.0-0.0","28663748","wem/bandit_party_1","A3RDH0U2H6JCBC","either","4","386","","","","","","","0","1","0","","0.2221944767","0.6","0.2","0.8","0.4","0.1038497792","0.3110629865","0.3586643031","0.2221944767","","","","","","","","","","","","","","76","L","3","","","138","main_expt",""
"","bandit","218","825980","0.0-180.0-0.0","28663748","wem/bandit_party_1","A3RDH0U2H6JCBC","either","4","106","","","","","","","1","0","0","0.2750517365","","0.6","0.2","0.8","0.4","","","","","0.08561062373","0.3048373826","0.3430902759","0.2750517365","","","","","","","","","","76","L","3","","","139","main_expt",""
"","bandit","219","827821","0.0-181.0-0.0","28663748","wem/bandit_party_1","A3RDH0U2H6JCBC","either","4","325","","","","","","","0","1","0","","0.277474309","0.6","0.2","0.8","0.4","0.08025295029","0.3163642845","0.3777112835","0.277474309","","","","","","","","","","","","","","76","L","3","","","140","main_expt",""
"","bandit","220","829762","0.0-182.0-0.0","28663748","wem/bandit_party_1","A3RDH0U2H6JCBC","either","4","432","","","","","","","1","0","0","0.2932007391","","0.6","0.2","0.8","0.4","","","","","0.09309891757","0.2213861514","0.4276051364","0.2932007391","","","","","","","","","","76","L","3","","","141","main_expt",""
"","bandit","221","831732","0.0-183.0-0.0","28663748","wem/bandit_party_1","A3RDH0U2H6JCBC","either","4","452","","","","","","","0","0","1","0.3001807938","","0.6","0.2","0.8","0.4","","","","","0.1107976638","0.2492613222","0.4312347149","0.3001807938","","","","","","","","","","76","L","3","","","142","main_expt",""
"","bandit","222","833610","0.0-184.0-0.0","28663748","wem/bandit_party_1","A3RDH0U2H6JCBC","either","4","361","","","","","","","0","0","1","","0.3640878437","0.6","0.2","0.8","0.4","0.09575525052","0.2645663874","0.386657586","0.3640878437","","","","","","","","","","","","","","76","L","3","","","143","main_expt",""
"","bandit","223","843195","0.0-185.0-0.0","28663748","wem/bandit_party_1","A3RDH0U2H6JCBC","either","4","8069","","","","","","","0","1","0","","0.2706796495","0.6","0.2","0.8","0.4","0.07222794989","0.2928215939","0.3409851627","0.2706796495","","","","","","","","","","","","","","76","L","3","","","144","main_expt",""
"","bandit","224","845060","0.0-186.0-0.0","28663748","wem/bandit_party_1","A3RDH0U2H6JCBC","either","4","346","","","","","","","1","0","0","0.2359726437","","0.6","0.2","0.8","0.4","","","","","0.03203798906","0.3178979655","0.3538709708","0.2359726437","","","","","","","","","","76","L","3","","","145","main_expt",""
"","bandit","225","846700","0.0-187.0-0.0","28663748","wem/bandit_party_1","A3RDH0U2H6JCBC","either","4","121","","","","","","","1","0","0","0.2200332621","","0.6","0.2","0.8","0.4","","","","","0.03073079809","0.2850957273","0.2745956728","0.2200332621","","","","","","","","","","76","L","3","","","146","main_expt",""
"","bandit","226","848482","0.0-188.0-0.0","28663748","wem/bandit_party_1","A3RDH0U2H6JCBC","either","4","264","","","","","","","0","0","1","","0.1957794229","0.6","0.2","0.8","0.4","0.05105424151","0.2483519338","0.2375793476","0.1957794229","","","","","","","","","","","","","","76","L","3","","","147","main_expt",""
"","bandit","227","850243","0.0-189.0-0.0","28663748","wem/bandit_party_1","A3RDH0U2H6JCBC","either","4","230","","","","","","","0","1","0","","0.1790722045","0.6","0.2","0.8","0.4","0.04045355104","0.2309770791","0.2954602587","0.1790722045","","","","","","","","","","","","","","76","L","3","","","148","main_expt",""
"","bandit","228","852011","0.0-190.0-0.0","28663748","wem/bandit_party_1","A3RDH0U2H6JCBC","either","4","251","","","","","","","0","0","1","0.2189150546","","0.6","0.2","0.8","0.4","","","","","0.06416506337","0.1759049641","0.3435099865","0.2189150546","","","","","","","","","","76","L","3","","","149","main_expt",""
"","bandit","229","853813","0.0-191.0-0.0","28663748","wem/bandit_party_1","A3RDH0U2H6JCBC","either","4","284","","","","","","","0","0","1","0.2119229637","","0.6","0.2","0.8","0.4","","","","","0.07819388902","0.1910702346","0.268900415","0.2119229637","","","","","","","","","","76","L","3","","","150","main_expt",""
"","bandit","230","855723","0.0-192.0-0.0","28663748","wem/bandit_party_1","A3RDH0U2H6JCBC","either","4","391","","","","","","","0","0","1","0.2472398003","","0.6","0.2","0.8","0.4","","","","","0.1186979887","0.1799178466","0.2326488896","0.2472398003","","","","","","","","","","76","L","3","","","151","main_expt",""
"","bandit","231","857611","0.0-193.0-0.0","28663748","wem/bandit_party_1","A3RDH0U2H6JCBC","either","4","377","","","","","","","0","0","1","","0.2148428051","0.6","0.2","0.8","0.4","0.1084773402","0.1826140084","0.2768057641","0.2148428051","","","","","","","","","","","","","","76","L","3","","","152","main_expt",""
"","bandit","232","859377","0.0-194.0-0.0","28663748","wem/bandit_party_1","A3RDH0U2H6JCBC","either","4","249","","","","","","","0","0","1","","0.1598057249","0.6","0.2","0.8","0.4","0.1314289417","0.147924298","0.2997660112","0.1598057249","","","","","","","","","","","","","","76","L","3","","","153","main_expt",""
"","bandit","233","861826","0.0-195.0-0.0","28663748","wem/bandit_party_1","A3RDH0U2H6JCBC","either","4","932","","","","","","","0","1","0","","0.3196464983","0.6","0.2","0.8","0.4","0.1354051011","0.1388357139","0.3196464983","0.1489099923","","","","","","","","","","","","","","75","K","2","","","154","main_expt",""
"","bandit","234","863584","0.0-196.0-0.0","28663748","wem/bandit_party_1","A3RDH0U2H6JCBC","either","4","241","","","","","","","0","1","0","","0.3141654429","0.6","0.2","0.8","0.4","0.1085215933","0.1658398244","0.3141654429","0.1502541116","","","","","","","","","","","","","","75","K","2","","","155","main_expt",""
"","bandit","235","865385","0.0-197.0-0.0","28663748","wem/bandit_party_1","A3RDH0U2H6JCBC","either","4","283","","","","","","","0","0","1","0.2667217688","","0.6","0.2","0.8","0.4","","","","","0.1383379057","0.1104921729","0.2667217688","0.1605084188","","","","","","","","","","75","K","2","","","156","main_expt",""
"","bandit","236","867187","0.0-198.0-0.0","28663748","wem/bandit_party_1","A3RDH0U2H6JCBC","either","4","279","","","","","","","0","1","0","","0.2867075714","0.6","0.2","0.8","0.4","0.1428990181","0.09530810267","0.2867075714","0.1684101418","","","","","","","","","","","","","","75","K","2","","","157","main_expt",""
"","bandit","237","869141","0.0-199.0-0.0","28663748","wem/bandit_party_1","A3RDH0U2H6JCBC","either","4","434","","","","","","","0","0","1","0.2788639118","","0.6","0.2","0.8","0.4","","","","","0.07455979893","0.1211627972","0.2788639118","0.1807688322","","","","","","","","","","75","K","2","","","158","main_expt",""
"","bandit","238","870929","0.0-200.0-0.0","28663748","wem/bandit_party_1","A3RDH0U2H6JCBC","either","4","276","","","","","","","0","0","1","0.3020710819","","0.6","0.2","0.8","0.4","","","","","0.1009372764","0.1012897464","0.3020710819","0.1516426412","","","","","","","","","","75","K","2","","","159","main_expt",""
"","bandit","239","892065","0.0-201.0-0.0","28663748","wem/bandit_party_1","A3RDH0U2H6JCBC","either","4","19618","","","","","","","0","0","1","","0.1188035868","0.6","0.2","0.8","0.4","0.05118862797","0.1188035868","0.3404227007","0.1638698877","","","","","","","","","","","","","","74","J","1","","","160","main_expt",""
"","bandit","240","894092","0.0-202.0-0.0","28663748","wem/bandit_party_1","A3RDH0U2H6JCBC","either","4","508","","","","","","","0","0","1","0.05265847637","","0.6","0.2","0.8","0.4","","","","","0.05265847637","0.1606836622","0.2876249865","0.1645359983","","","","","","","","","","72","H","0","img/none_selected.jpg","","161","main_expt",""
"","bandit","241","895843","0.0-203.0-0.0","28663748","wem/bandit_party_1","A3RDH0U2H6JCBC","either","4","233","","","","","","","0","1","0","","0.1859884171","0.6","0.2","0.8","0.4","0.07938684611","0.1859884171","0.2401308511","0.2509918509","","","","","","","","","","","","","","74","J","1","","","162","main_expt",""
"","bandit","242","897578","0.0-204.0-0.0","28663748","wem/bandit_party_1","A3RDH0U2H6JCBC","either","4","218","","","","","","","1","0","0","0.2486605046","","0.6","0.2","0.8","0.4","","","","","0.0970900163","0.2528258464","0.2486605046","0.1883685458","","","","","","","","","","75","K","2","","","163","main_expt",""
"","bandit","243","899346","0.0-205.0-0.0","28663748","wem/bandit_party_1","A3RDH0U2H6JCBC","either","4","248","","","","","","","0","0","1","","0.2515292425","0.6","0.2","0.8","0.4","0.07401968201","0.2515292425","0.22675384","0.2179532334","","","","","","","","","","","","","","74","J","1","","","164","main_expt",""
"","bandit","244","901159","0.0-206.0-0.0","28663748","wem/bandit_party_1","A3RDH0U2H6JCBC","either","4","295","","","","","","","0","0","1","","0.2068970429","0.6","0.2","0.8","0.4","0.06633104104","0.2068970429","0.2841151948","0.2143704678","","","","","","","","","","","","","","74","J","1","","","165","main_expt",""
"","bandit","245","903123","0.0-207.0-0.0","28663748","wem/bandit_party_1","A3RDH0U2H6JCBC","either","4","442","","","","","","","1","0","0","0.1413778631","","0.6","0.2","0.8","0.4","","","","","0.05309652092","0.1413778631","0.2842980464","0.2175899085","","","","","","","","","","74","J","1","","","166","main_expt",""
"","bandit","246","904886","0.0-208.0-0.0","28663748","wem/bandit_party_1","A3RDH0U2H6JCBC","either","4","247","","","","","","","0","0","1","0.1999497975","","0.6","0.2","0.8","0.4","","","","","0.07357446968","0.1999497975","0.3007590714","0.2137120923","","","","","","","","","","74","J","1","","","167","main_expt",""
"","bandit","247","906530","0.0-209.0-0.0","28663748","wem/bandit_party_1","A3RDH0U2H6JCBC","either","4","127","","","","","","","0","0","1","0.2884936601","","0.6","0.2","0.8","0.4","","","","","0.1054325378","0.1696145944","0.2884936601","0.2331560811","","","","","","","","","","75","K","2","","","168","main_expt",""
"","bandit","248","908292","0.0-210.0-0.0","28663748","wem/bandit_party_1","A3RDH0U2H6JCBC","either","4","250","","","","","","","0","0","1","0.2803439438","","0.6","0.2","0.8","0.4","","","","","0.08536867429","0.1338518967","0.2803439438","0.2367963754","","","","","","","","","","75","K","2","","","169","main_expt",""
"","bandit","249","910067","0.0-211.0-0.0","28663748","wem/bandit_party_1","A3RDH0U2H6JCBC","either","4","256","","","","","","","0","0","1","0.2378050175","","0.6","0.2","0.8","0.4","","","","","0.1083432756","0.1307598277","0.3010437192","0.2378050175","","","","","","","","","","76","L","3","","","170","main_expt",""
"","bandit","250","911644","0.0-212.0-0.0","28663748","wem/bandit_party_1","A3RDH0U2H6JCBC","either","4","67","","","","","","","0","0","1","0.3243802095","","0.6","0.2","0.8","0.4","","","","","0.09185370626","0.1200375331","0.3243802095","0.2253696972","","","","","","","","","","75","K","2","","","171","main_expt",""
"","bandit","251","913330","0.0-213.0-0.0","28663748","wem/bandit_party_1","A3RDH0U2H6JCBC","either","4","169","","","","","","","0","0","1","","0.07514546963","0.6","0.2","0.8","0.4","0.09458096772","0.07514546963","0.3140094691","0.2903394368","","","","","","","","","","","","","","74","J","1","","","172","main_expt",""
"","bandit","252","914993","0.0-214.0-0.0","28663748","wem/bandit_party_1","A3RDH0U2H6JCBC","either","4","153","","","","","","","0","0","1","0.1016296913","","0.6","0.2","0.8","0.4","","","","","0.1016296913","0.07704486673","0.2433770114","0.2384828248","","","","","","","","","","72","H","0","img/none_selected.jpg","","173","main_expt",""
"","bandit","253","916602","0.0-215.0-0.0","28663748","wem/bandit_party_1","A3RDH0U2H6JCBC","either","4","90","","","","","","","0","0","1","","0.04061738922","0.6","0.2","0.8","0.4","0.117107939","0.04061738922","0.2080779891","0.2823111034","","","","","","","","","","","","","","74","J","1","","","174","main_expt",""
"","bandit","254","918348","0.0-216.0-0.0","28663748","wem/bandit_party_1","A3RDH0U2H6JCBC","either","4","227","","","","","","","0","0","1","0.2211365803","","0.6","0.2","0.8","0.4","","","","","0.1254773658","0.02968316822","0.2211365803","0.292147578","","","","","","","","","","75","K","2","","","175","main_expt",""
"","bandit","255","921652","0.0-217.0-0.0","28663748","wem/bandit_party_1","A3RDH0U2H6JCBC","either","4","1785","","","","","","","0","0","1","0.2928295457","","0.6","0.2","0.8","0.4","","","","","0.1518856622","0.04419366322","0.231280906","0.2928295457","","","","","","","","","","76","L","3","","","176","main_expt",""
"","bandit","256","923450","0.0-218.0-0.0","28663748","wem/bandit_party_1","A3RDH0U2H6JCBC","either","4","278","","","","","","","0","0","1","0.1689881391","","0.6","0.2","0.8","0.4","","","","","0.1502483312","0.04140429262","0.1689881391","0.297241693","","","","","","","","","","75","K","2","","","177","main_expt",""
"","bandit","257","925025","0.0-219.0-0.0","28663748","wem/bandit_party_1","A3RDH0U2H6JCBC","either","4","62","","","","","","","0","0","1","","0.06103489621","0.6","0.2","0.8","0.4","0.2073149786","0.06103489621","0.1699404395","0.276241128","","","","","","","","","","","","","","74","J","1","","","178","main_expt",""
"","bandit","258","926635","0.0-220.0-0.0","28663748","wem/bandit_party_1","A3RDH0U2H6JCBC","either","4","89","","","","","","","0","0","1","0.1928578162","","0.6","0.2","0.8","0.4","","","","","0.1928578162","0.053608248","0.1571972967","0.2405339857","","","","","","","","","","72","H","0","img/none_selected.jpg","","179","main_expt",""
"","bandit","259","928266","0.0-221.0-0.0","28663748","wem/bandit_party_1","A3RDH0U2H6JCBC","either","4","111","","","","","","","0","0","1","","0.06289379635","0.6","0.2","0.8","0.4","0.1412953234","0.06289379635","0.1567782565","0.233428307","","","","","","","","","","","","","","74","J","1","","","180","main_expt",""
"","bandit","260","929803","0.0-222.0-0.0","28663748","wem/bandit_party_1","A3RDH0U2H6JCBC","either","4","17","","","","","","","0","0","1","0.1492691696","","0.6","0.2","0.8","0.4","","","","","0.1258774719","0.07748386732","0.1492691696","0.1459310114","","","","","","","","","","75","K","2","","","181","main_expt",""
"","bandit","261","931332","0.0-223.0-0.0","28663748","wem/bandit_party_1","A3RDH0U2H6JCBC","either","4","8","","","","","","","0","0","1","","0.1796360657","0.6","0.2","0.8","0.4","0.1121960069","0.096714051","0.1609613705","0.1796360657","","","","","","","","","","","","","","76","L","3","","","182","main_expt",""
"","bandit","262","932862","0.0-224.0-0.0","28663748","wem/bandit_party_1","A3RDH0U2H6JCBC","either","4","12","","","","","","","0","1","0","","0.05351369794","0.6","0.2","0.8","0.4","0.08335286121","0.05351369794","0.1982891881","0.1907874973","","","","","","","","","","","","","","74","J","1","","","183","main_expt",""
"","bandit","263","934604","0.0-225.0-0.0","28663748","wem/bandit_party_1","A3RDH0U2H6JCBC","either","4","219","","","","","","","0","0","1","","0.08854511538","0.6","0.2","0.8","0.4","0.1085923678","0.08854511538","0.1703318442","0.1451627339","","","","","","","","","","","","","","74","J","1","","","184","main_expt",""
"","bandit","264","936314","0.0-226.0-0.0","28663748","wem/bandit_party_1","A3RDH0U2H6JCBC","either","4","191","","","","","","","0","0","1","","0.136385666","0.6","0.2","0.8","0.4","0.1113654269","0.136385666","0.09566746086","0.1692531577","","","","","","","","","","","","","","74","J","1","","","185","main_expt",""
"","bandit","265","938009","0.0-227.0-0.0","28663748","wem/bandit_party_1","A3RDH0U2H6JCBC","either","4","175","","","","","","","0","0","1","","0.1848043888","0.6","0.2","0.8","0.4","0.1383531569","0.1848043888","0.1254261761","0.1885113298","","","","","","","","","","","","","","74","J","1","","","186","main_expt",""
"","bandit","266","939767","0.0-228.0-0.0","28663748","wem/bandit_party_1","A3RDH0U2H6JCBC","either","4","233","","","","","","","0","0","1","0.1739713275","","0.6","0.2","0.8","0.4","","","","","0.1739713275","0.1640989128","0.1081798115","0.2088125345","","","","","","","","","","72","H","0","img/none_selected.jpg","","187","main_expt",""
"","bandit","267","941442","0.0-229.0-0.0","28663748","wem/bandit_party_1","A3RDH0U2H6JCBC","either","4","155","","","","","","","0","0","1","0.08529062399","","0.6","0.2","0.8","0.4","","","","","0.1926366302","0.1301402021","0.08529062399","0.2228369986","","","","","","","","","","75","K","2","","","188","main_expt",""
"","bandit","268","943030","0.0-230.0-0.0","28663748","wem/bandit_party_1","A3RDH0U2H6JCBC","either","4","68","","","","","","","0","0","1","0.2567428292","","0.6","0.2","0.8","0.4","","","","","0.2499935398","0.1980942663","0.07250281893","0.2567428292","","","","","","","","","","76","L","3","","","189","main_expt",""
"","bandit","269","944706","0.0-231.0-0.0","28663748","wem/bandit_party_1","A3RDH0U2H6JCBC","either","4","140","","","","","","","0","0","1","0.07895395147","","0.6","0.2","0.8","0.4","","","","","0.2367317824","0.1842725295","0.07895395147","0.3177850294","","","","","","","","","","75","K","2","","","190","main_expt",""
"","bandit","270","946283","0.0-232.0-0.0","28663748","wem/bandit_party_1","A3RDH0U2H6JCBC","either","4","56","","","","","","","0","1","0","","0.2515026666","0.6","0.2","0.8","0.4","0.2515026666","0.2087081259","0.06204701637","0.2876912335","","","","","","","","","","","","","","72","H","0","img/none_selected.jpg","","191","main_expt",""
"","bandit","271","947947","0.0-233.0-0.0","28663748","wem/bandit_party_1","A3RDH0U2H6JCBC","either","4","142","","","","","","","0","0","1","","0.2451916405","0.6","0.2","0.8","0.4","0.2451916405","0.1800110976","0.064067899","0.2383873749","","","","","","","","","","","","","","72","H","0","img/none_selected.jpg","","192","main_expt",""
"","bandit","272","949603","0.0-234.0-0.0","28663748","wem/bandit_party_1","A3RDH0U2H6JCBC","either","4","136","","","","","","","0","0","1","","0.2353451433","0.6","0.2","0.8","0.4","0.2353451433","0.1519186298","0.1286650472","0.24690957","","","","","","","","","","","","","","72","H","0","img/none_selected.jpg","","193","main_expt",""
"","bandit","273","951323","0.0-235.0-0.0","28663748","wem/bandit_party_1","A3RDH0U2H6JCBC","either","4","199","","","","","","","1","0","0","0.307075739","","0.6","0.2","0.8","0.4","","","","","0.307075739","0.1431656489","0.1746490116","0.2728455101","","","","","","","","","","72","H","0","img/none_selected.jpg","","194","main_expt",""
"","bandit","274","953039","0.0-236.0-0.0","28663748","wem/bandit_party_1","A3RDH0U2H6JCBC","either","4","194","","","","","","","1","0","0","0.3011001907","","0.6","0.2","0.8","0.4","","","","","0.3011001907","0.1868251083","0.129035247","0.2421292151","","","","","","","","","","72","H","0","img/none_selected.jpg","","195","main_expt",""
"","bandit","275","954610","0.0-237.0-0.0","28663748","wem/bandit_party_1","A3RDH0U2H6JCBC","either","4","52","","","","","","","0","0","1","0.2861216794","","0.6","0.2","0.8","0.4","","","","","0.2861216794","0.176624335","0.09052040682","0.2598052724","","","","","","","","","","72","H","0","img/none_selected.jpg","","196","main_expt",""
"","bandit","276","956252","0.0-238.0-0.0","28663748","wem/bandit_party_1","A3RDH0U2H6JCBC","either","4","129","","","","","","","0","0","1","0.2121549007","","0.6","0.2","0.8","0.4","","","","","0.2121549007","0.2383323772","0.08675464884","0.2540930088","","","","","","","","","","72","H","0","img/none_selected.jpg","","197","main_expt",""
"","bandit","277","957828","0.0-239.0-0.0","28663748","wem/bandit_party_1","A3RDH0U2H6JCBC","either","4","53","","","","","","","1","0","0","0.260340052","","0.6","0.2","0.8","0.4","","","","","0.260340052","0.260618614","0.09429549835","0.2460150375","","","","","","","","","","72","H","0","img/none_selected.jpg","","198","main_expt",""
"","bandit","278","959363","0.0-240.0-0.0","28663748","wem/bandit_party_1","A3RDH0U2H6JCBC","either","4","18","","","","","","","0","1","0","","0.3009562829","0.6","0.2","0.8","0.4","0.3009562829","0.2935067364","0.09303778716","0.2217343644","","","","","","","","","","","","","","72","H","0","img/none_selected.jpg","","199","main_expt",""
"","bandit","279","961674","0.0-241.0-0.0","28663748","wem/bandit_party_1","A3RDH0U2H6JCBC","either","4","791","","","","","","","0","0","1","0.3430896668","","0.6","0.2","0.8","0.4","","","","","0.3430896668","0.362920627","0.07354084322","0.2830302048","","","","","","","","","","72","H","0","img/none_selected.jpg","","200","main_expt",""
"","bandit","280","963501","0.0-242.0-0.0","28663748","wem/bandit_party_1","A3RDH0U2H6JCBC","either","4","307","","","","","","","0","0","1","0.2973668079","","0.6","0.2","0.8","0.4","","","","","0.2973668079","0.3119044903","0.08115367452","0.3175621279","","","","","","","","","","72","H","0","img/none_selected.jpg","","201","main_expt",""
"","bandit","281","965105","0.0-243.0-0.0","28663748","wem/bandit_party_1","A3RDH0U2H6JCBC","either","4","84","","","","","","","0","0","1","0.3219337599","","0.6","0.2","0.8","0.4","","","","","0.3219337599","0.3095695708","0.0774842685","0.3049471546","","","","","","","","","","72","H","0","img/none_selected.jpg","","202","main_expt",""
"","bandit","282","966640","0.0-244.0-0.0","28663748","wem/bandit_party_1","A3RDH0U2H6JCBC","either","4","13","","","","","","","0","1","0","","0.3005459379","0.6","0.2","0.8","0.4","0.3229991028","0.3005459379","0.09704724367","0.2975042969","","","","","","","","","","","","","","74","J","1","","","203","main_expt",""
"","bandit","283","968250","0.0-245.0-0.0","28663748","wem/bandit_party_1","A3RDH0U2H6JCBC","either","4","89","","","","","","","0","0","1","","0.3116824409","0.6","0.2","0.8","0.4","0.3077995671","0.3116824409","0.1224111047","0.2268457719","","","","","","","","","","","","","","74","J","1","","","204","main_expt",""
"","bandit","284","969851","0.0-246.0-0.0","28663748","wem/bandit_party_1","A3RDH0U2H6JCBC","either","4","85","","","","","","","0","0","1","","0.3291635812","0.6","0.2","0.8","0.4","0.3070199156","0.3291635812","0.1627664319","0.2582085449","","","","","","","","","","","","","","74","J","1","","","205","main_expt",""
"","bandit","285","971481","0.0-247.0-0.0","28663748","wem/bandit_party_1","A3RDH0U2H6JCBC","either","4","109","","","","","","","1","0","0","0.4008790519","","0.6","0.2","0.8","0.4","","","","","0.3109683939","0.4008790519","0.1604236747","0.2841247045","","","","","","","","","","74","J","1","","","206","main_expt",""
"","bandit","286","973105","0.0-248.0-0.0","28663748","wem/bandit_party_1","A3RDH0U2H6JCBC","either","4","112","","","","","","","1","0","0","0.4202180382","","0.6","0.2","0.8","0.4","","","","","0.2845075958","0.4202180382","0.126388554","0.3333225396","","","","","","","","","","74","J","1","","","207","main_expt",""
"","bandit","287","974781","0.0-249.0-0.0","28663748","wem/bandit_party_1","A3RDH0U2H6JCBC","either","4","154","","","","","","","0","0","1","","0.4168586074","0.6","0.2","0.8","0.4","0.2419557814","0.4168586074","0.1602309633","0.290219871","","","","","","","","","","","","","","74","J","1","","","208","main_expt",""
"","bandit","288","976578","0.0-250.0-0.0","28663748","wem/bandit_party_1","A3RDH0U2H6JCBC","either","4","276","","","","","","","0","0","1","","0.3949328033","0.6","0.2","0.8","0.4","0.2449545816","0.3949328033","0.2009997365","0.3426384504","","","","","","","","","","","","","","74","J","1","","","209","main_expt",""
"","bandit","289","978305","0.0-251.0-0.0","28663748","wem/bandit_party_1","A3RDH0U2H6JCBC","either","4","205","","","","","","","0","0","1","","0.41782505","0.6","0.2","0.8","0.4","0.2176860071","0.41782505","0.1997114924","0.2932754766","","","","","","","","","","","","","","74","J","1","","","210","main_expt",""
"","bandit","290","980025","0.0-252.0-0.0","28663748","wem/bandit_party_1","A3RDH0U2H6JCBC","either","4","207","","","","","","","0","0","1","","0.4377941382","0.6","0.2","0.8","0.4","0.2460847292","0.4377941382","0.2631807131","0.2522206247","","","","","","","","","","","","","","74","J","1","","","211","main_expt",""
"","bandit","291","981651","0.0-253.0-0.0","28663748","wem/bandit_party_1","A3RDH0U2H6JCBC","either","4","102","","","","","","","0","0","1","0.2008991105","","0.6","0.2","0.8","0.4","","","","","0.2017704833","0.4619006446","0.2008991105","0.2323705111","","","","","","","","","","75","K","2","","","212","main_expt",""
"","bandit","292","983386","0.0-254.0-0.0","28663748","wem/bandit_party_1","A3RDH0U2H6JCBC","either","4","223","","","","","","","0","0","1","","0.1656487101","0.6","0.2","0.8","0.4","0.1891715169","0.4508737721","0.1656487101","0.2815580385","","","","","","","","","","","","","","75","K","2","","","213","main_expt",""
"","bandit","293","985094","0.0-255.0-0.0","28663748","wem/bandit_party_1","A3RDH0U2H6JCBC","either","4","183","","","","","","","0","0","1","0.2955812139","","0.6","0.2","0.8","0.4","","","","","0.1819308411","0.4639731149","0.213788386","0.2955812139","","","","","","","","","","76","L","3","","","214","main_expt",""
"","bandit","294","986745","0.0-256.0-0.0","28663748","wem/bandit_party_1","A3RDH0U2H6JCBC","either","4","139","","","","","","","0","0","1","","0.1406935411","0.6","0.2","0.8","0.4","0.1406935411","0.4690757113","0.2206736926","0.2988647484","","","","","","","","","","","","","","72","H","0","img/none_selected.jpg","","215","main_expt",""
"","bandit","295","988358","0.0-257.0-0.0","28663748","wem/bandit_party_1","A3RDH0U2H6JCBC","either","4","80","","","","","","","0","1","0","","0.4685680314","0.6","0.2","0.8","0.4","0.206739756","0.4685680314","0.2270120675","0.3361974059","","","","","","","","","","","","","","74","J","1","","","216","main_expt",""
"","bandit","296","990107","0.0-258.0-0.0","28663748","wem/bandit_party_1","A3RDH0U2H6JCBC","either","4","234","","","","","","","1","0","0","0.4873952874","","0.6","0.2","0.8","0.4","","","","","0.178624692","0.4873952874","0.2561581829","0.2764506131","","","","","","","","","","74","J","1","","","217","main_expt",""
"","bandit","297","991859","0.0-259.0-0.0","28663748","wem/bandit_party_1","A3RDH0U2H6JCBC","either","4","228","","","","","","","0","0","1","","0.4790671899","0.6","0.2","0.8","0.4","0.2021641755","0.4790671899","0.2785758431","0.299893698","","","","","","","","","","","","","","74","J","1","","","218","main_expt",""
"","bandit","298","993617","0.0-260.0-0.0","28663748","wem/bandit_party_1","A3RDH0U2H6JCBC","either","4","246","","","","","","","0","0","1","","0.4769795117","0.6","0.2","0.8","0.4","0.2076996705","0.4769795117","0.2707863597","0.3213687962","","","","","","","","","","","","","","74","J","1","","","219","main_expt",""
"","bandit","299","995346","0.0-261.0-0.0","28663748","wem/bandit_party_1","A3RDH0U2H6JCBC","either","4","204","","","","","","","0","1","0","","0.4746148145","0.6","0.2","0.8","0.4","0.2479045362","0.4746148145","0.2262269101","0.3782095139","","","","","","","","","","","","","","74","J","1","","","220","main_expt",""
"","bandit","300","997075","0.0-262.0-0.0","28663748","wem/bandit_party_1","A3RDH0U2H6JCBC","either","4","215","","","","","","","0","0","1","0.4789253058","","0.6","0.2","0.8","0.4","","","","","0.251163546","0.4789253058","0.2522421151","0.3572699546","","","","","","","","","","74","J","1","","","221","main_expt",""
"","bandit","301","998793","0.0-263.0-0.0","28663748","wem/bandit_party_1","A3RDH0U2H6JCBC","either","4","197","","","","","","","0","0","1","","0.4765400837","0.6","0.2","0.8","0.4","0.2653622565","0.4765400837","0.2323100388","0.332217079","","","","","","","","","","","","","","74","J","1","","","222","main_expt",""
"","bandit","302","1000585","0.0-264.0-0.0","28663748","wem/bandit_party_1","A3RDH0U2H6JCBC","either","4","275","","","","","","","1","0","0","0.4872993944","","0.6","0.2","0.8","0.4","","","","","0.2034578964","0.4872993944","0.2013525365","0.3327789551","","","","","","","","","","74","J","1","","","223","main_expt",""
"","bandit","303","1002346","0.0-265.0-0.0","28663748","wem/bandit_party_1","A3RDH0U2H6JCBC","either","4","240","","","","","","","0","1","0","","0.4864577786","0.6","0.2","0.8","0.4","0.1176985371","0.4864577786","0.2017363432","0.3720138676","","","","","","","","","","","","","","74","J","1","","","224","main_expt",""
"","bandit","304","1004058","0.0-266.0-0.0","28663748","wem/bandit_party_1","A3RDH0U2H6JCBC","either","4","189","","","","","","","0","0","1","0.4815865163","","0.6","0.2","0.8","0.4","","","","","0.08531446518","0.4815865163","0.1608447522","0.4035982493","","","","","","","","","","74","J","1","","","225","main_expt",""
"","bandit","305","1005704","0.0-267.0-0.0","28663748","wem/bandit_party_1","A3RDH0U2H6JCBC","either","4","121","","","","","","","0","0","1","","0.4781941344","0.6","0.2","0.8","0.4","0.0901010045","0.4781941344","0.2023183299","0.3538577565","","","","","","","","","","","","","","74","J","1","","","226","main_expt",""
"","bandit","306","1007473","0.0-268.0-0.0","28663748","wem/bandit_party_1","A3RDH0U2H6JCBC","either","4","245","","","","","","","0","1","0","","0.4742279627","0.6","0.2","0.8","0.4","0.06499555022","0.4742279627","0.1555458008","0.4205879778","","","","","","","","","","","","","","74","J","1","","","227","main_expt",""
"","bandit","307","1009658","0.0-269.0-0.0","28663748","wem/bandit_party_1","A3RDH0U2H6JCBC","either","4","670","","","","","","","0","0","1","","0.4597327255","0.6","0.2","0.8","0.4","0.06967502077","0.4597327255","0.1210896773","0.4082381823","","","","","","","","","","","","","","74","J","1","","","228","main_expt",""
"","bandit","308","1011514","0.0-270.0-0.0","28663748","wem/bandit_party_1","A3RDH0U2H6JCBC","either","4","332","","","","","","","0","0","1","0.4733003713","","0.6","0.2","0.8","0.4","","","","","0.07642173418","0.4733003713","0.1206830913","0.4274963613","","","","","","","","","","74","J","1","","","229","main_expt",""
"","bandit","309","1013304","0.0-271.0-0.0","28663748","wem/bandit_party_1","A3RDH0U2H6JCBC","either","4","270","","","","","","","0","1","0","","0.4832022084","0.6","0.2","0.8","0.4","0.04973788902","0.4832022084","0.1334008039","0.4362488765","","","","","","","","","","","","","","74","J","1","","","230","main_expt",""
"","bandit","310","1014961","0.0-272.0-0.0","28663748","wem/bandit_party_1","A3RDH0U2H6JCBC","either","4","135","","","","","","","0","1","0","","0.4802630573","0.6","0.2","0.8","0.4","0.07419495466","0.4802630573","0.1048467088","0.4420629534","","","","","","","","","","","","","","74","J","1","","","231","main_expt",""
"","bandit","311","1016589","0.0-273.0-0.0","28663748","wem/bandit_party_1","A3RDH0U2H6JCBC","either","4","106","","","","","","","0","0","1","","0.4739318499","0.6","0.2","0.8","0.4","0.08125260149","0.4739318499","0.1184002818","0.4287414635","","","","","","","","","","","","","","74","J","1","","","232","main_expt",""
"","bandit","312","1019570","0.0-274.0-0.0","28663748","wem/bandit_party_1","A3RDH0U2H6JCBC","either","4","1458","","","","","","","0","0","1","0.4709765286","","0.6","0.2","0.8","0.4","","","","","0.06057073796","0.4709765286","0.08533064469","0.4395511981","","","","","","","","","","74","J","1","","","233","main_expt",""
"","bandit","313","1021651","0.0-275.0-0.0","28663748","wem/bandit_party_1","A3RDH0U2H6JCBC","either","4","559","","","","","","","0","1","0","","0.4658145356","0.6","0.2","0.8","0.4","0.1037411708","0.4658145356","0.1190123434","0.4479240545","","","","","","","","","","","","","","74","J","1","","","234","main_expt",""
"","bandit","314","1023652","0.0-276.0-0.0","28663748","wem/bandit_party_1","A3RDH0U2H6JCBC","either","4","478","","","","","","","0","1","0","","0.4312508187","0.6","0.2","0.8","0.4","0.1267441937","0.4312508187","0.1392024459","0.4476644646","","","","","","","","","","","","","","74","J","1","","","235","main_expt",""
