"consent","trial_type","trial_index","time_elapsed","internal_node_id","subjID","study","MID","cond","drift","rt","responses","button_pressed","key_press","like","value","connected","gems","bombs","no_reward","GemPrChosen","BombPrChosen","GainOverPainPr_0","GainOverPainPr_1","GainOverPainPr_2","GainOverPainPr_3","LosePr_0","LosePr_1","LosePr_2","LosePr_3","WinPr_0","WinPr_1","WinPr_2","WinPr_3","Q0","Q1","Q2","gender","age","ethnicity","label","expt_phase","target","respCharCode","respKey","respChoiceNum","respChoice","practice","trial_counter","trial_label","Q0_index"
"GDM/GDM_behavioral_consent_30min_online.html","consent","0","18790","0.0-0.0","28940261","wem/bandit_party_1","A3INEKAD86IRQC","either","3","","","","","","","","","","","","","","","","","","","","","","","","","","","","","","","","","","","","","","","","",""
"","survey-text","1","33905","0.0-1.0","28940261","wem/bandit_party_1","A3INEKAD86IRQC","either","3","14103","{""Q0"":""A3INEKAD86IRQC""}","","","","","","","","","","","","","","","","","","","","","","","","","","","","","","","","","","","","","","",""
"","button-response","2","38004","0.0-2.0","28940261","wem/bandit_party_1","A3INEKAD86IRQC","either","3","3092","","1","","","","","","","","","","","","","","","","","","","","","","","","","","","","","","","","","","","","","",""
"","text-replacement","3","56457","0.0-3.0","28940261","wem/bandit_party_1","A3INEKAD86IRQC","either","3","17450","","","32","","","","","","","","","","","","","","","","","","","","","","","","","","","","","","","","","","","","",""
"","text-replacement","4","67360","0.0-4.0","28940261","wem/bandit_party_1","A3INEKAD86IRQC","either","3","10902","","","32","","","","","","","","","","","","","","","","","","","","","","","","","","","","","","","","","","","","",""
"","identification","5","93396","0.0-6.0-0.0","28940261","wem/bandit_party_1","A3INEKAD86IRQC","either","3","26025","","","","2","4","3","","","","","","","","","","","","","","","","","","","","","","","","pre","identification_pre","the Republican party","","","","","","","",""
"","identification","6","105481","0.0-6.0-1.0","28940261","wem/bandit_party_1","A3INEKAD86IRQC","either","3","11057","","","","3","4","4","","","","","","","","","","","","","","","","","","","","","","","","pre","identification_pre","the Democratic Party","","","","","","","",""
"","text-replacement","7","117239","0.0-7.0","28940261","wem/bandit_party_1","A3INEKAD86IRQC","either","3","10757","","","32","","","","","","","","","","","","","","","","","","","","","","","","","","","","","","","","","","","","",""
"","text-replacement","8","126403","0.0-8.0","28940261","wem/bandit_party_1","A3INEKAD86IRQC","either","3","9162","","","32","","","","","","","","","","","","","","","","","","","","","","","","","","","","","","","","","","","","",""
"","text-replacement","9","136411","0.0-9.0","28940261","wem/bandit_party_1","A3INEKAD86IRQC","either","3","10005","","","32","","","","","","","","","","","","","","","","","","","","","","","","","","","","","","","","","","","","",""
"","text-replacement","10","141097","0.0-10.0","28940261","wem/bandit_party_1","A3INEKAD86IRQC","either","3","4682","","","32","","","","","","","","","","","","","","","","","","","","","","","","","","","","","","","","","","","","",""
"","text-replacement","11","149370","0.0-11.0","28940261","wem/bandit_party_1","A3INEKAD86IRQC","either","3","8270","","","32","","","","","","","","","","","","","","","","","","","","","","","","","","","","","","","","","","","","",""
"","bandit","12","152414","0.0-12.0-0.0","28940261","wem/bandit_party_1","A3INEKAD86IRQC","either","3","1538","","","","","","","0","0","1","0","0","","","","","0","","","","0","","","","","","","","","","","","","74","J","0","img/none_selected_demo.jpg","true","0","",""
"","bandit","13","154763","0.0-13.0-0.0","28940261","wem/bandit_party_1","A3INEKAD86IRQC","either","3","843","","","","","","","0","0","1","0","0","","","","","0","","","","0","","","","","","","","","","","","","75","K","0","img/none_selected_demo.jpg","true","0","",""
"","text-replacement","14","164299","0.0-14.0","28940261","wem/bandit_party_1","A3INEKAD86IRQC","either","3","9533","","","32","","","","","","","","","","","","","","","","","","","","","","","","","","","","","","","","","","","","",""
"","text-replacement","15","170425","0.0-15.0","28940261","wem/bandit_party_1","A3INEKAD86IRQC","either","3","6122","","","32","","","","","","","","","","","","","","","","","","","","","","","","","","","","","","","","","","","","",""
"","text-replacement","16","178344","0.0-16.0","28940261","wem/bandit_party_1","A3INEKAD86IRQC","either","3","7917","","","32","","","","","","","","","","","","","","","","","","","","","","","","","","","","","","","","","","","","",""
"","text-replacement","17","184272","0.0-17.0","28940261","wem/bandit_party_1","A3INEKAD86IRQC","either","3","5927","","","32","","","","","","","","","","","","","","","","","","","","","","","","","","","","","","","","","","","","",""
"","bandit","18","186440","0.0-18.0-0.0","28940261","wem/bandit_party_1","A3INEKAD86IRQC","either","3","659","","","","","","","0","0","1","","0.8","0.5","0.5","","","0.8","0.2","","","","","","","","","","","","","","","","74","J","0","img/none_selected_demo.jpg","true","0","80_20_practice",""
"","bandit","19","188741","0.0-18.0-1.0","28940261","wem/bandit_party_1","A3INEKAD86IRQC","either","3","794","","","","","","","0","1","0","","0.8","0.5","0.5","","","0.8","0.2","","","","","","","","","","","","","","","","74","J","0","img/none_selected_demo.jpg","true","0","80_20_practice",""
"","bandit","20","190809","0.0-18.0-2.0","28940261","wem/bandit_party_1","A3INEKAD86IRQC","either","3","560","","","","","","","0","1","0","","0.8","0.5","0.5","","","0.8","0.2","","","","","","","","","","","","","","","","74","J","0","img/none_selected_demo.jpg","true","0","80_20_practice",""
"","bandit","21","192872","0.0-18.0-3.0","28940261","wem/bandit_party_1","A3INEKAD86IRQC","either","3","555","","","","","","","1","0","0","0.8","","0.5","0.5","","","","","","","0.8","0.2","","","","","","","","","","","","74","J","0","img/none_selected_demo.jpg","true","0","80_20_practice",""
"","bandit","22","194965","0.0-18.0-4.0","28940261","wem/bandit_party_1","A3INEKAD86IRQC","either","3","589","","","","","","","0","1","0","","0.8","0.5","0.5","","","0.8","0.2","","","","","","","","","","","","","","","","74","J","0","img/none_selected_demo.jpg","true","0","80_20_practice",""
"","bandit","23","197101","0.0-18.0-5.0","28940261","wem/bandit_party_1","A3INEKAD86IRQC","either","3","628","","","","","","","1","0","0","0.2","","0.5","0.5","","","","","","","0.8","0.2","","","","","","","","","","","","75","K","1","","true","0","80_20_practice",""
"","bandit","24","198865","0.0-18.0-6.0","28940261","wem/bandit_party_1","A3INEKAD86IRQC","either","3","253","","","","","","","0","0","1","0.2","","0.5","0.5","","","","","","","0.8","0.2","","","","","","","","","","","","75","K","1","","true","0","80_20_practice",""
"","bandit","25","200646","0.0-18.0-7.0","28940261","wem/bandit_party_1","A3INEKAD86IRQC","either","3","273","","","","","","","0","0","1","","0.2","0.5","0.5","","","0.8","0.2","","","","","","","","","","","","","","","","75","K","1","","true","0","80_20_practice",""
"","bandit","26","202415","0.0-18.0-8.0","28940261","wem/bandit_party_1","A3INEKAD86IRQC","either","3","264","","","","","","","1","0","0","0.8","","0.5","0.5","","","","","","","0.8","0.2","","","","","","","","","","","","74","J","0","img/none_selected_demo.jpg","true","0","80_20_practice",""
"","bandit","27","204237","0.0-18.0-9.0","28940261","wem/bandit_party_1","A3INEKAD86IRQC","either","3","316","","","","","","","1","0","0","0.8","","0.5","0.5","","","","","","","0.8","0.2","","","","","","","","","","","","74","J","0","img/none_selected_demo.jpg","true","0","80_20_practice",""
"","bandit","28","206008","0.0-18.0-10.0","28940261","wem/bandit_party_1","A3INEKAD86IRQC","either","3","262","","","","","","","1","0","0","0.8","","0.5","0.5","","","","","","","0.8","0.2","","","","","","","","","","","","74","J","0","img/none_selected_demo.jpg","true","0","80_20_practice",""
"","bandit","29","207823","0.0-18.0-11.0","28940261","wem/bandit_party_1","A3INEKAD86IRQC","either","3","299","","","","","","","0","1","0","","0.8","0.5","0.5","","","0.8","0.2","","","","","","","","","","","","","","","","74","J","0","img/none_selected_demo.jpg","true","0","80_20_practice",""
"","bandit","30","209640","0.0-18.0-12.0","28940261","wem/bandit_party_1","A3INEKAD86IRQC","either","3","306","","","","","","","0","1","0","","0.8","0.5","0.5","","","0.8","0.2","","","","","","","","","","","","","","","","74","J","0","img/none_selected_demo.jpg","true","0","80_20_practice",""
"","bandit","31","211454","0.0-18.0-13.0","28940261","wem/bandit_party_1","A3INEKAD86IRQC","either","3","306","","","","","","","0","1","0","","0.8","0.5","0.5","","","0.8","0.2","","","","","","","","","","","","","","","","74","J","0","img/none_selected_demo.jpg","true","0","80_20_practice",""
"","bandit","32","213221","0.0-18.0-14.0","28940261","wem/bandit_party_1","A3INEKAD86IRQC","either","3","256","","","","","","","0","1","0","","0.8","0.5","0.5","","","0.8","0.2","","","","","","","","","","","","","","","","74","J","0","img/none_selected_demo.jpg","true","0","80_20_practice",""
"","bandit","33","214982","0.0-18.0-15.0","28940261","wem/bandit_party_1","A3INEKAD86IRQC","either","3","249","","","","","","","0","0","1","","0.8","0.5","0.5","","","0.8","0.2","","","","","","","","","","","","","","","","74","J","0","img/none_selected_demo.jpg","true","0","80_20_practice",""
"","bandit","34","216828","0.0-18.0-16.0","28940261","wem/bandit_party_1","A3INEKAD86IRQC","either","3","339","","","","","","","0","0","1","","0.8","0.5","0.5","","","0.8","0.2","","","","","","","","","","","","","","","","74","J","0","img/none_selected_demo.jpg","true","0","80_20_practice",""
"","bandit","35","218608","0.0-18.0-17.0","28940261","wem/bandit_party_1","A3INEKAD86IRQC","either","3","273","","","","","","","0","0","1","","0.8","0.5","0.5","","","0.8","0.2","","","","","","","","","","","","","","","","74","J","0","img/none_selected_demo.jpg","true","0","80_20_practice",""
"","bandit","36","220612","0.0-18.0-18.0","28940261","wem/bandit_party_1","A3INEKAD86IRQC","either","3","498","","","","","","","0","0","1","0.2","","0.5","0.5","","","","","","","0.8","0.2","","","","","","","","","","","","75","K","1","","true","0","80_20_practice",""
"","bandit","37","222449","0.0-18.0-19.0","28940261","wem/bandit_party_1","A3INEKAD86IRQC","either","3","324","","","","","","","0","0","1","0.2","","0.5","0.5","","","","","","","0.8","0.2","","","","","","","","","","","","75","K","1","","true","0","80_20_practice",""
"","text-replacement","38","226410","0.0-19.0","28940261","wem/bandit_party_1","A3INEKAD86IRQC","either","3","3958","","","32","","","","","","","","","","","","","","","","","","","","","","","","","","","","","","","","","","","","",""
"","bandit","39","228449","0.0-20.0-0.0","28940261","wem/bandit_party_1","A3INEKAD86IRQC","either","3","529","","","","","","","1","0","0","1","0","","","","","0","1","","","1","0","","","","","","","","","","","","74","J","0","img/none_selected_demo.jpg","true","0","",""
"","text-replacement","40","235759","0.0-21.0","28940261","wem/bandit_party_1","A3INEKAD86IRQC","either","3","7304","","","32","","","","","","","","","","","","","","","","","","","","","","","","","","","","","","","","","","","","",""
"","text-replacement","41","244435","0.0-22.0","28940261","wem/bandit_party_1","A3INEKAD86IRQC","either","3","8674","","","32","","","","","","","","","","","","","","","","","","","","","","","","","","","","","","","","","","","","",""
"","text-replacement","42","248008","0.0-23.0","28940261","wem/bandit_party_1","A3INEKAD86IRQC","either","3","3567","","","32","","","","","","","","","","","","","","","","","","","","","","","","","","","","","","","","","","","","",""
"","text-replacement","43","253055","0.0-24.0","28940261","wem/bandit_party_1","A3INEKAD86IRQC","either","3","5043","","","32","","","","","","","","","","","","","","","","","","","","","","","","","","","","","","","","","","","","",""
"","text-replacement","44","264912","0.0-25.0","28940261","wem/bandit_party_1","A3INEKAD86IRQC","either","3","11856","","","32","","","","","","","","","","","","","","","","","","","","","","","","","","","","","","","","","","","","",""
"","text-replacement","45","268080","0.0-26.0","28940261","wem/bandit_party_1","A3INEKAD86IRQC","either","3","3166","","","32","","","","","","","","","","","","","","","","","","","","","","","","","","","","","","","","","","","","",""
"","text-replacement","46","273432","0.0-27.0","28940261","wem/bandit_party_1","A3INEKAD86IRQC","either","3","5349","","","32","","","","","","","","","","","","","","","","","","","","","","","","","","","","","","","","","","","","",""
"","text-replacement","47","276803","0.0-28.0","28940261","wem/bandit_party_1","A3INEKAD86IRQC","either","3","3368","","","32","","","","","","","","","","","","","","","","","","","","","","","","","","","","","","","","","","","","",""
"","text-replacement","48","281639","0.0-29.0","28940261","wem/bandit_party_1","A3INEKAD86IRQC","either","3","4832","","","32","","","","","","","","","","","","","","","","","","","","","","","","","","","","","","","","","","","","",""
"","text-replacement","49","283753","0.0-30.0","28940261","wem/bandit_party_1","A3INEKAD86IRQC","either","3","2110","","","32","","","","","","","","","","","","","","","","","","","","","","","","","","","","","","","","","","","","",""
"","text-replacement","50","286296","0.0-31.0","28940261","wem/bandit_party_1","A3INEKAD86IRQC","either","3","2540","","","32","","","","","","","","","","","","","","","","","","","","","","","","","","","","","","","","","","","","",""
"","bandit","51","288447","0.0-32.0-0.0","28940261","wem/bandit_party_1","A3INEKAD86IRQC","either","3","642","","","","","","","0","1","0","","0.8","0.5","0.5","0.5","0.5","0.8","0.2","0.6","0.2","","","","","","","","","","","","","","72","H","0","img/none_selected.jpg","true","0","full_practice",""
"","bandit","52","290241","0.0-32.0-1.0","28940261","wem/bandit_party_1","A3INEKAD86IRQC","either","3","280","","","","","","","0","1","0","","0.8","0.5","0.5","0.5","0.5","0.8","0.2","0.6","0.2","","","","","","","","","","","","","","72","H","0","img/none_selected.jpg","true","0","full_practice",""
"","bandit","53","291988","0.0-32.0-2.0","28940261","wem/bandit_party_1","A3INEKAD86IRQC","either","3","238","","","","","","","0","1","0","","0.8","0.5","0.5","0.5","0.5","0.8","0.2","0.6","0.2","","","","","","","","","","","","","","72","H","0","img/none_selected.jpg","true","0","full_practice",""
"","bandit","54","293798","0.0-32.0-3.0","28940261","wem/bandit_party_1","A3INEKAD86IRQC","either","3","302","","","","","","","0","1","0","","0.8","0.5","0.5","0.5","0.5","0.8","0.2","0.6","0.2","","","","","","","","","","","","","","72","H","0","img/none_selected.jpg","true","0","full_practice",""
"","bandit","55","295620","0.0-32.0-4.0","28940261","wem/bandit_party_1","A3INEKAD86IRQC","either","3","318","","","","","","","1","0","0","0.8","","0.5","0.5","0.5","0.5","","","","","0.8","0.2","0.6","0.2","","","","","","","","","","72","H","0","img/none_selected.jpg","true","0","full_practice",""
"","bandit","56","297397","0.0-32.0-5.0","28940261","wem/bandit_party_1","A3INEKAD86IRQC","either","3","271","","","","","","","0","0","1","","0.8","0.5","0.5","0.5","0.5","0.8","0.2","0.6","0.2","","","","","","","","","","","","","","72","H","0","img/none_selected.jpg","true","0","full_practice",""
"","bandit","57","299511","0.0-32.0-6.0","28940261","wem/bandit_party_1","A3INEKAD86IRQC","either","3","611","","","","","","","0","1","0","","0.8","0.5","0.5","0.5","0.5","0.8","0.2","0.6","0.2","","","","","","","","","","","","","","72","H","0","img/none_selected.jpg","true","0","full_practice",""
"","bandit","58","301309","0.0-32.0-7.0","28940261","wem/bandit_party_1","A3INEKAD86IRQC","either","3","293","","","","","","","1","0","0","0.8","","0.5","0.5","0.5","0.5","","","","","0.8","0.2","0.6","0.2","","","","","","","","","","72","H","0","img/none_selected.jpg","true","0","full_practice",""
"","bandit","59","303161","0.0-32.0-8.0","28940261","wem/bandit_party_1","A3INEKAD86IRQC","either","3","338","","","","","","","1","0","0","0.8","","0.5","0.5","0.5","0.5","","","","","0.8","0.2","0.6","0.2","","","","","","","","","","72","H","0","img/none_selected.jpg","true","0","full_practice",""
"","bandit","60","305054","0.0-32.0-9.0","28940261","wem/bandit_party_1","A3INEKAD86IRQC","either","3","381","","","","","","","0","1","0","","0.8","0.5","0.5","0.5","0.5","0.8","0.2","0.6","0.2","","","","","","","","","","","","","","72","H","0","img/none_selected.jpg","true","0","full_practice",""
"","bandit","61","306838","0.0-32.0-10.0","28940261","wem/bandit_party_1","A3INEKAD86IRQC","either","3","278","","","","","","","0","0","1","0.8","","0.5","0.5","0.5","0.5","","","","","0.8","0.2","0.6","0.2","","","","","","","","","","72","H","0","img/none_selected.jpg","true","0","full_practice",""
"","bandit","62","308599","0.0-32.0-11.0","28940261","wem/bandit_party_1","A3INEKAD86IRQC","either","3","254","","","","","","","0","0","1","0.8","","0.5","0.5","0.5","0.5","","","","","0.8","0.2","0.6","0.2","","","","","","","","","","72","H","0","img/none_selected.jpg","true","0","full_practice",""
"","bandit","63","310338","0.0-32.0-12.0","28940261","wem/bandit_party_1","A3INEKAD86IRQC","either","3","231","","","","","","","0","0","1","","0.6","0.5","0.5","0.5","0.5","0.8","0.2","0.6","0.2","","","","","","","","","","","","","","75","K","2","","true","0","full_practice",""
"","bandit","64","312134","0.0-32.0-13.0","28940261","wem/bandit_party_1","A3INEKAD86IRQC","either","3","287","","","","","","","0","0","1","0.2","","0.5","0.5","0.5","0.5","","","","","0.8","0.2","0.6","0.2","","","","","","","","","","74","J","1","","true","0","full_practice",""
"","bandit","65","313981","0.0-32.0-14.0","28940261","wem/bandit_party_1","A3INEKAD86IRQC","either","3","340","","","","","","","0","0","1","","0.2","0.5","0.5","0.5","0.5","0.8","0.2","0.6","0.2","","","","","","","","","","","","","","76","L","3","","true","0","full_practice",""
"","bandit","66","315792","0.0-32.0-15.0","28940261","wem/bandit_party_1","A3INEKAD86IRQC","either","3","298","","","","","","","0","0","1","","0.2","0.5","0.5","0.5","0.5","0.8","0.2","0.6","0.2","","","","","","","","","","","","","","74","J","1","","true","0","full_practice",""
"","bandit","67","317644","0.0-32.0-16.0","28940261","wem/bandit_party_1","A3INEKAD86IRQC","either","3","331","","","","","","","1","0","0","0.2","","0.5","0.5","0.5","0.5","","","","","0.8","0.2","0.6","0.2","","","","","","","","","","74","J","1","","true","0","full_practice",""
"","bandit","68","319508","0.0-32.0-17.0","28940261","wem/bandit_party_1","A3INEKAD86IRQC","either","3","360","","","","","","","0","0","1","0.2","","0.5","0.5","0.5","0.5","","","","","0.8","0.2","0.6","0.2","","","","","","","","","","74","J","1","","true","0","full_practice",""
"","bandit","69","321271","0.0-32.0-18.0","28940261","wem/bandit_party_1","A3INEKAD86IRQC","either","3","256","","","","","","","1","0","0","0.8","","0.5","0.5","0.5","0.5","","","","","0.8","0.2","0.6","0.2","","","","","","","","","","72","H","0","img/none_selected.jpg","true","0","full_practice",""
"","bandit","70","323054","0.0-32.0-19.0","28940261","wem/bandit_party_1","A3INEKAD86IRQC","either","3","273","","","","","","","0","0","1","0.8","","0.5","0.5","0.5","0.5","","","","","0.8","0.2","0.6","0.2","","","","","","","","","","72","H","0","img/none_selected.jpg","true","0","full_practice",""
"","text","71","326049","0.0-33.0","28940261","wem/bandit_party_1","A3INEKAD86IRQC","either","3","2976","","","32","","","","","","","","","","","","","","","","","","","","","","","","","","","","","","","","","","","","",""
"","text-replacement","72","339188","0.0-34.0","28940261","wem/bandit_party_1","A3INEKAD86IRQC","either","3","12132","","","32","","","","","","","","","","","","","","","","","","","","","","","","","","","","","","","","","","","","",""
"","text-replacement","73","356704","0.0-35.0","28940261","wem/bandit_party_1","A3INEKAD86IRQC","either","3","17512","","","32","","","","","","","","","","","","","","","","","","","","","","","","","","","","","","","","","","","","",""
"","text-replacement","74","364359","0.0-36.0","28940261","wem/bandit_party_1","A3INEKAD86IRQC","either","3","7654","","","32","","","","","","","","","","","","","","","","","","","","","","","","","","","","","","","","","","","","",""
"","text-replacement","75","371115","0.0-37.0","28940261","wem/bandit_party_1","A3INEKAD86IRQC","either","3","6753","","","32","","","","","","","","","","","","","","","","","","","","","","","","","","","","","","","","","","","","",""
"","text-replacement","76","378112","0.0-38.0","28940261","wem/bandit_party_1","A3INEKAD86IRQC","either","3","6990","","","32","","","","","","","","","","","","","","","","","","","","","","","","","","","","","","","","","","","","",""
"","survey-multi-choice-replacement","77","386556","0.0-39.0-0.0","28940261","wem/bandit_party_1","A3INEKAD86IRQC","either","3","8430","","","","","","","","","","","","","","","","","","","","","","","","Money will be added to the pool for <span style='color:blue;'>DEMOCRATS</span>","","","","","","","attn_check","","","","","","","","","0"
"","survey-multi-choice-replacement","78","396152","0.0-40.0-0.0","28940261","wem/bandit_party_1","A3INEKAD86IRQC","either","3","8575","","","","","","","","","","","","","","","","","","","","","","","","Equal amounts of money will be added to the pool for <span style='color:blue;'>DEMOCRATS</span> and subtracted from the pool for <span style='color:red;'>REPUBLICANS</span>","","","","","","","attn_check","","","","","","","","","2"
"","survey-multi-choice-replacement","79","401542","0.0-41.0-0.0","28940261","wem/bandit_party_1","A3INEKAD86IRQC","either","3","4382","","","","","","","","","","","","","","","","","","","","","","","","No money will be added to either pool","","","","","","","attn_check","","","","","","","","","3"
"","bandit","80","405783","0.0-42.0-0.0","28940261","wem/bandit_party_1","A3INEKAD86IRQC","either","3","1733","","","","","","","0","0","1","0.1426046982","","0.8","0.6","0.4","0.2","","","","","0.1426046982","0.07685641067","0.1646489015","0.4870892339","","","","","","","","","","72","H","0","img/none_selected.jpg","","1","main_expt",""
"","bandit","81","407591","0.0-43.0-0.0","28940261","wem/bandit_party_1","A3INEKAD86IRQC","either","3","299","","","","","","","1","0","0","0.08388143876","","0.8","0.6","0.4","0.2","","","","","0.1597004976","0.08388143876","0.2180431119","0.4875162112","","","","","","","","","","74","J","1","","","2","main_expt",""
"","bandit","82","409367","0.0-44.0-0.0","28940261","wem/bandit_party_1","A3INEKAD86IRQC","either","3","269","","","","","","","0","0","1","0.06528774038","","0.8","0.6","0.4","0.2","","","","","0.1381850853","0.06528774038","0.2294217256","0.4909945117","","","","","","","","","","74","J","1","","","3","main_expt",""
"","bandit","83","411144","0.0-45.0-0.0","28940261","wem/bandit_party_1","A3INEKAD86IRQC","either","3","269","","","","","","","0","0","1","","0.07987899881","0.8","0.6","0.4","0.2","0.1787932262","0.07987899881","0.2162119515","0.482579304","","","","","","","","","","","","","","74","J","1","","","4","main_expt",""
"","bandit","84","412926","0.0-46.0-0.0","28940261","wem/bandit_party_1","A3INEKAD86IRQC","either","3","270","","","","","","","0","0","1","","0.0432391811","0.8","0.6","0.4","0.2","0.1795032464","0.0432391811","0.2246316054","0.4887913002","","","","","","","","","","","","","","74","J","1","","","5","main_expt",""
"","bandit","85","414707","0.0-47.0-0.0","28940261","wem/bandit_party_1","A3INEKAD86IRQC","either","3","251","","","","","","","0","0","1","","0.2061018479","0.8","0.6","0.4","0.2","0.164375756","0.03467601655","0.2061018479","0.4887860333","","","","","","","","","","","","","","75","K","2","","","6","main_expt",""
"","bandit","86","416468","0.0-48.0-0.0","28940261","wem/bandit_party_1","A3INEKAD86IRQC","either","3","256","","","","","","","0","1","0","","0.4901971563","0.8","0.6","0.4","0.2","0.204957223","0.05033951668","0.1795347326","0.4901971563","","","","","","","","","","","","","","76","L","3","","","7","main_expt",""
"","bandit","87","418248","0.0-49.0-0.0","28940261","wem/bandit_party_1","A3INEKAD86IRQC","either","3","275","","","","","","","0","0","1","","0.4862230721","0.8","0.6","0.4","0.2","0.2162036531","0.07676355645","0.1290452752","0.4862230721","","","","","","","","","","","","","","76","L","3","","","8","main_expt",""
"","bandit","88","420029","0.0-50.0-0.0","28940261","wem/bandit_party_1","A3INEKAD86IRQC","either","3","276","","","","","","","0","0","1","","0.4759730645","0.8","0.6","0.4","0.2","0.2167418122","0.08620859221","0.1559184374","0.4759730645","","","","","","","","","","","","","","76","L","3","","","9","main_expt",""
"","bandit","89","421870","0.0-51.0-0.0","28940261","wem/bandit_party_1","A3INEKAD86IRQC","either","3","323","","","","","","","1","0","0","0.4560980466","","0.8","0.6","0.4","0.2","","","","","0.1607923637","0.1103839657","0.1381514788","0.4560980466","","","","","","","","","","76","L","3","","","10","main_expt",""
"","bandit","90","423638","0.0-52.0-0.0","28940261","wem/bandit_party_1","A3INEKAD86IRQC","either","3","255","","","","","","","0","0","1","","0.4775116046","0.8","0.6","0.4","0.2","0.1386410957","0.1334948588","0.1271140015","0.4775116046","","","","","","","","","","","","","","76","L","3","","","11","main_expt",""
"","bandit","91","425453","0.0-53.0-0.0","28940261","wem/bandit_party_1","A3INEKAD86IRQC","either","3","309","","","","","","","0","0","1","","0.4705073552","0.8","0.6","0.4","0.2","0.1718380738","0.1535602519","0.1854664659","0.4705073552","","","","","","","","","","","","","","76","L","3","","","12","main_expt",""
"","bandit","92","427205","0.0-54.0-0.0","28940261","wem/bandit_party_1","A3INEKAD86IRQC","either","3","247","","","","","","","1","0","0","0.1686303413","","0.8","0.6","0.4","0.2","","","","","0.1686303413","0.127854239","0.1869952656","0.4851887342","","","","","","","","","","72","H","0","img/none_selected.jpg","","13","main_expt",""
"","bandit","93","428999","0.0-55.0-0.0","28940261","wem/bandit_party_1","A3INEKAD86IRQC","either","3","283","","","","","","","0","0","1","","0.1460019496","0.8","0.6","0.4","0.2","0.1460019496","0.1507911491","0.2035171393","0.4731273917","","","","","","","","","","","","","","72","H","0","img/none_selected.jpg","","14","main_expt",""
"","bandit","94","430847","0.0-56.0-0.0","28940261","wem/bandit_party_1","A3INEKAD86IRQC","either","3","341","","","","","","","0","0","1","0.1667614464","","0.8","0.6","0.4","0.2","","","","","0.1667614464","0.1741212098","0.2800299461","0.4585867004","","","","","","","","","","72","H","0","img/none_selected.jpg","","15","main_expt",""
"","bandit","95","432665","0.0-57.0-0.0","28940261","wem/bandit_party_1","A3INEKAD86IRQC","either","3","286","","","","","","","1","0","0","0.1973644546","","0.8","0.6","0.4","0.2","","","","","0.1973644546","0.1918308831","0.2725454461","0.4366533258","","","","","","","","","","72","H","0","img/none_selected.jpg","","16","main_expt",""
"","bandit","96","434532","0.0-58.0-0.0","28940261","wem/bandit_party_1","A3INEKAD86IRQC","either","3","354","","","","","","","1","0","0","0.1873415792","","0.8","0.6","0.4","0.2","","","","","0.1873415792","0.1950212473","0.1570621471","0.4405228744","","","","","","","","","","72","H","0","img/none_selected.jpg","","17","main_expt",""
"","bandit","97","436316","0.0-59.0-0.0","28940261","wem/bandit_party_1","A3INEKAD86IRQC","either","3","275","","","","","","","0","0","1","0.1875860444","","0.8","0.6","0.4","0.2","","","","","0.1875860444","0.2094813194","0.1968188506","0.4678551263","","","","","","","","","","72","H","0","img/none_selected.jpg","","18","main_expt",""
"","bandit","98","438190","0.0-60.0-0.0","28940261","wem/bandit_party_1","A3INEKAD86IRQC","either","3","368","","","","","","","0","0","1","0.1988439388","","0.8","0.6","0.4","0.2","","","","","0.1988439388","0.2628959394","0.2439518204","0.466140525","","","","","","","","","","72","H","0","img/none_selected.jpg","","19","main_expt",""
"","bandit","99","439961","0.0-61.0-0.0","28940261","wem/bandit_party_1","A3INEKAD86IRQC","either","3","265","","","","","","","0","0","1","0.1813993393","","0.8","0.6","0.4","0.2","","","","","0.1813993393","0.2116504525","0.2806117898","0.4094087999","","","","","","","","","","72","H","0","img/none_selected.jpg","","20","main_expt",""
"","bandit","100","441935","0.0-62.0-0.0","28940261","wem/bandit_party_1","A3INEKAD86IRQC","either","3","465","","","","","","","1","0","0","0.2012004452","","0.8","0.6","0.4","0.2","","","","","0.2012004452","0.1904426465","0.2658005831","0.4386974508","","","","","","","","","","72","H","0","img/none_selected.jpg","","21","main_expt",""
"","bandit","101","443750","0.0-63.0-0.0","28940261","wem/bandit_party_1","A3INEKAD86IRQC","either","3","304","","","","","","","0","0","1","0.1958646163","","0.8","0.6","0.4","0.2","","","","","0.1958646163","0.1581796968","0.2774390086","0.4505723784","","","","","","","","","","72","H","0","img/none_selected.jpg","","22","main_expt",""
"","bandit","102","445644","0.0-64.0-0.0","28940261","wem/bandit_party_1","A3INEKAD86IRQC","either","3","388","","","","","","","0","0","1","0.2039009352","","0.8","0.6","0.4","0.2","","","","","0.2626819079","0.2039009352","0.2795917474","0.4568000239","","","","","","","","","","74","J","1","","","23","main_expt",""
"","bandit","103","447508","0.0-65.0-0.0","28940261","wem/bandit_party_1","A3INEKAD86IRQC","either","3","359","","","","","","","0","0","1","0.228339491","","0.8","0.6","0.4","0.2","","","","","0.2906682881","0.228339491","0.2981059477","0.4518339256","","","","","","","","","","74","J","1","","","24","main_expt",""
"","bandit","104","449316","0.0-66.0-0.0","28940261","wem/bandit_party_1","A3INEKAD86IRQC","either","3","302","","","","","","","1","0","0","0.2602465224","","0.8","0.6","0.4","0.2","","","","","0.3270173502","0.2602465224","0.3272059922","0.4120159309","","","","","","","","","","74","J","1","","","25","main_expt",""
"","bandit","105","451216","0.0-67.0-0.0","28940261","wem/bandit_party_1","A3INEKAD86IRQC","either","3","396","","","","","","","0","0","1","0.1939420306","","0.8","0.6","0.4","0.2","","","","","0.2951289915","0.1939420306","0.3369826645","0.4134154185","","","","","","","","","","74","J","1","","","26","main_expt",""
"","bandit","106","452964","0.0-68.0-0.0","28940261","wem/bandit_party_1","A3INEKAD86IRQC","either","3","243","","","","","","","0","0","1","0.2387331149","","0.8","0.6","0.4","0.2","","","","","0.3520126272","0.2387331149","0.2531212506","0.4031068294","","","","","","","","","","74","J","1","","","27","main_expt",""
"","bandit","107","454789","0.0-69.0-0.0","28940261","wem/bandit_party_1","A3INEKAD86IRQC","either","3","320","","","","","","","1","0","0","0.2170461037","","0.8","0.6","0.4","0.2","","","","","0.3369287003","0.2183458617","0.2170461037","0.4305883772","","","","","","","","","","75","K","2","","","28","main_expt",""
"","bandit","108","456670","0.0-70.0-0.0","28940261","wem/bandit_party_1","A3INEKAD86IRQC","either","3","367","","","","","","","0","0","1","","0.2346211465","0.8","0.6","0.4","0.2","0.3591799128","0.2151501268","0.2346211465","0.4383329838","","","","","","","","","","","","","","75","K","2","","","29","main_expt",""
"","bandit","109","458577","0.0-71.0-0.0","28940261","wem/bandit_party_1","A3INEKAD86IRQC","either","3","385","","","","","","","0","0","1","0.2450860663","","0.8","0.6","0.4","0.2","","","","","0.3324285477","0.2267233056","0.2450860663","0.4233276099","","","","","","","","","","75","K","2","","","30","main_expt",""
"","bandit","110","460417","0.0-72.0-0.0","28940261","wem/bandit_party_1","A3INEKAD86IRQC","either","3","328","","","","","","","1","0","0","0.2141169407","","0.8","0.6","0.4","0.2","","","","","0.327032362","0.2663701676","0.2141169407","0.4016185005","","","","","","","","","","75","K","2","","","31","main_expt",""
"","bandit","111","462256","0.0-73.0-0.0","28940261","wem/bandit_party_1","A3INEKAD86IRQC","either","3","328","","","","","","","0","0","1","0.2347854155","","0.8","0.6","0.4","0.2","","","","","0.3230905041","0.275969473","0.2347854155","0.4134940178","","","","","","","","","","75","K","2","","","32","main_expt",""
"","bandit","112","464014","0.0-74.0-0.0","28940261","wem/bandit_party_1","A3INEKAD86IRQC","either","3","252","","","","","","","0","0","1","","0.246596708","0.8","0.6","0.4","0.2","0.2969008969","0.3365270118","0.246596708","0.4331174495","","","","","","","","","","","","","","75","K","2","","","33","main_expt",""
"","bandit","113","465863","0.0-75.0-0.0","28940261","wem/bandit_party_1","A3INEKAD86IRQC","either","3","326","","","","","","","1","0","0","0.4454497031","","0.8","0.6","0.4","0.2","","","","","0.2536392951","0.2916301021","0.1914370393","0.4454497031","","","","","","","","","","76","L","3","","","34","main_expt",""
"","bandit","114","467783","0.0-76.0-0.0","28940261","wem/bandit_party_1","A3INEKAD86IRQC","either","3","405","","","","","","","0","0","1","","0.4419706984","0.8","0.6","0.4","0.2","0.2336030597","0.3236538836","0.1408207185","0.4419706984","","","","","","","","","","","","","","76","L","3","","","35","main_expt",""
"","bandit","115","469614","0.0-77.0-0.0","28940261","wem/bandit_party_1","A3INEKAD86IRQC","either","3","324","","","","","","","0","0","1","","0.4205940312","0.8","0.6","0.4","0.2","0.3110392291","0.3317439785","0.09539735145","0.4205940312","","","","","","","","","","","","","","76","L","3","","","36","main_expt",""
"","bandit","116","471415","0.0-78.0-0.0","28940261","wem/bandit_party_1","A3INEKAD86IRQC","either","3","290","","","","","","","0","0","1","","0.4227305347","0.8","0.6","0.4","0.2","0.3354302382","0.3620900841","0.08867332122","0.4227305347","","","","","","","","","","","","","","76","L","3","","","37","main_expt",""
"","bandit","117","473264","0.0-79.0-0.0","28940261","wem/bandit_party_1","A3INEKAD86IRQC","either","3","335","","","","","","","0","0","1","","0.3904174821","0.8","0.6","0.4","0.2","0.3359947902","0.3649119955","0.0804097964","0.3904174821","","","","","","","","","","","","","","76","L","3","","","38","main_expt",""
"","bandit","118","475036","0.0-80.0-0.0","28940261","wem/bandit_party_1","A3INEKAD86IRQC","either","3","267","","","","","","","0","0","1","0.3704092514","","0.8","0.6","0.4","0.2","","","","","0.3719467902","0.3993258453","0.1092906338","0.3704092514","","","","","","","","","","76","L","3","","","39","main_expt",""
"","bandit","119","476854","0.0-81.0-0.0","28940261","wem/bandit_party_1","A3INEKAD86IRQC","either","3","308","","","","","","","0","0","1","0.37180955","","0.8","0.6","0.4","0.2","","","","","0.37180955","0.43145226","0.08771014895","0.3250394812","","","","","","","","","","72","H","0","img/none_selected.jpg","","40","main_expt",""
"","bandit","120","478651","0.0-82.0-0.0","28940261","wem/bandit_party_1","A3INEKAD86IRQC","either","3","288","","","","","","","0","1","0","","0.3972707938","0.8","0.6","0.4","0.2","0.3972707938","0.3925837484","0.1065106481","0.3633775572","","","","","","","","","","","","","","72","H","0","img/none_selected.jpg","","41","main_expt",""
"","bandit","121","480495","0.0-83.0-0.0","28940261","wem/bandit_party_1","A3INEKAD86IRQC","either","3","334","","","","","","","1","0","0","0.3981555674","","0.8","0.6","0.4","0.2","","","","","0.3981555674","0.4020613291","0.0926848955","0.3708570881","","","","","","","","","","72","H","0","img/none_selected.jpg","","42","main_expt",""
"","bandit","122","482372","0.0-84.0-0.0","28940261","wem/bandit_party_1","A3INEKAD86IRQC","either","3","370","","","","","","","1","0","0","0.3698022864","","0.8","0.6","0.4","0.2","","","","","0.3698022864","0.4199094288","0.09213729174","0.3852030547","","","","","","","","","","72","H","0","img/none_selected.jpg","","43","main_expt",""
"","bandit","123","484408","0.0-85.0-0.0","28940261","wem/bandit_party_1","A3INEKAD86IRQC","either","3","528","","","","","","","0","0","1","0.3278340923","","0.8","0.6","0.4","0.2","","","","","0.3278340923","0.4362917367","0.0950319608","0.3653477133","","","","","","","","","","72","H","0","img/none_selected.jpg","","44","main_expt",""
"","bandit","124","486188","0.0-86.0-0.0","28940261","wem/bandit_party_1","A3INEKAD86IRQC","either","3","268","","","","","","","1","0","0","0.4004869948","","0.8","0.6","0.4","0.2","","","","","0.4004869948","0.4310393502","0.07917944011","0.3423722135","","","","","","","","","","72","H","0","img/none_selected.jpg","","45","main_expt",""
"","bandit","125","488343","0.0-87.0-0.0","28940261","wem/bandit_party_1","A3INEKAD86IRQC","either","3","641","","","","","","","0","0","1","0.4389658195","","0.8","0.6","0.4","0.2","","","","","0.4389658195","0.4301719659","0.08528552535","0.2713785315","","","","","","","","","","72","H","0","img/none_selected.jpg","","46","main_expt",""
"","bandit","126","490309","0.0-88.0-0.0","28940261","wem/bandit_party_1","A3INEKAD86IRQC","either","3","455","","","","","","","1","0","0","0.4294918489","","0.8","0.6","0.4","0.2","","","","","0.4294918489","0.4274268526","0.08303267599","0.2675382036","","","","","","","","","","72","H","0","img/none_selected.jpg","","47","main_expt",""
"","bandit","127","492477","0.0-89.0-0.0","28940261","wem/bandit_party_1","A3INEKAD86IRQC","either","3","661","","","","","","","0","1","0","","0.3948346084","0.8","0.6","0.4","0.2","0.3948346084","0.4559220927","0.1183490009","0.3006553151","","","","","","","","","","","","","","72","H","0","img/none_selected.jpg","","48","main_expt",""
"","bandit","128","494334","0.0-90.0-0.0","28940261","wem/bandit_party_1","A3INEKAD86IRQC","either","3","343","","","","","","","1","0","0","0.4226663974","","0.8","0.6","0.4","0.2","","","","","0.4226663974","0.4362936898","0.09831357925","0.2865645246","","","","","","","","","","72","H","0","img/none_selected.jpg","","49","main_expt",""
"","bandit","129","496449","0.0-91.0-0.0","28940261","wem/bandit_party_1","A3INEKAD86IRQC","either","3","603","","","","","","","0","1","0","","0.3943232949","0.8","0.6","0.4","0.2","0.3943232949","0.4001593617","0.0896163698","0.2842330123","","","","","","","","","","","","","","72","H","0","img/none_selected.jpg","","50","main_expt",""
"","bandit","130","498301","0.0-92.0-0.0","28940261","wem/bandit_party_1","A3INEKAD86IRQC","either","3","339","","","","","","","1","0","0","0.3911898034","","0.8","0.6","0.4","0.2","","","","","0.3911898034","0.3737598101","0.08239790895","0.2933637591","","","","","","","","","","72","H","0","img/none_selected.jpg","","51","main_expt",""
"","bandit","131","500247","0.0-93.0-0.0","28940261","wem/bandit_party_1","A3INEKAD86IRQC","either","3","438","","","","","","","0","0","1","0.3897106723","","0.8","0.6","0.4","0.2","","","","","0.3897106723","0.3490564905","0.06509061927","0.2802127762","","","","","","","","","","72","H","0","img/none_selected.jpg","","52","main_expt",""
"","bandit","132","502086","0.0-94.0-0.0","28940261","wem/bandit_party_1","A3INEKAD86IRQC","either","3","328","","","","","","","0","0","1","0.3977919118","","0.8","0.6","0.4","0.2","","","","","0.3977919118","0.3606416198","0.05503049918","0.2567133084","","","","","","","","","","72","H","0","img/none_selected.jpg","","53","main_expt",""
"","bandit","133","503975","0.0-95.0-0.0","28940261","wem/bandit_party_1","A3INEKAD86IRQC","either","3","380","","","","","","","0","0","1","0.3803623479","","0.8","0.6","0.4","0.2","","","","","0.3803623479","0.3920172378","0.06606451817","0.304436262","","","","","","","","","","72","H","0","img/none_selected.jpg","","54","main_expt",""
"","bandit","134","505935","0.0-96.0-0.0","28940261","wem/bandit_party_1","A3INEKAD86IRQC","either","3","444","","","","","","","0","0","1","0.3898030924","","0.8","0.6","0.4","0.2","","","","","0.3898030924","0.3841867886","0.0812436444","0.3050376594","","","","","","","","","","72","H","0","img/none_selected.jpg","","55","main_expt",""
"","bandit","135","508032","0.0-97.0-0.0","28940261","wem/bandit_party_1","A3INEKAD86IRQC","either","3","585","","","","","","","1","0","0","0.4332266089","","0.8","0.6","0.4","0.2","","","","","0.4332266089","0.3752679739","0.05752214818","0.2874076515","","","","","","","","","","72","H","0","img/none_selected.jpg","","56","main_expt",""
"","bandit","136","509942","0.0-98.0-0.0","28940261","wem/bandit_party_1","A3INEKAD86IRQC","either","3","402","","","","","","","1","0","0","0.4598680415","","0.8","0.6","0.4","0.2","","","","","0.4598680415","0.3595388075","0.05957573693","0.2633226407","","","","","","","","","","72","H","0","img/none_selected.jpg","","57","main_expt",""
"","bandit","137","511911","0.0-99.0-0.0","28940261","wem/bandit_party_1","A3INEKAD86IRQC","either","3","454","","","","","","","1","0","0","0.4510058242","","0.8","0.6","0.4","0.2","","","","","0.4510058242","0.2926617498","0.08347810371","0.282557186","","","","","","","","","","72","H","0","img/none_selected.jpg","","58","main_expt",""
"","bandit","138","513792","0.0-100.0-0.0","28940261","wem/bandit_party_1","A3INEKAD86IRQC","either","3","359","","","","","","","1","0","0","0.4587464736","","0.8","0.6","0.4","0.2","","","","","0.4587464736","0.2854140482","0.1166757522","0.2675679041","","","","","","","","","","72","H","0","img/none_selected.jpg","","59","main_expt",""
"","bandit","139","515799","0.0-101.0-0.0","28940261","wem/bandit_party_1","A3INEKAD86IRQC","either","3","494","","","","","","","0","0","1","0.4534111386","","0.8","0.6","0.4","0.2","","","","","0.4534111386","0.2767785787","0.1223048521","0.2654645802","","","","","","","","","","72","H","0","img/none_selected.jpg","","60","main_expt",""
"","bandit","140","517551","0.0-102.0-0.0","28940261","wem/bandit_party_1","A3INEKAD86IRQC","either","3","238","","","","","","","0","1","0","","0.4581751116","0.8","0.6","0.4","0.2","0.4581751116","0.3110110239","0.1341525672","0.2326588137","","","","","","","","","","","","","","72","H","0","img/none_selected.jpg","","61","main_expt",""
"","bandit","141","519413","0.0-103.0-0.0","28940261","wem/bandit_party_1","A3INEKAD86IRQC","either","3","351","","","","","","","0","0","1","0.4447189615","","0.8","0.6","0.4","0.2","","","","","0.4447189615","0.2739379344","0.1748443247","0.2430345153","","","","","","","","","","72","H","0","img/none_selected.jpg","","62","main_expt",""
"","bandit","142","521306","0.0-104.0-0.0","28940261","wem/bandit_party_1","A3INEKAD86IRQC","either","3","374","","","","","","","1","0","0","0.4351057758","","0.8","0.6","0.4","0.2","","","","","0.4351057758","0.2518438402","0.1872250423","0.2682261916","","","","","","","","","","72","H","0","img/none_selected.jpg","","63","main_expt",""
"","bandit","143","523150","0.0-105.0-0.0","28940261","wem/bandit_party_1","A3INEKAD86IRQC","either","3","329","","","","","","","0","0","1","0.4559228662","","0.8","0.6","0.4","0.2","","","","","0.4559228662","0.216118181","0.1592276408","0.3136585585","","","","","","","","","","72","H","0","img/none_selected.jpg","","64","main_expt",""
"","bandit","144","524998","0.0-106.0-0.0","28940261","wem/bandit_party_1","A3INEKAD86IRQC","either","3","334","","","","","","","1","0","0","0.4526438492","","0.8","0.6","0.4","0.2","","","","","0.4526438492","0.1961712117","0.1881419285","0.3208042698","","","","","","","","","","72","H","0","img/none_selected.jpg","","65","main_expt",""
"","bandit","145","527053","0.0-107.0-0.0","28940261","wem/bandit_party_1","A3INEKAD86IRQC","either","3","549","","","","","","","0","0","1","0.4604690516","","0.8","0.6","0.4","0.2","","","","","0.4604690516","0.1821057022","0.2075830042","0.3550213758","","","","","","","","","","72","H","0","img/none_selected.jpg","","66","main_expt",""
"","bandit","146","528951","0.0-108.0-0.0","28940261","wem/bandit_party_1","A3INEKAD86IRQC","either","3","388","","","","","","","0","0","1","0.4479534522","","0.8","0.6","0.4","0.2","","","","","0.4479534522","0.2221692745","0.210321401","0.2883445083","","","","","","","","","","72","H","0","img/none_selected.jpg","","67","main_expt",""
"","bandit","147","530751","0.0-109.0-0.0","28940261","wem/bandit_party_1","A3INEKAD86IRQC","either","3","294","","","","","","","0","0","1","0.4420076102","","0.8","0.6","0.4","0.2","","","","","0.4420076102","0.2385328342","0.1740681144","0.2492112051","","","","","","","","","","72","H","0","img/none_selected.jpg","","68","main_expt",""
"","bandit","148","532567","0.0-110.0-0.0","28940261","wem/bandit_party_1","A3INEKAD86IRQC","either","3","307","","","","","","","0","0","1","","0.1495678232","0.8","0.6","0.4","0.2","0.3840886122","0.2693988132","0.1495678232","0.1725364023","","","","","","","","","","","","","","75","K","2","","","69","main_expt",""
"","bandit","149","534396","0.0-111.0-0.0","28940261","wem/bandit_party_1","A3INEKAD86IRQC","either","3","317","","","","","","","0","0","1","0.1594524764","","0.8","0.6","0.4","0.2","","","","","0.3764426572","0.2633889128","0.1594524764","0.2081322216","","","","","","","","","","75","K","2","","","70","main_expt",""
"","bandit","150","536205","0.0-112.0-0.0","28940261","wem/bandit_party_1","A3INEKAD86IRQC","either","3","291","","","","","","","0","0","1","","0.1308665948","0.8","0.6","0.4","0.2","0.3925575972","0.2881785301","0.1308665948","0.2222096595","","","","","","","","","","","","","","75","K","2","","","71","main_expt",""
"","bandit","151","538037","0.0-113.0-0.0","28940261","wem/bandit_party_1","A3INEKAD86IRQC","either","3","323","","","","","","","0","0","1","","0.1413665491","0.8","0.6","0.4","0.2","0.4055717031","0.3496752211","0.1413665491","0.2276413934","","","","","","","","","","","","","","75","K","2","","","72","main_expt",""
"","bandit","152","539973","0.0-114.0-0.0","28940261","wem/bandit_party_1","A3INEKAD86IRQC","either","3","430","","","","","","","0","0","1","0.1562096843","","0.8","0.6","0.4","0.2","","","","","0.4313753627","0.3662649551","0.1562096843","0.202726327","","","","","","","","","","75","K","2","","","73","main_expt",""
"","bandit","153","541948","0.0-115.0-0.0","28940261","wem/bandit_party_1","A3INEKAD86IRQC","either","3","455","","","","","","","0","0","1","0.1601549975","","0.8","0.6","0.4","0.2","","","","","0.4294283137","0.3318597218","0.1601549975","0.2465356434","","","","","","","","","","75","K","2","","","74","main_expt",""
"","bandit","154","543770","0.0-116.0-0.0","28940261","wem/bandit_party_1","A3INEKAD86IRQC","either","3","302","","","","","","","1","0","0","0.3129946244","","0.8","0.6","0.4","0.2","","","","","0.4114775526","0.3129946244","0.1962365409","0.2780880013","","","","","","","","","","74","J","1","","","75","main_expt",""
"","bandit","155","545638","0.0-117.0-0.0","28940261","wem/bandit_party_1","A3INEKAD86IRQC","either","3","352","","","","","","","0","0","1","0.3299880354","","0.8","0.6","0.4","0.2","","","","","0.4038916894","0.3299880354","0.2315068675","0.230570622","","","","","","","","","","74","J","1","","","76","main_expt",""
"","bandit","156","547517","0.0-118.0-0.0","28940261","wem/bandit_party_1","A3INEKAD86IRQC","either","3","365","","","","","","","0","0","1","0.2704336052","","0.8","0.6","0.4","0.2","","","","","0.4028298088","0.2704336052","0.1749603823","0.1747897532","","","","","","","","","","74","J","1","","","77","main_expt",""
"","bandit","157","549269","0.0-119.0-0.0","28940261","wem/bandit_party_1","A3INEKAD86IRQC","either","3","244","","","","","","","0","0","1","","0.2489008917","0.8","0.6","0.4","0.2","0.4004321452","0.2489008917","0.2091975686","0.2009150394","","","","","","","","","","","","","","74","J","1","","","78","main_expt",""
"","bandit","158","551031","0.0-120.0-0.0","28940261","wem/bandit_party_1","A3INEKAD86IRQC","either","3","253","","","","","","","1","0","0","0.2182462247","","0.8","0.6","0.4","0.2","","","","","0.3909827091","0.2182462247","0.2699334682","0.2090883318","","","","","","","","","","74","J","1","","","79","main_expt",""
"","bandit","159","552838","0.0-121.0-0.0","28940261","wem/bandit_party_1","A3INEKAD86IRQC","either","3","292","","","","","","","0","0","1","","0.1591694045","0.8","0.6","0.4","0.2","0.4289339141","0.1591694045","0.2712134299","0.215522018","","","","","","","","","","","","","","74","J","1","","","80","main_expt",""
"","bandit","160","554606","0.0-122.0-0.0","28940261","wem/bandit_party_1","A3INEKAD86IRQC","either","3","260","","","","","","","0","0","1","","0.1661146317","0.8","0.6","0.4","0.2","0.4256341571","0.1661146317","0.2563236188","0.2655955182","","","","","","","","","","","","","","74","J","1","","","81","main_expt",""
"","bandit","161","556358","0.0-123.0-0.0","28940261","wem/bandit_party_1","A3INEKAD86IRQC","either","3","237","","","","","","","0","0","1","0.2249160828","","0.8","0.6","0.4","0.2","","","","","0.4153375647","0.2249160828","0.2474856626","0.2642342948","","","","","","","","","","74","J","1","","","82","main_expt",""
"","bandit","162","558110","0.0-124.0-0.0","28940261","wem/bandit_party_1","A3INEKAD86IRQC","either","3","242","","","","","","","0","0","1","0.2194800234","","0.8","0.6","0.4","0.2","","","","","0.4239102097","0.2194800234","0.2338037125","0.2615040017","","","","","","","","","","74","J","1","","","83","main_expt",""
"","bandit","163","559886","0.0-125.0-0.0","28940261","wem/bandit_party_1","A3INEKAD86IRQC","either","3","267","","","","","","","0","0","1","0.2020024956","","0.8","0.6","0.4","0.2","","","","","0.4021041833","0.2020024956","0.2929655049","0.3136368113","","","","","","","","","","74","J","1","","","84","main_expt",""
"","bandit","164","561677","0.0-126.0-0.0","28940261","wem/bandit_party_1","A3INEKAD86IRQC","either","3","270","","","","","","","0","1","0","","0.2433538552","0.8","0.6","0.4","0.2","0.4322374594","0.1639230135","0.2755572306","0.2433538552","","","","","","","","","","","","","","76","L","3","","","85","main_expt",""
"","bandit","165","563519","0.0-127.0-0.0","28940261","wem/bandit_party_1","A3INEKAD86IRQC","either","3","330","","","","","","","0","0","1","0.2583740773","","0.8","0.6","0.4","0.2","","","","","0.4247618508","0.1423092638","0.2706615249","0.2583740773","","","","","","","","","","76","L","3","","","86","main_expt",""
"","bandit","166","565399","0.0-128.0-0.0","28940261","wem/bandit_party_1","A3INEKAD86IRQC","either","3","371","","","","","","","0","0","1","","0.2656778135","0.8","0.6","0.4","0.2","0.4130492334","0.1623313408","0.3259805539","0.2656778135","","","","","","","","","","","","","","76","L","3","","","87","main_expt",""
"","bandit","167","567249","0.0-129.0-0.0","28940261","wem/bandit_party_1","A3INEKAD86IRQC","either","3","336","","","","","","","0","0","1","","0.2565525481","0.8","0.6","0.4","0.2","0.3883747858","0.1459946163","0.3471137027","0.2565525481","","","","","","","","","","","","","","76","L","3","","","88","main_expt",""
"","bandit","168","569109","0.0-130.0-0.0","28940261","wem/bandit_party_1","A3INEKAD86IRQC","either","3","346","","","","","","","0","0","1","","0.2471999074","0.8","0.6","0.4","0.2","0.3950807547","0.1684807643","0.3715311126","0.2471999074","","","","","","","","","","","","","","76","L","3","","","89","main_expt",""
"","bandit","169","571008","0.0-131.0-0.0","28940261","wem/bandit_party_1","A3INEKAD86IRQC","either","3","390","","","","","","","0","0","1","","0.2204199549","0.8","0.6","0.4","0.2","0.420982679","0.1937692241","0.3571728809","0.2204199549","","","","","","","","","","","","","","76","L","3","","","90","main_expt",""
"","bandit","170","572821","0.0-132.0-0.0","28940261","wem/bandit_party_1","A3INEKAD86IRQC","either","3","297","","","","","","","0","0","1","","0.2013548925","0.8","0.6","0.4","0.2","0.4012606491","0.1670397906","0.3348642023","0.2013548925","","","","","","","","","","","","","","76","L","3","","","91","main_expt",""
"","bandit","171","574667","0.0-133.0-0.0","28940261","wem/bandit_party_1","A3INEKAD86IRQC","either","3","337","","","","","","","0","0","1","","0.174921714","0.8","0.6","0.4","0.2","0.3950870333","0.1936095216","0.3551195155","0.174921714","","","","","","","","","","","","","","76","L","3","","","92","main_expt",""
"","bandit","172","576524","0.0-134.0-0.0","28940261","wem/bandit_party_1","A3INEKAD86IRQC","either","3","333","","","","","","","0","1","0","","0.3797372222","0.8","0.6","0.4","0.2","0.3797372222","0.2399824117","0.3494458231","0.1972058505","","","","","","","","","","","","","","72","H","0","img/none_selected.jpg","","93","main_expt",""
"","bandit","173","578359","0.0-135.0-0.0","28940261","wem/bandit_party_1","A3INEKAD86IRQC","either","3","326","","","","","","","0","0","1","0.3346339076","","0.8","0.6","0.4","0.2","","","","","0.3346339076","0.242536602","0.3759818745","0.2144007407","","","","","","","","","","72","H","0","img/none_selected.jpg","","94","main_expt",""
"","bandit","174","580230","0.0-136.0-0.0","28940261","wem/bandit_party_1","A3INEKAD86IRQC","either","3","362","","","","","","","0","0","1","","0.3433005441","0.8","0.6","0.4","0.2","0.3433005441","0.3081296623","0.3467088588","0.2025691914","","","","","","","","","","","","","","72","H","0","img/none_selected.jpg","","95","main_expt",""
"","bandit","175","581992","0.0-137.0-0.0","28940261","wem/bandit_party_1","A3INEKAD86IRQC","either","3","247","","","","","","","0","0","1","","0.2900415689","0.8","0.6","0.4","0.2","0.2900415689","0.371766452","0.3520186383","0.1750118246","","","","","","","","","","","","","","72","H","0","img/none_selected.jpg","","96","main_expt",""
"","bandit","176","583806","0.0-138.0-0.0","28940261","wem/bandit_party_1","A3INEKAD86IRQC","either","3","299","","","","","","","0","1","0","","0.3136050561","0.8","0.6","0.4","0.2","0.3136050561","0.3737721809","0.342216001","0.2433812568","","","","","","","","","","","","","","72","H","0","img/none_selected.jpg","","97","main_expt",""
"","bandit","177","585574","0.0-139.0-0.0","28940261","wem/bandit_party_1","A3INEKAD86IRQC","either","3","253","","","","","","","1","0","0","0.3236610102","","0.8","0.6","0.4","0.2","","","","","0.3236610102","0.3662625892","0.3775958225","0.1834100281","","","","","","","","","","72","H","0","img/none_selected.jpg","","98","main_expt",""
"","bandit","178","587372","0.0-140.0-0.0","28940261","wem/bandit_party_1","A3INEKAD86IRQC","either","3","283","","","","","","","0","0","1","","0.3116662608","0.8","0.6","0.4","0.2","0.3116662608","0.3912879072","0.3490624926","0.146161558","","","","","","","","","","","","","","72","H","0","img/none_selected.jpg","","99","main_expt",""
"","bandit","179","589164","0.0-141.0-0.0","28940261","wem/bandit_party_1","A3INEKAD86IRQC","either","3","283","","","","","","","0","0","1","0.3806420769","","0.8","0.6","0.4","0.2","","","","","0.3806420769","0.3916888764","0.3418910903","0.1186266926","","","","","","","","","","72","H","0","img/none_selected.jpg","","100","main_expt",""
"","bandit","180","591069","0.0-142.0-0.0","28940261","wem/bandit_party_1","A3INEKAD86IRQC","either","3","397","","","","","","","1","0","0","0.3825052475","","0.8","0.6","0.4","0.2","","","","","0.3825052475","0.3803758031","0.3544055354","0.1467879228","","","","","","","","","","72","H","0","img/none_selected.jpg","","101","main_expt",""
"","bandit","181","592909","0.0-143.0-0.0","28940261","wem/bandit_party_1","A3INEKAD86IRQC","either","3","327","","","","","","","1","0","0","0.3799327693","","0.8","0.6","0.4","0.2","","","","","0.3799327693","0.3685266224","0.3580864163","0.1336514036","","","","","","","","","","72","H","0","img/none_selected.jpg","","102","main_expt",""
"","bandit","182","594767","0.0-144.0-0.0","28940261","wem/bandit_party_1","A3INEKAD86IRQC","either","3","349","","","","","","","1","0","0","0.3502018886","","0.8","0.6","0.4","0.2","","","","","0.3502018886","0.3754978655","0.336528594","0.1325092095","","","","","","","","","","72","H","0","img/none_selected.jpg","","103","main_expt",""
"","bandit","183","596633","0.0-145.0-0.0","28940261","wem/bandit_party_1","A3INEKAD86IRQC","either","3","352","","","","","","","0","1","0","","0.3443431466","0.8","0.6","0.4","0.2","0.3443431466","0.4033056484","0.3190078166","0.1162839287","","","","","","","","","","","","","","72","H","0","img/none_selected.jpg","","104","main_expt",""
"","bandit","184","598422","0.0-146.0-0.0","28940261","wem/bandit_party_1","A3INEKAD86IRQC","either","3","276","","","","","","","1","0","0","0.3551378046","","0.8","0.6","0.4","0.2","","","","","0.3551378046","0.3617388181","0.3100940773","0.115620258","","","","","","","","","","72","H","0","img/none_selected.jpg","","105","main_expt",""
"","bandit","185","600232","0.0-147.0-0.0","28940261","wem/bandit_party_1","A3INEKAD86IRQC","either","3","300","","","","","","","1","0","0","0.3177956882","","0.8","0.6","0.4","0.2","","","","","0.3177956882","0.3656875331","0.2964842485","0.1102569517","","","","","","","","","","72","H","0","img/none_selected.jpg","","106","main_expt",""
"","bandit","186","602062","0.0-148.0-0.0","28940261","wem/bandit_party_1","A3INEKAD86IRQC","either","3","315","","","","","","","0","0","1","0.3463124521","","0.8","0.6","0.4","0.2","","","","","0.3463124521","0.3478183852","0.3224579283","0.110599846","","","","","","","","","","72","H","0","img/none_selected.jpg","","107","main_expt",""
"","bandit","187","603854","0.0-149.0-0.0","28940261","wem/bandit_party_1","A3INEKAD86IRQC","either","3","274","","","","","","","0","0","1","","0.330790185","0.8","0.6","0.4","0.2","0.330790185","0.3715517583","0.3365568187","0.1647947233","","","","","","","","","","","","","","72","H","0","img/none_selected.jpg","","108","main_expt",""
"","bandit","188","605686","0.0-150.0-0.0","28940261","wem/bandit_party_1","A3INEKAD86IRQC","either","3","317","","","","","","","0","0","1","0.3259779601","","0.8","0.6","0.4","0.2","","","","","0.3259779601","0.3713851569","0.3200824859","0.146095753","","","","","","","","","","72","H","0","img/none_selected.jpg","","109","main_expt",""
"","bandit","189","607558","0.0-151.0-0.0","28940261","wem/bandit_party_1","A3INEKAD86IRQC","either","3","355","","","","","","","0","0","1","0.3169053314","","0.8","0.6","0.4","0.2","","","","","0.3169053314","0.3401672382","0.3179471713","0.1691954855","","","","","","","","","","72","H","0","img/none_selected.jpg","","110","main_expt",""
"","bandit","190","609349","0.0-152.0-0.0","28940261","wem/bandit_party_1","A3INEKAD86IRQC","either","3","283","","","","","","","0","1","0","","0.342138516","0.8","0.6","0.4","0.2","0.342138516","0.3242328008","0.3168158386","0.1690298198","","","","","","","","","","","","","","72","H","0","img/none_selected.jpg","","111","main_expt",""
"","bandit","191","611137","0.0-153.0-0.0","28940261","wem/bandit_party_1","A3INEKAD86IRQC","either","3","276","","","","","","","1","0","0","0.3597886873","","0.8","0.6","0.4","0.2","","","","","0.3597886873","0.2991119965","0.3551606626","0.2196992501","","","","","","","","","","72","H","0","img/none_selected.jpg","","112","main_expt",""
"","bandit","192","612959","0.0-154.0-0.0","28940261","wem/bandit_party_1","A3INEKAD86IRQC","either","3","305","","","","","","","0","0","1","0.3580549124","","0.8","0.6","0.4","0.2","","","","","0.3580549124","0.3364281798","0.3615444015","0.2723467559","","","","","","","","","","72","H","0","img/none_selected.jpg","","113","main_expt",""
"","bandit","193","614772","0.0-155.0-0.0","28940261","wem/bandit_party_1","A3INEKAD86IRQC","either","3","298","","","","","","","0","0","1","","0.3556181037","0.8","0.6","0.4","0.2","0.3556181037","0.3495122724","0.4043222556","0.2470985199","","","","","","","","","","","","","","72","H","0","img/none_selected.jpg","","114","main_expt",""
"","bandit","194","616607","0.0-156.0-0.0","28940261","wem/bandit_party_1","A3INEKAD86IRQC","either","3","328","","","","","","","0","0","1","","0.3489042174","0.8","0.6","0.4","0.2","0.3489042174","0.324938203","0.4179696435","0.2482590513","","","","","","","","","","","","","","72","H","0","img/none_selected.jpg","","115","main_expt",""
"","bandit","195","618433","0.0-157.0-0.0","28940261","wem/bandit_party_1","A3INEKAD86IRQC","either","3","307","","","","","","","0","0","1","0.3466245191","","0.8","0.6","0.4","0.2","","","","","0.3466245191","0.3227512736","0.4324393975","0.1992012358","","","","","","","","","","72","H","0","img/none_selected.jpg","","116","main_expt",""
"","bandit","196","620520","0.0-158.0-0.0","28940261","wem/bandit_party_1","A3INEKAD86IRQC","either","3","571","","","","","","","0","0","1","","0.216355905","0.8","0.6","0.4","0.2","0.3581754781","0.2585209305","0.4290779421","0.216355905","","","","","","","","","","","","","","76","L","3","","","117","main_expt",""
"","bandit","197","622438","0.0-159.0-0.0","28940261","wem/bandit_party_1","A3INEKAD86IRQC","either","3","401","","","","","","","1","0","0","0.1715453935","","0.8","0.6","0.4","0.2","","","","","0.283939031","0.2817260076","0.4459264202","0.1715453935","","","","","","","","","","76","L","3","","","118","main_expt",""
"","bandit","198","624376","0.0-160.0-0.0","28940261","wem/bandit_party_1","A3INEKAD86IRQC","either","3","421","","","","","","","0","0","1","0.1843456939","","0.8","0.6","0.4","0.2","","","","","0.2992634423","0.328214026","0.436995295","0.1843456939","","","","","","","","","","76","L","3","","","119","main_expt",""
"","bandit","199","626174","0.0-161.0-0.0","28940261","wem/bandit_party_1","A3INEKAD86IRQC","either","3","287","","","","","","","0","0","1","","0.1848061615","0.8","0.6","0.4","0.2","0.1878150733","0.3355603121","0.4151314625","0.1848061615","","","","","","","","","","","","","","76","L","3","","","120","main_expt",""
"","bandit","200","628004","0.0-162.0-0.0","28940261","wem/bandit_party_1","A3INEKAD86IRQC","either","3","315","","","","","","","0","0","1","","0.1679578636","0.8","0.6","0.4","0.2","0.1447458933","0.3829587724","0.4384064527","0.1679578636","","","","","","","","","","","","","","76","L","3","","","121","main_expt",""
"","bandit","201","629783","0.0-163.0-0.0","28940261","wem/bandit_party_1","A3INEKAD86IRQC","either","3","269","","","","","","","0","0","1","0.197295971","","0.8","0.6","0.4","0.2","","","","","0.1176060398","0.3995678287","0.4417589501","0.197295971","","","","","","","","","","76","L","3","","","122","main_expt",""
"","bandit","202","631628","0.0-164.0-0.0","28940261","wem/bandit_party_1","A3INEKAD86IRQC","either","3","329","","","","","","","0","0","1","","0.2184653352","0.8","0.6","0.4","0.2","0.1097677055","0.3656739583","0.4017154396","0.2184653352","","","","","","","","","","","","","","76","L","3","","","123","main_expt",""
"","bandit","203","633357","0.0-165.0-0.0","28940261","wem/bandit_party_1","A3INEKAD86IRQC","either","3","222","","","","","","","0","0","1","","0.2147868977","0.8","0.6","0.4","0.2","0.08048168986","0.3862549257","0.3619070526","0.2147868977","","","","","","","","","","","","","","76","L","3","","","124","main_expt",""
"","bandit","204","635109","0.0-166.0-0.0","28940261","wem/bandit_party_1","A3INEKAD86IRQC","either","3","244","","","","","","","0","0","1","","0.1667936559","0.8","0.6","0.4","0.2","0.07842900555","0.3593796239","0.3567490645","0.1667936559","","","","","","","","","","","","","","76","L","3","","","125","main_expt",""
"","bandit","205","636916","0.0-167.0-0.0","28940261","wem/bandit_party_1","A3INEKAD86IRQC","either","3","292","","","","","","","0","0","1","","0.1453295256","0.8","0.6","0.4","0.2","0.08318363027","0.3413194209","0.3558473019","0.1453295256","","","","","","","","","","","","","","76","L","3","","","126","main_expt",""
"","bandit","206","638657","0.0-168.0-0.0","28940261","wem/bandit_party_1","A3INEKAD86IRQC","either","3","220","","","","","","","0","0","1","0.3369929262","","0.8","0.6","0.4","0.2","","","","","0.06812438963","0.3369929262","0.3543069734","0.1635755653","","","","","","","","","","74","J","1","","","127","main_expt",""
"","bandit","207","640470","0.0-169.0-0.0","28940261","wem/bandit_party_1","A3INEKAD86IRQC","either","3","304","","","","","","","0","0","1","","0.2922989636","0.8","0.6","0.4","0.2","0.08303766286","0.2922989636","0.3328374851","0.1872639566","","","","","","","","","","","","","","74","J","1","","","128","main_expt",""
"","bandit","208","642284","0.0-170.0-0.0","28940261","wem/bandit_party_1","A3INEKAD86IRQC","either","3","301","","","","","","","0","0","1","","0.3095146075","0.8","0.6","0.4","0.2","0.09047360051","0.3095146075","0.3238683282","0.2032718864","","","","","","","","","","","","","","74","J","1","","","129","main_expt",""
"","bandit","209","644054","0.0-171.0-0.0","28940261","wem/bandit_party_1","A3INEKAD86IRQC","either","3","262","","","","","","","0","0","1","0.3068425872","","0.8","0.6","0.4","0.2","","","","","0.131542256","0.3068425872","0.2750329062","0.2025864764","","","","","","","","","","74","J","1","","","130","main_expt",""
"","bandit","210","645871","0.0-172.0-0.0","28940261","wem/bandit_party_1","A3INEKAD86IRQC","either","3","307","","","","","","","0","0","1","","0.3112504131","0.8","0.6","0.4","0.2","0.1492019489","0.3112504131","0.2751886228","0.2158584071","","","","","","","","","","","","","","74","J","1","","","131","main_expt",""
"","bandit","211","647663","0.0-173.0-0.0","28940261","wem/bandit_party_1","A3INEKAD86IRQC","either","3","273","","","","","","","0","0","1","0.2729729886","","0.8","0.6","0.4","0.2","","","","","0.1571188116","0.3595653039","0.2729729886","0.2105840197","","","","","","","","","","75","K","2","","","132","main_expt",""
"","bandit","212","649454","0.0-174.0-0.0","28940261","wem/bandit_party_1","A3INEKAD86IRQC","either","3","280","","","","","","","0","0","1","0.3248088544","","0.8","0.6","0.4","0.2","","","","","0.2021073832","0.3873527377","0.3248088544","0.2328486735","","","","","","","","","","75","K","2","","","133","main_expt",""
"","bandit","213","651320","0.0-175.0-0.0","28940261","wem/bandit_party_1","A3INEKAD86IRQC","either","3","351","","","","","","","0","0","1","","0.3596446835","0.8","0.6","0.4","0.2","0.2693148074","0.3973884711","0.3596446835","0.2589092944","","","","","","","","","","","","","","75","K","2","","","134","main_expt",""
"","bandit","214","653150","0.0-176.0-0.0","28940261","wem/bandit_party_1","A3INEKAD86IRQC","either","3","313","","","","","","","0","0","1","0.318377279","","0.8","0.6","0.4","0.2","","","","","0.2625780805","0.4080523157","0.318377279","0.2637326353","","","","","","","","","","75","K","2","","","135","main_expt",""
"","bandit","215","654972","0.0-177.0-0.0","28940261","wem/bandit_party_1","A3INEKAD86IRQC","either","3","308","","","","","","","0","0","1","","0.3160887017","0.8","0.6","0.4","0.2","0.2981707722","0.4176503084","0.3160887017","0.2718680576","","","","","","","","","","","","","","75","K","2","","","136","main_expt",""
"","bandit","216","656726","0.0-178.0-0.0","28940261","wem/bandit_party_1","A3INEKAD86IRQC","either","3","246","","","","","","","0","0","1","","0.3148158286","0.8","0.6","0.4","0.2","0.3148158286","0.3859803947","0.2883225013","0.2919957672","","","","","","","","","","","","","","72","H","0","img/none_selected.jpg","","137","main_expt",""
"","bandit","217","658527","0.0-179.0-0.0","28940261","wem/bandit_party_1","A3INEKAD86IRQC","either","3","291","","","","","","","0","0","1","0.3111523267","","0.8","0.6","0.4","0.2","","","","","0.3111523267","0.358492916","0.3009152141","0.3193993407","","","","","","","","","","72","H","0","img/none_selected.jpg","","138","main_expt",""
"","bandit","218","660350","0.0-180.0-0.0","28940261","wem/bandit_party_1","A3INEKAD86IRQC","either","3","307","","","","","","","0","0","1","","0.3034593298","0.8","0.6","0.4","0.2","0.3034593298","0.3608756281","0.293720077","0.3404434035","","","","","","","","","","","","","","72","H","0","img/none_selected.jpg","","139","main_expt",""
"","bandit","219","661980","0.0-181.0-0.0","28940261","wem/bandit_party_1","A3INEKAD86IRQC","either","3","115","","","","","","","0","0","1","0.2507495005","","0.8","0.6","0.4","0.2","","","","","0.2507495005","0.3421836092","0.286059761","0.3278052243","","","","","","","","","","72","H","0","img/none_selected.jpg","","140","main_expt",""
"","bandit","220","663693","0.0-182.0-0.0","28940261","wem/bandit_party_1","A3INEKAD86IRQC","either","3","205","","","","","","","0","0","1","0.2220694513","","0.8","0.6","0.4","0.2","","","","","0.2220694513","0.3737340371","0.2931724706","0.3038906839","","","","","","","","","","72","H","0","img/none_selected.jpg","","141","main_expt",""
"","bandit","221","665374","0.0-183.0-0.0","28940261","wem/bandit_party_1","A3INEKAD86IRQC","either","3","172","","","","","","","0","1","0","","0.2182180164","0.8","0.6","0.4","0.2","0.2119249064","0.3461121542","0.2182180164","0.2924195757","","","","","","","","","","","","","","75","K","2","","","142","main_expt",""
"","bandit","222","667212","0.0-184.0-0.0","28940261","wem/bandit_party_1","A3INEKAD86IRQC","either","3","332","","","","","","","1","0","0","0.2015475508","","0.8","0.6","0.4","0.2","","","","","0.2665135591","0.3305931074","0.2015475508","0.2816149275","","","","","","","","","","75","K","2","","","143","main_expt",""
"","bandit","223","668963","0.0-185.0-0.0","28940261","wem/bandit_party_1","A3INEKAD86IRQC","either","3","244","","","","","","","0","0","1","","0.2074070562","0.8","0.6","0.4","0.2","0.2854155153","0.3561039987","0.2074070562","0.2355525614","","","","","","","","","","","","","","75","K","2","","","144","main_expt",""
"","bandit","224","670741","0.0-186.0-0.0","28940261","wem/bandit_party_1","A3INEKAD86IRQC","either","3","263","","","","","","","0","0","1","0.1415368311","","0.8","0.6","0.4","0.2","","","","","0.2521048148","0.3648023512","0.1415368311","0.2185662272","","","","","","","","","","75","K","2","","","145","main_expt",""
"","bandit","225","672487","0.0-187.0-0.0","28940261","wem/bandit_party_1","A3INEKAD86IRQC","either","3","237","","","","","","","0","0","1","0.1549520657","","0.8","0.6","0.4","0.2","","","","","0.2321266643","0.3450315","0.1549520657","0.2209315791","","","","","","","","","","75","K","2","","","146","main_expt",""
"","bandit","226","674253","0.0-188.0-0.0","28940261","wem/bandit_party_1","A3INEKAD86IRQC","either","3","249","","","","","","","0","1","0","","0.1469310363","0.8","0.6","0.4","0.2","0.3159383216","0.2720321141","0.1469310363","0.2889766311","","","","","","","","","","","","","","75","K","2","","","147","main_expt",""
"","bandit","227","676142","0.0-189.0-0.0","28940261","wem/bandit_party_1","A3INEKAD86IRQC","either","3","372","","","","","","","0","0","1","","0.1332828417","0.8","0.6","0.4","0.2","0.2673485129","0.2598972664","0.1332828417","0.2859466156","","","","","","","","","","","","","","75","K","2","","","148","main_expt",""
"","bandit","228","677957","0.0-190.0-0.0","28940261","wem/bandit_party_1","A3INEKAD86IRQC","either","3","301","","","","","","","0","0","1","0.1102010463","","0.8","0.6","0.4","0.2","","","","","0.3348600541","0.2343157719","0.1102010463","0.2588478233","","","","","","","","","","75","K","2","","","149","main_expt",""
"","bandit","229","679789","0.0-191.0-0.0","28940261","wem/bandit_party_1","A3INEKAD86IRQC","either","3","323","","","","","","","0","0","1","","0.1356103494","0.8","0.6","0.4","0.2","0.3659656834","0.2451363599","0.1356103494","0.2224653457","","","","","","","","","","","","","","75","K","2","","","150","main_expt",""
"","bandit","230","681487","0.0-192.0-0.0","28940261","wem/bandit_party_1","A3INEKAD86IRQC","either","3","169","","","","","","","1","0","0","0.1621229287","","0.8","0.6","0.4","0.2","","","","","0.36397653","0.2053737132","0.1621229287","0.2387237716","","","","","","","","","","75","K","2","","","151","main_expt",""
"","bandit","231","683199","0.0-193.0-0.0","28940261","wem/bandit_party_1","A3INEKAD86IRQC","either","3","190","","","","","","","0","0","1","","0.1412745606","0.8","0.6","0.4","0.2","0.3710672623","0.2396242378","0.1412745606","0.2519133504","","","","","","","","","","","","","","75","K","2","","","152","main_expt",""
"","bandit","232","685118","0.0-194.0-0.0","28940261","wem/bandit_party_1","A3INEKAD86IRQC","either","3","408","","","","","","","0","0","1","0.1707580034","","0.8","0.6","0.4","0.2","","","","","0.3828607765","0.2923277395","0.1707580034","0.3078499427","","","","","","","","","","75","K","2","","","153","main_expt",""
"","bandit","233","686854","0.0-195.0-0.0","28940261","wem/bandit_party_1","A3INEKAD86IRQC","either","3","216","","","","","","","0","0","1","","0.1717455462","0.8","0.6","0.4","0.2","0.3526468527","0.3166515581","0.1717455462","0.3283820497","","","","","","","","","","","","","","75","K","2","","","154","main_expt",""
"","bandit","234","688789","0.0-196.0-0.0","28940261","wem/bandit_party_1","A3INEKAD86IRQC","either","3","428","","","","","","","0","0","1","","0.1785539081","0.8","0.6","0.4","0.2","0.3865981945","0.3194616596","0.1785539081","0.3303057687","","","","","","","","","","","","","","75","K","2","","","155","main_expt",""
"","bandit","235","690558","0.0-197.0-0.0","28940261","wem/bandit_party_1","A3INEKAD86IRQC","either","3","253","","","","","","","0","1","0","","0.2175815231","0.8","0.6","0.4","0.2","0.4328422877","0.3767011333","0.2175815231","0.3178912443","","","","","","","","","","","","","","75","K","2","","","156","main_expt",""
"","bandit","236","692247","0.0-198.0-0.0","28940261","wem/bandit_party_1","A3INEKAD86IRQC","either","3","181","","","","","","","0","0","1","0.216674397","","0.8","0.6","0.4","0.2","","","","","0.4224906378","0.3853144204","0.216674397","0.3236874272","","","","","","","","","","75","K","2","","","157","main_expt",""
"","bandit","237","694026","0.0-199.0-0.0","28940261","wem/bandit_party_1","A3INEKAD86IRQC","either","3","261","","","","","","","0","0","1","","0.2184316938","0.8","0.6","0.4","0.2","0.4428847078","0.3519128793","0.2184316938","0.3731337511","","","","","","","","","","","","","","75","K","2","","","158","main_expt",""
"","bandit","238","695727","0.0-200.0-0.0","28940261","wem/bandit_party_1","A3INEKAD86IRQC","either","3","192","","","","","","","0","1","0","","0.2603966468","0.8","0.6","0.4","0.2","0.4498083842","0.3255157266","0.2603966468","0.3758107074","","","","","","","","","","","","","","75","K","2","","","159","main_expt",""
"","bandit","239","697498","0.0-201.0-0.0","28940261","wem/bandit_party_1","A3INEKAD86IRQC","either","3","250","","","","","","","0","0","1","","0.2242017374","0.8","0.6","0.4","0.2","0.4319550234","0.379238532","0.2242017374","0.3494215766","","","","","","","","","","","","","","75","K","2","","","160","main_expt",""
"","bandit","240","699245","0.0-202.0-0.0","28940261","wem/bandit_party_1","A3INEKAD86IRQC","either","3","239","","","","","","","0","0","1","","0.2014027125","0.8","0.6","0.4","0.2","0.4417514389","0.3776335756","0.2014027125","0.3327111917","","","","","","","","","","","","","","75","K","2","","","161","main_expt",""
"","bandit","241","701071","0.0-203.0-0.0","28940261","wem/bandit_party_1","A3INEKAD86IRQC","either","3","309","","","","","","","0","0","1","0.2955751891","","0.8","0.6","0.4","0.2","","","","","0.4081293495","0.2955751891","0.2038621466","0.3171011618","","","","","","","","","","74","J","1","","","162","main_expt",""
"","bandit","242","702813","0.0-204.0-0.0","28940261","wem/bandit_party_1","A3INEKAD86IRQC","either","3","225","","","","","","","0","0","1","0.30851492","","0.8","0.6","0.4","0.2","","","","","0.4265776113","0.30851492","0.1238136799","0.364183239","","","","","","","","","","74","J","1","","","163","main_expt",""
"","bandit","243","704545","0.0-205.0-0.0","28940261","wem/bandit_party_1","A3INEKAD86IRQC","either","3","218","","","","","","","1","0","0","0.3074756362","","0.8","0.6","0.4","0.2","","","","","0.427472809","0.3074756362","0.1104941302","0.3917374524","","","","","","","","","","74","J","1","","","164","main_expt",""
"","bandit","244","706302","0.0-206.0-0.0","28940261","wem/bandit_party_1","A3INEKAD86IRQC","either","3","240","","","","","","","0","0","1","","0.2743039079","0.8","0.6","0.4","0.2","0.4016343469","0.2743039079","0.1099358877","0.3629360172","","","","","","","","","","","","","","74","J","1","","","165","main_expt",""
"","bandit","245","708050","0.0-207.0-0.0","28940261","wem/bandit_party_1","A3INEKAD86IRQC","either","3","219","","","","","","","0","0","1","0.2900226329","","0.8","0.6","0.4","0.2","","","","","0.3578169927","0.2900226329","0.08082918558","0.3697042915","","","","","","","","","","74","J","1","","","166","main_expt",""
"","bandit","246","709732","0.0-208.0-0.0","28940261","wem/bandit_party_1","A3INEKAD86IRQC","either","3","172","","","","","","","0","0","1","","0.3444017494","0.8","0.6","0.4","0.2","0.3346076013","0.3444017494","0.08539074978","0.3626443337","","","","","","","","","","","","","","74","J","1","","","167","main_expt",""
"","bandit","247","711437","0.0-209.0-0.0","28940261","wem/bandit_party_1","A3INEKAD86IRQC","either","3","198","","","","","","","1","0","0","0.3934904689","","0.8","0.6","0.4","0.2","","","","","0.36326211","0.3934904689","0.1307687804","0.3488380128","","","","","","","","","","74","J","1","","","168","main_expt",""
"","bandit","248","713222","0.0-210.0-0.0","28940261","wem/bandit_party_1","A3INEKAD86IRQC","either","3","276","","","","","","","0","0","1","0.3712778229","","0.8","0.6","0.4","0.2","","","","","0.3389060657","0.3712778229","0.09435724838","0.3338465455","","","","","","","","","","74","J","1","","","169","main_expt",""
"","bandit","249","714849","0.0-211.0-0.0","28940261","wem/bandit_party_1","A3INEKAD86IRQC","either","3","112","","","","","","","0","1","0","","0.3348119161","0.8","0.6","0.4","0.2","0.3820287301","0.3348119161","0.09371103674","0.3675902536","","","","","","","","","","","","","","74","J","1","","","170","main_expt",""
"","bandit","250","716536","0.0-212.0-0.0","28940261","wem/bandit_party_1","A3INEKAD86IRQC","either","3","177","","","","","","","1","0","0","0.3697689907","","0.8","0.6","0.4","0.2","","","","","0.3738350687","0.3697689907","0.0912992704","0.3663425941","","","","","","","","","","74","J","1","","","171","main_expt",""
"","bandit","251","718279","0.0-213.0-0.0","28940261","wem/bandit_party_1","A3INEKAD86IRQC","either","3","225","","","","","","","0","0","1","","0.3438364448","0.8","0.6","0.4","0.2","0.3449486646","0.3438364448","0.1053216192","0.3571019768","","","","","","","","","","","","","","74","J","1","","","172","main_expt",""
"","bandit","252","720007","0.0-214.0-0.0","28940261","wem/bandit_party_1","A3INEKAD86IRQC","either","3","209","","","","","","","1","0","0","0.4064517123","","0.8","0.6","0.4","0.2","","","","","0.3754463001","0.4064517123","0.1119971747","0.383943734","","","","","","","","","","74","J","1","","","173","main_expt",""
"","bandit","253","721872","0.0-215.0-0.0","28940261","wem/bandit_party_1","A3INEKAD86IRQC","either","3","344","","","","","","","0","1","0","","0.4266345201","0.8","0.6","0.4","0.2","0.3983783957","0.4266345201","0.1049574405","0.378453819","","","","","","","","","","","","","","74","J","1","","","174","main_expt",""
"","bandit","254","724166","0.0-216.0-0.0","28940261","wem/bandit_party_1","A3INEKAD86IRQC","either","3","772","","","","","","","0","1","0","","0.4413212306","0.8","0.6","0.4","0.2","0.4176958341","0.4413212306","0.07351671593","0.3577460836","","","","","","","","","","","","","","74","J","1","","","175","main_expt",""
"","bandit","255","725874","0.0-217.0-0.0","28940261","wem/bandit_party_1","A3INEKAD86IRQC","either","3","189","","","","","","","0","0","1","0.438548454","","0.8","0.6","0.4","0.2","","","","","0.4336280271","0.438548454","0.06097876817","0.3346789668","","","","","","","","","","74","J","1","","","176","main_expt",""
"","bandit","256","727595","0.0-218.0-0.0","28940261","wem/bandit_party_1","A3INEKAD86IRQC","either","3","213","","","","","","","0","0","1","0.4350726265","","0.8","0.6","0.4","0.2","","","","","0.3863917124","0.4350726265","0.05873143133","0.3720341948","","","","","","","","","","74","J","1","","","177","main_expt",""
"","bandit","257","729213","0.0-219.0-0.0","28940261","wem/bandit_party_1","A3INEKAD86IRQC","either","3","109","","","","","","","1","0","0","0.4029859975","","0.8","0.6","0.4","0.2","","","","","0.3826512014","0.4029859975","0.07829718294","0.4243236705","","","","","","","","","","74","J","1","","","178","main_expt",""
"","bandit","258","730910","0.0-220.0-0.0","28940261","wem/bandit_party_1","A3INEKAD86IRQC","either","3","178","","","","","","","0","0","1","","0.3738585124","0.8","0.6","0.4","0.2","0.3681046487","0.3738585124","0.05868413977","0.4396564102","","","","","","","","","","","","","","74","J","1","","","179","main_expt",""
"","bandit","259","732579","0.0-221.0-0.0","28940261","wem/bandit_party_1","A3INEKAD86IRQC","either","3","162","","","","","","","0","0","1","","0.3884150149","0.8","0.6","0.4","0.2","0.374340785","0.3884150149","0.04540529238","0.4501825932","","","","","","","","","","","","","","74","J","1","","","180","main_expt",""
"","bandit","260","734262","0.0-222.0-0.0","28940261","wem/bandit_party_1","A3INEKAD86IRQC","either","3","174","","","","","","","0","0","1","0.3977335033","","0.8","0.6","0.4","0.2","","","","","0.3844034803","0.3977335033","0.04810206047","0.4527537228","","","","","","","","","","74","J","1","","","181","main_expt",""
"","bandit","261","735928","0.0-223.0-0.0","28940261","wem/bandit_party_1","A3INEKAD86IRQC","either","3","157","","","","","","","0","1","0","","0.4194204302","0.8","0.6","0.4","0.2","0.3569363444","0.4194204302","0.0564969073","0.4733821952","","","","","","","","","","","","","","74","J","1","","","182","main_expt",""
"","bandit","262","737925","0.0-224.0-0.0","28940261","wem/bandit_party_1","A3INEKAD86IRQC","either","3","476","","","","","","","0","0","1","","0.4050300101","0.8","0.6","0.4","0.2","0.3930074682","0.4050300101","0.06674959941","0.4741352064","","","","","","","","","","","","","","74","J","1","","","183","main_expt",""
"","bandit","263","739870","0.0-225.0-0.0","28940261","wem/bandit_party_1","A3INEKAD86IRQC","either","3","435","","","","","","","0","0","1","","0.4272992256","0.8","0.6","0.4","0.2","0.4105724965","0.4272992256","0.05730522946","0.4835015011","","","","","","","","","","","","","","74","J","1","","","184","main_expt",""
"","bandit","264","742101","0.0-226.0-0.0","28940261","wem/bandit_party_1","A3INEKAD86IRQC","either","3","711","","","","","","","0","0","1","0.4213026748","","0.8","0.6","0.4","0.2","","","","","0.4230276401","0.4213026748","0.0759668512","0.4907566516","","","","","","","","","","74","J","1","","","185","main_expt",""
"","bandit","265","743809","0.0-227.0-0.0","28940261","wem/bandit_party_1","A3INEKAD86IRQC","either","3","194","","","","","","","0","1","0","","0.3729626057","0.8","0.6","0.4","0.2","0.4243078066","0.3729626057","0.0736669194","0.4777100538","","","","","","","","","","","","","","74","J","1","","","186","main_expt",""
"","bandit","266","745623","0.0-228.0-0.0","28940261","wem/bandit_party_1","A3INEKAD86IRQC","either","3","302","","","","","","","0","0","1","0.4022080601","","0.8","0.6","0.4","0.2","","","","","0.419104652","0.4022080601","0.1020870739","0.4751658893","","","","","","","","","","74","J","1","","","187","main_expt",""
"","bandit","267","747387","0.0-229.0-0.0","28940261","wem/bandit_party_1","A3INEKAD86IRQC","either","3","253","","","","","","","0","1","0","","0.4218987807","0.8","0.6","0.4","0.2","0.3917910895","0.4218987807","0.110066606","0.4711403756","","","","","","","","","","","","","","74","J","1","","","188","main_expt",""
"","bandit","268","749357","0.0-230.0-0.0","28940261","wem/bandit_party_1","A3INEKAD86IRQC","either","3","453","","","","","","","0","0","1","0.4284519853","","0.8","0.6","0.4","0.2","","","","","0.3696037293","0.4284519853","0.1616324423","0.4848283219","","","","","","","","","","74","J","1","","","189","main_expt",""
"","bandit","269","751215","0.0-231.0-0.0","28940261","wem/bandit_party_1","A3INEKAD86IRQC","either","3","335","","","","","","","0","0","1","","0.4104863902","0.8","0.6","0.4","0.2","0.3722688899","0.4104863902","0.1401199573","0.4906713727","","","","","","","","","","","","","","74","J","1","","","190","main_expt",""
"","bandit","270","753036","0.0-232.0-0.0","28940261","wem/bandit_party_1","A3INEKAD86IRQC","either","3","304","","","","","","","0","0","1","0.4071825693","","0.8","0.6","0.4","0.2","","","","","0.3956575009","0.4071825693","0.1782786715","0.4944082075","","","","","","","","","","74","J","1","","","191","main_expt",""
"","bandit","271","754942","0.0-233.0-0.0","28940261","wem/bandit_party_1","A3INEKAD86IRQC","either","3","396","","","","","","","0","0","1","0.4922337742","","0.8","0.6","0.4","0.2","","","","","0.3843500594","0.4172763132","0.203517815","0.4922337742","","","","","","","","","","76","L","3","","","192","main_expt",""
"","bandit","272","756788","0.0-234.0-0.0","28940261","wem/bandit_party_1","A3INEKAD86IRQC","either","3","323","","","","","","","0","1","0","","0.4887356563","0.8","0.6","0.4","0.2","0.3801723293","0.3965334946","0.172030281","0.4887356563","","","","","","","","","","","","","","76","L","3","","","193","main_expt",""
"","bandit","273","758953","0.0-235.0-0.0","28940261","wem/bandit_party_1","A3INEKAD86IRQC","either","3","655","","","","","","","0","0","1","","0.4850955297","0.8","0.6","0.4","0.2","0.3871645121","0.383316574","0.1813301739","0.4850955297","","","","","","","","","","","","","","76","L","3","","","194","main_expt",""
"","bandit","274","760964","0.0-236.0-0.0","28940261","wem/bandit_party_1","A3INEKAD86IRQC","either","3","499","","","","","","","0","0","1","","0.4848341758","0.8","0.6","0.4","0.2","0.3633903175","0.3965345796","0.2284295163","0.4848341758","","","","","","","","","","","","","","76","L","3","","","195","main_expt",""
"","bandit","275","762661","0.0-237.0-0.0","28940261","wem/bandit_party_1","A3INEKAD86IRQC","either","3","188","","","","","","","0","0","1","","0.490049139","0.8","0.6","0.4","0.2","0.3811675741","0.3978469093","0.2501246714","0.490049139","","","","","","","","","","","","","","76","L","3","","","196","main_expt",""
"","bandit","276","764343","0.0-238.0-0.0","28940261","wem/bandit_party_1","A3INEKAD86IRQC","either","3","160","","","","","","","0","0","1","","0.4912643012","0.8","0.6","0.4","0.2","0.3487868089","0.3172926233","0.3150809007","0.4912643012","","","","","","","","","","","","","","76","L","3","","","197","main_expt",""
"","bandit","277","766134","0.0-239.0-0.0","28940261","wem/bandit_party_1","A3INEKAD86IRQC","either","3","272","","","","","","","0","0","1","","0.4793615714","0.8","0.6","0.4","0.2","0.2986771554","0.3113170709","0.3442077965","0.4793615714","","","","","","","","","","","","","","76","L","3","","","198","main_expt",""
"","bandit","278","767908","0.0-240.0-0.0","28940261","wem/bandit_party_1","A3INEKAD86IRQC","either","3","254","","","","","","","0","1","0","","0.4661622676","0.8","0.6","0.4","0.2","0.3481418533","0.3066116159","0.3675051223","0.4661622676","","","","","","","","","","","","","","76","L","3","","","199","main_expt",""
"","bandit","279","769700","0.0-241.0-0.0","28940261","wem/bandit_party_1","A3INEKAD86IRQC","either","3","283","","","","","","","0","0","1","0.4479238565","","0.8","0.6","0.4","0.2","","","","","0.353319573","0.2521122026","0.3044821291","0.4479238565","","","","","","","","","","76","L","3","","","200","main_expt",""
"","bandit","280","771463","0.0-242.0-0.0","28940261","wem/bandit_party_1","A3INEKAD86IRQC","either","3","251","","","","","","","0","0","1","","0.4429166455","0.8","0.6","0.4","0.2","0.3676338631","0.2679963248","0.3013824411","0.4429166455","","","","","","","","","","","","","","76","L","3","","","201","main_expt",""
"","bandit","281","773188","0.0-243.0-0.0","28940261","wem/bandit_party_1","A3INEKAD86IRQC","either","3","205","","","","","","","0","0","1","0.311657493","","0.8","0.6","0.4","0.2","","","","","0.311657493","0.2076546236","0.3001954661","0.442820363","","","","","","","","","","72","H","0","img/none_selected.jpg","","202","main_expt",""
"","bandit","282","774837","0.0-244.0-0.0","28940261","wem/bandit_party_1","A3INEKAD86IRQC","either","3","139","","","","","","","0","0","1","","0.3364041998","0.8","0.6","0.4","0.2","0.3364041998","0.1881707852","0.3189156814","0.4539008368","","","","","","","","","","","","","","72","H","0","img/none_selected.jpg","","203","main_expt",""
"","bandit","283","776568","0.0-245.0-0.0","28940261","wem/bandit_party_1","A3INEKAD86IRQC","either","3","209","","","","","","","0","0","1","0.3148670147","","0.8","0.6","0.4","0.2","","","","","0.3148670147","0.2057853427","0.3162062407","0.4163307037","","","","","","","","","","72","H","0","img/none_selected.jpg","","204","main_expt",""
"","bandit","284","778245","0.0-246.0-0.0","28940261","wem/bandit_party_1","A3INEKAD86IRQC","either","3","166","","","","","","","0","0","1","0.3293187519","","0.8","0.6","0.4","0.2","","","","","0.3293187519","0.2564451259","0.347278619","0.4045388199","","","","","","","","","","72","H","0","img/none_selected.jpg","","205","main_expt",""
"","bandit","285","779842","0.0-247.0-0.0","28940261","wem/bandit_party_1","A3INEKAD86IRQC","either","3","85","","","","","","","0","0","1","0.2705077244","","0.8","0.6","0.4","0.2","","","","","0.2705077244","0.3082896296","0.2970129147","0.4083422121","","","","","","","","","","72","H","0","img/none_selected.jpg","","206","main_expt",""
"","bandit","286","781574","0.0-248.0-0.0","28940261","wem/bandit_party_1","A3INEKAD86IRQC","either","3","207","","","","","","","0","0","1","","0.3331481178","0.8","0.6","0.4","0.2","0.3083591011","0.3235103938","0.3331481178","0.4033585138","","","","","","","","","","","","","","75","K","2","","","207","main_expt",""
"","bandit","287","783293","0.0-249.0-0.0","28940261","wem/bandit_party_1","A3INEKAD86IRQC","either","3","199","","","","","","","0","0","1","0.3195917859","","0.8","0.6","0.4","0.2","","","","","0.2489273718","0.3563539536","0.3195917859","0.3753320851","","","","","","","","","","75","K","2","","","208","main_expt",""
"","bandit","288","784926","0.0-250.0-0.0","28940261","wem/bandit_party_1","A3INEKAD86IRQC","either","3","112","","","","","","","0","1","0","","0.3642345195","0.8","0.6","0.4","0.2","0.2224321457","0.3821305916","0.3642345195","0.3864970555","","","","","","","","","","","","","","75","K","2","","","209","main_expt",""
"","bandit","289","786864","0.0-251.0-0.0","28940261","wem/bandit_party_1","A3INEKAD86IRQC","either","3","412","","","","","","","0","0","1","0.3518797164","","0.8","0.6","0.4","0.2","","","","","0.2184729634","0.4067483812","0.3518797164","0.3894881908","","","","","","","","","","75","K","2","","","210","main_expt",""
"","bandit","290","788568","0.0-252.0-0.0","28940261","wem/bandit_party_1","A3INEKAD86IRQC","either","3","183","","","","","","","1","0","0","0.3781537602","","0.8","0.6","0.4","0.2","","","","","0.2178464352","0.376825818","0.3781537602","0.4052823736","","","","","","","","","","75","K","2","","","211","main_expt",""
"","bandit","291","790358","0.0-253.0-0.0","28940261","wem/bandit_party_1","A3INEKAD86IRQC","either","3","271","","","","","","","0","0","1","0.3773353051","","0.8","0.6","0.4","0.2","","","","","0.1644702768","0.3481764155","0.3773353051","0.3783189977","","","","","","","","","","75","K","2","","","212","main_expt",""
"","bandit","292","792111","0.0-254.0-0.0","28940261","wem/bandit_party_1","A3INEKAD86IRQC","either","3","242","","","","","","","0","0","1","","0.3448860985","0.8","0.6","0.4","0.2","0.1271660564","0.3239198888","0.3448860985","0.3804187243","","","","","","","","","","","","","","75","K","2","","","213","main_expt",""
"","bandit","293","793908","0.0-255.0-0.0","28940261","wem/bandit_party_1","A3INEKAD86IRQC","either","3","271","","","","","","","0","0","1","","0.3622000499","0.8","0.6","0.4","0.2","0.1368129038","0.3592643085","0.3622000499","0.3964056757","","","","","","","","","","","","","","75","K","2","","","214","main_expt",""
"","bandit","294","795628","0.0-256.0-0.0","28940261","wem/bandit_party_1","A3INEKAD86IRQC","either","3","204","","","","","","","0","1","0","","0.3408682726","0.8","0.6","0.4","0.2","0.07615368859","0.3482739819","0.3408682726","0.3939862607","","","","","","","","","","","","","","75","K","2","","","215","main_expt",""
"","bandit","295","797436","0.0-257.0-0.0","28940261","wem/bandit_party_1","A3INEKAD86IRQC","either","3","299","","","","","","","0","1","0","","0.328819006","0.8","0.6","0.4","0.2","0.07711559412","0.2972527025","0.328819006","0.4062496234","","","","","","","","","","","","","","75","K","2","","","216","main_expt",""
"","bandit","296","799207","0.0-258.0-0.0","28940261","wem/bandit_party_1","A3INEKAD86IRQC","either","3","249","","","","","","","1","0","0","0.3229374792","","0.8","0.6","0.4","0.2","","","","","0.07728173513","0.2850944341","0.3229374792","0.3440498305","","","","","","","","","","75","K","2","","","217","main_expt",""
"","bandit","297","800965","0.0-259.0-0.0","28940261","wem/bandit_party_1","A3INEKAD86IRQC","either","3","234","","","","","","","0","0","1","0.3616220652","","0.8","0.6","0.4","0.2","","","","","0.07919919155","0.2483413171","0.3616220652","0.3198020565","","","","","","","","","","75","K","2","","","218","main_expt",""
"","bandit","298","802855","0.0-260.0-0.0","28940261","wem/bandit_party_1","A3INEKAD86IRQC","either","3","378","","","","","","","0","0","1","","0.3591176528","0.8","0.6","0.4","0.2","0.1270410367","0.2680513607","0.3591176528","0.3078290176","","","","","","","","","","","","","","75","K","2","","","219","main_expt",""
"","bandit","299","804493","0.0-261.0-0.0","28940261","wem/bandit_party_1","A3INEKAD86IRQC","either","3","124","","","","","","","0","0","1","0.2758994579","","0.8","0.6","0.4","0.2","","","","","0.1117499599","0.304668496","0.2758994579","0.2961895162","","","","","","","","","","75","K","2","","","220","main_expt",""
"","bandit","300","806254","0.0-262.0-0.0","28940261","wem/bandit_party_1","A3INEKAD86IRQC","either","3","246","","","","","","","0","0","1","","0.3119987931","0.8","0.6","0.4","0.2","0.1186324211","0.2773284289","0.3119987931","0.2658603678","","","","","","","","","","","","","","75","K","2","","","221","main_expt",""
"","bandit","301","807941","0.0-263.0-0.0","28940261","wem/bandit_party_1","A3INEKAD86IRQC","either","3","166","","","","","","","0","1","0","","0.3106374463","0.8","0.6","0.4","0.2","0.1141050397","0.2152506718","0.3106374463","0.274695037","","","","","","","","","","","","","","75","K","2","","","222","main_expt",""
"","bandit","302","809717","0.0-264.0-0.0","28940261","wem/bandit_party_1","A3INEKAD86IRQC","either","3","267","","","","","","","1","0","0","0.3131570504","","0.8","0.6","0.4","0.2","","","","","0.1007228699","0.2445797097","0.3131570504","0.2210940289","","","","","","","","","","75","K","2","","","223","main_expt",""
"","bandit","303","811529","0.0-265.0-0.0","28940261","wem/bandit_party_1","A3INEKAD86IRQC","either","3","291","","","","","","","1","0","0","0.3025994915","","0.8","0.6","0.4","0.2","","","","","0.1380584308","0.2559263424","0.3025994915","0.1843933297","","","","","","","","","","75","K","2","","","224","main_expt",""
"","bandit","304","813428","0.0-266.0-0.0","28940261","wem/bandit_party_1","A3INEKAD86IRQC","either","3","376","","","","","","","0","0","1","","0.2994132709","0.8","0.6","0.4","0.2","0.1393521225","0.2702522324","0.2994132709","0.212211923","","","","","","","","","","","","","","75","K","2","","","225","main_expt",""
"","bandit","305","815149","0.0-267.0-0.0","28940261","wem/bandit_party_1","A3INEKAD86IRQC","either","3","203","","","","","","","0","0","1","0.2866794375","","0.8","0.6","0.4","0.2","","","","","0.2094269877","0.2646860425","0.2866794375","0.2315036379","","","","","","","","","","75","K","2","","","226","main_expt",""
"","bandit","306","816948","0.0-268.0-0.0","28940261","wem/bandit_party_1","A3INEKAD86IRQC","either","3","277","","","","","","","1","0","0","0.2299222882","","0.8","0.6","0.4","0.2","","","","","0.2959232149","0.269556559","0.2299222882","0.2646353212","","","","","","","","","","75","K","2","","","227","main_expt",""
"","bandit","307","818749","0.0-269.0-0.0","28940261","wem/bandit_party_1","A3INEKAD86IRQC","either","3","291","","","","","","","0","0","1","","0.2991813551","0.8","0.6","0.4","0.2","0.374355758","0.2498152532","0.2991813551","0.2443517867","","","","","","","","","","","","","","75","K","2","","","228","main_expt",""
"","bandit","308","820582","0.0-270.0-0.0","28940261","wem/bandit_party_1","A3INEKAD86IRQC","either","3","306","","","","","","","1","0","0","0.3295538921","","0.8","0.6","0.4","0.2","","","","","0.3876740502","0.2495566458","0.3295538921","0.2569692975","","","","","","","","","","75","K","2","","","229","main_expt",""
"","bandit","309","822535","0.0-271.0-0.0","28940261","wem/bandit_party_1","A3INEKAD86IRQC","either","3","443","","","","","","","1","0","0","0.2713593359","","0.8","0.6","0.4","0.2","","","","","0.3341674595","0.2134382902","0.2713593359","0.2490290172","","","","","","","","","","75","K","2","","","230","main_expt",""
"","bandit","310","824326","0.0-272.0-0.0","28940261","wem/bandit_party_1","A3INEKAD86IRQC","either","3","280","","","","","","","0","0","1","0.2746975787","","0.8","0.6","0.4","0.2","","","","","0.3558281537","0.2099205747","0.2746975787","0.2368643707","","","","","","","","","","75","K","2","","","231","main_expt",""
"","bandit","311","826063","0.0-273.0-0.0","28940261","wem/bandit_party_1","A3INEKAD86IRQC","either","3","226","","","","","","","0","0","1","","0.2817934899","0.8","0.6","0.4","0.2","0.3293076861","0.1598609145","0.2817934899","0.2857324616","","","","","","","","","","","","","","75","K","2","","","232","main_expt",""
"","bandit","312","827693","0.0-274.0-0.0","28940261","wem/bandit_party_1","A3INEKAD86IRQC","either","3","107","","","","","","","0","0","1","","0.3139736629","0.8","0.6","0.4","0.2","0.3271309306","0.1472569172","0.3139736629","0.226619475","","","","","","","","","","","","","","75","K","2","","","233","main_expt",""
"","bandit","313","829437","0.0-275.0-0.0","28940261","wem/bandit_party_1","A3INEKAD86IRQC","either","3","220","","","","","","","0","0","1","","0.3332560948","0.8","0.6","0.4","0.2","0.3510228885","0.1123375355","0.3332560948","0.2448251662","","","","","","","","","","","","","","75","K","2","","","234","main_expt",""
"","bandit","314","831125","0.0-276.0-0.0","28940261","wem/bandit_party_1","A3INEKAD86IRQC","either","3","177","","","","","","","1","0","0","0.3475281657","","0.8","0.6","0.4","0.2","","","","","0.3346663699","0.1562424728","0.3475281657","0.2996798263","","","","","","","","","","75","K","2","","","235","main_expt",""
