"consent","trial_type","trial_index","time_elapsed","internal_node_id","subjID","study","MID","cond","drift","rt","responses","button_pressed","key_press","like","value","connected","gems","bombs","no_reward","GemPrChosen","BombPrChosen","GainOverPainPr_0","GainOverPainPr_1","GainOverPainPr_2","GainOverPainPr_3","LosePr_0","LosePr_1","LosePr_2","LosePr_3","WinPr_0","WinPr_1","WinPr_2","WinPr_3","Q0","Q1","Q2","gender","age","ethnicity","label","expt_phase","target","respCharCode","respKey","respChoiceNum","respChoice","practice","trial_counter","trial_label","Q0_index"
"GDM/GDM_behavioral_consent_30min_online.html","consent","0","44352","0.0-0.0","29549722","wem/bandit_party_1","A19IWFLUTW6KQU","either","3","","","","","","","","","","","","","","","","","","","","","","","","","","","","","","","","","","","","","","","","",""
"","survey-text","1","51449","0.0-1.0","29549722","wem/bandit_party_1","A19IWFLUTW6KQU","either","3","6091","{""Q0"":""A19IWFLUTW6KQU""}","","","","","","","","","","","","","","","","","","","","","","","","","","","","","","","","","","","","","","",""
"","button-response","2","56253","0.0-2.0","29549722","wem/bandit_party_1","A19IWFLUTW6KQU","either","3","3800","","2","","","","","","","","","","","","","","","","","","","","","","","","","","","","","","","","","","","","","",""
"","text-replacement","3","78986","0.0-3.0","29549722","wem/bandit_party_1","A19IWFLUTW6KQU","either","3","21729","","","32","","","","","","","","","","","","","","","","","","","","","","","","","","","","","","","","","","","","",""
"","text-replacement","4","91707","0.0-4.0","29549722","wem/bandit_party_1","A19IWFLUTW6KQU","either","3","12719","","","32","","","","","","","","","","","","","","","","","","","","","","","","","","","","","","","","","","","","",""
"","text-replacement","5","108835","0.0-5.0-0.0","29549722","wem/bandit_party_1","A19IWFLUTW6KQU","either","3","17127","","","32","","","","","","","","","","","","","","","","","","","","","","","","","","","","","","","","","","","","",""
"","identification","6","119277","0.0-6.0-0.0","29549722","wem/bandit_party_1","A19IWFLUTW6KQU","either","3","10431","","","","4","4","4","","","","","","","","","","","","","","","","","","","","","","","","pre","identification_pre","the Republican party","","","","","","","",""
"","identification","7","125974","0.0-6.0-1.0","29549722","wem/bandit_party_1","A19IWFLUTW6KQU","either","3","5684","","","","2","2","2","","","","","","","","","","","","","","","","","","","","","","","","pre","identification_pre","the Democratic Party","","","","","","","",""
"","text-replacement","8","135746","0.0-7.0","29549722","wem/bandit_party_1","A19IWFLUTW6KQU","either","3","8770","","","32","","","","","","","","","","","","","","","","","","","","","","","","","","","","","","","","","","","","",""
"","text-replacement","9","144738","0.0-8.0","29549722","wem/bandit_party_1","A19IWFLUTW6KQU","either","3","8990","","","32","","","","","","","","","","","","","","","","","","","","","","","","","","","","","","","","","","","","",""
"","text-replacement","10","157426","0.0-9.0","29549722","wem/bandit_party_1","A19IWFLUTW6KQU","either","3","12687","","","32","","","","","","","","","","","","","","","","","","","","","","","","","","","","","","","","","","","","",""
"","text-replacement","11","164346","0.0-10.0","29549722","wem/bandit_party_1","A19IWFLUTW6KQU","either","3","6918","","","32","","","","","","","","","","","","","","","","","","","","","","","","","","","","","","","","","","","","",""
"","text-replacement","12","169809","0.0-11.0","29549722","wem/bandit_party_1","A19IWFLUTW6KQU","either","3","5463","","","32","","","","","","","","","","","","","","","","","","","","","","","","","","","","","","","","","","","","",""
"","bandit","13","174121","0.0-12.0-0.0","29549722","wem/bandit_party_1","A19IWFLUTW6KQU","either","3","2804","","","","","","","0","0","1","0","0","","","","","0","","","","0","","","","","","","","","","","","","74","J","0","img/none_selected_demo.jpg","true","0","",""
"","bandit","14","177536","0.0-13.0-0.0","29549722","wem/bandit_party_1","A19IWFLUTW6KQU","either","3","1911","","","","","","","0","0","1","0","0","","","","","0","","","","0","","","","","","","","","","","","","75","K","0","img/none_selected_demo.jpg","true","0","",""
"","text-replacement","15","183722","0.0-14.0","29549722","wem/bandit_party_1","A19IWFLUTW6KQU","either","3","6184","","","32","","","","","","","","","","","","","","","","","","","","","","","","","","","","","","","","","","","","",""
"","text-replacement","16","186377","0.0-15.0","29549722","wem/bandit_party_1","A19IWFLUTW6KQU","either","3","2654","","","32","","","","","","","","","","","","","","","","","","","","","","","","","","","","","","","","","","","","",""
"","text-replacement","17","195834","0.0-16.0","29549722","wem/bandit_party_1","A19IWFLUTW6KQU","either","3","9455","","","32","","","","","","","","","","","","","","","","","","","","","","","","","","","","","","","","","","","","",""
"","text-replacement","18","200745","0.0-17.0","29549722","wem/bandit_party_1","A19IWFLUTW6KQU","either","3","4910","","","32","","","","","","","","","","","","","","","","","","","","","","","","","","","","","","","","","","","","",""
"","bandit","19","204943","0.0-18.0-0.0","29549722","wem/bandit_party_1","A19IWFLUTW6KQU","either","3","2693","","","","","","","0","1","0","","0.2","0.5","0.5","","","0.8","0.2","","","","","","","","","","","","","","","","75","K","1","","true","0","80_20_practice",""
"","bandit","20","207599","0.0-18.0-1.0","29549722","wem/bandit_party_1","A19IWFLUTW6KQU","either","3","1151","","","","","","","1","0","0","0.8","","0.5","0.5","","","","","","","0.8","0.2","","","","","","","","","","","","74","J","0","img/none_selected_demo.jpg","true","0","80_20_practice",""
"","bandit","21","209528","0.0-18.0-2.0","29549722","wem/bandit_party_1","A19IWFLUTW6KQU","either","3","422","","","","","","","0","1","0","","0.8","0.5","0.5","","","0.8","0.2","","","","","","","","","","","","","","","","74","J","0","img/none_selected_demo.jpg","true","0","80_20_practice",""
"","bandit","22","211847","0.0-18.0-3.0","29549722","wem/bandit_party_1","A19IWFLUTW6KQU","either","3","814","","","","","","","0","0","1","0.2","","0.5","0.5","","","","","","","0.8","0.2","","","","","","","","","","","","75","K","1","","true","0","80_20_practice",""
"","bandit","23","213823","0.0-18.0-4.0","29549722","wem/bandit_party_1","A19IWFLUTW6KQU","either","3","471","","","","","","","0","0","1","0.2","","0.5","0.5","","","","","","","0.8","0.2","","","","","","","","","","","","75","K","1","","true","0","80_20_practice",""
"","bandit","24","215775","0.0-18.0-5.0","29549722","wem/bandit_party_1","A19IWFLUTW6KQU","either","3","447","","","","","","","0","0","1","0.2","","0.5","0.5","","","","","","","0.8","0.2","","","","","","","","","","","","75","K","1","","true","0","80_20_practice",""
"","bandit","25","217703","0.0-18.0-6.0","29549722","wem/bandit_party_1","A19IWFLUTW6KQU","either","3","424","","","","","","","0","1","0","","0.8","0.5","0.5","","","0.8","0.2","","","","","","","","","","","","","","","","74","J","0","img/none_selected_demo.jpg","true","0","80_20_practice",""
"","bandit","26","219607","0.0-18.0-7.0","29549722","wem/bandit_party_1","A19IWFLUTW6KQU","either","3","399","","","","","","","0","0","1","0.2","","0.5","0.5","","","","","","","0.8","0.2","","","","","","","","","","","","75","K","1","","true","0","80_20_practice",""
"","bandit","27","221479","0.0-18.0-8.0","29549722","wem/bandit_party_1","A19IWFLUTW6KQU","either","3","366","","","","","","","0","1","0","","0.2","0.5","0.5","","","0.8","0.2","","","","","","","","","","","","","","","","75","K","1","","true","0","80_20_practice",""
"","bandit","28","223839","0.0-18.0-9.0","29549722","wem/bandit_party_1","A19IWFLUTW6KQU","either","3","853","","","","","","","0","1","0","","0.8","0.5","0.5","","","0.8","0.2","","","","","","","","","","","","","","","","74","J","0","img/none_selected_demo.jpg","true","0","80_20_practice",""
"","bandit","29","225775","0.0-18.0-10.0","29549722","wem/bandit_party_1","A19IWFLUTW6KQU","either","3","430","","","","","","","0","1","0","","0.8","0.5","0.5","","","0.8","0.2","","","","","","","","","","","","","","","","74","J","0","img/none_selected_demo.jpg","true","0","80_20_practice",""
"","bandit","30","227944","0.0-18.0-11.0","29549722","wem/bandit_party_1","A19IWFLUTW6KQU","either","3","663","","","","","","","0","1","0","","0.8","0.5","0.5","","","0.8","0.2","","","","","","","","","","","","","","","","74","J","0","img/none_selected_demo.jpg","true","0","80_20_practice",""
"","bandit","31","229903","0.0-18.0-12.0","29549722","wem/bandit_party_1","A19IWFLUTW6KQU","either","3","454","","","","","","","0","1","0","","0.8","0.5","0.5","","","0.8","0.2","","","","","","","","","","","","","","","","74","J","0","img/none_selected_demo.jpg","true","0","80_20_practice",""
"","bandit","32","231807","0.0-18.0-13.0","29549722","wem/bandit_party_1","A19IWFLUTW6KQU","either","3","399","","","","","","","1","0","0","0.8","","0.5","0.5","","","","","","","0.8","0.2","","","","","","","","","","","","74","J","0","img/none_selected_demo.jpg","true","0","80_20_practice",""
"","bandit","33","233823","0.0-18.0-14.0","29549722","wem/bandit_party_1","A19IWFLUTW6KQU","either","3","510","","","","","","","0","0","1","","0.2","0.5","0.5","","","0.8","0.2","","","","","","","","","","","","","","","","75","K","1","","true","0","80_20_practice",""
"","bandit","34","235855","0.0-18.0-15.0","29549722","wem/bandit_party_1","A19IWFLUTW6KQU","either","3","527","","","","","","","0","1","0","","0.8","0.5","0.5","","","0.8","0.2","","","","","","","","","","","","","","","","74","J","0","img/none_selected_demo.jpg","true","0","80_20_practice",""
"","bandit","35","237823","0.0-18.0-16.0","29549722","wem/bandit_party_1","A19IWFLUTW6KQU","either","3","462","","","","","","","0","1","0","","0.8","0.5","0.5","","","0.8","0.2","","","","","","","","","","","","","","","","74","J","0","img/none_selected_demo.jpg","true","0","80_20_practice",""
"","bandit","36","239783","0.0-18.0-17.0","29549722","wem/bandit_party_1","A19IWFLUTW6KQU","either","3","456","","","","","","","0","1","0","","0.8","0.5","0.5","","","0.8","0.2","","","","","","","","","","","","","","","","74","J","0","img/none_selected_demo.jpg","true","0","80_20_practice",""
"","bandit","37","241926","0.0-18.0-18.0","29549722","wem/bandit_party_1","A19IWFLUTW6KQU","either","3","638","","","","","","","0","0","1","","0.8","0.5","0.5","","","0.8","0.2","","","","","","","","","","","","","","","","74","J","0","img/none_selected_demo.jpg","true","0","80_20_practice",""
"","bandit","38","244015","0.0-18.0-19.0","29549722","wem/bandit_party_1","A19IWFLUTW6KQU","either","3","582","","","","","","","0","1","0","","0.8","0.5","0.5","","","0.8","0.2","","","","","","","","","","","","","","","","74","J","0","img/none_selected_demo.jpg","true","0","80_20_practice",""
"","text-replacement","39","251801","0.0-19.0","29549722","wem/bandit_party_1","A19IWFLUTW6KQU","either","3","7784","","","32","","","","","","","","","","","","","","","","","","","","","","","","","","","","","","","","","","","","",""
"","bandit","40","254055","0.0-20.0-0.0","29549722","wem/bandit_party_1","A19IWFLUTW6KQU","either","3","748","","","","","","","1","0","0","1","0","","","","","0","1","","","1","0","","","","","","","","","","","","74","J","0","img/none_selected_demo.jpg","true","0","",""
"","text-replacement","41","262490","0.0-21.0","29549722","wem/bandit_party_1","A19IWFLUTW6KQU","either","3","8432","","","32","","","","","","","","","","","","","","","","","","","","","","","","","","","","","","","","","","","","",""
"","text-replacement","42","267025","0.0-22.0","29549722","wem/bandit_party_1","A19IWFLUTW6KQU","either","3","4533","","","32","","","","","","","","","","","","","","","","","","","","","","","","","","","","","","","","","","","","",""
"","text-replacement","43","270369","0.0-23.0","29549722","wem/bandit_party_1","A19IWFLUTW6KQU","either","3","3342","","","32","","","","","","","","","","","","","","","","","","","","","","","","","","","","","","","","","","","","",""
"","text-replacement","44","274913","0.0-24.0","29549722","wem/bandit_party_1","A19IWFLUTW6KQU","either","3","4542","","","32","","","","","","","","","","","","","","","","","","","","","","","","","","","","","","","","","","","","",""
"","text-replacement","45","285713","0.0-25.0","29549722","wem/bandit_party_1","A19IWFLUTW6KQU","either","3","10799","","","32","","","","","","","","","","","","","","","","","","","","","","","","","","","","","","","","","","","","",""
"","text-replacement","46","287521","0.0-26.0","29549722","wem/bandit_party_1","A19IWFLUTW6KQU","either","3","1806","","","32","","","","","","","","","","","","","","","","","","","","","","","","","","","","","","","","","","","","",""
"","text-replacement","47","293640","0.0-27.0","29549722","wem/bandit_party_1","A19IWFLUTW6KQU","either","3","6119","","","32","","","","","","","","","","","","","","","","","","","","","","","","","","","","","","","","","","","","",""
"","text-replacement","48","299994","0.0-28.0","29549722","wem/bandit_party_1","A19IWFLUTW6KQU","either","3","6353","","","32","","","","","","","","","","","","","","","","","","","","","","","","","","","","","","","","","","","","",""
"","text-replacement","49","309697","0.0-29.0","29549722","wem/bandit_party_1","A19IWFLUTW6KQU","either","3","9702","","","32","","","","","","","","","","","","","","","","","","","","","","","","","","","","","","","","","","","","",""
"","text-replacement","50","311554","0.0-30.0","29549722","wem/bandit_party_1","A19IWFLUTW6KQU","either","3","1855","","","32","","","","","","","","","","","","","","","","","","","","","","","","","","","","","","","","","","","","",""
"","text-replacement","51","316530","0.0-31.0","29549722","wem/bandit_party_1","A19IWFLUTW6KQU","either","3","4974","","","32","","","","","","","","","","","","","","","","","","","","","","","","","","","","","","","","","","","","",""
"","bandit","52","319056","0.0-32.0-0.0","29549722","wem/bandit_party_1","A19IWFLUTW6KQU","either","3","1021","","","","","","","0","0","1","","0.8","0.5","0.5","0.5","0.5","0.8","0.2","0.6","0.2","","","","","","","","","","","","","","72","H","0","img/none_selected.jpg","true","0","full_practice",""
"","bandit","53","321007","0.0-32.0-1.0","29549722","wem/bandit_party_1","A19IWFLUTW6KQU","either","3","445","","","","","","","0","0","1","","0.2","0.5","0.5","0.5","0.5","0.8","0.2","0.6","0.2","","","","","","","","","","","","","","74","J","1","","true","0","full_practice",""
"","bandit","54","322936","0.0-32.0-2.0","29549722","wem/bandit_party_1","A19IWFLUTW6KQU","either","3","423","","","","","","","1","0","0","0.6","","0.5","0.5","0.5","0.5","","","","","0.8","0.2","0.6","0.2","","","","","","","","","","75","K","2","","true","0","full_practice",""
"","bandit","55","324831","0.0-32.0-3.0","29549722","wem/bandit_party_1","A19IWFLUTW6KQU","either","3","391","","","","","","","0","1","0","","0.2","0.5","0.5","0.5","0.5","0.8","0.2","0.6","0.2","","","","","","","","","","","","","","76","L","3","","true","0","full_practice",""
"","bandit","56","326807","0.0-32.0-4.0","29549722","wem/bandit_party_1","A19IWFLUTW6KQU","either","3","471","","","","","","","0","0","1","","0.2","0.5","0.5","0.5","0.5","0.8","0.2","0.6","0.2","","","","","","","","","","","","","","76","L","3","","true","0","full_practice",""
"","bandit","57","328727","0.0-32.0-5.0","29549722","wem/bandit_party_1","A19IWFLUTW6KQU","either","3","414","","","","","","","0","1","0","","0.6","0.5","0.5","0.5","0.5","0.8","0.2","0.6","0.2","","","","","","","","","","","","","","75","K","2","","true","0","full_practice",""
"","bandit","58","330636","0.0-32.0-6.0","29549722","wem/bandit_party_1","A19IWFLUTW6KQU","either","3","401","","","","","","","0","1","0","","0.6","0.5","0.5","0.5","0.5","0.8","0.2","0.6","0.2","","","","","","","","","","","","","","75","K","2","","true","0","full_practice",""
"","bandit","59","332680","0.0-32.0-7.0","29549722","wem/bandit_party_1","A19IWFLUTW6KQU","either","3","538","","","","","","","0","0","1","","0.6","0.5","0.5","0.5","0.5","0.8","0.2","0.6","0.2","","","","","","","","","","","","","","75","K","2","","true","0","full_practice",""
"","bandit","60","334592","0.0-32.0-8.0","29549722","wem/bandit_party_1","A19IWFLUTW6KQU","either","3","406","","","","","","","0","0","1","0.2","","0.5","0.5","0.5","0.5","","","","","0.8","0.2","0.6","0.2","","","","","","","","","","74","J","1","","true","0","full_practice",""
"","bandit","61","336497","0.0-32.0-9.0","29549722","wem/bandit_party_1","A19IWFLUTW6KQU","either","3","397","","","","","","","1","0","0","0.6","","0.5","0.5","0.5","0.5","","","","","0.8","0.2","0.6","0.2","","","","","","","","","","75","K","2","","true","0","full_practice",""
"","bandit","62","338407","0.0-32.0-10.0","29549722","wem/bandit_party_1","A19IWFLUTW6KQU","either","3","405","","","","","","","0","1","0","","0.8","0.5","0.5","0.5","0.5","0.8","0.2","0.6","0.2","","","","","","","","","","","","","","72","H","0","img/none_selected.jpg","true","0","full_practice",""
"","bandit","63","340375","0.0-32.0-11.0","29549722","wem/bandit_party_1","A19IWFLUTW6KQU","either","3","463","","","","","","","0","0","1","0.8","","0.5","0.5","0.5","0.5","","","","","0.8","0.2","0.6","0.2","","","","","","","","","","72","H","0","img/none_selected.jpg","true","0","full_practice",""
"","bandit","64","342111","0.0-32.0-12.0","29549722","wem/bandit_party_1","A19IWFLUTW6KQU","either","3","230","","","","","","","0","0","1","0.2","","0.5","0.5","0.5","0.5","","","","","0.8","0.2","0.6","0.2","","","","","","","","","","76","L","3","","true","0","full_practice",""
"","bandit","65","343999","0.0-32.0-13.0","29549722","wem/bandit_party_1","A19IWFLUTW6KQU","either","3","381","","","","","","","1","0","0","0.6","","0.5","0.5","0.5","0.5","","","","","0.8","0.2","0.6","0.2","","","","","","","","","","75","K","2","","true","0","full_practice",""
"","bandit","66","345839","0.0-32.0-14.0","29549722","wem/bandit_party_1","A19IWFLUTW6KQU","either","3","334","","","","","","","1","0","0","0.6","","0.5","0.5","0.5","0.5","","","","","0.8","0.2","0.6","0.2","","","","","","","","","","75","K","2","","true","0","full_practice",""
"","bandit","67","347767","0.0-32.0-15.0","29549722","wem/bandit_party_1","A19IWFLUTW6KQU","either","3","422","","","","","","","0","0","1","0.6","","0.5","0.5","0.5","0.5","","","","","0.8","0.2","0.6","0.2","","","","","","","","","","75","K","2","","true","0","full_practice",""
"","bandit","68","349663","0.0-32.0-16.0","29549722","wem/bandit_party_1","A19IWFLUTW6KQU","either","3","391","","","","","","","1","0","0","0.2","","0.5","0.5","0.5","0.5","","","","","0.8","0.2","0.6","0.2","","","","","","","","","","74","J","1","","true","0","full_practice",""
"","bandit","69","351583","0.0-32.0-17.0","29549722","wem/bandit_party_1","A19IWFLUTW6KQU","either","3","414","","","","","","","0","0","1","0.2","","0.5","0.5","0.5","0.5","","","","","0.8","0.2","0.6","0.2","","","","","","","","","","74","J","1","","true","0","full_practice",""
"","bandit","70","353479","0.0-32.0-18.0","29549722","wem/bandit_party_1","A19IWFLUTW6KQU","either","3","390","","","","","","","0","0","1","","0.2","0.5","0.5","0.5","0.5","0.8","0.2","0.6","0.2","","","","","","","","","","","","","","76","L","3","","true","0","full_practice",""
"","bandit","71","355424","0.0-32.0-19.0","29549722","wem/bandit_party_1","A19IWFLUTW6KQU","either","3","437","","","","","","","0","0","1","0.8","","0.5","0.5","0.5","0.5","","","","","0.8","0.2","0.6","0.2","","","","","","","","","","72","H","0","img/none_selected.jpg","true","0","full_practice",""
"","text","72","360057","0.0-33.0","29549722","wem/bandit_party_1","A19IWFLUTW6KQU","either","3","4627","","","32","","","","","","","","","","","","","","","","","","","","","","","","","","","","","","","","","","","","",""
"","text-replacement","73","375033","0.0-34.0","29549722","wem/bandit_party_1","A19IWFLUTW6KQU","either","3","13972","","","32","","","","","","","","","","","","","","","","","","","","","","","","","","","","","","","","","","","","",""
"","text-replacement","74","386369","0.0-35.0","29549722","wem/bandit_party_1","A19IWFLUTW6KQU","either","3","11334","","","32","","","","","","","","","","","","","","","","","","","","","","","","","","","","","","","","","","","","",""
"","text-replacement","75","393616","0.0-36.0","29549722","wem/bandit_party_1","A19IWFLUTW6KQU","either","3","7245","","","32","","","","","","","","","","","","","","","","","","","","","","","","","","","","","","","","","","","","",""
"","text-replacement","76","402577","0.0-37.0","29549722","wem/bandit_party_1","A19IWFLUTW6KQU","either","3","8959","","","32","","","","","","","","","","","","","","","","","","","","","","","","","","","","","","","","","","","","",""
"","text-replacement","77","413008","0.0-38.0","29549722","wem/bandit_party_1","A19IWFLUTW6KQU","either","3","10428","","","32","","","","","","","","","","","","","","","","","","","","","","","","","","","","","","","","","","","","",""
"","survey-multi-choice-replacement","78","425309","0.0-39.0-0.0","29549722","wem/bandit_party_1","A19IWFLUTW6KQU","either","3","12294","","","","","","","","","","","","","","","","","","","","","","","","Money will be added to the pool for <span style='color:blue;'>DEMOCRATS</span>","","","","","","","attn_check","","","","","","","","","0"
"","survey-multi-choice-replacement","79","441397","0.0-40.0-0.0","29549722","wem/bandit_party_1","A19IWFLUTW6KQU","either","3","15078","","","","","","","","","","","","","","","","","","","","","","","","Equal amounts of money will be added to the pool for <span style='color:blue;'>DEMOCRATS</span> and subtracted from the pool for <span style='color:red;'>REPUBLICANS</span>","","","","","","","attn_check","","","","","","","","","2"
"","survey-multi-choice-replacement","80","448348","0.0-41.0-0.0","29549722","wem/bandit_party_1","A19IWFLUTW6KQU","either","3","5942","","","","","","","","","","","","","","","","","","","","","","","","No money will be added to either pool","","","","","","","attn_check","","","","","","","","","3"
"","bandit","81","454154","0.0-42.0-0.0","29549722","wem/bandit_party_1","A19IWFLUTW6KQU","either","3","3278","","","","","","","0","0","1","0.1426046982","","0.8","0.6","0.4","0.2","","","","","0.1426046982","0.4870892339","0.1646489015","0.07685641067","","","","","","","","","","72","H","0","img/none_selected.jpg","","1","main_expt",""
"","bandit","82","456175","0.0-43.0-0.0","29549722","wem/bandit_party_1","A19IWFLUTW6KQU","either","3","516","","","","","","","0","0","1","0.4875162112","","0.8","0.6","0.4","0.2","","","","","0.1597004976","0.4875162112","0.2180431119","0.08388143876","","","","","","","","","","74","J","1","","","2","main_expt",""
"","bandit","83","458183","0.0-44.0-0.0","29549722","wem/bandit_party_1","A19IWFLUTW6KQU","either","3","502","","","","","","","0","0","1","","0.2294217256","0.8","0.6","0.4","0.2","0.1381850853","0.4909945117","0.2294217256","0.06528774038","","","","","","","","","","","","","","75","K","2","","","3","main_expt",""
"","bandit","84","460270","0.0-45.0-0.0","29549722","wem/bandit_party_1","A19IWFLUTW6KQU","either","3","582","","","","","","","0","0","1","","0.07987899881","0.8","0.6","0.4","0.2","0.1787932262","0.482579304","0.2162119515","0.07987899881","","","","","","","","","","","","","","76","L","3","","","4","main_expt",""
"","bandit","85","462198","0.0-46.0-0.0","29549722","wem/bandit_party_1","A19IWFLUTW6KQU","either","3","423","","","","","","","0","0","1","","0.0432391811","0.8","0.6","0.4","0.2","0.1795032464","0.4887913002","0.2246316054","0.0432391811","","","","","","","","","","","","","","76","L","3","","","5","main_expt",""
"","bandit","86","464094","0.0-47.0-0.0","29549722","wem/bandit_party_1","A19IWFLUTW6KQU","either","3","390","","","","","","","0","1","0","","0.2061018479","0.8","0.6","0.4","0.2","0.164375756","0.4887860333","0.2061018479","0.03467601655","","","","","","","","","","","","","","75","K","2","","","6","main_expt",""
"","bandit","87","465982","0.0-48.0-0.0","29549722","wem/bandit_party_1","A19IWFLUTW6KQU","either","3","383","","","","","","","0","0","1","","0.1795347326","0.8","0.6","0.4","0.2","0.204957223","0.4901971563","0.1795347326","0.05033951668","","","","","","","","","","","","","","75","K","2","","","7","main_expt",""
"","bandit","88","467934","0.0-49.0-0.0","29549722","wem/bandit_party_1","A19IWFLUTW6KQU","either","3","445","","","","","","","0","0","1","0.4862230721","","0.8","0.6","0.4","0.2","","","","","0.2162036531","0.4862230721","0.1290452752","0.07676355645","","","","","","","","","","74","J","1","","","8","main_expt",""
"","bandit","89","469910","0.0-50.0-0.0","29549722","wem/bandit_party_1","A19IWFLUTW6KQU","either","3","469","","","","","","","0","1","0","","0.2167418122","0.8","0.6","0.4","0.2","0.2167418122","0.4759730645","0.1559184374","0.08620859221","","","","","","","","","","","","","","72","H","0","img/none_selected.jpg","","9","main_expt",""
"","bandit","90","471807","0.0-51.0-0.0","29549722","wem/bandit_party_1","A19IWFLUTW6KQU","either","3","389","","","","","","","0","0","1","","0.1607923637","0.8","0.6","0.4","0.2","0.1607923637","0.4560980466","0.1381514788","0.1103839657","","","","","","","","","","","","","","72","H","0","img/none_selected.jpg","","10","main_expt",""
"","bandit","91","473695","0.0-52.0-0.0","29549722","wem/bandit_party_1","A19IWFLUTW6KQU","either","3","382","","","","","","","0","1","0","","0.1386410957","0.8","0.6","0.4","0.2","0.1386410957","0.4775116046","0.1271140015","0.1334948588","","","","","","","","","","","","","","72","H","0","img/none_selected.jpg","","11","main_expt",""
"","bandit","92","475574","0.0-53.0-0.0","29549722","wem/bandit_party_1","A19IWFLUTW6KQU","either","3","373","","","","","","","0","0","1","0.1718380738","","0.8","0.6","0.4","0.2","","","","","0.1718380738","0.4705073552","0.1854664659","0.1535602519","","","","","","","","","","72","H","0","img/none_selected.jpg","","12","main_expt",""
"","bandit","93","477518","0.0-54.0-0.0","29549722","wem/bandit_party_1","A19IWFLUTW6KQU","either","3","438","","","","","","","0","0","1","","0.1869952656","0.8","0.6","0.4","0.2","0.1686303413","0.4851887342","0.1869952656","0.127854239","","","","","","","","","","","","","","75","K","2","","","13","main_expt",""
"","bandit","94","479397","0.0-55.0-0.0","29549722","wem/bandit_party_1","A19IWFLUTW6KQU","either","3","374","","","","","","","1","0","0","0.2035171393","","0.8","0.6","0.4","0.2","","","","","0.1460019496","0.4731273917","0.2035171393","0.1507911491","","","","","","","","","","75","K","2","","","14","main_expt",""
"","bandit","95","481285","0.0-56.0-0.0","29549722","wem/bandit_party_1","A19IWFLUTW6KQU","either","3","382","","","","","","","0","0","1","","0.2800299461","0.8","0.6","0.4","0.2","0.1667614464","0.4585867004","0.2800299461","0.1741212098","","","","","","","","","","","","","","75","K","2","","","15","main_expt",""
"","bandit","96","483477","0.0-57.0-0.0","29549722","wem/bandit_party_1","A19IWFLUTW6KQU","either","3","683","","","","","","","0","0","1","","0.4366533258","0.8","0.6","0.4","0.2","0.1973644546","0.4366533258","0.2725454461","0.1918308831","","","","","","","","","","","","","","74","J","1","","","16","main_expt",""
"","bandit","97","485941","0.0-58.0-0.0","29549722","wem/bandit_party_1","A19IWFLUTW6KQU","either","3","957","","","","","","","0","0","1","","0.1950212473","0.8","0.6","0.4","0.2","0.1873415792","0.4405228744","0.1570621471","0.1950212473","","","","","","","","","","","","","","76","L","3","","","17","main_expt",""
"","bandit","98","487805","0.0-59.0-0.0","29549722","wem/bandit_party_1","A19IWFLUTW6KQU","either","3","355","","","","","","","0","0","1","","0.2094813194","0.8","0.6","0.4","0.2","0.1875860444","0.4678551263","0.1968188506","0.2094813194","","","","","","","","","","","","","","76","L","3","","","18","main_expt",""
"","bandit","99","489727","0.0-60.0-0.0","29549722","wem/bandit_party_1","A19IWFLUTW6KQU","either","3","414","","","","","","","0","0","1","","0.2439518204","0.8","0.6","0.4","0.2","0.1988439388","0.466140525","0.2439518204","0.2628959394","","","","","","","","","","","","","","75","K","2","","","19","main_expt",""
"","bandit","100","491622","0.0-61.0-0.0","29549722","wem/bandit_party_1","A19IWFLUTW6KQU","either","3","389","","","","","","","0","0","1","","0.1813993393","0.8","0.6","0.4","0.2","0.1813993393","0.4094087999","0.2806117898","0.2116504525","","","","","","","","","","","","","","72","H","0","img/none_selected.jpg","","20","main_expt",""
"","bandit","101","493517","0.0-62.0-0.0","29549722","wem/bandit_party_1","A19IWFLUTW6KQU","either","3","389","","","","","","","0","0","1","0.2012004452","","0.8","0.6","0.4","0.2","","","","","0.2012004452","0.4386974508","0.2658005831","0.1904426465","","","","","","","","","","72","H","0","img/none_selected.jpg","","21","main_expt",""
"","bandit","102","495479","0.0-63.0-0.0","29549722","wem/bandit_party_1","A19IWFLUTW6KQU","either","3","454","","","","","","","0","1","0","","0.4505723784","0.8","0.6","0.4","0.2","0.1958646163","0.4505723784","0.2774390086","0.1581796968","","","","","","","","","","","","","","74","J","1","","","22","main_expt",""
"","bandit","103","497462","0.0-64.0-0.0","29549722","wem/bandit_party_1","A19IWFLUTW6KQU","either","3","478","","","","","","","1","0","0","0.4568000239","","0.8","0.6","0.4","0.2","","","","","0.2626819079","0.4568000239","0.2795917474","0.2039009352","","","","","","","","","","74","J","1","","","23","main_expt",""
"","bandit","104","499405","0.0-65.0-0.0","29549722","wem/bandit_party_1","A19IWFLUTW6KQU","either","3","437","","","","","","","0","0","1","0.4518339256","","0.8","0.6","0.4","0.2","","","","","0.2906682881","0.4518339256","0.2981059477","0.228339491","","","","","","","","","","74","J","1","","","24","main_expt",""
"","bandit","105","501325","0.0-66.0-0.0","29549722","wem/bandit_party_1","A19IWFLUTW6KQU","either","3","412","","","","","","","0","1","0","","0.2602465224","0.8","0.6","0.4","0.2","0.3270173502","0.4120159309","0.3272059922","0.2602465224","","","","","","","","","","","","","","76","L","3","","","25","main_expt",""
"","bandit","106","503245","0.0-67.0-0.0","29549722","wem/bandit_party_1","A19IWFLUTW6KQU","either","3","414","","","","","","","0","0","1","","0.1939420306","0.8","0.6","0.4","0.2","0.2951289915","0.4134154185","0.3369826645","0.1939420306","","","","","","","","","","","","","","76","L","3","","","26","main_expt",""
"","bandit","107","505204","0.0-68.0-0.0","29549722","wem/bandit_party_1","A19IWFLUTW6KQU","either","3","452","","","","","","","0","0","1","","0.2531212506","0.8","0.6","0.4","0.2","0.3520126272","0.4031068294","0.2531212506","0.2387331149","","","","","","","","","","","","","","75","K","2","","","27","main_expt",""
"","bandit","108","507085","0.0-69.0-0.0","29549722","wem/bandit_party_1","A19IWFLUTW6KQU","either","3","375","","","","","","","0","0","1","","0.2170461037","0.8","0.6","0.4","0.2","0.3369287003","0.4305883772","0.2170461037","0.2183458617","","","","","","","","","","","","","","75","K","2","","","28","main_expt",""
"","bandit","109","508973","0.0-70.0-0.0","29549722","wem/bandit_party_1","A19IWFLUTW6KQU","either","3","382","","","","","","","0","0","1","0.3591799128","","0.8","0.6","0.4","0.2","","","","","0.3591799128","0.4383329838","0.2346211465","0.2151501268","","","","","","","","","","72","H","0","img/none_selected.jpg","","29","main_expt",""
"","bandit","110","510926","0.0-71.0-0.0","29549722","wem/bandit_party_1","A19IWFLUTW6KQU","either","3","446","","","","","","","0","0","1","0.4233276099","","0.8","0.6","0.4","0.2","","","","","0.3324285477","0.4233276099","0.2450860663","0.2267233056","","","","","","","","","","74","J","1","","","30","main_expt",""
"","bandit","111","513053","0.0-72.0-0.0","29549722","wem/bandit_party_1","A19IWFLUTW6KQU","either","3","621","","","","","","","0","0","1","0.4016185005","","0.8","0.6","0.4","0.2","","","","","0.327032362","0.4016185005","0.2141169407","0.2663701676","","","","","","","","","","74","J","1","","","31","main_expt",""
"","bandit","112","514653","0.0-73.0-0.0","29549722","wem/bandit_party_1","A19IWFLUTW6KQU","either","3","93","","","","","","","0","0","1","","0.275969473","0.8","0.6","0.4","0.2","0.3230905041","0.4134940178","0.2347854155","0.275969473","","","","","","","","","","","","","","76","L","3","","","32","main_expt",""
"","bandit","113","516525","0.0-74.0-0.0","29549722","wem/bandit_party_1","A19IWFLUTW6KQU","either","3","365","","","","","","","0","0","1","","0.3365270118","0.8","0.6","0.4","0.2","0.2969008969","0.4331174495","0.246596708","0.3365270118","","","","","","","","","","","","","","76","L","3","","","33","main_expt",""
"","bandit","114","518565","0.0-75.0-0.0","29549722","wem/bandit_party_1","A19IWFLUTW6KQU","either","3","532","","","","","","","0","0","1","","0.1914370393","0.8","0.6","0.4","0.2","0.2536392951","0.4454497031","0.1914370393","0.2916301021","","","","","","","","","","","","","","75","K","2","","","34","main_expt",""
"","bandit","115","520453","0.0-76.0-0.0","29549722","wem/bandit_party_1","A19IWFLUTW6KQU","either","3","381","","","","","","","0","1","0","","0.3236538836","0.8","0.6","0.4","0.2","0.2336030597","0.4419706984","0.1408207185","0.3236538836","","","","","","","","","","","","","","76","L","3","","","35","main_expt",""
"","bandit","116","522365","0.0-77.0-0.0","29549722","wem/bandit_party_1","A19IWFLUTW6KQU","either","3","406","","","","","","","0","0","1","0.3317439785","","0.8","0.6","0.4","0.2","","","","","0.3110392291","0.4205940312","0.09539735145","0.3317439785","","","","","","","","","","76","L","3","","","36","main_expt",""
"","bandit","117","524285","0.0-78.0-0.0","29549722","wem/bandit_party_1","A19IWFLUTW6KQU","either","3","412","","","","","","","0","1","0","","0.4227305347","0.8","0.6","0.4","0.2","0.3354302382","0.4227305347","0.08867332122","0.3620900841","","","","","","","","","","","","","","74","J","1","","","37","main_expt",""
"","bandit","118","526229","0.0-79.0-0.0","29549722","wem/bandit_party_1","A19IWFLUTW6KQU","either","3","437","","","","","","","1","0","0","0.3904174821","","0.8","0.6","0.4","0.2","","","","","0.3359947902","0.3904174821","0.0804097964","0.3649119955","","","","","","","","","","74","J","1","","","38","main_expt",""
"","bandit","119","528221","0.0-80.0-0.0","29549722","wem/bandit_party_1","A19IWFLUTW6KQU","either","3","485","","","","","","","1","0","0","0.3704092514","","0.8","0.6","0.4","0.2","","","","","0.3719467902","0.3704092514","0.1092906338","0.3993258453","","","","","","","","","","74","J","1","","","39","main_expt",""
"","bandit","120","530221","0.0-81.0-0.0","29549722","wem/bandit_party_1","A19IWFLUTW6KQU","either","3","492","","","","","","","0","0","1","","0.3250394812","0.8","0.6","0.4","0.2","0.37180955","0.3250394812","0.08771014895","0.43145226","","","","","","","","","","","","","","74","J","1","","","40","main_expt",""
"","bandit","121","532157","0.0-82.0-0.0","29549722","wem/bandit_party_1","A19IWFLUTW6KQU","either","3","429","","","","","","","0","0","1","0.3972707938","","0.8","0.6","0.4","0.2","","","","","0.3972707938","0.3633775572","0.1065106481","0.3925837484","","","","","","","","","","72","H","0","img/none_selected.jpg","","41","main_expt",""
"","bandit","122","534125","0.0-83.0-0.0","29549722","wem/bandit_party_1","A19IWFLUTW6KQU","either","3","461","","","","","","","0","0","1","","0.3981555674","0.8","0.6","0.4","0.2","0.3981555674","0.3708570881","0.0926848955","0.4020613291","","","","","","","","","","","","","","72","H","0","img/none_selected.jpg","","42","main_expt",""
"","bandit","123","535964","0.0-84.0-0.0","29549722","wem/bandit_party_1","A19IWFLUTW6KQU","either","3","332","","","","","","","0","0","1","","0.09213729174","0.8","0.6","0.4","0.2","0.3698022864","0.3852030547","0.09213729174","0.4199094288","","","","","","","","","","","","","","75","K","2","","","43","main_expt",""
"","bandit","124","537948","0.0-85.0-0.0","29549722","wem/bandit_party_1","A19IWFLUTW6KQU","either","3","477","","","","","","","0","0","1","","0.3653477133","0.8","0.6","0.4","0.2","0.3278340923","0.3653477133","0.0950319608","0.4362917367","","","","","","","","","","","","","","74","J","1","","","44","main_expt",""
"","bandit","125","539916","0.0-86.0-0.0","29549722","wem/bandit_party_1","A19IWFLUTW6KQU","either","3","461","","","","","","","0","0","1","","0.4310393502","0.8","0.6","0.4","0.2","0.4004869948","0.3423722135","0.07917944011","0.4310393502","","","","","","","","","","","","","","76","L","3","","","45","main_expt",""
"","bandit","126","541773","0.0-87.0-0.0","29549722","wem/bandit_party_1","A19IWFLUTW6KQU","either","3","349","","","","","","","0","1","0","","0.4301719659","0.8","0.6","0.4","0.2","0.4389658195","0.2713785315","0.08528552535","0.4301719659","","","","","","","","","","","","","","76","L","3","","","46","main_expt",""
"","bandit","127","543669","0.0-88.0-0.0","29549722","wem/bandit_party_1","A19IWFLUTW6KQU","either","3","390","","","","","","","0","0","1","","0.4274268526","0.8","0.6","0.4","0.2","0.4294918489","0.2675382036","0.08303267599","0.4274268526","","","","","","","","","","","","","","76","L","3","","","47","main_expt",""
"","bandit","128","545806","0.0-89.0-0.0","29549722","wem/bandit_party_1","A19IWFLUTW6KQU","either","3","630","","","","","","","0","0","1","","0.3006553151","0.8","0.6","0.4","0.2","0.3948346084","0.3006553151","0.1183490009","0.4559220927","","","","","","","","","","","","","","74","J","1","","","48","main_expt",""
"","bandit","129","548885","0.0-90.0-0.0","29549722","wem/bandit_party_1","A19IWFLUTW6KQU","either","3","1573","","","","","","","0","0","1","0.09831357925","","0.8","0.6","0.4","0.2","","","","","0.4226663974","0.2865645246","0.09831357925","0.4362936898","","","","","","","","","","75","K","2","","","49","main_expt",""
"","bandit","130","550941","0.0-91.0-0.0","29549722","wem/bandit_party_1","A19IWFLUTW6KQU","either","3","548","","","","","","","0","0","1","","0.0896163698","0.8","0.6","0.4","0.2","0.3943232949","0.2842330123","0.0896163698","0.4001593617","","","","","","","","","","","","","","75","K","2","","","50","main_expt",""
"","bandit","131","552917","0.0-92.0-0.0","29549722","wem/bandit_party_1","A19IWFLUTW6KQU","either","3","469","","","","","","","0","0","1","0.3911898034","","0.8","0.6","0.4","0.2","","","","","0.3911898034","0.2933637591","0.08239790895","0.3737598101","","","","","","","","","","72","H","0","img/none_selected.jpg","","51","main_expt",""
"","bandit","132","554805","0.0-93.0-0.0","29549722","wem/bandit_party_1","A19IWFLUTW6KQU","either","3","382","","","","","","","0","0","1","","0.2802127762","0.8","0.6","0.4","0.2","0.3897106723","0.2802127762","0.06509061927","0.3490564905","","","","","","","","","","","","","","74","J","1","","","52","main_expt",""
"","bandit","133","556981","0.0-94.0-0.0","29549722","wem/bandit_party_1","A19IWFLUTW6KQU","either","3","669","","","","","","","0","0","1","","0.3606416198","0.8","0.6","0.4","0.2","0.3977919118","0.2567133084","0.05503049918","0.3606416198","","","","","","","","","","","","","","76","L","3","","","53","main_expt",""
"","bandit","134","559125","0.0-95.0-0.0","29549722","wem/bandit_party_1","A19IWFLUTW6KQU","either","3","637","","","","","","","0","0","1","","0.304436262","0.8","0.6","0.4","0.2","0.3803623479","0.304436262","0.06606451817","0.3920172378","","","","","","","","","","","","","","74","J","1","","","54","main_expt",""
"","bandit","135","561061","0.0-96.0-0.0","29549722","wem/bandit_party_1","A19IWFLUTW6KQU","either","3","430","","","","","","","1","0","0","0.3050376594","","0.8","0.6","0.4","0.2","","","","","0.3898030924","0.3050376594","0.0812436444","0.3841867886","","","","","","","","","","74","J","1","","","55","main_expt",""
"","bandit","136","562973","0.0-97.0-0.0","29549722","wem/bandit_party_1","A19IWFLUTW6KQU","either","3","405","","","","","","","0","0","1","","0.2874076515","0.8","0.6","0.4","0.2","0.4332266089","0.2874076515","0.05752214818","0.3752679739","","","","","","","","","","","","","","74","J","1","","","56","main_expt",""
"","bandit","137","565109","0.0-98.0-0.0","29549722","wem/bandit_party_1","A19IWFLUTW6KQU","either","3","628","","","","","","","0","0","1","","0.05957573693","0.8","0.6","0.4","0.2","0.4598680415","0.2633226407","0.05957573693","0.3595388075","","","","","","","","","","","","","","75","K","2","","","57","main_expt",""
"","bandit","138","568269","0.0-99.0-0.0","29549722","wem/bandit_party_1","A19IWFLUTW6KQU","either","3","1652","","","","","","","0","0","1","","0.08347810371","0.8","0.6","0.4","0.2","0.4510058242","0.282557186","0.08347810371","0.2926617498","","","","","","","","","","","","","","75","K","2","","","58","main_expt",""
"","bandit","139","570484","0.0-100.0-0.0","29549722","wem/bandit_party_1","A19IWFLUTW6KQU","either","3","709","","","","","","","0","0","1","0.4587464736","","0.8","0.6","0.4","0.2","","","","","0.4587464736","0.2675679041","0.1166757522","0.2854140482","","","","","","","","","","72","H","0","img/none_selected.jpg","","59","main_expt",""
"","bandit","140","572684","0.0-101.0-0.0","29549722","wem/bandit_party_1","A19IWFLUTW6KQU","either","3","694","","","","","","","1","0","0","0.4534111386","","0.8","0.6","0.4","0.2","","","","","0.4534111386","0.2654645802","0.1223048521","0.2767785787","","","","","","","","","","72","H","0","img/none_selected.jpg","","60","main_expt",""
"","bandit","141","574804","0.0-102.0-0.0","29549722","wem/bandit_party_1","A19IWFLUTW6KQU","either","3","614","","","","","","","0","1","0","","0.4581751116","0.8","0.6","0.4","0.2","0.4581751116","0.2326588137","0.1341525672","0.3110110239","","","","","","","","","","","","","","72","H","0","img/none_selected.jpg","","61","main_expt",""
"","bandit","142","576829","0.0-103.0-0.0","29549722","wem/bandit_party_1","A19IWFLUTW6KQU","either","3","516","","","","","","","1","0","0","0.4447189615","","0.8","0.6","0.4","0.2","","","","","0.4447189615","0.2430345153","0.1748443247","0.2739379344","","","","","","","","","","72","H","0","img/none_selected.jpg","","62","main_expt",""
"","bandit","143","579061","0.0-104.0-0.0","29549722","wem/bandit_party_1","A19IWFLUTW6KQU","either","3","726","","","","","","","1","0","0","0.4351057758","","0.8","0.6","0.4","0.2","","","","","0.4351057758","0.2682261916","0.1872250423","0.2518438402","","","","","","","","","","72","H","0","img/none_selected.jpg","","63","main_expt",""
"","bandit","144","581125","0.0-105.0-0.0","29549722","wem/bandit_party_1","A19IWFLUTW6KQU","either","3","557","","","","","","","1","0","0","0.4559228662","","0.8","0.6","0.4","0.2","","","","","0.4559228662","0.3136585585","0.1592276408","0.216118181","","","","","","","","","","72","H","0","img/none_selected.jpg","","64","main_expt",""
"","bandit","145","583150","0.0-106.0-0.0","29549722","wem/bandit_party_1","A19IWFLUTW6KQU","either","3","508","","","","","","","1","0","0","0.4526438492","","0.8","0.6","0.4","0.2","","","","","0.4526438492","0.3208042698","0.1881419285","0.1961712117","","","","","","","","","","72","H","0","img/none_selected.jpg","","65","main_expt",""
"","bandit","146","585094","0.0-107.0-0.0","29549722","wem/bandit_party_1","A19IWFLUTW6KQU","either","3","436","","","","","","","0","0","1","0.4604690516","","0.8","0.6","0.4","0.2","","","","","0.4604690516","0.3550213758","0.2075830042","0.1821057022","","","","","","","","","","72","H","0","img/none_selected.jpg","","66","main_expt",""
"","bandit","147","586956","0.0-108.0-0.0","29549722","wem/bandit_party_1","A19IWFLUTW6KQU","either","3","357","","","","","","","0","1","0","","0.2221692745","0.8","0.6","0.4","0.2","0.4479534522","0.2883445083","0.210321401","0.2221692745","","","","","","","","","","","","","","76","L","3","","","67","main_expt",""
"","bandit","148","588900","0.0-109.0-0.0","29549722","wem/bandit_party_1","A19IWFLUTW6KQU","either","3","438","","","","","","","0","0","1","","0.2385328342","0.8","0.6","0.4","0.2","0.4420076102","0.2492112051","0.1740681144","0.2385328342","","","","","","","","","","","","","","76","L","3","","","68","main_expt",""
"","bandit","149","590813","0.0-110.0-0.0","29549722","wem/bandit_party_1","A19IWFLUTW6KQU","either","3","407","","","","","","","0","0","1","0.1725364023","","0.8","0.6","0.4","0.2","","","","","0.3840886122","0.1725364023","0.1495678232","0.2693988132","","","","","","","","","","74","J","1","","","69","main_expt",""
"","bandit","150","592740","0.0-111.0-0.0","29549722","wem/bandit_party_1","A19IWFLUTW6KQU","either","3","420","","","","","","","0","0","1","","0.2633889128","0.8","0.6","0.4","0.2","0.3764426572","0.2081322216","0.1594524764","0.2633889128","","","","","","","","","","","","","","76","L","3","","","70","main_expt",""
"","bandit","151","594653","0.0-112.0-0.0","29549722","wem/bandit_party_1","A19IWFLUTW6KQU","either","3","406","","","","","","","0","0","1","","0.1308665948","0.8","0.6","0.4","0.2","0.3925575972","0.2222096595","0.1308665948","0.2881785301","","","","","","","","","","","","","","75","K","2","","","71","main_expt",""
"","bandit","152","596292","0.0-113.0-0.0","29549722","wem/bandit_party_1","A19IWFLUTW6KQU","either","3","133","","","","","","","0","0","1","0.4055717031","","0.8","0.6","0.4","0.2","","","","","0.4055717031","0.2276413934","0.1413665491","0.3496752211","","","","","","","","","","72","H","0","img/none_selected.jpg","","72","main_expt",""
"","bandit","153","599036","0.0-114.0-0.0","29549722","wem/bandit_party_1","A19IWFLUTW6KQU","either","3","1237","","","","","","","0","0","1","0.4313753627","","0.8","0.6","0.4","0.2","","","","","0.4313753627","0.202726327","0.1562096843","0.3662649551","","","","","","","","","","72","H","0","img/none_selected.jpg","","73","main_expt",""
"","bandit","154","601509","0.0-115.0-0.0","29549722","wem/bandit_party_1","A19IWFLUTW6KQU","either","3","966","","","","","","","0","0","1","","0.2465356434","0.8","0.6","0.4","0.2","0.4294283137","0.2465356434","0.1601549975","0.3318597218","","","","","","","","","","","","","","74","J","1","","","74","main_expt",""
"","bandit","155","603556","0.0-116.0-0.0","29549722","wem/bandit_party_1","A19IWFLUTW6KQU","either","3","540","","","","","","","0","0","1","","0.1962365409","0.8","0.6","0.4","0.2","0.4114775526","0.2780880013","0.1962365409","0.3129946244","","","","","","","","","","","","","","75","K","2","","","75","main_expt",""
"","bandit","156","605916","0.0-117.0-0.0","29549722","wem/bandit_party_1","A19IWFLUTW6KQU","either","3","853","","","","","","","0","0","1","","0.3299880354","0.8","0.6","0.4","0.2","0.4038916894","0.230570622","0.2315068675","0.3299880354","","","","","","","","","","","","","","76","L","3","","","76","main_expt",""
"","bandit","157","607860","0.0-118.0-0.0","29549722","wem/bandit_party_1","A19IWFLUTW6KQU","either","3","437","","","","","","","0","0","1","","0.2704336052","0.8","0.6","0.4","0.2","0.4028298088","0.1747897532","0.1749603823","0.2704336052","","","","","","","","","","","","","","76","L","3","","","77","main_expt",""
"","bandit","158","609628","0.0-119.0-0.0","29549722","wem/bandit_party_1","A19IWFLUTW6KQU","either","3","260","","","","","","","0","0","1","0.2009150394","","0.8","0.6","0.4","0.2","","","","","0.4004321452","0.2009150394","0.2091975686","0.2489008917","","","","","","","","","","74","J","1","","","78","main_expt",""
"","bandit","159","611550","0.0-120.0-0.0","29549722","wem/bandit_party_1","A19IWFLUTW6KQU","either","3","412","","","","","","","0","0","1","0.2090883318","","0.8","0.6","0.4","0.2","","","","","0.3909827091","0.2090883318","0.2699334682","0.2182462247","","","","","","","","","","74","J","1","","","79","main_expt",""
"","bandit","160","613533","0.0-121.0-0.0","29549722","wem/bandit_party_1","A19IWFLUTW6KQU","either","3","477","","","","","","","0","0","1","0.2712134299","","0.8","0.6","0.4","0.2","","","","","0.4289339141","0.215522018","0.2712134299","0.1591694045","","","","","","","","","","75","K","2","","","80","main_expt",""
"","bandit","161","615532","0.0-122.0-0.0","29549722","wem/bandit_party_1","A19IWFLUTW6KQU","either","3","493","","","","","","","0","1","0","","0.2563236188","0.8","0.6","0.4","0.2","0.4256341571","0.2655955182","0.2563236188","0.1661146317","","","","","","","","","","","","","","75","K","2","","","81","main_expt",""
"","bandit","162","617828","0.0-123.0-0.0","29549722","wem/bandit_party_1","A19IWFLUTW6KQU","either","3","790","","","","","","","0","0","1","0.2474856626","","0.8","0.6","0.4","0.2","","","","","0.4153375647","0.2642342948","0.2474856626","0.2249160828","","","","","","","","","","75","K","2","","","82","main_expt",""
"","bandit","163","619972","0.0-124.0-0.0","29549722","wem/bandit_party_1","A19IWFLUTW6KQU","either","3","636","","","","","","","1","0","0","0.4239102097","","0.8","0.6","0.4","0.2","","","","","0.4239102097","0.2615040017","0.2338037125","0.2194800234","","","","","","","","","","72","H","0","img/none_selected.jpg","","83","main_expt",""
"","bandit","164","621924","0.0-125.0-0.0","29549722","wem/bandit_party_1","A19IWFLUTW6KQU","either","3","445","","","","","","","1","0","0","0.4021041833","","0.8","0.6","0.4","0.2","","","","","0.4021041833","0.3136368113","0.2929655049","0.2020024956","","","","","","","","","","72","H","0","img/none_selected.jpg","","84","main_expt",""
"","bandit","165","624028","0.0-126.0-0.0","29549722","wem/bandit_party_1","A19IWFLUTW6KQU","either","3","597","","","","","","","0","0","1","0.4322374594","","0.8","0.6","0.4","0.2","","","","","0.4322374594","0.2433538552","0.2755572306","0.1639230135","","","","","","","","","","72","H","0","img/none_selected.jpg","","85","main_expt",""
"","bandit","166","626124","0.0-127.0-0.0","29549722","wem/bandit_party_1","A19IWFLUTW6KQU","either","3","589","","","","","","","0","0","1","","0.1423092638","0.8","0.6","0.4","0.2","0.4247618508","0.2583740773","0.2706615249","0.1423092638","","","","","","","","","","","","","","76","L","3","","","86","main_expt",""
"","bandit","167","628213","0.0-128.0-0.0","29549722","wem/bandit_party_1","A19IWFLUTW6KQU","either","3","580","","","","","","","0","0","1","","0.1623313408","0.8","0.6","0.4","0.2","0.4130492334","0.2656778135","0.3259805539","0.1623313408","","","","","","","","","","","","","","76","L","3","","","87","main_expt",""
"","bandit","168","630429","0.0-129.0-0.0","29549722","wem/bandit_party_1","A19IWFLUTW6KQU","either","3","707","","","","","","","0","0","1","","0.3471137027","0.8","0.6","0.4","0.2","0.3883747858","0.2565525481","0.3471137027","0.1459946163","","","","","","","","","","","","","","75","K","2","","","88","main_expt",""
"","bandit","169","632533","0.0-130.0-0.0","29549722","wem/bandit_party_1","A19IWFLUTW6KQU","either","3","597","","","","","","","0","0","1","0.2471999074","","0.8","0.6","0.4","0.2","","","","","0.3950807547","0.2471999074","0.3715311126","0.1684807643","","","","","","","","","","74","J","1","","","89","main_expt",""
"","bandit","170","635206","0.0-131.0-0.0","29549722","wem/bandit_party_1","A19IWFLUTW6KQU","either","3","1165","","","","","","","1","0","0","0.420982679","","0.8","0.6","0.4","0.2","","","","","0.420982679","0.2204199549","0.3571728809","0.1937692241","","","","","","","","","","72","H","0","img/none_selected.jpg","","90","main_expt",""
"","bandit","171","637148","0.0-132.0-0.0","29549722","wem/bandit_party_1","A19IWFLUTW6KQU","either","3","436","","","","","","","0","0","1","0.4012606491","","0.8","0.6","0.4","0.2","","","","","0.4012606491","0.2013548925","0.3348642023","0.1670397906","","","","","","","","","","72","H","0","img/none_selected.jpg","","91","main_expt",""
"","bandit","172","639332","0.0-133.0-0.0","29549722","wem/bandit_party_1","A19IWFLUTW6KQU","either","3","677","","","","","","","0","1","0","","0.1936095216","0.8","0.6","0.4","0.2","0.3950870333","0.174921714","0.3551195155","0.1936095216","","","","","","","","","","","","","","76","L","3","","","92","main_expt",""
"","bandit","173","641300","0.0-134.0-0.0","29549722","wem/bandit_party_1","A19IWFLUTW6KQU","either","3","460","","","","","","","0","0","1","","0.2399824117","0.8","0.6","0.4","0.2","0.3797372222","0.1972058505","0.3494458231","0.2399824117","","","","","","","","","","","","","","76","L","3","","","93","main_expt",""
"","bandit","174","643276","0.0-135.0-0.0","29549722","wem/bandit_party_1","A19IWFLUTW6KQU","either","3","467","","","","","","","0","0","1","","0.2144007407","0.8","0.6","0.4","0.2","0.3346339076","0.2144007407","0.3759818745","0.242536602","","","","","","","","","","","","","","74","J","1","","","94","main_expt",""
"","bandit","175","648964","0.0-136.0-0.0","29549722","wem/bandit_party_1","A19IWFLUTW6KQU","either","3","4181","","","","","","","0","0","1","0.3081296623","","0.8","0.6","0.4","0.2","","","","","0.3433005441","0.2025691914","0.3467088588","0.3081296623","","","","","","","","","","76","L","3","","","95","main_expt",""
"","bandit","176","650876","0.0-137.0-0.0","29549722","wem/bandit_party_1","A19IWFLUTW6KQU","either","3","404","","","","","","","0","0","1","","0.3520186383","0.8","0.6","0.4","0.2","0.2900415689","0.1750118246","0.3520186383","0.371766452","","","","","","","","","","","","","","75","K","2","","","96","main_expt",""
"","bandit","177","653549","0.0-138.0-0.0","29549722","wem/bandit_party_1","A19IWFLUTW6KQU","either","3","1165","","","","","","","0","0","1","","0.3737721809","0.8","0.6","0.4","0.2","0.3136050561","0.2433812568","0.342216001","0.3737721809","","","","","","","","","","","","","","76","L","3","","","97","main_expt",""
"","bandit","178","655484","0.0-139.0-0.0","29549722","wem/bandit_party_1","A19IWFLUTW6KQU","either","3","427","","","","","","","0","0","1","","0.3662625892","0.8","0.6","0.4","0.2","0.3236610102","0.1834100281","0.3775958225","0.3662625892","","","","","","","","","","","","","","76","L","3","","","98","main_expt",""
"","bandit","179","657404","0.0-140.0-0.0","29549722","wem/bandit_party_1","A19IWFLUTW6KQU","either","3","412","","","","","","","0","0","1","","0.3490624926","0.8","0.6","0.4","0.2","0.3116662608","0.146161558","0.3490624926","0.3912879072","","","","","","","","","","","","","","75","K","2","","","99","main_expt",""
"","bandit","180","659557","0.0-141.0-0.0","29549722","wem/bandit_party_1","A19IWFLUTW6KQU","either","3","645","","","","","","","0","0","1","","0.1186266926","0.8","0.6","0.4","0.2","0.3806420769","0.1186266926","0.3418910903","0.3916888764","","","","","","","","","","","","","","74","J","1","","","100","main_expt",""
"","bandit","181","661812","0.0-142.0-0.0","29549722","wem/bandit_party_1","A19IWFLUTW6KQU","either","3","747","","","","","","","1","0","0","0.3825052475","","0.8","0.6","0.4","0.2","","","","","0.3825052475","0.1467879228","0.3544055354","0.3803758031","","","","","","","","","","72","H","0","img/none_selected.jpg","","101","main_expt",""
"","bandit","182","663813","0.0-143.0-0.0","29549722","wem/bandit_party_1","A19IWFLUTW6KQU","either","3","492","","","","","","","0","0","1","0.3799327693","","0.8","0.6","0.4","0.2","","","","","0.3799327693","0.1336514036","0.3580864163","0.3685266224","","","","","","","","","","72","H","0","img/none_selected.jpg","","102","main_expt",""
"","bandit","183","665812","0.0-144.0-0.0","29549722","wem/bandit_party_1","A19IWFLUTW6KQU","either","3","491","","","","","","","0","0","1","","0.3754978655","0.8","0.6","0.4","0.2","0.3502018886","0.1325092095","0.336528594","0.3754978655","","","","","","","","","","","","","","76","L","3","","","103","main_expt",""
"","bandit","184","667660","0.0-145.0-0.0","29549722","wem/bandit_party_1","A19IWFLUTW6KQU","either","3","341","","","","","","","0","0","1","0.3190078166","","0.8","0.6","0.4","0.2","","","","","0.3443431466","0.1162839287","0.3190078166","0.4033056484","","","","","","","","","","75","K","2","","","104","main_expt",""
"","bandit","185","669636","0.0-146.0-0.0","29549722","wem/bandit_party_1","A19IWFLUTW6KQU","either","3","469","","","","","","","0","0","1","","0.115620258","0.8","0.6","0.4","0.2","0.3551378046","0.115620258","0.3100940773","0.3617388181","","","","","","","","","","","","","","74","J","1","","","105","main_expt",""
"","bandit","186","671556","0.0-147.0-0.0","29549722","wem/bandit_party_1","A19IWFLUTW6KQU","either","3","411","","","","","","","0","0","1","0.1102569517","","0.8","0.6","0.4","0.2","","","","","0.3177956882","0.1102569517","0.2964842485","0.3656875331","","","","","","","","","","74","J","1","","","106","main_expt",""
"","bandit","187","673500","0.0-148.0-0.0","29549722","wem/bandit_party_1","A19IWFLUTW6KQU","either","3","436","","","","","","","0","0","1","","0.3224579283","0.8","0.6","0.4","0.2","0.3463124521","0.110599846","0.3224579283","0.3478183852","","","","","","","","","","","","","","75","K","2","","","107","main_expt",""
"","bandit","188","675492","0.0-149.0-0.0","29549722","wem/bandit_party_1","A19IWFLUTW6KQU","either","3","485","","","","","","","1","0","0","0.330790185","","0.8","0.6","0.4","0.2","","","","","0.330790185","0.1647947233","0.3365568187","0.3715517583","","","","","","","","","","72","H","0","img/none_selected.jpg","","108","main_expt",""
"","bandit","189","677563","0.0-150.0-0.0","29549722","wem/bandit_party_1","A19IWFLUTW6KQU","either","3","564","","","","","","","0","0","1","0.3259779601","","0.8","0.6","0.4","0.2","","","","","0.3259779601","0.146095753","0.3200824859","0.3713851569","","","","","","","","","","72","H","0","img/none_selected.jpg","","109","main_expt",""
"","bandit","190","679579","0.0-151.0-0.0","29549722","wem/bandit_party_1","A19IWFLUTW6KQU","either","3","509","","","","","","","0","0","1","0.3169053314","","0.8","0.6","0.4","0.2","","","","","0.3169053314","0.1691954855","0.3179471713","0.3401672382","","","","","","","","","","72","H","0","img/none_selected.jpg","","110","main_expt",""
"","bandit","191","681484","0.0-152.0-0.0","29549722","wem/bandit_party_1","A19IWFLUTW6KQU","either","3","398","","","","","","","0","0","1","","0.3242328008","0.8","0.6","0.4","0.2","0.342138516","0.1690298198","0.3168158386","0.3242328008","","","","","","","","","","","","","","76","L","3","","","111","main_expt",""
"","bandit","192","683404","0.0-153.0-0.0","29549722","wem/bandit_party_1","A19IWFLUTW6KQU","either","3","413","","","","","","","0","0","1","","0.3597886873","0.8","0.6","0.4","0.2","0.3597886873","0.2196992501","0.3551606626","0.2991119965","","","","","","","","","","","","","","72","H","0","img/none_selected.jpg","","112","main_expt",""
"","bandit","193","685332","0.0-154.0-0.0","29549722","wem/bandit_party_1","A19IWFLUTW6KQU","either","3","422","","","","","","","0","0","1","","0.3615444015","0.8","0.6","0.4","0.2","0.3580549124","0.2723467559","0.3615444015","0.3364281798","","","","","","","","","","","","","","75","K","2","","","113","main_expt",""
"","bandit","194","687260","0.0-155.0-0.0","29549722","wem/bandit_party_1","A19IWFLUTW6KQU","either","3","421","","","","","","","0","0","1","","0.2470985199","0.8","0.6","0.4","0.2","0.3556181037","0.2470985199","0.4043222556","0.3495122724","","","","","","","","","","","","","","74","J","1","","","114","main_expt",""
"","bandit","195","689364","0.0-156.0-0.0","29549722","wem/bandit_party_1","A19IWFLUTW6KQU","either","3","596","","","","","","","1","0","0","0.2482590513","","0.8","0.6","0.4","0.2","","","","","0.3489042174","0.2482590513","0.4179696435","0.324938203","","","","","","","","","","74","J","1","","","115","main_expt",""
"","bandit","196","691340","0.0-157.0-0.0","29549722","wem/bandit_party_1","A19IWFLUTW6KQU","either","3","468","","","","","","","0","0","1","","0.1992012358","0.8","0.6","0.4","0.2","0.3466245191","0.1992012358","0.4324393975","0.3227512736","","","","","","","","","","","","","","74","J","1","","","116","main_expt",""
"","bandit","197","693317","0.0-158.0-0.0","29549722","wem/bandit_party_1","A19IWFLUTW6KQU","either","3","468","","","","","","","0","0","1","0.216355905","","0.8","0.6","0.4","0.2","","","","","0.3581754781","0.216355905","0.4290779421","0.2585209305","","","","","","","","","","74","J","1","","","117","main_expt",""
"","bandit","198","695379","0.0-159.0-0.0","29549722","wem/bandit_party_1","A19IWFLUTW6KQU","either","3","555","","","","","","","0","0","1","","0.4459264202","0.8","0.6","0.4","0.2","0.283939031","0.1715453935","0.4459264202","0.2817260076","","","","","","","","","","","","","","75","K","2","","","118","main_expt",""
"","bandit","199","697331","0.0-160.0-0.0","29549722","wem/bandit_party_1","A19IWFLUTW6KQU","either","3","445","","","","","","","0","0","1","0.328214026","","0.8","0.6","0.4","0.2","","","","","0.2992634423","0.1843456939","0.436995295","0.328214026","","","","","","","","","","76","L","3","","","119","main_expt",""
"","bandit","200","699396","0.0-161.0-0.0","29549722","wem/bandit_party_1","A19IWFLUTW6KQU","either","3","557","","","","","","","0","0","1","0.3355603121","","0.8","0.6","0.4","0.2","","","","","0.1878150733","0.1848061615","0.4151314625","0.3355603121","","","","","","","","","","76","L","3","","","120","main_expt",""
"","bandit","201","701388","0.0-162.0-0.0","29549722","wem/bandit_party_1","A19IWFLUTW6KQU","either","3","484","","","","","","","0","0","1","0.1447458933","","0.8","0.6","0.4","0.2","","","","","0.1447458933","0.1679578636","0.4384064527","0.3829587724","","","","","","","","","","72","H","0","img/none_selected.jpg","","121","main_expt",""
"","bandit","202","704060","0.0-163.0-0.0","29549722","wem/bandit_party_1","A19IWFLUTW6KQU","either","3","1164","","","","","","","0","0","1","0.1176060398","","0.8","0.6","0.4","0.2","","","","","0.1176060398","0.197295971","0.4417589501","0.3995678287","","","","","","","","","","72","H","0","img/none_selected.jpg","","122","main_expt",""
"","bandit","203","706108","0.0-164.0-0.0","29549722","wem/bandit_party_1","A19IWFLUTW6KQU","either","3","540","","","","","","","0","0","1","","0.2184653352","0.8","0.6","0.4","0.2","0.1097677055","0.2184653352","0.4017154396","0.3656739583","","","","","","","","","","","","","","74","J","1","","","123","main_expt",""
"","bandit","204","708148","0.0-165.0-0.0","29549722","wem/bandit_party_1","A19IWFLUTW6KQU","either","3","531","","","","","","","0","0","1","0.08048168986","","0.8","0.6","0.4","0.2","","","","","0.08048168986","0.2147868977","0.3619070526","0.3862549257","","","","","","","","","","72","H","0","img/none_selected.jpg","","124","main_expt",""
"","bandit","205","710419","0.0-166.0-0.0","29549722","wem/bandit_party_1","A19IWFLUTW6KQU","either","3","764","","","","","","","0","0","1","0.3567490645","","0.8","0.6","0.4","0.2","","","","","0.07842900555","0.1667936559","0.3567490645","0.3593796239","","","","","","","","","","75","K","2","","","125","main_expt",""
"","bandit","206","712331","0.0-167.0-0.0","29549722","wem/bandit_party_1","A19IWFLUTW6KQU","either","3","405","","","","","","","0","0","1","0.1453295256","","0.8","0.6","0.4","0.2","","","","","0.08318363027","0.1453295256","0.3558473019","0.3413194209","","","","","","","","","","74","J","1","","","126","main_expt",""
"","bandit","207","714067","0.0-168.0-0.0","29549722","wem/bandit_party_1","A19IWFLUTW6KQU","either","3","229","","","","","","","0","0","1","","0.3369929262","0.8","0.6","0.4","0.2","0.06812438963","0.1635755653","0.3543069734","0.3369929262","","","","","","","","","","","","","","76","L","3","","","127","main_expt",""
"","bandit","208","716493","0.0-169.0-0.0","29549722","wem/bandit_party_1","A19IWFLUTW6KQU","either","3","917","","","","","","","0","1","0","","0.2922989636","0.8","0.6","0.4","0.2","0.08303766286","0.1872639566","0.3328374851","0.2922989636","","","","","","","","","","","","","","76","L","3","","","128","main_expt",""
"","bandit","209","722637","0.0-170.0-0.0","29549722","wem/bandit_party_1","A19IWFLUTW6KQU","either","3","4636","","","","","","","0","1","0","","0.3095146075","0.8","0.6","0.4","0.2","0.09047360051","0.2032718864","0.3238683282","0.3095146075","","","","","","","","","","","","","","76","L","3","","","129","main_expt",""
"","bandit","210","725188","0.0-171.0-0.0","29549722","wem/bandit_party_1","A19IWFLUTW6KQU","either","3","1043","","","","","","","0","0","1","","0.3068425872","0.8","0.6","0.4","0.2","0.131542256","0.2025864764","0.2750329062","0.3068425872","","","","","","","","","","","","","","76","L","3","","","130","main_expt",""
"","bandit","211","727909","0.0-172.0-0.0","29549722","wem/bandit_party_1","A19IWFLUTW6KQU","either","3","1213","","","","","","","0","0","1","0.2751886228","","0.8","0.6","0.4","0.2","","","","","0.1492019489","0.2158584071","0.2751886228","0.3112504131","","","","","","","","","","75","K","2","","","131","main_expt",""
"","bandit","212","729924","0.0-173.0-0.0","29549722","wem/bandit_party_1","A19IWFLUTW6KQU","either","3","508","","","","","","","0","0","1","","0.3595653039","0.8","0.6","0.4","0.2","0.1571188116","0.2105840197","0.2729729886","0.3595653039","","","","","","","","","","","","","","76","L","3","","","132","main_expt",""
"","bandit","213","732332","0.0-174.0-0.0","29549722","wem/bandit_party_1","A19IWFLUTW6KQU","either","3","900","","","","","","","0","0","1","","0.2328486735","0.8","0.6","0.4","0.2","0.2021073832","0.2328486735","0.3248088544","0.3873527377","","","","","","","","","","","","","","74","J","1","","","133","main_expt",""
"","bandit","214","734461","0.0-175.0-0.0","29549722","wem/bandit_party_1","A19IWFLUTW6KQU","either","3","621","","","","","","","0","0","1","0.2693148074","","0.8","0.6","0.4","0.2","","","","","0.2693148074","0.2589092944","0.3596446835","0.3973884711","","","","","","","","","","72","H","0","img/none_selected.jpg","","134","main_expt",""
"","bandit","215","736845","0.0-176.0-0.0","29549722","wem/bandit_party_1","A19IWFLUTW6KQU","either","3","875","","","","","","","1","0","0","0.2625780805","","0.8","0.6","0.4","0.2","","","","","0.2625780805","0.2637326353","0.318377279","0.4080523157","","","","","","","","","","72","H","0","img/none_selected.jpg","","135","main_expt",""
"","bandit","216","738836","0.0-177.0-0.0","29549722","wem/bandit_party_1","A19IWFLUTW6KQU","either","3","483","","","","","","","0","0","1","0.2981707722","","0.8","0.6","0.4","0.2","","","","","0.2981707722","0.2718680576","0.3160887017","0.4176503084","","","","","","","","","","72","H","0","img/none_selected.jpg","","136","main_expt",""
"","bandit","217","740845","0.0-178.0-0.0","29549722","wem/bandit_party_1","A19IWFLUTW6KQU","either","3","500","","","","","","","1","0","0","0.3148158286","","0.8","0.6","0.4","0.2","","","","","0.3148158286","0.2919957672","0.2883225013","0.3859803947","","","","","","","","","","72","H","0","img/none_selected.jpg","","137","main_expt",""
"","bandit","218","742804","0.0-179.0-0.0","29549722","wem/bandit_party_1","A19IWFLUTW6KQU","either","3","450","","","","","","","1","0","0","0.3111523267","","0.8","0.6","0.4","0.2","","","","","0.3111523267","0.3193993407","0.3009152141","0.358492916","","","","","","","","","","72","H","0","img/none_selected.jpg","","138","main_expt",""
"","bandit","219","744756","0.0-180.0-0.0","29549722","wem/bandit_party_1","A19IWFLUTW6KQU","either","3","444","","","","","","","0","0","1","0.3034593298","","0.8","0.6","0.4","0.2","","","","","0.3034593298","0.3404434035","0.293720077","0.3608756281","","","","","","","","","","72","H","0","img/none_selected.jpg","","139","main_expt",""
"","bandit","220","746756","0.0-181.0-0.0","29549722","wem/bandit_party_1","A19IWFLUTW6KQU","either","3","492","","","","","","","1","0","0","0.3421836092","","0.8","0.6","0.4","0.2","","","","","0.2507495005","0.3278052243","0.286059761","0.3421836092","","","","","","","","","","76","L","3","","","140","main_expt",""
"","bandit","221","748701","0.0-182.0-0.0","29549722","wem/bandit_party_1","A19IWFLUTW6KQU","either","3","436","","","","","","","0","0","1","0.3737340371","","0.8","0.6","0.4","0.2","","","","","0.2220694513","0.3038906839","0.2931724706","0.3737340371","","","","","","","","","","76","L","3","","","141","main_expt",""
"","bandit","222","751029","0.0-183.0-0.0","29549722","wem/bandit_party_1","A19IWFLUTW6KQU","either","3","818","","","","","","","1","0","0","0.3461121542","","0.8","0.6","0.4","0.2","","","","","0.2119249064","0.2924195757","0.2182180164","0.3461121542","","","","","","","","","","76","L","3","","","142","main_expt",""
"","bandit","223","752941","0.0-184.0-0.0","29549722","wem/bandit_party_1","A19IWFLUTW6KQU","either","3","403","","","","","","","0","0","1","0.2665135591","","0.8","0.6","0.4","0.2","","","","","0.2665135591","0.2816149275","0.2015475508","0.3305931074","","","","","","","","","","72","H","0","img/none_selected.jpg","","143","main_expt",""
"","bandit","224","755157","0.0-185.0-0.0","29549722","wem/bandit_party_1","A19IWFLUTW6KQU","either","3","707","","","","","","","0","0","1","","0.2355525614","0.8","0.6","0.4","0.2","0.2854155153","0.2355525614","0.2074070562","0.3561039987","","","","","","","","","","","","","","74","J","1","","","144","main_expt",""
"","bandit","225","757220","0.0-186.0-0.0","29549722","wem/bandit_party_1","A19IWFLUTW6KQU","either","3","555","","","","","","","0","0","1","","0.3648023512","0.8","0.6","0.4","0.2","0.2521048148","0.2185662272","0.1415368311","0.3648023512","","","","","","","","","","","","","","76","L","3","","","145","main_expt",""
"","bandit","226","759156","0.0-187.0-0.0","29549722","wem/bandit_party_1","A19IWFLUTW6KQU","either","3","428","","","","","","","0","0","1","","0.3450315","0.8","0.6","0.4","0.2","0.2321266643","0.2209315791","0.1549520657","0.3450315","","","","","","","","","","","","","","76","L","3","","","146","main_expt",""
"","bandit","227","761142","0.0-188.0-0.0","29549722","wem/bandit_party_1","A19IWFLUTW6KQU","either","3","477","","","","","","","0","0","1","0.1469310363","","0.8","0.6","0.4","0.2","","","","","0.3159383216","0.2889766311","0.1469310363","0.2720321141","","","","","","","","","","75","K","2","","","147","main_expt",""
"","bandit","228","762900","0.0-189.0-0.0","29549722","wem/bandit_party_1","A19IWFLUTW6KQU","either","3","251","","","","","","","1","0","0","0.2673485129","","0.8","0.6","0.4","0.2","","","","","0.2673485129","0.2859466156","0.1332828417","0.2598972664","","","","","","","","","","72","H","0","img/none_selected.jpg","","148","main_expt",""
"","bandit","229","764828","0.0-190.0-0.0","29549722","wem/bandit_party_1","A19IWFLUTW6KQU","either","3","420","","","","","","","0","0","1","","0.2588478233","0.8","0.6","0.4","0.2","0.3348600541","0.2588478233","0.1102010463","0.2343157719","","","","","","","","","","","","","","74","J","1","","","149","main_expt",""
"","bandit","230","766724","0.0-191.0-0.0","29549722","wem/bandit_party_1","A19IWFLUTW6KQU","either","3","388","","","","","","","0","1","0","","0.3659656834","0.8","0.6","0.4","0.2","0.3659656834","0.2224653457","0.1356103494","0.2451363599","","","","","","","","","","","","","","72","H","0","img/none_selected.jpg","","150","main_expt",""
"","bandit","231","768668","0.0-192.0-0.0","29549722","wem/bandit_party_1","A19IWFLUTW6KQU","either","3","435","","","","","","","0","0","1","0.36397653","","0.8","0.6","0.4","0.2","","","","","0.36397653","0.2387237716","0.1621229287","0.2053737132","","","","","","","","","","72","H","0","img/none_selected.jpg","","151","main_expt",""
"","bandit","232","770621","0.0-193.0-0.0","29549722","wem/bandit_party_1","A19IWFLUTW6KQU","either","3","444","","","","","","","0","0","1","0.2519133504","","0.8","0.6","0.4","0.2","","","","","0.3710672623","0.2519133504","0.1412745606","0.2396242378","","","","","","","","","","74","J","1","","","152","main_expt",""
"","bandit","233","772684","0.0-194.0-0.0","29549722","wem/bandit_party_1","A19IWFLUTW6KQU","either","3","555","","","","","","","0","1","0","","0.3828607765","0.8","0.6","0.4","0.2","0.3828607765","0.3078499427","0.1707580034","0.2923277395","","","","","","","","","","","","","","72","H","0","img/none_selected.jpg","","153","main_expt",""
"","bandit","234","774604","0.0-195.0-0.0","29549722","wem/bandit_party_1","A19IWFLUTW6KQU","either","3","412","","","","","","","0","0","1","0.3526468527","","0.8","0.6","0.4","0.2","","","","","0.3526468527","0.3283820497","0.1717455462","0.3166515581","","","","","","","","","","72","H","0","img/none_selected.jpg","","154","main_expt",""
"","bandit","235","776659","0.0-196.0-0.0","29549722","wem/bandit_party_1","A19IWFLUTW6KQU","either","3","547","","","","","","","1","0","0","0.3865981945","","0.8","0.6","0.4","0.2","","","","","0.3865981945","0.3303057687","0.1785539081","0.3194616596","","","","","","","","","","72","H","0","img/none_selected.jpg","","155","main_expt",""
"","bandit","236","778555","0.0-197.0-0.0","29549722","wem/bandit_party_1","A19IWFLUTW6KQU","either","3","387","","","","","","","0","0","1","0.4328422877","","0.8","0.6","0.4","0.2","","","","","0.4328422877","0.3178912443","0.2175815231","0.3767011333","","","","","","","","","","72","H","0","img/none_selected.jpg","","156","main_expt",""
"","bandit","237","780627","0.0-198.0-0.0","29549722","wem/bandit_party_1","A19IWFLUTW6KQU","either","3","563","","","","","","","0","0","1","0.216674397","","0.8","0.6","0.4","0.2","","","","","0.4224906378","0.3236874272","0.216674397","0.3853144204","","","","","","","","","","75","K","2","","","157","main_expt",""
"","bandit","238","782499","0.0-199.0-0.0","29549722","wem/bandit_party_1","A19IWFLUTW6KQU","either","3","363","","","","","","","1","0","0","0.4428847078","","0.8","0.6","0.4","0.2","","","","","0.4428847078","0.3731337511","0.2184316938","0.3519128793","","","","","","","","","","72","H","0","img/none_selected.jpg","","158","main_expt",""
"","bandit","239","784411","0.0-200.0-0.0","29549722","wem/bandit_party_1","A19IWFLUTW6KQU","either","3","404","","","","","","","1","0","0","0.4498083842","","0.8","0.6","0.4","0.2","","","","","0.4498083842","0.3758107074","0.2603966468","0.3255157266","","","","","","","","","","72","H","0","img/none_selected.jpg","","159","main_expt",""
"","bandit","240","786891","0.0-201.0-0.0","29549722","wem/bandit_party_1","A19IWFLUTW6KQU","either","3","972","","","","","","","0","0","1","0.4319550234","","0.8","0.6","0.4","0.2","","","","","0.4319550234","0.3494215766","0.2242017374","0.379238532","","","","","","","","","","72","H","0","img/none_selected.jpg","","160","main_expt",""
"","bandit","241","788756","0.0-202.0-0.0","29549722","wem/bandit_party_1","A19IWFLUTW6KQU","either","3","356","","","","","","","0","0","1","","0.3776335756","0.8","0.6","0.4","0.2","0.4417514389","0.3327111917","0.2014027125","0.3776335756","","","","","","","","","","","","","","76","L","3","","","161","main_expt",""
"","bandit","242","790659","0.0-203.0-0.0","29549722","wem/bandit_party_1","A19IWFLUTW6KQU","either","3","395","","","","","","","0","0","1","0.2955751891","","0.8","0.6","0.4","0.2","","","","","0.4081293495","0.3171011618","0.2038621466","0.2955751891","","","","","","","","","","76","L","3","","","162","main_expt",""
"","bandit","243","792587","0.0-204.0-0.0","29549722","wem/bandit_party_1","A19IWFLUTW6KQU","either","3","420","","","","","","","0","0","1","","0.1238136799","0.8","0.6","0.4","0.2","0.4265776113","0.364183239","0.1238136799","0.30851492","","","","","","","","","","","","","","75","K","2","","","163","main_expt",""
"","bandit","244","794523","0.0-205.0-0.0","29549722","wem/bandit_party_1","A19IWFLUTW6KQU","either","3","427","","","","","","","0","0","1","","0.3917374524","0.8","0.6","0.4","0.2","0.427472809","0.3917374524","0.1104941302","0.3074756362","","","","","","","","","","","","","","74","J","1","","","164","main_expt",""
"","bandit","245","796459","0.0-206.0-0.0","29549722","wem/bandit_party_1","A19IWFLUTW6KQU","either","3","427","","","","","","","0","0","1","0.4016343469","","0.8","0.6","0.4","0.2","","","","","0.4016343469","0.3629360172","0.1099358877","0.2743039079","","","","","","","","","","72","H","0","img/none_selected.jpg","","165","main_expt",""
"","bandit","246","798371","0.0-207.0-0.0","29549722","wem/bandit_party_1","A19IWFLUTW6KQU","either","3","403","","","","","","","1","0","0","0.3578169927","","0.8","0.6","0.4","0.2","","","","","0.3578169927","0.3697042915","0.08082918558","0.2900226329","","","","","","","","","","72","H","0","img/none_selected.jpg","","166","main_expt",""
"","bandit","247","800348","0.0-208.0-0.0","29549722","wem/bandit_party_1","A19IWFLUTW6KQU","either","3","468","","","","","","","1","0","0","0.3346076013","","0.8","0.6","0.4","0.2","","","","","0.3346076013","0.3626443337","0.08539074978","0.3444017494","","","","","","","","","","72","H","0","img/none_selected.jpg","","167","main_expt",""
"","bandit","248","802275","0.0-209.0-0.0","29549722","wem/bandit_party_1","A19IWFLUTW6KQU","either","3","419","","","","","","","0","0","1","","0.3934904689","0.8","0.6","0.4","0.2","0.36326211","0.3488380128","0.1307687804","0.3934904689","","","","","","","","","","","","","","76","L","3","","","168","main_expt",""
"","bandit","249","804267","0.0-210.0-0.0","29549722","wem/bandit_party_1","A19IWFLUTW6KQU","either","3","485","","","","","","","0","0","1","0.3389060657","","0.8","0.6","0.4","0.2","","","","","0.3389060657","0.3338465455","0.09435724838","0.3712778229","","","","","","","","","","72","H","0","img/none_selected.jpg","","169","main_expt",""
"","bandit","250","806163","0.0-211.0-0.0","29549722","wem/bandit_party_1","A19IWFLUTW6KQU","either","3","389","","","","","","","0","0","1","0.3820287301","","0.8","0.6","0.4","0.2","","","","","0.3820287301","0.3675902536","0.09371103674","0.3348119161","","","","","","","","","","72","H","0","img/none_selected.jpg","","170","main_expt",""
"","bandit","251","808219","0.0-212.0-0.0","29549722","wem/bandit_party_1","A19IWFLUTW6KQU","either","3","548","","","","","","","0","0","1","0.3738350687","","0.8","0.6","0.4","0.2","","","","","0.3738350687","0.3663425941","0.0912992704","0.3697689907","","","","","","","","","","72","H","0","img/none_selected.jpg","","171","main_expt",""
"","bandit","252","810075","0.0-213.0-0.0","29549722","wem/bandit_party_1","A19IWFLUTW6KQU","either","3","348","","","","","","","0","0","1","","0.1053216192","0.8","0.6","0.4","0.2","0.3449486646","0.3571019768","0.1053216192","0.3438364448","","","","","","","","","","","","","","75","K","2","","","172","main_expt",""
"","bandit","253","811979","0.0-214.0-0.0","29549722","wem/bandit_party_1","A19IWFLUTW6KQU","either","3","396","","","","","","","1","0","0","0.383943734","","0.8","0.6","0.4","0.2","","","","","0.3754463001","0.383943734","0.1119971747","0.4064517123","","","","","","","","","","74","J","1","","","173","main_expt",""
"","bandit","254","813907","0.0-215.0-0.0","29549722","wem/bandit_party_1","A19IWFLUTW6KQU","either","3","419","","","","","","","0","0","1","","0.1049574405","0.8","0.6","0.4","0.2","0.3983783957","0.378453819","0.1049574405","0.4266345201","","","","","","","","","","","","","","75","K","2","","","174","main_expt",""
"","bandit","255","815963","0.0-216.0-0.0","29549722","wem/bandit_party_1","A19IWFLUTW6KQU","either","3","546","","","","","","","0","0","1","0.3577460836","","0.8","0.6","0.4","0.2","","","","","0.4176958341","0.3577460836","0.07351671593","0.4413212306","","","","","","","","","","74","J","1","","","175","main_expt",""
"","bandit","256","817876","0.0-217.0-0.0","29549722","wem/bandit_party_1","A19IWFLUTW6KQU","either","3","403","","","","","","","1","0","0","0.4336280271","","0.8","0.6","0.4","0.2","","","","","0.4336280271","0.3346789668","0.06097876817","0.438548454","","","","","","","","","","72","H","0","img/none_selected.jpg","","176","main_expt",""
"","bandit","257","819930","0.0-218.0-0.0","29549722","wem/bandit_party_1","A19IWFLUTW6KQU","either","3","546","","","","","","","0","0","1","","0.3863917124","0.8","0.6","0.4","0.2","0.3863917124","0.3720341948","0.05873143133","0.4350726265","","","","","","","","","","","","","","72","H","0","img/none_selected.jpg","","177","main_expt",""
"","bandit","258","821988","0.0-219.0-0.0","29549722","wem/bandit_party_1","A19IWFLUTW6KQU","either","3","548","","","","","","","0","0","1","0.3826512014","","0.8","0.6","0.4","0.2","","","","","0.3826512014","0.4243236705","0.07829718294","0.4029859975","","","","","","","","","","72","H","0","img/none_selected.jpg","","178","main_expt",""
"","bandit","259","824299","0.0-220.0-0.0","29549722","wem/bandit_party_1","A19IWFLUTW6KQU","either","3","803","","","","","","","0","1","0","","0.3738585124","0.8","0.6","0.4","0.2","0.3681046487","0.4396564102","0.05868413977","0.3738585124","","","","","","","","","","","","","","76","L","3","","","179","main_expt",""
"","bandit","260","826203","0.0-221.0-0.0","29549722","wem/bandit_party_1","A19IWFLUTW6KQU","either","3","396","","","","","","","0","0","1","","0.3884150149","0.8","0.6","0.4","0.2","0.374340785","0.4501825932","0.04540529238","0.3884150149","","","","","","","","","","","","","","76","L","3","","","180","main_expt",""
"","bandit","261","828531","0.0-222.0-0.0","29549722","wem/bandit_party_1","A19IWFLUTW6KQU","either","3","820","","","","","","","0","0","1","0.04810206047","","0.8","0.6","0.4","0.2","","","","","0.3844034803","0.4527537228","0.04810206047","0.3977335033","","","","","","","","","","75","K","2","","","181","main_expt",""
"","bandit","262","830499","0.0-223.0-0.0","29549722","wem/bandit_party_1","A19IWFLUTW6KQU","either","3","459","","","","","","","0","1","0","","0.4733821952","0.8","0.6","0.4","0.2","0.3569363444","0.4733821952","0.0564969073","0.4194204302","","","","","","","","","","","","","","74","J","1","","","182","main_expt",""
"","bandit","263","832459","0.0-224.0-0.0","29549722","wem/bandit_party_1","A19IWFLUTW6KQU","either","3","451","","","","","","","1","0","0","0.4741352064","","0.8","0.6","0.4","0.2","","","","","0.3930074682","0.4741352064","0.06674959941","0.4050300101","","","","","","","","","","74","J","1","","","183","main_expt",""
"","bandit","264","834690","0.0-225.0-0.0","29549722","wem/bandit_party_1","A19IWFLUTW6KQU","either","3","723","","","","","","","0","0","1","0.4835015011","","0.8","0.6","0.4","0.2","","","","","0.4105724965","0.4835015011","0.05730522946","0.4272992256","","","","","","","","","","74","J","1","","","184","main_expt",""
"","bandit","265","836611","0.0-226.0-0.0","29549722","wem/bandit_party_1","A19IWFLUTW6KQU","either","3","413","","","","","","","0","0","1","","0.4213026748","0.8","0.6","0.4","0.2","0.4230276401","0.4907566516","0.0759668512","0.4213026748","","","","","","","","","","","","","","76","L","3","","","185","main_expt",""
"","bandit","266","838612","0.0-227.0-0.0","29549722","wem/bandit_party_1","A19IWFLUTW6KQU","either","3","492","","","","","","","0","0","1","","0.0736669194","0.8","0.6","0.4","0.2","0.4243078066","0.4777100538","0.0736669194","0.3729626057","","","","","","","","","","","","","","75","K","2","","","186","main_expt",""
"","bandit","267","840556","0.0-228.0-0.0","29549722","wem/bandit_party_1","A19IWFLUTW6KQU","either","3","436","","","","","","","0","1","0","","0.4751658893","0.8","0.6","0.4","0.2","0.419104652","0.4751658893","0.1020870739","0.4022080601","","","","","","","","","","","","","","74","J","1","","","187","main_expt",""
"","bandit","268","842668","0.0-229.0-0.0","29549722","wem/bandit_party_1","A19IWFLUTW6KQU","either","3","604","","","","","","","0","0","1","0.4711403756","","0.8","0.6","0.4","0.2","","","","","0.3917910895","0.4711403756","0.110066606","0.4218987807","","","","","","","","","","74","J","1","","","188","main_expt",""
"","bandit","269","844644","0.0-230.0-0.0","29549722","wem/bandit_party_1","A19IWFLUTW6KQU","either","3","468","","","","","","","0","0","1","0.3696037293","","0.8","0.6","0.4","0.2","","","","","0.3696037293","0.4848283219","0.1616324423","0.4284519853","","","","","","","","","","72","H","0","img/none_selected.jpg","","189","main_expt",""
"","bandit","270","846956","0.0-231.0-0.0","29549722","wem/bandit_party_1","A19IWFLUTW6KQU","either","3","803","","","","","","","0","0","1","0.3722688899","","0.8","0.6","0.4","0.2","","","","","0.3722688899","0.4906713727","0.1401199573","0.4104863902","","","","","","","","","","72","H","0","img/none_selected.jpg","","190","main_expt",""
"","bandit","271","848900","0.0-232.0-0.0","29549722","wem/bandit_party_1","A19IWFLUTW6KQU","either","3","436","","","","","","","0","0","1","","0.1782786715","0.8","0.6","0.4","0.2","0.3956575009","0.4944082075","0.1782786715","0.4071825693","","","","","","","","","","","","","","75","K","2","","","191","main_expt",""
"","bandit","272","850587","0.0-233.0-0.0","29549722","wem/bandit_party_1","A19IWFLUTW6KQU","either","3","179","","","","","","","0","0","1","","0.4922337742","0.8","0.6","0.4","0.2","0.3843500594","0.4922337742","0.203517815","0.4172763132","","","","","","","","","","","","","","74","J","1","","","192","main_expt",""
"","bandit","273","852627","0.0-234.0-0.0","29549722","wem/bandit_party_1","A19IWFLUTW6KQU","either","3","531","","","","","","","0","1","0","","0.3965334946","0.8","0.6","0.4","0.2","0.3801723293","0.4887356563","0.172030281","0.3965334946","","","","","","","","","","","","","","76","L","3","","","193","main_expt",""
"","bandit","274","855285","0.0-235.0-0.0","29549722","wem/bandit_party_1","A19IWFLUTW6KQU","either","3","1147","","","","","","","1","0","0","0.383316574","","0.8","0.6","0.4","0.2","","","","","0.3871645121","0.4850955297","0.1813301739","0.383316574","","","","","","","","","","76","L","3","","","194","main_expt",""
"","bandit","275","857260","0.0-236.0-0.0","29549722","wem/bandit_party_1","A19IWFLUTW6KQU","either","3","467","","","","","","","0","0","1","","0.2284295163","0.8","0.6","0.4","0.2","0.3633903175","0.4848341758","0.2284295163","0.3965345796","","","","","","","","","","","","","","75","K","2","","","195","main_expt",""
"","bandit","276","859301","0.0-237.0-0.0","29549722","wem/bandit_party_1","A19IWFLUTW6KQU","either","3","531","","","","","","","0","0","1","0.3978469093","","0.8","0.6","0.4","0.2","","","","","0.3811675741","0.490049139","0.2501246714","0.3978469093","","","","","","","","","","76","L","3","","","196","main_expt",""
"","bandit","277","861236","0.0-238.0-0.0","29549722","wem/bandit_party_1","A19IWFLUTW6KQU","either","3","425","","","","","","","0","0","1","0.4912643012","","0.8","0.6","0.4","0.2","","","","","0.3487868089","0.4912643012","0.3150809007","0.3172926233","","","","","","","","","","74","J","1","","","197","main_expt",""
"","bandit","278","863180","0.0-239.0-0.0","29549722","wem/bandit_party_1","A19IWFLUTW6KQU","either","3","435","","","","","","","0","0","1","0.2986771554","","0.8","0.6","0.4","0.2","","","","","0.2986771554","0.4793615714","0.3442077965","0.3113170709","","","","","","","","","","72","H","0","img/none_selected.jpg","","198","main_expt",""
"","bandit","279","865004","0.0-240.0-0.0","29549722","wem/bandit_party_1","A19IWFLUTW6KQU","either","3","315","","","","","","","0","1","0","","0.3066116159","0.8","0.6","0.4","0.2","0.3481418533","0.4661622676","0.3675051223","0.3066116159","","","","","","","","","","","","","","76","L","3","","","199","main_expt",""
"","bandit","280","866980","0.0-241.0-0.0","29549722","wem/bandit_party_1","A19IWFLUTW6KQU","either","3","468","","","","","","","0","0","1","","0.2521122026","0.8","0.6","0.4","0.2","0.353319573","0.4479238565","0.3044821291","0.2521122026","","","","","","","","","","","","","","76","L","3","","","200","main_expt",""
"","bandit","281","869043","0.0-242.0-0.0","29549722","wem/bandit_party_1","A19IWFLUTW6KQU","either","3","555","","","","","","","0","0","1","","0.2679963248","0.8","0.6","0.4","0.2","0.3676338631","0.4429166455","0.3013824411","0.2679963248","","","","","","","","","","","","","","76","L","3","","","201","main_expt",""
"","bandit","282","870891","0.0-243.0-0.0","29549722","wem/bandit_party_1","A19IWFLUTW6KQU","either","3","338","","","","","","","0","0","1","","0.442820363","0.8","0.6","0.4","0.2","0.311657493","0.442820363","0.3001954661","0.2076546236","","","","","","","","","","","","","","74","J","1","","","202","main_expt",""
"","bandit","283","873140","0.0-244.0-0.0","29549722","wem/bandit_party_1","A19IWFLUTW6KQU","either","3","738","","","","","","","0","0","1","0.3364041998","","0.8","0.6","0.4","0.2","","","","","0.3364041998","0.4539008368","0.3189156814","0.1881707852","","","","","","","","","","72","H","0","img/none_selected.jpg","","203","main_expt",""
"","bandit","284","874924","0.0-245.0-0.0","29549722","wem/bandit_party_1","A19IWFLUTW6KQU","either","3","275","","","","","","","0","1","0","","0.3162062407","0.8","0.6","0.4","0.2","0.3148670147","0.4163307037","0.3162062407","0.2057853427","","","","","","","","","","","","","","75","K","2","","","204","main_expt",""
"","bandit","285","877140","0.0-246.0-0.0","29549722","wem/bandit_party_1","A19IWFLUTW6KQU","either","3","706","","","","","","","0","0","1","0.347278619","","0.8","0.6","0.4","0.2","","","","","0.3293187519","0.4045388199","0.347278619","0.2564451259","","","","","","","","","","75","K","2","","","205","main_expt",""
"","bandit","286","879308","0.0-247.0-0.0","29549722","wem/bandit_party_1","A19IWFLUTW6KQU","either","3","659","","","","","","","0","0","1","","0.3082896296","0.8","0.6","0.4","0.2","0.2705077244","0.4083422121","0.2970129147","0.3082896296","","","","","","","","","","","","","","76","L","3","","","206","main_expt",""
"","bandit","287","881259","0.0-248.0-0.0","29549722","wem/bandit_party_1","A19IWFLUTW6KQU","either","3","442","","","","","","","0","1","0","","0.3331481178","0.8","0.6","0.4","0.2","0.3083591011","0.4033585138","0.3331481178","0.3235103938","","","","","","","","","","","","","","75","K","2","","","207","main_expt",""
"","bandit","288","883259","0.0-249.0-0.0","29549722","wem/bandit_party_1","A19IWFLUTW6KQU","either","3","492","","","","","","","0","0","1","","0.3195917859","0.8","0.6","0.4","0.2","0.2489273718","0.3753320851","0.3195917859","0.3563539536","","","","","","","","","","","","","","75","K","2","","","208","main_expt",""
"","bandit","289","885291","0.0-250.0-0.0","29549722","wem/bandit_party_1","A19IWFLUTW6KQU","either","3","524","","","","","","","0","0","1","0.3864970555","","0.8","0.6","0.4","0.2","","","","","0.2224321457","0.3864970555","0.3642345195","0.3821305916","","","","","","","","","","74","J","1","","","209","main_expt",""
"","bandit","290","886843","0.0-251.0-0.0","29549722","wem/bandit_party_1","A19IWFLUTW6KQU","either","3","44","","","","","","","0","0","1","0.2184729634","","0.8","0.6","0.4","0.2","","","","","0.2184729634","0.3894881908","0.3518797164","0.4067483812","","","","","","","","","","72","H","0","img/none_selected.jpg","","210","main_expt",""
"","bandit","291","889099","0.0-252.0-0.0","29549722","wem/bandit_party_1","A19IWFLUTW6KQU","either","3","748","","","","","","","0","0","1","0.2178464352","","0.8","0.6","0.4","0.2","","","","","0.2178464352","0.4052823736","0.3781537602","0.376825818","","","","","","","","","","72","H","0","img/none_selected.jpg","","211","main_expt",""
"","bandit","292","891152","0.0-253.0-0.0","29549722","wem/bandit_party_1","A19IWFLUTW6KQU","either","3","539","","","","","","","0","0","1","","0.1644702768","0.8","0.6","0.4","0.2","0.1644702768","0.3783189977","0.3773353051","0.3481764155","","","","","","","","","","","","","","72","H","0","img/none_selected.jpg","","212","main_expt",""
"","bandit","293","893268","0.0-254.0-0.0","29549722","wem/bandit_party_1","A19IWFLUTW6KQU","either","3","607","","","","","","","0","0","1","","0.3239198888","0.8","0.6","0.4","0.2","0.1271660564","0.3804187243","0.3448860985","0.3239198888","","","","","","","","","","","","","","76","L","3","","","213","main_expt",""
"","bandit","294","895546","0.0-255.0-0.0","29549722","wem/bandit_party_1","A19IWFLUTW6KQU","either","3","771","","","","","","","1","0","0","0.3964056757","","0.8","0.6","0.4","0.2","","","","","0.1368129038","0.3964056757","0.3622000499","0.3592643085","","","","","","","","","","74","J","1","","","214","main_expt",""
"","bandit","295","897562","0.0-256.0-0.0","29549722","wem/bandit_party_1","A19IWFLUTW6KQU","either","3","507","","","","","","","0","0","1","0.3939862607","","0.8","0.6","0.4","0.2","","","","","0.07615368859","0.3939862607","0.3408682726","0.3482739819","","","","","","","","","","74","J","1","","","215","main_expt",""
"","bandit","296","899587","0.0-257.0-0.0","29549722","wem/bandit_party_1","A19IWFLUTW6KQU","either","3","516","","","","","","","0","1","0","","0.4062496234","0.8","0.6","0.4","0.2","0.07711559412","0.4062496234","0.328819006","0.2972527025","","","","","","","","","","","","","","74","J","1","","","216","main_expt",""
"","bandit","297","901538","0.0-258.0-0.0","29549722","wem/bandit_party_1","A19IWFLUTW6KQU","either","3","442","","","","","","","0","0","1","","0.3440498305","0.8","0.6","0.4","0.2","0.07728173513","0.3440498305","0.3229374792","0.2850944341","","","","","","","","","","","","","","74","J","1","","","217","main_expt",""
"","bandit","298","904283","0.0-259.0-0.0","29549722","wem/bandit_party_1","A19IWFLUTW6KQU","either","3","1236","","","","","","","0","0","1","0.3198020565","","0.8","0.6","0.4","0.2","","","","","0.07919919155","0.3198020565","0.3616220652","0.2483413171","","","","","","","","","","74","J","1","","","218","main_expt",""
"","bandit","299","906802","0.0-260.0-0.0","29549722","wem/bandit_party_1","A19IWFLUTW6KQU","either","3","1011","","","","","","","1","0","0","0.3591176528","","0.8","0.6","0.4","0.2","","","","","0.1270410367","0.3078290176","0.3591176528","0.2680513607","","","","","","","","","","75","K","2","","","219","main_expt",""
"","bandit","300","909035","0.0-261.0-0.0","29549722","wem/bandit_party_1","A19IWFLUTW6KQU","either","3","723","","","","","","","0","0","1","","0.2758994579","0.8","0.6","0.4","0.2","0.1117499599","0.2961895162","0.2758994579","0.304668496","","","","","","","","","","","","","","75","K","2","","","220","main_expt",""
"","bandit","301","911099","0.0-262.0-0.0","29549722","wem/bandit_party_1","A19IWFLUTW6KQU","either","3","555","","","","","","","0","0","1","","0.2658603678","0.8","0.6","0.4","0.2","0.1186324211","0.2658603678","0.3119987931","0.2773284289","","","","","","","","","","","","","","74","J","1","","","221","main_expt",""
"","bandit","302","913090","0.0-263.0-0.0","29549722","wem/bandit_party_1","A19IWFLUTW6KQU","either","3","483","","","","","","","0","0","1","","0.1141050397","0.8","0.6","0.4","0.2","0.1141050397","0.274695037","0.3106374463","0.2152506718","","","","","","","","","","","","","","72","H","0","img/none_selected.jpg","","222","main_expt",""
"","bandit","303","914874","0.0-264.0-0.0","29549722","wem/bandit_party_1","A19IWFLUTW6KQU","either","3","274","","","","","","","0","1","0","","0.2445797097","0.8","0.6","0.4","0.2","0.1007228699","0.2210940289","0.3131570504","0.2445797097","","","","","","","","","","","","","","76","L","3","","","223","main_expt",""
"","bandit","304","917306","0.0-265.0-0.0","29549722","wem/bandit_party_1","A19IWFLUTW6KQU","either","3","923","","","","","","","0","0","1","","0.2559263424","0.8","0.6","0.4","0.2","0.1380584308","0.1843933297","0.3025994915","0.2559263424","","","","","","","","","","","","","","76","L","3","","","224","main_expt",""
"","bandit","305","919362","0.0-266.0-0.0","29549722","wem/bandit_party_1","A19IWFLUTW6KQU","either","3","546","","","","","","","0","0","1","0.1393521225","","0.8","0.6","0.4","0.2","","","","","0.1393521225","0.212211923","0.2994132709","0.2702522324","","","","","","","","","","72","H","0","img/none_selected.jpg","","225","main_expt",""
"","bandit","306","921892","0.0-267.0-0.0","29549722","wem/bandit_party_1","A19IWFLUTW6KQU","either","3","1020","","","","","","","0","0","1","0.2315036379","","0.8","0.6","0.4","0.2","","","","","0.2094269877","0.2315036379","0.2866794375","0.2646860425","","","","","","","","","","74","J","1","","","226","main_expt",""
"","bandit","307","924066","0.0-268.0-0.0","29549722","wem/bandit_party_1","A19IWFLUTW6KQU","either","3","664","","","","","","","0","0","1","","0.2646353212","0.8","0.6","0.4","0.2","0.2959232149","0.2646353212","0.2299222882","0.269556559","","","","","","","","","","","","","","74","J","1","","","227","main_expt",""
"","bandit","308","925691","0.0-269.0-0.0","29549722","wem/bandit_party_1","A19IWFLUTW6KQU","either","3","113","","","","","","","0","0","1","","0.2991813551","0.8","0.6","0.4","0.2","0.374355758","0.2443517867","0.2991813551","0.2498152532","","","","","","","","","","","","","","75","K","2","","","228","main_expt",""
"","bandit","309","927698","0.0-270.0-0.0","29549722","wem/bandit_party_1","A19IWFLUTW6KQU","either","3","499","","","","","","","0","1","0","","0.3295538921","0.8","0.6","0.4","0.2","0.3876740502","0.2569692975","0.3295538921","0.2495566458","","","","","","","","","","","","","","75","K","2","","","229","main_expt",""
"","bandit","310","929602","0.0-271.0-0.0","29549722","wem/bandit_party_1","A19IWFLUTW6KQU","either","3","396","","","","","","","0","0","1","","0.2713593359","0.8","0.6","0.4","0.2","0.3341674595","0.2490290172","0.2713593359","0.2134382902","","","","","","","","","","","","","","75","K","2","","","230","main_expt",""
"","bandit","311","931578","0.0-272.0-0.0","29549722","wem/bandit_party_1","A19IWFLUTW6KQU","either","3","468","","","","","","","0","0","1","","0.2746975787","0.8","0.6","0.4","0.2","0.3558281537","0.2368643707","0.2746975787","0.2099205747","","","","","","","","","","","","","","75","K","2","","","231","main_expt",""
"","bandit","312","933514","0.0-273.0-0.0","29549722","wem/bandit_party_1","A19IWFLUTW6KQU","either","3","428","","","","","","","0","0","1","0.2857324616","","0.8","0.6","0.4","0.2","","","","","0.3293076861","0.2857324616","0.2817934899","0.1598609145","","","","","","","","","","74","J","1","","","232","main_expt",""
"","bandit","313","935482","0.0-274.0-0.0","29549722","wem/bandit_party_1","A19IWFLUTW6KQU","either","3","459","","","","","","","0","0","1","0.3271309306","","0.8","0.6","0.4","0.2","","","","","0.3271309306","0.226619475","0.3139736629","0.1472569172","","","","","","","","","","72","H","0","img/none_selected.jpg","","233","main_expt",""
"","bandit","314","937434","0.0-275.0-0.0","29549722","wem/bandit_party_1","A19IWFLUTW6KQU","either","3","443","","","","","","","0","0","1","0.3510228885","","0.8","0.6","0.4","0.2","","","","","0.3510228885","0.2448251662","0.3332560948","0.1123375355","","","","","","","","","","72","H","0","img/none_selected.jpg","","234","main_expt",""
"","bandit","315","939411","0.0-276.0-0.0","29549722","wem/bandit_party_1","A19IWFLUTW6KQU","either","3","465","","","","","","","0","0","1","","0.1562424728","0.8","0.6","0.4","0.2","0.3346663699","0.2996798263","0.3475281657","0.1562424728","","","","","","","","","","","","","","76","L","3","","","235","main_expt",""
"","bandit","316","941378","0.0-277.0-0.0","29549722","wem/bandit_party_1","A19IWFLUTW6KQU","either","3","457","","","","","","","0","0","1","","0.3170984437","0.8","0.6","0.4","0.2","0.332043614","0.3220329496","0.3170984437","0.1623269298","","","","","","","","","","","","","","75","K","2","","","236","main_expt",""
