"consent","trial_type","trial_index","time_elapsed","internal_node_id","subjID","study","MID","cond","drift","rt","responses","button_pressed","key_press","like","value","connected","gems","bombs","no_reward","GemPrChosen","BombPrChosen","GainOverPainPr_0","GainOverPainPr_1","GainOverPainPr_2","GainOverPainPr_3","LosePr_0","LosePr_1","LosePr_2","LosePr_3","WinPr_0","WinPr_1","WinPr_2","WinPr_3","Q0","Q1","Q2","gender","age","ethnicity","label","expt_phase","target","respCharCode","respKey","respChoiceNum","respChoice","practice","trial_counter","trial_label","Q0_index"
"GDM/GDM_behavioral_consent_30min_online.html","consent","0","16180","0.0-0.0","29639470","wem/bandit_party_1","A6U2C66WQ7QQN","either","4","","","","","","","","","","","","","","","","","","","","","","","","","","","","","","","","","","","","","","","","",""
"","survey-text","1","56477","0.0-1.0","29639470","wem/bandit_party_1","A6U2C66WQ7QQN","either","4","39278","{""Q0"":""A6U2C66WQ7QQN""}","","","","","","","","","","","","","","","","","","","","","","","","","","","","","","","","","","","","","","",""
"","button-response","2","76120","0.0-2.0","29639470","wem/bandit_party_1","A6U2C66WQ7QQN","either","4","18629","","1","","","","","","","","","","","","","","","","","","","","","","","","","","","","","","","","","","","","","",""
"","text-replacement","3","148913","0.0-3.0","29639470","wem/bandit_party_1","A6U2C66WQ7QQN","either","4","71787","","","32","","","","","","","","","","","","","","","","","","","","","","","","","","","","","","","","","","","","",""
"","text-replacement","4","189522","0.0-4.0","29639470","wem/bandit_party_1","A6U2C66WQ7QQN","either","4","40602","","","32","","","","","","","","","","","","","","","","","","","","","","","","","","","","","","","","","","","","",""
"","identification","5","198078","0.0-6.0-0.0","29639470","wem/bandit_party_1","A6U2C66WQ7QQN","either","4","8505","","","","4","3","3","","","","","","","","","","","","","","","","","","","","","","","","pre","identification_pre","the Democratic Party","","","","","","","",""
"","identification","6","221837","0.0-6.0-1.0","29639470","wem/bandit_party_1","A6U2C66WQ7QQN","either","4","22704","","","","0","0","0","","","","","","","","","","","","","","","","","","","","","","","","pre","identification_pre","the Republican party","","","","","","","",""
"","text-replacement","7","265036","0.0-7.0","29639470","wem/bandit_party_1","A6U2C66WQ7QQN","either","4","42194","","","32","","","","","","","","","","","","","","","","","","","","","","","","","","","","","","","","","","","","",""
"","text-replacement","8","266071","0.0-8.0","29639470","wem/bandit_party_1","A6U2C66WQ7QQN","either","4","1028","","","32","","","","","","","","","","","","","","","","","","","","","","","","","","","","","","","","","","","","",""
"","text-replacement","9","277807","0.0-9.0","29639470","wem/bandit_party_1","A6U2C66WQ7QQN","either","4","11731","","","32","","","","","","","","","","","","","","","","","","","","","","","","","","","","","","","","","","","","",""
"","text-replacement","10","281200","0.0-10.0","29639470","wem/bandit_party_1","A6U2C66WQ7QQN","either","4","3381","","","32","","","","","","","","","","","","","","","","","","","","","","","","","","","","","","","","","","","","",""
"","text-replacement","11","284959","0.0-11.0","29639470","wem/bandit_party_1","A6U2C66WQ7QQN","either","4","3754","","","32","","","","","","","","","","","","","","","","","","","","","","","","","","","","","","","","","","","","",""
"","bandit","12","289675","0.0-12.0-0.0","29639470","wem/bandit_party_1","A6U2C66WQ7QQN","either","4","3192","","","","","","","0","0","1","0","0","","","","","0","","","","0","","","","","","","","","","","","","74","J","0","img/none_selected_demo.jpg","true","0","",""
"","bandit","13","292522","0.0-13.0-0.0","29639470","wem/bandit_party_1","A6U2C66WQ7QQN","either","4","1334","","","","","","","0","0","1","0","0","","","","","0","","","","0","","","","","","","","","","","","","75","K","0","img/none_selected_demo.jpg","true","0","",""
"","text-replacement","14","374326","0.0-14.0","29639470","wem/bandit_party_1","A6U2C66WQ7QQN","either","4","81801","","","32","","","","","","","","","","","","","","","","","","","","","","","","","","","","","","","","","","","","",""
"","text-replacement","15","380157","0.0-15.0","29639470","wem/bandit_party_1","A6U2C66WQ7QQN","either","4","5828","","","32","","","","","","","","","","","","","","","","","","","","","","","","","","","","","","","","","","","","",""
"","text-replacement","16","385409","0.0-16.0","29639470","wem/bandit_party_1","A6U2C66WQ7QQN","either","4","5247","","","32","","","","","","","","","","","","","","","","","","","","","","","","","","","","","","","","","","","","",""
"","text-replacement","17","434997","0.0-17.0","29639470","wem/bandit_party_1","A6U2C66WQ7QQN","either","4","49583","","","32","","","","","","","","","","","","","","","","","","","","","","","","","","","","","","","","","","","","",""
"","bandit","18","438212","0.0-18.0-0.0","29639470","wem/bandit_party_1","A6U2C66WQ7QQN","either","4","1706","","","","","","","0","1","0","","0.8","0.5","0.5","","","0.8","0.2","","","","","","","","","","","","","","","","74","J","0","img/none_selected_demo.jpg","true","0","80_20_practice",""
"","bandit","19","440701","0.0-18.0-1.0","29639470","wem/bandit_party_1","A6U2C66WQ7QQN","either","4","972","","","","","","","1","0","0","0.8","","0.5","0.5","","","","","","","0.8","0.2","","","","","","","","","","","","74","J","0","img/none_selected_demo.jpg","true","0","80_20_practice",""
"","bandit","20","442803","0.0-18.0-2.0","29639470","wem/bandit_party_1","A6U2C66WQ7QQN","either","4","585","","","","","","","1","0","0","0.8","","0.5","0.5","","","","","","","0.8","0.2","","","","","","","","","","","","74","J","0","img/none_selected_demo.jpg","true","0","80_20_practice",""
"","bandit","21","444682","0.0-18.0-3.0","29639470","wem/bandit_party_1","A6U2C66WQ7QQN","either","4","365","","","","","","","0","0","1","0.2","","0.5","0.5","","","","","","","0.8","0.2","","","","","","","","","","","","75","K","1","","true","0","80_20_practice",""
"","bandit","22","446507","0.0-18.0-4.0","29639470","wem/bandit_party_1","A6U2C66WQ7QQN","either","4","312","","","","","","","0","1","0","","0.8","0.5","0.5","","","0.8","0.2","","","","","","","","","","","","","","","","74","J","0","img/none_selected_demo.jpg","true","0","80_20_practice",""
"","bandit","23","448291","0.0-18.0-5.0","29639470","wem/bandit_party_1","A6U2C66WQ7QQN","either","4","270","","","","","","","0","1","0","","0.8","0.5","0.5","","","0.8","0.2","","","","","","","","","","","","","","","","74","J","0","img/none_selected_demo.jpg","true","0","80_20_practice",""
"","bandit","24","450107","0.0-18.0-6.0","29639470","wem/bandit_party_1","A6U2C66WQ7QQN","either","4","301","","","","","","","0","1","0","","0.8","0.5","0.5","","","0.8","0.2","","","","","","","","","","","","","","","","74","J","0","img/none_selected_demo.jpg","true","0","80_20_practice",""
"","bandit","25","451679","0.0-18.0-7.0","29639470","wem/bandit_party_1","A6U2C66WQ7QQN","either","4","59","","","","","","","0","1","0","","0.8","0.5","0.5","","","0.8","0.2","","","","","","","","","","","","","","","","74","J","0","img/none_selected_demo.jpg","true","0","80_20_practice",""
"","bandit","26","453684","0.0-18.0-8.0","29639470","wem/bandit_party_1","A6U2C66WQ7QQN","either","4","490","","","","","","","1","0","0","0.8","","0.5","0.5","","","","","","","0.8","0.2","","","","","","","","","","","","74","J","0","img/none_selected_demo.jpg","true","0","80_20_practice",""
"","bandit","27","455215","0.0-18.0-9.0","29639470","wem/bandit_party_1","A6U2C66WQ7QQN","either","4","16","","","","","","","0","1","0","","0.8","0.5","0.5","","","0.8","0.2","","","","","","","","","","","","","","","","74","J","0","img/none_selected_demo.jpg","true","0","80_20_practice",""
"","bandit","28","457905","0.0-18.0-10.0","29639470","wem/bandit_party_1","A6U2C66WQ7QQN","either","4","1177","","","","","","","0","1","0","","0.8","0.5","0.5","","","0.8","0.2","","","","","","","","","","","","","","","","74","J","0","img/none_selected_demo.jpg","true","0","80_20_practice",""
"","bandit","29","460803","0.0-18.0-11.0","29639470","wem/bandit_party_1","A6U2C66WQ7QQN","either","4","1384","","","","","","","0","1","0","","0.8","0.5","0.5","","","0.8","0.2","","","","","","","","","","","","","","","","74","J","0","img/none_selected_demo.jpg","true","0","80_20_practice",""
"","bandit","30","462625","0.0-18.0-12.0","29639470","wem/bandit_party_1","A6U2C66WQ7QQN","either","4","312","","","","","","","0","1","0","","0.8","0.5","0.5","","","0.8","0.2","","","","","","","","","","","","","","","","74","J","0","img/none_selected_demo.jpg","true","0","80_20_practice",""
"","bandit","31","464406","0.0-18.0-13.0","29639470","wem/bandit_party_1","A6U2C66WQ7QQN","either","4","266","","","","","","","0","1","0","","0.8","0.5","0.5","","","0.8","0.2","","","","","","","","","","","","","","","","74","J","0","img/none_selected_demo.jpg","true","0","80_20_practice",""
"","bandit","32","467100","0.0-18.0-14.0","29639470","wem/bandit_party_1","A6U2C66WQ7QQN","either","4","1177","","","","","","","0","0","1","0.8","","0.5","0.5","","","","","","","0.8","0.2","","","","","","","","","","","","74","J","0","img/none_selected_demo.jpg","true","0","80_20_practice",""
"","bandit","33","484353","0.0-18.0-15.0","29639470","wem/bandit_party_1","A6U2C66WQ7QQN","either","4","15738","","","","","","","0","1","0","","0.8","0.5","0.5","","","0.8","0.2","","","","","","","","","","","","","","","","74","J","0","img/none_selected_demo.jpg","true","0","80_20_practice",""
"","bandit","34","486381","0.0-18.0-16.0","29639470","wem/bandit_party_1","A6U2C66WQ7QQN","either","4","524","","","","","","","0","0","1","","0.2","0.5","0.5","","","0.8","0.2","","","","","","","","","","","","","","","","75","K","1","","true","0","80_20_practice",""
"","bandit","35","487963","0.0-18.0-17.0","29639470","wem/bandit_party_1","A6U2C66WQ7QQN","either","4","73","","","","","","","0","0","1","","0.2","0.5","0.5","","","0.8","0.2","","","","","","","","","","","","","","","","75","K","1","","true","0","80_20_practice",""
"","bandit","36","489673","0.0-18.0-18.0","29639470","wem/bandit_party_1","A6U2C66WQ7QQN","either","4","195","","","","","","","0","1","0","","0.8","0.5","0.5","","","0.8","0.2","","","","","","","","","","","","","","","","74","J","0","img/none_selected_demo.jpg","true","0","80_20_practice",""
"","bandit","37","491192","0.0-18.0-19.0","29639470","wem/bandit_party_1","A6U2C66WQ7QQN","either","4","5","","","","","","","0","1","0","","0.8","0.5","0.5","","","0.8","0.2","","","","","","","","","","","","","","","","74","J","0","img/none_selected_demo.jpg","true","0","80_20_practice",""
"","text-replacement","38","495391","0.0-19.0","29639470","wem/bandit_party_1","A6U2C66WQ7QQN","either","4","4189","","","32","","","","","","","","","","","","","","","","","","","","","","","","","","","","","","","","","","","","",""
"","bandit","39","498534","0.0-20.0-0.0","29639470","wem/bandit_party_1","A6U2C66WQ7QQN","either","4","1627","","","","","","","1","0","0","1","0","","","","","0","1","","","1","0","","","","","","","","","","","","74","J","0","img/none_selected_demo.jpg","true","0","",""
"","text-replacement","40","500404","0.0-21.0","29639470","wem/bandit_party_1","A6U2C66WQ7QQN","either","4","1862","","","32","","","","","","","","","","","","","","","","","","","","","","","","","","","","","","","","","","","","",""
"","text-replacement","41","592909","0.0-22.0","29639470","wem/bandit_party_1","A6U2C66WQ7QQN","either","4","92498","","","32","","","","","","","","","","","","","","","","","","","","","","","","","","","","","","","","","","","","",""
"","text-replacement","42","595162","0.0-23.0","29639470","wem/bandit_party_1","A6U2C66WQ7QQN","either","4","2246","","","32","","","","","","","","","","","","","","","","","","","","","","","","","","","","","","","","","","","","",""
"","text-replacement","43","598001","0.0-24.0","29639470","wem/bandit_party_1","A6U2C66WQ7QQN","either","4","2834","","","32","","","","","","","","","","","","","","","","","","","","","","","","","","","","","","","","","","","","",""
"","text-replacement","44","599048","0.0-25.0","29639470","wem/bandit_party_1","A6U2C66WQ7QQN","either","4","1041","","","32","","","","","","","","","","","","","","","","","","","","","","","","","","","","","","","","","","","","",""
"","text-replacement","45","600501","0.0-26.0","29639470","wem/bandit_party_1","A6U2C66WQ7QQN","either","4","1447","","","32","","","","","","","","","","","","","","","","","","","","","","","","","","","","","","","","","","","","",""
"","text-replacement","46","602085","0.0-27.0","29639470","wem/bandit_party_1","A6U2C66WQ7QQN","either","4","1573","","","32","","","","","","","","","","","","","","","","","","","","","","","","","","","","","","","","","","","","",""
"","text-replacement","47","603832","0.0-28.0","29639470","wem/bandit_party_1","A6U2C66WQ7QQN","either","4","1739","","","32","","","","","","","","","","","","","","","","","","","","","","","","","","","","","","","","","","","","",""
"","text-replacement","48","607153","0.0-29.0","29639470","wem/bandit_party_1","A6U2C66WQ7QQN","either","4","3314","","","32","","","","","","","","","","","","","","","","","","","","","","","","","","","","","","","","","","","","",""
"","text-replacement","49","608512","0.0-30.0","29639470","wem/bandit_party_1","A6U2C66WQ7QQN","either","4","1350","","","32","","","","","","","","","","","","","","","","","","","","","","","","","","","","","","","","","","","","",""
"","text-replacement","50","630333","0.0-31.0","29639470","wem/bandit_party_1","A6U2C66WQ7QQN","either","4","21815","","","32","","","","","","","","","","","","","","","","","","","","","","","","","","","","","","","","","","","","",""
"","bandit","51","632818","0.0-32.0-0.0","29639470","wem/bandit_party_1","A6U2C66WQ7QQN","either","4","976","","","","","","","1","0","0","0.8","","0.5","0.5","0.5","0.5","","","","","0.8","0.2","0.6","0.2","","","","","","","","","","72","H","0","img/none_selected.jpg","true","0","full_practice",""
"","bandit","52","634755","0.0-32.0-1.0","29639470","wem/bandit_party_1","A6U2C66WQ7QQN","either","4","422","","","","","","","1","0","0","0.2","","0.5","0.5","0.5","0.5","","","","","0.8","0.2","0.6","0.2","","","","","","","","","","74","J","1","","true","0","full_practice",""
"","bandit","53","636399","0.0-32.0-2.0","29639470","wem/bandit_party_1","A6U2C66WQ7QQN","either","4","129","","","","","","","0","0","1","","0.6","0.5","0.5","0.5","0.5","0.8","0.2","0.6","0.2","","","","","","","","","","","","","","75","K","2","","true","0","full_practice",""
"","bandit","54","637983","0.0-32.0-3.0","29639470","wem/bandit_party_1","A6U2C66WQ7QQN","either","4","66","","","","","","","0","0","1","0.2","","0.5","0.5","0.5","0.5","","","","","0.8","0.2","0.6","0.2","","","","","","","","","","76","L","3","","true","0","full_practice",""
"","bandit","55","639947","0.0-32.0-4.0","29639470","wem/bandit_party_1","A6U2C66WQ7QQN","either","4","448","","","","","","","0","1","0","","0.8","0.5","0.5","0.5","0.5","0.8","0.2","0.6","0.2","","","","","","","","","","","","","","72","H","0","img/none_selected.jpg","true","0","full_practice",""
"","bandit","56","641640","0.0-32.0-5.0","29639470","wem/bandit_party_1","A6U2C66WQ7QQN","either","4","178","","","","","","","0","0","1","0.2","","0.5","0.5","0.5","0.5","","","","","0.8","0.2","0.6","0.2","","","","","","","","","","74","J","1","","true","0","full_practice",""
"","bandit","57","643407","0.0-32.0-6.0","29639470","wem/bandit_party_1","A6U2C66WQ7QQN","either","4","251","","","","","","","0","1","0","","0.6","0.5","0.5","0.5","0.5","0.8","0.2","0.6","0.2","","","","","","","","","","","","","","75","K","2","","true","0","full_practice",""
"","bandit","58","645056","0.0-32.0-7.0","29639470","wem/bandit_party_1","A6U2C66WQ7QQN","either","4","128","","","","","","","0","0","1","0.2","","0.5","0.5","0.5","0.5","","","","","0.8","0.2","0.6","0.2","","","","","","","","","","76","L","3","","true","0","full_practice",""
"","bandit","59","646781","0.0-32.0-8.0","29639470","wem/bandit_party_1","A6U2C66WQ7QQN","either","4","208","","","","","","","0","1","0","","0.8","0.5","0.5","0.5","0.5","0.8","0.2","0.6","0.2","","","","","","","","","","","","","","72","H","0","img/none_selected.jpg","true","0","full_practice",""
"","bandit","60","648568","0.0-32.0-9.0","29639470","wem/bandit_party_1","A6U2C66WQ7QQN","either","4","272","","","","","","","1","0","0","0.2","","0.5","0.5","0.5","0.5","","","","","0.8","0.2","0.6","0.2","","","","","","","","","","74","J","1","","true","0","full_practice",""
"","bandit","61","650222","0.0-32.0-10.0","29639470","wem/bandit_party_1","A6U2C66WQ7QQN","either","4","136","","","","","","","1","0","0","0.6","","0.5","0.5","0.5","0.5","","","","","0.8","0.2","0.6","0.2","","","","","","","","","","75","K","2","","true","0","full_practice",""
"","bandit","62","651815","0.0-32.0-11.0","29639470","wem/bandit_party_1","A6U2C66WQ7QQN","either","4","77","","","","","","","0","1","0","","0.2","0.5","0.5","0.5","0.5","0.8","0.2","0.6","0.2","","","","","","","","","","","","","","76","L","3","","true","0","full_practice",""
"","bandit","63","653445","0.0-32.0-12.0","29639470","wem/bandit_party_1","A6U2C66WQ7QQN","either","4","115","","","","","","","1","0","0","0.8","","0.5","0.5","0.5","0.5","","","","","0.8","0.2","0.6","0.2","","","","","","","","","","72","H","0","img/none_selected.jpg","true","0","full_practice",""
"","bandit","64","655039","0.0-32.0-13.0","29639470","wem/bandit_party_1","A6U2C66WQ7QQN","either","4","79","","","","","","","0","1","0","","0.2","0.5","0.5","0.5","0.5","0.8","0.2","0.6","0.2","","","","","","","","","","","","","","74","J","1","","true","0","full_practice",""
"","bandit","65","656650","0.0-32.0-14.0","29639470","wem/bandit_party_1","A6U2C66WQ7QQN","either","4","89","","","","","","","0","0","1","0.6","","0.5","0.5","0.5","0.5","","","","","0.8","0.2","0.6","0.2","","","","","","","","","","75","K","2","","true","0","full_practice",""
"","bandit","66","658173","0.0-32.0-15.0","29639470","wem/bandit_party_1","A6U2C66WQ7QQN","either","4","2","","","","","","","0","0","1","","0.2","0.5","0.5","0.5","0.5","0.8","0.2","0.6","0.2","","","","","","","","","","","","","","76","L","3","","true","0","full_practice",""
"","bandit","67","659822","0.0-32.0-16.0","29639470","wem/bandit_party_1","A6U2C66WQ7QQN","either","4","132","","","","","","","1","0","0","0.8","","0.5","0.5","0.5","0.5","","","","","0.8","0.2","0.6","0.2","","","","","","","","","","72","H","0","img/none_selected.jpg","true","0","full_practice",""
"","bandit","68","661355","0.0-32.0-17.0","29639470","wem/bandit_party_1","A6U2C66WQ7QQN","either","4","17","","","","","","","0","0","1","","0.2","0.5","0.5","0.5","0.5","0.8","0.2","0.6","0.2","","","","","","","","","","","","","","74","J","1","","true","0","full_practice",""
"","bandit","69","662922","0.0-32.0-18.0","29639470","wem/bandit_party_1","A6U2C66WQ7QQN","either","4","51","","","","","","","0","0","1","","0.6","0.5","0.5","0.5","0.5","0.8","0.2","0.6","0.2","","","","","","","","","","","","","","75","K","2","","true","0","full_practice",""
"","bandit","70","664532","0.0-32.0-19.0","29639470","wem/bandit_party_1","A6U2C66WQ7QQN","either","4","98","","","","","","","0","0","1","0.2","","0.5","0.5","0.5","0.5","","","","","0.8","0.2","0.6","0.2","","","","","","","","","","76","L","3","","true","0","full_practice",""
"","text","71","667859","0.0-33.0","29639470","wem/bandit_party_1","A6U2C66WQ7QQN","either","4","3305","","","32","","","","","","","","","","","","","","","","","","","","","","","","","","","","","","","","","","","","",""
"","text-replacement","72","729717","0.0-34.0","29639470","wem/bandit_party_1","A6U2C66WQ7QQN","either","4","60849","","","32","","","","","","","","","","","","","","","","","","","","","","","","","","","","","","","","","","","","",""
"","text-replacement","73","741186","0.0-35.0","29639470","wem/bandit_party_1","A6U2C66WQ7QQN","either","4","11461","","","32","","","","","","","","","","","","","","","","","","","","","","","","","","","","","","","","","","","","",""
"","text-replacement","74","744381","0.0-36.0","29639470","wem/bandit_party_1","A6U2C66WQ7QQN","either","4","3185","","","32","","","","","","","","","","","","","","","","","","","","","","","","","","","","","","","","","","","","",""
"","text-replacement","75","770839","0.0-37.0","29639470","wem/bandit_party_1","A6U2C66WQ7QQN","either","4","26450","","","32","","","","","","","","","","","","","","","","","","","","","","","","","","","","","","","","","","","","",""
"","text-replacement","76","772279","0.0-38.0","29639470","wem/bandit_party_1","A6U2C66WQ7QQN","either","4","1436","","","32","","","","","","","","","","","","","","","","","","","","","","","","","","","","","","","","","","","","",""
"","survey-multi-choice-replacement","77","776344","0.0-39.0-0.0","29639470","wem/bandit_party_1","A6U2C66WQ7QQN","either","4","4045","","","","","","","","","","","","","","","","","","","","","","","","Money will be added to the pool for <span style='color:blue;'>DEMOCRATS</span>","","","","","","","attn_check","","","","","","","","","0"
"","survey-multi-choice-replacement","78","784497","0.0-40.0-0.0","29639470","wem/bandit_party_1","A6U2C66WQ7QQN","either","4","7110","","","","","","","","","","","","","","","","","","","","","","","","Equal amounts of money will be added to the pool for <span style='color:blue;'>DEMOCRATS</span> and subtracted from the pool for <span style='color:red;'>REPUBLICANS</span>","","","","","","","attn_check","","","","","","","","","2"
"","survey-multi-choice-replacement","79","788361","0.0-41.0-0.0","29639470","wem/bandit_party_1","A6U2C66WQ7QQN","either","4","2839","","","","","","","","","","","","","","","","","","","","","","","","No money will be added to either pool","","","","","","","attn_check","","","","","","","","","3"
"","bandit","80","793456","0.0-42.0-0.0","29639470","wem/bandit_party_1","A6U2C66WQ7QQN","either","4","2568","","","","","","","1","0","0","0.2771551185","","0.8","0.2","0.4","0.6","","","","","0.2771551185","0.3894728165","0.3242650943","0.3525715257","","","","","","","","","","72","H","0","img/none_selected.jpg","","1","main_expt",""
"","bandit","81","795476","0.0-43.0-0.0","29639470","wem/bandit_party_1","A6U2C66WQ7QQN","either","4","503","","","","","","","0","0","1","","0.363660736","0.8","0.2","0.4","0.6","0.3030893157","0.363660736","0.3296228245","0.390153736","","","","","","","","","","","","","","74","J","1","","","2","main_expt",""
"","bandit","82","797361","0.0-44.0-0.0","29639470","wem/bandit_party_1","A6U2C66WQ7QQN","either","4","367","","","","","","","0","0","1","","0.3102780753","0.8","0.2","0.4","0.6","0.3211059343","0.3842171554","0.3102780753","0.3725447061","","","","","","","","","","","","","","75","K","2","","","3","main_expt",""
"","bandit","83","799270","0.0-45.0-0.0","29639470","wem/bandit_party_1","A6U2C66WQ7QQN","either","4","389","","","","","","","0","0","1","0.3431524481","","0.8","0.2","0.4","0.6","","","","","0.2804386453","0.3831963053","0.2749892112","0.3431524481","","","","","","","","","","76","L","3","","","4","main_expt",""
"","bandit","84","801191","0.0-46.0-0.0","29639470","wem/bandit_party_1","A6U2C66WQ7QQN","either","4","404","","","","","","","1","0","0","0.2609559086","","0.8","0.2","0.4","0.6","","","","","0.2609559086","0.4056596471","0.3037824898","0.3448007793","","","","","","","","","","72","H","0","img/none_selected.jpg","","5","main_expt",""
"","bandit","85","803053","0.0-47.0-0.0","29639470","wem/bandit_party_1","A6U2C66WQ7QQN","either","4","344","","","","","","","1","0","0","0.2259287768","","0.8","0.2","0.4","0.6","","","","","0.2259287768","0.4409946319","0.3217417103","0.3980888019","","","","","","","","","","72","H","0","img/none_selected.jpg","","6","main_expt",""
"","bandit","86","804928","0.0-48.0-0.0","29639470","wem/bandit_party_1","A6U2C66WQ7QQN","either","4","355","","","","","","","0","1","0","","0.2433618728","0.8","0.2","0.4","0.6","0.2433618728","0.3821747998","0.3018715163","0.3693121862","","","","","","","","","","","","","","72","H","0","img/none_selected.jpg","","7","main_expt",""
"","bandit","87","806974","0.0-49.0-0.0","29639470","wem/bandit_party_1","A6U2C66WQ7QQN","either","4","537","","","","","","","0","0","1","0.2025356769","","0.8","0.2","0.4","0.6","","","","","0.2025356769","0.3841844813","0.3643645816","0.2933697555","","","","","","","","","","72","H","0","img/none_selected.jpg","","8","main_expt",""
"","bandit","88","808808","0.0-50.0-0.0","29639470","wem/bandit_party_1","A6U2C66WQ7QQN","either","4","317","","","","","","","0","0","1","","0.1441028094","0.8","0.2","0.4","0.6","0.1441028094","0.3412237964","0.3418610374","0.3036212831","","","","","","","","","","","","","","72","H","0","img/none_selected.jpg","","9","main_expt",""
"","bandit","89","810422","0.0-51.0-0.0","29639470","wem/bandit_party_1","A6U2C66WQ7QQN","either","4","93","","","","","","","0","1","0","","0.3256420777","0.8","0.2","0.4","0.6","0.1736005971","0.3256420777","0.3190157878","0.308020301","","","","","","","","","","","","","","74","J","1","","","10","main_expt",""
"","bandit","90","812251","0.0-52.0-0.0","29639470","wem/bandit_party_1","A6U2C66WQ7QQN","either","4","314","","","","","","","0","0","1","","0.3514007431","0.8","0.2","0.4","0.6","0.1836365694","0.3514007431","0.2998731478","0.3065973113","","","","","","","","","","","","","","74","J","1","","","11","main_expt",""
"","bandit","91","814104","0.0-53.0-0.0","29639470","wem/bandit_party_1","A6U2C66WQ7QQN","either","4","345","","","","","","","0","0","1","0.2942822571","","0.8","0.2","0.4","0.6","","","","","0.2143869662","0.3722032088","0.2942822571","0.3271859636","","","","","","","","","","75","K","2","","","12","main_expt",""
"","bandit","92","815970","0.0-54.0-0.0","29639470","wem/bandit_party_1","A6U2C66WQ7QQN","either","4","356","","","","","","","0","0","1","0.2761076709","","0.8","0.2","0.4","0.6","","","","","0.1637139448","0.3681707299","0.3009212619","0.2761076709","","","","","","","","","","76","L","3","","","13","main_expt",""
"","bandit","93","817730","0.0-55.0-0.0","29639470","wem/bandit_party_1","A6U2C66WQ7QQN","either","4","242","","","","","","","1","0","0","0.3528222564","","0.8","0.2","0.4","0.6","","","","","0.1488535162","0.3528222564","0.3227424667","0.2311164494","","","","","","","","","","74","J","1","","","14","main_expt",""
"","bandit","94","819917","0.0-56.0-0.0","29639470","wem/bandit_party_1","A6U2C66WQ7QQN","either","4","674","","","","","","","1","0","0","0.3738838661","","0.8","0.2","0.4","0.6","","","","","0.1332411271","0.3738838661","0.3547546862","0.2905977425","","","","","","","","","","74","J","1","","","15","main_expt",""
"","bandit","95","822361","0.0-57.0-0.0","29639470","wem/bandit_party_1","A6U2C66WQ7QQN","either","4","925","","","","","","","0","1","0","","0.3385239332","0.8","0.2","0.4","0.6","0.09882415698","0.3385239332","0.3241157583","0.2924554969","","","","","","","","","","","","","","74","J","1","","","16","main_expt",""
"","bandit","96","824353","0.0-58.0-0.0","29639470","wem/bandit_party_1","A6U2C66WQ7QQN","either","4","472","","","","","","","0","0","1","","0.3111355138","0.8","0.2","0.4","0.6","0.1069157009","0.3111355138","0.3363410386","0.3114836302","","","","","","","","","","","","","","74","J","1","","","17","main_expt",""
"","bandit","97","827206","0.0-59.0-0.0","29639470","wem/bandit_party_1","A6U2C66WQ7QQN","either","4","1340","","","","","","","0","0","1","","0.3487767647","0.8","0.2","0.4","0.6","0.134958137","0.3487767647","0.3880947854","0.3215333475","","","","","","","","","","","","","","74","J","1","","","18","main_expt",""
"","bandit","98","830357","0.0-60.0-0.0","29639470","wem/bandit_party_1","A6U2C66WQ7QQN","either","4","1642","","","","","","","1","0","0","0.3010303499","","0.8","0.2","0.4","0.6","","","","","0.1230418706","0.3010303499","0.4116912081","0.2733398822","","","","","","","","","","74","J","1","","","19","main_expt",""
"","bandit","99","856838","0.0-61.0-0.0","29639470","wem/bandit_party_1","A6U2C66WQ7QQN","either","4","24973","","","","","","","0","1","0","","0.2907203997","0.8","0.2","0.4","0.6","0.09866604889","0.2907203997","0.3973894305","0.2351410235","","","","","","","","","","","","","","74","J","1","","","20","main_expt",""
"","bandit","100","858652","0.0-62.0-0.0","29639470","wem/bandit_party_1","A6U2C66WQ7QQN","either","4","299","","","","","","","0","0","1","","0.3088108907","0.8","0.2","0.4","0.6","0.1021222834","0.3088108907","0.369037109","0.2257810982","","","","","","","","","","","","","","74","J","1","","","21","main_expt",""
"","bandit","101","860553","0.0-63.0-0.0","29639470","wem/bandit_party_1","A6U2C66WQ7QQN","either","4","379","","","","","","","0","0","1","0.1234138809","","0.8","0.2","0.4","0.6","","","","","0.1234138809","0.349202701","0.4179468344","0.2221856846","","","","","","","","","","72","H","0","img/none_selected.jpg","","22","main_expt",""
"","bandit","102","862394","0.0-64.0-0.0","29639470","wem/bandit_party_1","A6U2C66WQ7QQN","either","4","321","","","","","","","0","1","0","","0.4276062926","0.8","0.2","0.4","0.6","0.1030640584","0.3785068464","0.4276062926","0.2127124712","","","","","","","","","","","","","","75","K","2","","","23","main_expt",""
"","bandit","103","864204","0.0-65.0-0.0","29639470","wem/bandit_party_1","A6U2C66WQ7QQN","either","4","288","","","","","","","0","1","0","","0.4078122208","0.8","0.2","0.4","0.6","0.1261035851","0.4012919653","0.4078122208","0.1882566648","","","","","","","","","","","","","","75","K","2","","","24","main_expt",""
"","bandit","104","866043","0.0-66.0-0.0","29639470","wem/bandit_party_1","A6U2C66WQ7QQN","either","4","320","","","","","","","0","0","1","","0.3950411191","0.8","0.2","0.4","0.6","0.1796705612","0.400899794","0.3950411191","0.1273223766","","","","","","","","","","","","","","75","K","2","","","25","main_expt",""
"","bandit","105","867880","0.0-67.0-0.0","29639470","wem/bandit_party_1","A6U2C66WQ7QQN","either","4","316","","","","","","","1","0","0","0.15747458","","0.8","0.2","0.4","0.6","","","","","0.2414651519","0.4126274585","0.4322303329","0.15747458","","","","","","","","","","76","L","3","","","26","main_expt",""
"","bandit","106","869434","0.0-68.0-0.0","29639470","wem/bandit_party_1","A6U2C66WQ7QQN","either","4","37","","","","","","","0","0","1","0.1442684908","","0.8","0.2","0.4","0.6","","","","","0.2005374927","0.3992263875","0.4353643722","0.1442684908","","","","","","","","","","76","L","3","","","27","main_expt",""
"","bandit","107","871099","0.0-69.0-0.0","29639470","wem/bandit_party_1","A6U2C66WQ7QQN","either","4","145","","","","","","","0","1","0","","0.4464017809","0.8","0.2","0.4","0.6","0.3197257227","0.3846584236","0.4464017809","0.2255404594","","","","","","","","","","","","","","75","K","2","","","28","main_expt",""
"","bandit","108","872920","0.0-70.0-0.0","29639470","wem/bandit_party_1","A6U2C66WQ7QQN","either","4","302","","","","","","","0","1","0","","0.4417109462","0.8","0.2","0.4","0.6","0.3141869899","0.3561298134","0.4417109462","0.2730951691","","","","","","","","","","","","","","75","K","2","","","29","main_expt",""
"","bandit","109","874699","0.0-71.0-0.0","29639470","wem/bandit_party_1","A6U2C66WQ7QQN","either","4","258","","","","","","","1","0","0","0.4065908859","","0.8","0.2","0.4","0.6","","","","","0.3445991012","0.3101363315","0.4065908859","0.2890412698","","","","","","","","","","75","K","2","","","30","main_expt",""
"","bandit","110","876507","0.0-72.0-0.0","29639470","wem/bandit_party_1","A6U2C66WQ7QQN","either","4","289","","","","","","","0","1","0","","0.3954582793","0.8","0.2","0.4","0.6","0.3456655029","0.3322219809","0.3954582793","0.3309226042","","","","","","","","","","","","","","75","K","2","","","31","main_expt",""
"","bandit","111","878376","0.0-73.0-0.0","29639470","wem/bandit_party_1","A6U2C66WQ7QQN","either","4","349","","","","","","","0","1","0","","0.3716723047","0.8","0.2","0.4","0.6","0.3826172224","0.3516269472","0.3716723047","0.3519301717","","","","","","","","","","","","","","75","K","2","","","32","main_expt",""
"","bandit","112","880200","0.0-74.0-0.0","29639470","wem/bandit_party_1","A6U2C66WQ7QQN","either","4","316","","","","","","","0","0","1","","0.3799724366","0.8","0.2","0.4","0.6","0.3804083149","0.3852085553","0.3799724366","0.3414953842","","","","","","","","","","","","","","75","K","2","","","33","main_expt",""
"","bandit","113","882164","0.0-75.0-0.0","29639470","wem/bandit_party_1","A6U2C66WQ7QQN","either","4","455","","","","","","","0","0","1","0.409480615","","0.8","0.2","0.4","0.6","","","","","0.3808178469","0.4196644934","0.409480615","0.2938412915","","","","","","","","","","75","K","2","","","34","main_expt",""
"","bandit","114","883692","0.0-76.0-0.0","29639470","wem/bandit_party_1","A6U2C66WQ7QQN","either","4","9","","","","","","","1","0","0","0.420891004","","0.8","0.2","0.4","0.6","","","","","0.376129724","0.420891004","0.3869649509","0.2256616696","","","","","","","","","","74","J","1","","","35","main_expt",""
"","bandit","115","885520","0.0-77.0-0.0","29639470","wem/bandit_party_1","A6U2C66WQ7QQN","either","4","307","","","","","","","0","0","1","","0.3808881167","0.8","0.2","0.4","0.6","0.4027809904","0.3808881167","0.3045389962","0.2525957923","","","","","","","","","","","","","","74","J","1","","","36","main_expt",""
"","bandit","116","887145","0.0-78.0-0.0","29639470","wem/bandit_party_1","A6U2C66WQ7QQN","either","4","106","","","","","","","0","0","1","","0.3715556026","0.8","0.2","0.4","0.6","0.3715556026","0.3634360393","0.2954217214","0.2333373749","","","","","","","","","","","","","","72","H","0","img/none_selected.jpg","","37","main_expt",""
"","bandit","117","888885","0.0-79.0-0.0","29639470","wem/bandit_party_1","A6U2C66WQ7QQN","either","4","228","","","","","","","0","1","0","","0.354842885","0.8","0.2","0.4","0.6","0.354842885","0.3432691328","0.2749906923","0.2126884676","","","","","","","","","","","","","","72","H","0","img/none_selected.jpg","","38","main_expt",""
"","bandit","118","891156","0.0-80.0-0.0","29639470","wem/bandit_party_1","A6U2C66WQ7QQN","either","4","749","","","","","","","1","0","0","0.3066825603","","0.8","0.2","0.4","0.6","","","","","0.3066825603","0.3113322025","0.2911873598","0.212498526","","","","","","","","","","72","H","0","img/none_selected.jpg","","39","main_expt",""
"","bandit","119","892779","0.0-81.0-0.0","29639470","wem/bandit_party_1","A6U2C66WQ7QQN","either","4","96","","","","","","","0","0","1","0.3208648015","","0.8","0.2","0.4","0.6","","","","","0.3208648015","0.3298138996","0.3066149412","0.2031275136","","","","","","","","","","72","H","0","img/none_selected.jpg","","40","main_expt",""
"","bandit","120","895006","0.0-82.0-0.0","29639470","wem/bandit_party_1","A6U2C66WQ7QQN","either","4","706","","","","","","","1","0","0","0.2774570704","","0.8","0.2","0.4","0.6","","","","","0.2774570704","0.3590557929","0.2612722093","0.2409224204","","","","","","","","","","72","H","0","img/none_selected.jpg","","41","main_expt",""
"","bandit","121","896813","0.0-83.0-0.0","29639470","wem/bandit_party_1","A6U2C66WQ7QQN","either","4","294","","","","","","","0","1","0","","0.3455434044","0.8","0.2","0.4","0.6","0.3092882543","0.3455434044","0.2579482203","0.2166695961","","","","","","","","","","","","","","74","J","1","","","42","main_expt",""
"","bandit","122","898698","0.0-84.0-0.0","29639470","wem/bandit_party_1","A6U2C66WQ7QQN","either","4","361","","","","","","","0","1","0","","0.4020043176","0.8","0.2","0.4","0.6","0.3161251671","0.4020043176","0.2232302517","0.2314197793","","","","","","","","","","","","","","74","J","1","","","43","main_expt",""
"","bandit","123","922970","0.0-85.0-0.0","29639470","wem/bandit_party_1","A6U2C66WQ7QQN","either","4","22750","","","","","","","0","1","0","","0.4088695108","0.8","0.2","0.4","0.6","0.3032549762","0.4088695108","0.2435669349","0.1889371852","","","","","","","","","","","","","","74","J","1","","","44","main_expt",""
"","bandit","124","924860","0.0-86.0-0.0","29639470","wem/bandit_party_1","A6U2C66WQ7QQN","either","4","383","","","","","","","0","0","1","0.3914045207","","0.8","0.2","0.4","0.6","","","","","0.3012359134","0.3914045207","0.1885724617","0.2152104473","","","","","","","","","","74","J","1","","","45","main_expt",""
"","bandit","125","926692","0.0-87.0-0.0","29639470","wem/bandit_party_1","A6U2C66WQ7QQN","either","4","311","","","","","","","0","0","1","","0.3682142312","0.8","0.2","0.4","0.6","0.2994346937","0.3682142312","0.104230756","0.2260726972","","","","","","","","","","","","","","74","J","1","","","46","main_expt",""
"","bandit","126","928496","0.0-88.0-0.0","29639470","wem/bandit_party_1","A6U2C66WQ7QQN","either","4","281","","","","","","","0","0","1","","0.09013225529","0.8","0.2","0.4","0.6","0.3169549043","0.3462276735","0.09013225529","0.2330399618","","","","","","","","","","","","","","75","K","2","","","47","main_expt",""
"","bandit","127","930230","0.0-89.0-0.0","29639470","wem/bandit_party_1","A6U2C66WQ7QQN","either","4","214","","","","","","","0","0","1","0.2769685944","","0.8","0.2","0.4","0.6","","","","","0.3137179834","0.3501405617","0.1066227192","0.2769685944","","","","","","","","","","76","L","3","","","48","main_expt",""
"","bandit","128","931984","0.0-90.0-0.0","29639470","wem/bandit_party_1","A6U2C66WQ7QQN","either","4","232","","","","","","","0","0","1","0.3026837323","","0.8","0.2","0.4","0.6","","","","","0.3026837323","0.3607669766","0.1273062614","0.2954986192","","","","","","","","","","72","H","0","img/none_selected.jpg","","49","main_expt",""
"","bandit","129","933732","0.0-91.0-0.0","29639470","wem/bandit_party_1","A6U2C66WQ7QQN","either","4","226","","","","","","","0","0","1","0.2690248343","","0.8","0.2","0.4","0.6","","","","","0.2690248343","0.3776327681","0.08158159543","0.2730110453","","","","","","","","","","72","H","0","img/none_selected.jpg","","50","main_expt",""
"","bandit","130","935464","0.0-92.0-0.0","29639470","wem/bandit_party_1","A6U2C66WQ7QQN","either","4","209","","","","","","","0","0","1","0.3922012959","","0.8","0.2","0.4","0.6","","","","","0.2407215714","0.3922012959","0.08035098666","0.2672659715","","","","","","","","","","74","J","1","","","51","main_expt",""
"","bandit","131","937043","0.0-93.0-0.0","29639470","wem/bandit_party_1","A6U2C66WQ7QQN","either","4","57","","","","","","","0","0","1","0.3532085343","","0.8","0.2","0.4","0.6","","","","","0.2758158767","0.3532085343","0.1007468434","0.2552972095","","","","","","","","","","74","J","1","","","52","main_expt",""
"","bandit","132","938620","0.0-94.0-0.0","29639470","wem/bandit_party_1","A6U2C66WQ7QQN","either","4","56","","","","","","","1","0","0","0.1479770317","","0.8","0.2","0.4","0.6","","","","","0.2661511239","0.3597378762","0.1479770317","0.1954439593","","","","","","","","","","75","K","2","","","53","main_expt",""
"","bandit","133","940212","0.0-95.0-0.0","29639470","wem/bandit_party_1","A6U2C66WQ7QQN","either","4","71","","","","","","","0","0","1","0.1450389045","","0.8","0.2","0.4","0.6","","","","","0.250303373","0.3553644404","0.1450389045","0.1250298759","","","","","","","","","","75","K","2","","","54","main_expt",""
"","bandit","134","941838","0.0-96.0-0.0","29639470","wem/bandit_party_1","A6U2C66WQ7QQN","either","4","106","","","","","","","0","0","1","","0.1678096349","0.8","0.2","0.4","0.6","0.1850572083","0.3427354451","0.1678096349","0.1224949652","","","","","","","","","","","","","","75","K","2","","","55","main_expt",""
"","bandit","135","943365","0.0-97.0-0.0","29639470","wem/bandit_party_1","A6U2C66WQ7QQN","either","4","2","","","","","","","0","0","1","","0.1312048923","0.8","0.2","0.4","0.6","0.2410157884","0.3158877586","0.1748395718","0.1312048923","","","","","","","","","","","","","","76","L","3","","","56","main_expt",""
"","bandit","136","944954","0.0-98.0-0.0","29639470","wem/bandit_party_1","A6U2C66WQ7QQN","either","4","69","","","","","","","0","0","1","0.14452077","","0.8","0.2","0.4","0.6","","","","","0.2657224069","0.3224611445","0.146986137","0.14452077","","","","","","","","","","76","L","3","","","57","main_expt",""
"","bandit","137","946579","0.0-99.0-0.0","29639470","wem/bandit_party_1","A6U2C66WQ7QQN","either","4","103","","","","","","","0","0","1","","0.2361308133","0.8","0.2","0.4","0.6","0.2361308133","0.3378672788","0.1316135006","0.1198415177","","","","","","","","","","","","","","72","H","0","img/none_selected.jpg","","58","main_expt",""
"","bandit","138","948112","0.0-100.0-0.0","29639470","wem/bandit_party_1","A6U2C66WQ7QQN","either","4","10","","","","","","","0","0","1","0.2078360154","","0.8","0.2","0.4","0.6","","","","","0.2078360154","0.3438075972","0.1776120447","0.1674914914","","","","","","","","","","72","H","0","img/none_selected.jpg","","59","main_expt",""
"","bandit","139","949635","0.0-101.0-0.0","29639470","wem/bandit_party_1","A6U2C66WQ7QQN","either","4","4","","","","","","","0","0","1","","0.2950987239","0.8","0.2","0.4","0.6","0.2256957235","0.2950987239","0.2034864675","0.147959707","","","","","","","","","","","","","","74","J","1","","","60","main_expt",""
"","bandit","140","951265","0.0-102.0-0.0","29639470","wem/bandit_party_1","A6U2C66WQ7QQN","either","4","110","","","","","","","0","0","1","0.2939622289","","0.8","0.2","0.4","0.6","","","","","0.2713547376","0.2939622289","0.1325668513","0.1217284172","","","","","","","","","","74","J","1","","","61","main_expt",""
"","bandit","141","952854","0.0-103.0-0.0","29639470","wem/bandit_party_1","A6U2C66WQ7QQN","either","4","69","","","","","","","0","0","1","","0.125492747","0.8","0.2","0.4","0.6","0.2800078023","0.2907096119","0.125492747","0.1392905859","","","","","","","","","","","","","","75","K","2","","","62","main_expt",""
"","bandit","142","955414","0.0-104.0-0.0","29639470","wem/bandit_party_1","A6U2C66WQ7QQN","either","4","1036","","","","","","","0","0","1","","0.1081989139","0.8","0.2","0.4","0.6","0.362183352","0.2696382907","0.1081989139","0.1953314019","","","","","","","","","","","","","","75","K","2","","","63","main_expt",""
"","bandit","143","957235","0.0-105.0-0.0","29639470","wem/bandit_party_1","A6U2C66WQ7QQN","either","4","297","","","","","","","0","0","1","0.2618523415","","0.8","0.2","0.4","0.6","","","","","0.3354395381","0.2496415039","0.09104284411","0.2618523415","","","","","","","","","","76","L","3","","","64","main_expt",""
"","bandit","144","958840","0.0-106.0-0.0","29639470","wem/bandit_party_1","A6U2C66WQ7QQN","either","4","81","","","","","","","0","0","1","0.2686672798","","0.8","0.2","0.4","0.6","","","","","0.2893845237","0.2364994079","0.1264903162","0.2686672798","","","","","","","","","","76","L","3","","","65","main_expt",""
"","bandit","145","960779","0.0-107.0-0.0","29639470","wem/bandit_party_1","A6U2C66WQ7QQN","either","4","412","","","","","","","0","0","1","0.2355717356","","0.8","0.2","0.4","0.6","","","","","0.2355717356","0.2541683514","0.1665937301","0.2451656397","","","","","","","","","","72","H","0","img/none_selected.jpg","","66","main_expt",""
"","bandit","146","962628","0.0-108.0-0.0","29639470","wem/bandit_party_1","A6U2C66WQ7QQN","either","4","326","","","","","","","0","0","1","0.2985471382","","0.8","0.2","0.4","0.6","","","","","0.2848755716","0.2985471382","0.1740025863","0.2445320338","","","","","","","","","","74","J","1","","","67","main_expt",""
"","bandit","147","964182","0.0-109.0-0.0","29639470","wem/bandit_party_1","A6U2C66WQ7QQN","either","4","31","","","","","","","0","0","1","0.2300011382","","0.8","0.2","0.4","0.6","","","","","0.3341158043","0.3391290389","0.2300011382","0.2261158315","","","","","","","","","","75","K","2","","","68","main_expt",""
"","bandit","148","966011","0.0-110.0-0.0","29639470","wem/bandit_party_1","A6U2C66WQ7QQN","either","4","305","","","","","","","1","0","0","0.1627286519","","0.8","0.2","0.4","0.6","","","","","0.3253412689","0.3114764975","0.1768594062","0.1627286519","","","","","","","","","","76","L","3","","","69","main_expt",""
"","bandit","149","967750","0.0-111.0-0.0","29639470","wem/bandit_party_1","A6U2C66WQ7QQN","either","4","215","","","","","","","0","0","1","","0.1301009224","0.8","0.2","0.4","0.6","0.3280915152","0.3056328376","0.1906145184","0.1301009224","","","","","","","","","","","","","","76","L","3","","","70","main_expt",""
"","bandit","150","969361","0.0-112.0-0.0","29639470","wem/bandit_party_1","A6U2C66WQ7QQN","either","4","87","","","","","","","0","0","1","0.1356707761","","0.8","0.2","0.4","0.6","","","","","0.3772643828","0.3445325487","0.1451664327","0.1356707761","","","","","","","","","","76","L","3","","","71","main_expt",""
"","bandit","151","970897","0.0-113.0-0.0","29639470","wem/bandit_party_1","A6U2C66WQ7QQN","either","4","15","","","","","","","0","0","1","","0.1045412551","0.8","0.2","0.4","0.6","0.4074174212","0.364612409","0.1091447996","0.1045412551","","","","","","","","","","","","","","76","L","3","","","72","main_expt",""
"","bandit","152","972923","0.0-114.0-0.0","29639470","wem/bandit_party_1","A6U2C66WQ7QQN","either","4","503","","","","","","","0","0","1","0.1248737042","","0.8","0.2","0.4","0.6","","","","","0.3736299767","0.4454774056","0.1248737042","0.0867882282","","","","","","","","","","75","K","2","","","73","main_expt",""
"","bandit","153","974821","0.0-115.0-0.0","29639470","wem/bandit_party_1","A6U2C66WQ7QQN","either","4","375","","","","","","","0","0","1","","0.1073746888","0.8","0.2","0.4","0.6","0.383211712","0.4492830973","0.1073746888","0.1018359722","","","","","","","","","","","","","","75","K","2","","","74","main_expt",""
"","bandit","154","977660","0.0-116.0-0.0","29639470","wem/bandit_party_1","A6U2C66WQ7QQN","either","4","1316","","","","","","","0","0","1","0.1051395745","","0.8","0.2","0.4","0.6","","","","","0.3681962321","0.449321966","0.1051395745","0.09443707336","","","","","","","","","","75","K","2","","","75","main_expt",""
"","bandit","155","979359","0.0-117.0-0.0","29639470","wem/bandit_party_1","A6U2C66WQ7QQN","either","4","176","","","","","","","0","0","1","","0.4299726132","0.8","0.2","0.4","0.6","0.3574328021","0.4299726132","0.09171451076","0.08768691443","","","","","","","","","","","","","","74","J","1","","","76","main_expt",""
"","bandit","156","981084","0.0-118.0-0.0","29639470","wem/bandit_party_1","A6U2C66WQ7QQN","either","4","200","","","","","","","0","0","1","0.4349340462","","0.8","0.2","0.4","0.6","","","","","0.4041720962","0.4349340462","0.1256070833","0.07744448812","","","","","","","","","","74","J","1","","","77","main_expt",""
"","bandit","157","982743","0.0-119.0-0.0","29639470","wem/bandit_party_1","A6U2C66WQ7QQN","either","4","126","","","","","","","1","0","0","0.4112950215","","0.8","0.2","0.4","0.6","","","","","0.4000946746","0.4112950215","0.1398604905","0.05712631425","","","","","","","","","","74","J","1","","","78","main_expt",""
"","bandit","158","984516","0.0-120.0-0.0","29639470","wem/bandit_party_1","A6U2C66WQ7QQN","either","4","251","","","","","","","0","0","1","","0.4123046053","0.8","0.2","0.4","0.6","0.425248604","0.4123046053","0.1303191282","0.03981704588","","","","","","","","","","","","","","74","J","1","","","79","main_expt",""
"","bandit","159","986045","0.0-121.0-0.0","29639470","wem/bandit_party_1","A6U2C66WQ7QQN","either","4","6","","","","","","","0","0","1","0.4263383456","","0.8","0.2","0.4","0.6","","","","","0.4263383456","0.4345430878","0.1491340647","0.02961196177","","","","","","","","","","72","H","0","img/none_selected.jpg","","80","main_expt",""
"","bandit","160","988433","0.0-122.0-0.0","29639470","wem/bandit_party_1","A6U2C66WQ7QQN","either","4","865","","","","","","","0","0","1","0.4377411966","","0.8","0.2","0.4","0.6","","","","","0.4377411966","0.4255274095","0.1484119081","0.0408206899","","","","","","","","","","72","H","0","img/none_selected.jpg","","81","main_expt",""
"","bandit","161","990417","0.0-123.0-0.0","29639470","wem/bandit_party_1","A6U2C66WQ7QQN","either","4","459","","","","","","","1","0","0","0.4263216968","","0.8","0.2","0.4","0.6","","","","","0.4263216968","0.4266934287","0.135460029","0.03491361241","","","","","","","","","","72","H","0","img/none_selected.jpg","","82","main_expt",""
"","bandit","162","992441","0.0-124.0-0.0","29639470","wem/bandit_party_1","A6U2C66WQ7QQN","either","4","498","","","","","","","0","0","1","0.4536492548","","0.8","0.2","0.4","0.6","","","","","0.4536492548","0.4321646522","0.09497461961","0.01881925386","","","","","","","","","","72","H","0","img/none_selected.jpg","","83","main_expt",""
"","bandit","163","1016212","0.0-125.0-0.0","29639470","wem/bandit_party_1","A6U2C66WQ7QQN","either","4","22246","","","","","","","1","0","0","0.43129245","","0.8","0.2","0.4","0.6","","","","","0.4344769981","0.43129245","0.0956585677","0.03441768066","","","","","","","","","","74","J","1","","","84","main_expt",""
"","bandit","164","1017913","0.0-126.0-0.0","29639470","wem/bandit_party_1","A6U2C66WQ7QQN","either","4","192","","","","","","","0","0","1","0.4307495417","","0.8","0.2","0.4","0.6","","","","","0.4167097255","0.4307495417","0.08427930603","0.04015732792","","","","","","","","","","74","J","1","","","85","main_expt",""
"","bandit","165","1019576","0.0-127.0-0.0","29639470","wem/bandit_party_1","A6U2C66WQ7QQN","either","4","151","","","","","","","0","1","0","","0.4327415212","0.8","0.2","0.4","0.6","0.4215971904","0.4327415212","0.09540141202","0.0462821445","","","","","","","","","","","","","","74","J","1","","","86","main_expt",""
"","bandit","166","1021388","0.0-128.0-0.0","29639470","wem/bandit_party_1","A6U2C66WQ7QQN","either","4","285","","","","","","","0","0","1","","0.4507305815","0.8","0.2","0.4","0.6","0.3962725568","0.4507305815","0.06504543429","0.07236867375","","","","","","","","","","","","","","74","J","1","","","87","main_expt",""
"","bandit","167","1023176","0.0-129.0-0.0","29639470","wem/bandit_party_1","A6U2C66WQ7QQN","either","4","263","","","","","","","0","0","1","","0.4571393315","0.8","0.2","0.4","0.6","0.4038430626","0.4571393315","0.05894337134","0.1132918069","","","","","","","","","","","","","","74","J","1","","","88","main_expt",""
"","bandit","168","1024742","0.0-130.0-0.0","29639470","wem/bandit_party_1","A6U2C66WQ7QQN","either","4","39","","","","","","","1","0","0","0.4639779763","","0.8","0.2","0.4","0.6","","","","","0.4247877058","0.4639779763","0.06803635399","0.1466354559","","","","","","","","","","74","J","1","","","89","main_expt",""
"","bandit","169","1026498","0.0-131.0-0.0","29639470","wem/bandit_party_1","A6U2C66WQ7QQN","either","4","242","","","","","","","0","1","0","","0.4620017245","0.8","0.2","0.4","0.6","0.4196700557","0.4620017245","0.09657856289","0.1746819083","","","","","","","","","","","","","","74","J","1","","","90","main_expt",""
"","bandit","170","1028194","0.0-132.0-0.0","29639470","wem/bandit_party_1","A6U2C66WQ7QQN","either","4","170","","","","","","","0","0","1","0.4492963398","","0.8","0.2","0.4","0.6","","","","","0.401758082","0.4492963398","0.08522031428","0.1864657318","","","","","","","","","","74","J","1","","","91","main_expt",""
"","bandit","171","1029741","0.0-133.0-0.0","29639470","wem/bandit_party_1","A6U2C66WQ7QQN","either","4","23","","","","","","","0","1","0","","0.462009279","0.8","0.2","0.4","0.6","0.3422099147","0.462009279","0.07078380504","0.2124622091","","","","","","","","","","","","","","74","J","1","","","92","main_expt",""
"","bandit","172","1031491","0.0-134.0-0.0","29639470","wem/bandit_party_1","A6U2C66WQ7QQN","either","4","238","","","","","","","0","1","0","","0.4363090379","0.8","0.2","0.4","0.6","0.3279059742","0.4363090379","0.0564278809","0.245786276","","","","","","","","","","","","","","74","J","1","","","93","main_expt",""
"","bandit","173","1033146","0.0-135.0-0.0","29639470","wem/bandit_party_1","A6U2C66WQ7QQN","either","4","130","","","","","","","0","0","1","","0.4457519602","0.8","0.2","0.4","0.6","0.3155724737","0.4457519602","0.06067733924","0.2316759231","","","","","","","","","","","","","","74","J","1","","","94","main_expt",""
"","bandit","174","1034674","0.0-136.0-0.0","29639470","wem/bandit_party_1","A6U2C66WQ7QQN","either","4","2","","","","","","","0","0","1","","0.4231248902","0.8","0.2","0.4","0.6","0.3519625041","0.4231248902","0.08632751489","0.2231756969","","","","","","","","","","","","","","74","J","1","","","95","main_expt",""
"","bandit","175","1037460","0.0-137.0-0.0","29639470","wem/bandit_party_1","A6U2C66WQ7QQN","either","4","1265","","","","","","","0","0","1","","0.4210676831","0.8","0.2","0.4","0.6","0.3661455107","0.4210676831","0.08481729553","0.1957128212","","","","","","","","","","","","","","74","J","1","","","96","main_expt",""
"","bandit","176","1039025","0.0-138.0-0.0","29639470","wem/bandit_party_1","A6U2C66WQ7QQN","either","4","42","","","","","","","0","0","1","","0.4022895305","0.8","0.2","0.4","0.6","0.3558031673","0.4022895305","0.08386440452","0.1638116915","","","","","","","","","","","","","","74","J","1","","","97","main_expt",""
"","bandit","177","1040709","0.0-139.0-0.0","29639470","wem/bandit_party_1","A6U2C66WQ7QQN","either","4","164","","","","","","","0","0","1","","0.0940701929","0.8","0.2","0.4","0.6","0.3558230887","0.4187351015","0.0940701929","0.1405816365","","","","","","","","","","","","","","75","K","2","","","98","main_expt",""
"","bandit","178","1042855","0.0-140.0-0.0","29639470","wem/bandit_party_1","A6U2C66WQ7QQN","either","4","623","","","","","","","0","0","1","","0.1285058524","0.8","0.2","0.4","0.6","0.3064708089","0.3981340028","0.1285058524","0.1435678602","","","","","","","","","","","","","","75","K","2","","","99","main_expt",""
"","bandit","179","1044538","0.0-141.0-0.0","29639470","wem/bandit_party_1","A6U2C66WQ7QQN","either","4","158","","","","","","","0","0","1","0.065882019","","0.8","0.2","0.4","0.6","","","","","0.352498313","0.3520446815","0.065882019","0.1478754355","","","","","","","","","","75","K","2","","","100","main_expt",""
"","bandit","180","1089603","0.0-142.0-0.0","29639470","wem/bandit_party_1","A6U2C66WQ7QQN","either","4","43540","","","","","","","0","0","1","","0.3715523215","0.8","0.2","0.4","0.6","0.3511810171","0.3715523215","0.05692140794","0.1532559328","","","","","","","","","","","","","","74","J","1","","","101","main_expt",""
"","bandit","181","1092138","0.0-143.0-0.0","29639470","wem/bandit_party_1","A6U2C66WQ7QQN","either","4","1024","","","","","","","0","0","1","","0.04322280369","0.8","0.2","0.4","0.6","0.3246867477","0.3966955113","0.04322280369","0.15857411","","","","","","","","","","","","","","75","K","2","","","102","main_expt",""
"","bandit","182","1093967","0.0-144.0-0.0","29639470","wem/bandit_party_1","A6U2C66WQ7QQN","either","4","306","","","","","","","0","0","1","","0.05121437093","0.8","0.2","0.4","0.6","0.2827689756","0.3865714765","0.05121437093","0.1552377357","","","","","","","","","","","","","","75","K","2","","","103","main_expt",""
"","bandit","183","1095753","0.0-145.0-0.0","29639470","wem/bandit_party_1","A6U2C66WQ7QQN","either","4","260","","","","","","","0","0","1","","0.06548077564","0.8","0.2","0.4","0.6","0.3307995119","0.3440646931","0.06548077564","0.1584193753","","","","","","","","","","","","","","75","K","2","","","104","main_expt",""
"","bandit","184","1097427","0.0-146.0-0.0","29639470","wem/bandit_party_1","A6U2C66WQ7QQN","either","4","147","","","","","","","0","0","1","","0.330981063","0.8","0.2","0.4","0.6","0.3078297571","0.330981063","0.07577357845","0.192058402","","","","","","","","","","","","","","74","J","1","","","105","main_expt",""
"","bandit","185","1099166","0.0-147.0-0.0","29639470","wem/bandit_party_1","A6U2C66WQ7QQN","either","4","215","","","","","","","0","0","1","","0.3317280627","0.8","0.2","0.4","0.6","0.3202685942","0.3317280627","0.09041352565","0.1562344916","","","","","","","","","","","","","","74","J","1","","","106","main_expt",""
"","bandit","186","1100901","0.0-148.0-0.0","29639470","wem/bandit_party_1","A6U2C66WQ7QQN","either","4","205","","","","","","","0","0","1","","0.2760665195","0.8","0.2","0.4","0.6","0.3163418234","0.2760665195","0.1184921167","0.1493116313","","","","","","","","","","","","","","74","J","1","","","107","main_expt",""
"","bandit","187","1102759","0.0-149.0-0.0","29639470","wem/bandit_party_1","A6U2C66WQ7QQN","either","4","335","","","","","","","0","0","1","0.3425943818","","0.8","0.2","0.4","0.6","","","","","0.3425943818","0.2826301941","0.1057615429","0.1357435498","","","","","","","","","","72","H","0","img/none_selected.jpg","","108","main_expt",""
"","bandit","188","1104423","0.0-150.0-0.0","29639470","wem/bandit_party_1","A6U2C66WQ7QQN","either","4","138","","","","","","","1","0","0","0.2852030557","","0.8","0.2","0.4","0.6","","","","","0.2852030557","0.318117281","0.1464484126","0.1164074326","","","","","","","","","","72","H","0","img/none_selected.jpg","","109","main_expt",""
"","bandit","189","1106112","0.0-151.0-0.0","29639470","wem/bandit_party_1","A6U2C66WQ7QQN","either","4","166","","","","","","","0","0","1","0.3392406975","","0.8","0.2","0.4","0.6","","","","","0.3392406975","0.3358587519","0.1641354829","0.1444451916","","","","","","","","","","72","H","0","img/none_selected.jpg","","110","main_expt",""
"","bandit","190","1107716","0.0-152.0-0.0","29639470","wem/bandit_party_1","A6U2C66WQ7QQN","either","4","78","","","","","","","0","0","1","0.3023411017","","0.8","0.2","0.4","0.6","","","","","0.3023411017","0.3031660534","0.1386891192","0.09905323685","","","","","","","","","","72","H","0","img/none_selected.jpg","","111","main_expt",""
"","bandit","191","1109390","0.0-153.0-0.0","29639470","wem/bandit_party_1","A6U2C66WQ7QQN","either","4","151","","","","","","","0","0","1","","0.2773548355","0.8","0.2","0.4","0.6","0.296849772","0.2773548355","0.1847512065","0.09652445584","","","","","","","","","","","","","","74","J","1","","","112","main_expt",""
"","bandit","192","1111022","0.0-154.0-0.0","29639470","wem/bandit_party_1","A6U2C66WQ7QQN","either","4","105","","","","","","","0","0","1","0.2370758425","","0.8","0.2","0.4","0.6","","","","","0.2673419259","0.2370758425","0.1304555333","0.09961189632","","","","","","","","","","74","J","1","","","113","main_expt",""
"","bandit","193","1112953","0.0-155.0-0.0","29639470","wem/bandit_party_1","A6U2C66WQ7QQN","either","4","406","","","","","","","1","0","0","0.1036139638","","0.8","0.2","0.4","0.6","","","","","0.2670531803","0.1821928837","0.1770102637","0.1036139638","","","","","","","","","","76","L","3","","","114","main_expt",""
"","bandit","194","1114669","0.0-156.0-0.0","29639470","wem/bandit_party_1","A6U2C66WQ7QQN","either","4","188","","","","","","","0","0","1","","0.0968506792","0.8","0.2","0.4","0.6","0.2825009356","0.1315453283","0.1564651975","0.0968506792","","","","","","","","","","","","","","76","L","3","","","115","main_expt",""
"","bandit","195","1116264","0.0-157.0-0.0","29639470","wem/bandit_party_1","A6U2C66WQ7QQN","either","4","73","","","","","","","0","0","1","0.08782875681","","0.8","0.2","0.4","0.6","","","","","0.3237719372","0.1102777544","0.1665702367","0.08782875681","","","","","","","","","","76","L","3","","","116","main_expt",""
"","bandit","196","1117879","0.0-158.0-0.0","29639470","wem/bandit_party_1","A6U2C66WQ7QQN","either","4","105","","","","","","","0","0","1","0.06031800864","","0.8","0.2","0.4","0.6","","","","","0.3154846423","0.1101610351","0.1530687496","0.06031800864","","","","","","","","","","76","L","3","","","117","main_expt",""
"","bandit","197","1119579","0.0-159.0-0.0","29639470","wem/bandit_party_1","A6U2C66WQ7QQN","either","4","175","","","","","","","0","0","1","","0.05633053331","0.8","0.2","0.4","0.6","0.2584508078","0.122460482","0.1674206906","0.05633053331","","","","","","","","","","","","","","76","L","3","","","118","main_expt",""
"","bandit","198","1121137","0.0-160.0-0.0","29639470","wem/bandit_party_1","A6U2C66WQ7QQN","either","4","47","","","","","","","0","1","0","","0.1990215448","0.8","0.2","0.4","0.6","0.2141905193","0.1451868924","0.1990215448","0.07530514027","","","","","","","","","","","","","","75","K","2","","","119","main_expt",""
"","bandit","199","1122795","0.0-161.0-0.0","29639470","wem/bandit_party_1","A6U2C66WQ7QQN","either","4","149","","","","","","","0","1","0","","0.2208640619","0.8","0.2","0.4","0.6","0.2341954374","0.09092593383","0.2208640619","0.09639595661","","","","","","","","","","","","","","75","K","2","","","120","main_expt",""
"","bandit","200","1124475","0.0-162.0-0.0","29639470","wem/bandit_party_1","A6U2C66WQ7QQN","either","4","153","","","","","","","1","0","0","0.2602917539","","0.8","0.2","0.4","0.6","","","","","0.1886372651","0.1080456108","0.2602917539","0.1421799471","","","","","","","","","","75","K","2","","","121","main_expt",""
"","bandit","201","1126718","0.0-163.0-0.0","29639470","wem/bandit_party_1","A6U2C66WQ7QQN","either","4","719","","","","","","","0","0","1","","0.2512498235","0.8","0.2","0.4","0.6","0.1597592322","0.1169053248","0.2512498235","0.1624760489","","","","","","","","","","","","","","75","K","2","","","122","main_expt",""
"","bandit","202","1128573","0.0-164.0-0.0","29639470","wem/bandit_party_1","A6U2C66WQ7QQN","either","4","327","","","","","","","0","0","1","","0.2266242761","0.8","0.2","0.4","0.6","0.1895266442","0.1571594809","0.2266242761","0.1640214383","","","","","","","","","","","","","","75","K","2","","","123","main_expt",""
"","bandit","203","1130131","0.0-165.0-0.0","29639470","wem/bandit_party_1","A6U2C66WQ7QQN","either","4","34","","","","","","","0","0","1","","0.2373824638","0.8","0.2","0.4","0.6","0.2042850732","0.2231804049","0.2373824638","0.2014340991","","","","","","","","","","","","","","75","K","2","","","124","main_expt",""
"","bandit","204","1131749","0.0-166.0-0.0","29639470","wem/bandit_party_1","A6U2C66WQ7QQN","either","4","90","","","","","","","0","0","1","0.2538727107","","0.8","0.2","0.4","0.6","","","","","0.1812515389","0.2232794356","0.2538727107","0.2229229076","","","","","","","","","","75","K","2","","","125","main_expt",""
"","bandit","205","1133365","0.0-167.0-0.0","29639470","wem/bandit_party_1","A6U2C66WQ7QQN","either","4","90","","","","","","","0","0","1","","0.2316903634","0.8","0.2","0.4","0.6","0.1694736183","0.2316903634","0.290219491","0.2324712723","","","","","","","","","","","","","","74","J","1","","","126","main_expt",""
"","bandit","206","1134897","0.0-168.0-0.0","29639470","wem/bandit_party_1","A6U2C66WQ7QQN","either","4","5","","","","","","","0","1","0","","0.2337524142","0.8","0.2","0.4","0.6","0.1624528765","0.2337524142","0.2542505169","0.2628391623","","","","","","","","","","","","","","74","J","1","","","127","main_expt",""
"","bandit","207","1136553","0.0-169.0-0.0","29639470","wem/bandit_party_1","A6U2C66WQ7QQN","either","4","127","","","","","","","0","0","1","0.2198210178","","0.8","0.2","0.4","0.6","","","","","0.1632982916","0.2198210178","0.2582316027","0.2654356302","","","","","","","","","","74","J","1","","","128","main_expt",""
"","bandit","208","1139183","0.0-170.0-0.0","29639470","wem/bandit_party_1","A6U2C66WQ7QQN","either","4","1107","","","","","","","0","1","0","","0.2280168395","0.8","0.2","0.4","0.6","0.2264598068","0.2280168395","0.3267566011","0.2070569149","","","","","","","","","","","","","","74","J","1","","","129","main_expt",""
"","bandit","209","1140807","0.0-171.0-0.0","29639470","wem/bandit_party_1","A6U2C66WQ7QQN","either","4","93","","","","","","","0","0","1","","0.243895296","0.8","0.2","0.4","0.6","0.202760285","0.243895296","0.3323271388","0.2579182239","","","","","","","","","","","","","","74","J","1","","","130","main_expt",""
"","bandit","210","1142500","0.0-172.0-0.0","29639470","wem/bandit_party_1","A6U2C66WQ7QQN","either","4","165","","","","","","","0","0","1","0.2164454501","","0.8","0.2","0.4","0.6","","","","","0.1585094705","0.2164454501","0.2666668646","0.2329110821","","","","","","","","","","74","J","1","","","131","main_expt",""
"","bandit","211","1144124","0.0-173.0-0.0","29639470","wem/bandit_party_1","A6U2C66WQ7QQN","either","4","100","","","","","","","0","0","1","","0.200468731","0.8","0.2","0.4","0.6","0.1304261544","0.200468731","0.2359119393","0.2400232435","","","","","","","","","","","","","","74","J","1","","","132","main_expt",""
"","bandit","212","1145801","0.0-174.0-0.0","29639470","wem/bandit_party_1","A6U2C66WQ7QQN","either","4","160","","","","","","","0","0","1","","0.2038597077","0.8","0.2","0.4","0.6","0.09339990826","0.2038597077","0.2540740643","0.2084798617","","","","","","","","","","","","","","74","J","1","","","133","main_expt",""
"","bandit","213","1147414","0.0-175.0-0.0","29639470","wem/bandit_party_1","A6U2C66WQ7QQN","either","4","100","","","","","","","0","0","1","0.08524612959","","0.8","0.2","0.4","0.6","","","","","0.08524612959","0.2263269307","0.2414927735","0.2034544","","","","","","","","","","72","H","0","img/none_selected.jpg","","134","main_expt",""
"","bandit","214","1148970","0.0-176.0-0.0","29639470","wem/bandit_party_1","A6U2C66WQ7QQN","either","4","28","","","","","","","0","0","1","0.0622033461","","0.8","0.2","0.4","0.6","","","","","0.0622033461","0.2686469146","0.2632369982","0.2088958693","","","","","","","","","","72","H","0","img/none_selected.jpg","","135","main_expt",""
"","bandit","215","1151218","0.0-177.0-0.0","29639470","wem/bandit_party_1","A6U2C66WQ7QQN","either","4","722","","","","","","","0","0","1","0.05632890875","","0.8","0.2","0.4","0.6","","","","","0.05632890875","0.3170393738","0.3032623762","0.2573758916","","","","","","","","","","72","H","0","img/none_selected.jpg","","136","main_expt",""
"","bandit","216","1152859","0.0-178.0-0.0","29639470","wem/bandit_party_1","A6U2C66WQ7QQN","either","4","115","","","","","","","0","0","1","0.06052980877","","0.8","0.2","0.4","0.6","","","","","0.06052980877","0.338962466","0.2984046037","0.2467438462","","","","","","","","","","72","H","0","img/none_selected.jpg","","137","main_expt",""
"","bandit","217","1205111","0.0-179.0-0.0","29639470","wem/bandit_party_1","A6U2C66WQ7QQN","either","4","50739","","","","","","","0","0","1","","0.3586643031","0.8","0.2","0.4","0.6","0.1038497792","0.3586643031","0.3110629865","0.2221944767","","","","","","","","","","","","","","74","J","1","","","138","main_expt",""
"","bandit","218","1206660","0.0-180.0-0.0","29639470","wem/bandit_party_1","A6U2C66WQ7QQN","either","4","24","","","","","","","0","1","0","","0.3430902759","0.8","0.2","0.4","0.6","0.08561062373","0.3430902759","0.3048373826","0.2750517365","","","","","","","","","","","","","","74","J","1","","","139","main_expt",""
"","bandit","219","1208262","0.0-181.0-0.0","29639470","wem/bandit_party_1","A6U2C66WQ7QQN","either","4","91","","","","","","","0","0","1","0.3777112835","","0.8","0.2","0.4","0.6","","","","","0.08025295029","0.3777112835","0.3163642845","0.277474309","","","","","","","","","","74","J","1","","","140","main_expt",""
"","bandit","220","1211177","0.0-182.0-0.0","29639470","wem/bandit_party_1","A6U2C66WQ7QQN","either","4","1399","","","","","","","0","0","1","","0.4276051364","0.8","0.2","0.4","0.6","0.09309891757","0.4276051364","0.2213861514","0.2932007391","","","","","","","","","","","","","","74","J","1","","","141","main_expt",""
"","bandit","221","1212927","0.0-183.0-0.0","29639470","wem/bandit_party_1","A6U2C66WQ7QQN","either","4","235","","","","","","","0","1","0","","0.4312347149","0.8","0.2","0.4","0.6","0.1107976638","0.4312347149","0.2492613222","0.3001807938","","","","","","","","","","","","","","74","J","1","","","142","main_expt",""
"","bandit","222","1214601","0.0-184.0-0.0","29639470","wem/bandit_party_1","A6U2C66WQ7QQN","either","4","148","","","","","","","0","1","0","","0.386657586","0.8","0.2","0.4","0.6","0.09575525052","0.386657586","0.2645663874","0.3640878437","","","","","","","","","","","","","","74","J","1","","","143","main_expt",""
"","bandit","223","1216242","0.0-185.0-0.0","29639470","wem/bandit_party_1","A6U2C66WQ7QQN","either","4","114","","","","","","","1","0","0","0.3409851627","","0.8","0.2","0.4","0.6","","","","","0.07222794989","0.3409851627","0.2928215939","0.2706796495","","","","","","","","","","74","J","1","","","144","main_expt",""
"","bandit","224","1217849","0.0-186.0-0.0","29639470","wem/bandit_party_1","A6U2C66WQ7QQN","either","4","87","","","","","","","0","0","1","0.3538709708","","0.8","0.2","0.4","0.6","","","","","0.03203798906","0.3538709708","0.3178979655","0.2359726437","","","","","","","","","","74","J","1","","","145","main_expt",""
"","bandit","225","1219421","0.0-187.0-0.0","29639470","wem/bandit_party_1","A6U2C66WQ7QQN","either","4","48","","","","","","","0","1","0","","0.2745956728","0.8","0.2","0.4","0.6","0.03073079809","0.2745956728","0.2850957273","0.2200332621","","","","","","","","","","","","","","74","J","1","","","146","main_expt",""
"","bandit","226","1221413","0.0-188.0-0.0","29639470","wem/bandit_party_1","A6U2C66WQ7QQN","either","4","465","","","","","","","0","0","1","","0.2375793476","0.8","0.2","0.4","0.6","0.05105424151","0.2375793476","0.2483519338","0.1957794229","","","","","","","","","","","","","","74","J","1","","","147","main_expt",""
"","bandit","227","1224115","0.0-189.0-0.0","29639470","wem/bandit_party_1","A6U2C66WQ7QQN","either","4","1171","","","","","","","0","0","1","","0.2954602587","0.8","0.2","0.4","0.6","0.04045355104","0.2954602587","0.2309770791","0.1790722045","","","","","","","","","","","","","","74","J","1","","","148","main_expt",""
"","bandit","228","1262008","0.0-190.0-0.0","29639470","wem/bandit_party_1","A6U2C66WQ7QQN","either","4","36368","","","","","","","0","0","1","0.3435099865","","0.8","0.2","0.4","0.6","","","","","0.06416506337","0.3435099865","0.1759049641","0.2189150546","","","","","","","","","","74","J","1","","","149","main_expt",""
"","bandit","229","1263794","0.0-191.0-0.0","29639470","wem/bandit_party_1","A6U2C66WQ7QQN","either","4","273","","","","","","","0","0","1","","0.1910702346","0.8","0.2","0.4","0.6","0.07819388902","0.268900415","0.1910702346","0.2119229637","","","","","","","","","","","","","","75","K","2","","","150","main_expt",""
"","bandit","230","1265444","0.0-192.0-0.0","29639470","wem/bandit_party_1","A6U2C66WQ7QQN","either","4","124","","","","","","","0","0","1","","0.1799178466","0.8","0.2","0.4","0.6","0.1186979887","0.2326488896","0.1799178466","0.2472398003","","","","","","","","","","","","","","75","K","2","","","151","main_expt",""
"","bandit","231","1267032","0.0-193.0-0.0","29639470","wem/bandit_party_1","A6U2C66WQ7QQN","either","4","60","","","","","","","0","0","1","0.1826140084","","0.8","0.2","0.4","0.6","","","","","0.1084773402","0.2768057641","0.1826140084","0.2148428051","","","","","","","","","","75","K","2","","","152","main_expt",""
"","bandit","232","1268712","0.0-194.0-0.0","29639470","wem/bandit_party_1","A6U2C66WQ7QQN","either","4","153","","","","","","","0","0","1","0.1598057249","","0.8","0.2","0.4","0.6","","","","","0.1314289417","0.2997660112","0.147924298","0.1598057249","","","","","","","","","","76","L","3","","","153","main_expt",""
"","bandit","233","1270302","0.0-195.0-0.0","29639470","wem/bandit_party_1","A6U2C66WQ7QQN","either","4","59","","","","","","","0","0","1","0.1489099923","","0.8","0.2","0.4","0.6","","","","","0.1354051011","0.3196464983","0.1388357139","0.1489099923","","","","","","","","","","76","L","3","","","154","main_expt",""
"","bandit","234","1272367","0.0-196.0-0.0","29639470","wem/bandit_party_1","A6U2C66WQ7QQN","either","4","538","","","","","","","0","0","1","","0.1502541116","0.8","0.2","0.4","0.6","0.1085215933","0.3141654429","0.1658398244","0.1502541116","","","","","","","","","","","","","","76","L","3","","","155","main_expt",""
"","bandit","235","1273897","0.0-197.0-0.0","29639470","wem/bandit_party_1","A6U2C66WQ7QQN","either","4","3","","","","","","","0","0","1","0.1383379057","","0.8","0.2","0.4","0.6","","","","","0.1383379057","0.2667217688","0.1104921729","0.1605084188","","","","","","","","","","72","H","0","img/none_selected.jpg","","156","main_expt",""
"","bandit","236","1275785","0.0-198.0-0.0","29639470","wem/bandit_party_1","A6U2C66WQ7QQN","either","4","359","","","","","","","0","0","1","0.1428990181","","0.8","0.2","0.4","0.6","","","","","0.1428990181","0.2867075714","0.09530810267","0.1684101418","","","","","","","","","","72","H","0","img/none_selected.jpg","","157","main_expt",""
"","bandit","237","1277756","0.0-199.0-0.0","29639470","wem/bandit_party_1","A6U2C66WQ7QQN","either","4","442","","","","","","","0","0","1","0.07455979893","","0.8","0.2","0.4","0.6","","","","","0.07455979893","0.2788639118","0.1211627972","0.1807688322","","","","","","","","","","72","H","0","img/none_selected.jpg","","158","main_expt",""
"","bandit","238","1279575","0.0-200.0-0.0","29639470","wem/bandit_party_1","A6U2C66WQ7QQN","either","4","291","","","","","","","0","0","1","","0.3020710819","0.8","0.2","0.4","0.6","0.1009372764","0.3020710819","0.1012897464","0.1516426412","","","","","","","","","","","","","","74","J","1","","","159","main_expt",""
"","bandit","239","1281118","0.0-201.0-0.0","29639470","wem/bandit_party_1","A6U2C66WQ7QQN","either","4","18","","","","","","","0","0","1","0.3404227007","","0.8","0.2","0.4","0.6","","","","","0.05118862797","0.3404227007","0.1188035868","0.1638698877","","","","","","","","","","74","J","1","","","160","main_expt",""
"","bandit","240","1282882","0.0-202.0-0.0","29639470","wem/bandit_party_1","A6U2C66WQ7QQN","either","4","239","","","","","","","1","0","0","0.2876249865","","0.8","0.2","0.4","0.6","","","","","0.05265847637","0.2876249865","0.1606836622","0.1645359983","","","","","","","","","","74","J","1","","","161","main_expt",""
"","bandit","241","1284685","0.0-203.0-0.0","29639470","wem/bandit_party_1","A6U2C66WQ7QQN","either","4","276","","","","","","","0","0","1","","0.2401308511","0.8","0.2","0.4","0.6","0.07938684611","0.2401308511","0.1859884171","0.2509918509","","","","","","","","","","","","","","74","J","1","","","162","main_expt",""
"","bandit","242","1286385","0.0-204.0-0.0","29639470","wem/bandit_party_1","A6U2C66WQ7QQN","either","4","173","","","","","","","0","0","1","","0.2486605046","0.8","0.2","0.4","0.6","0.0970900163","0.2486605046","0.2528258464","0.1883685458","","","","","","","","","","","","","","74","J","1","","","163","main_expt",""
"","bandit","243","1287915","0.0-205.0-0.0","29639470","wem/bandit_party_1","A6U2C66WQ7QQN","either","4","3","","","","","","","0","0","1","","0.22675384","0.8","0.2","0.4","0.6","0.07401968201","0.22675384","0.2515292425","0.2179532334","","","","","","","","","","","","","","74","J","1","","","164","main_expt",""
"","bandit","244","1289740","0.0-206.0-0.0","29639470","wem/bandit_party_1","A6U2C66WQ7QQN","either","4","297","","","","","","","0","0","1","","0.2841151948","0.8","0.2","0.4","0.6","0.06633104104","0.2841151948","0.2068970429","0.2143704678","","","","","","","","","","","","","","74","J","1","","","165","main_expt",""
"","bandit","245","1291805","0.0-207.0-0.0","29639470","wem/bandit_party_1","A6U2C66WQ7QQN","either","4","529","","","","","","","0","0","1","","0.2842980464","0.8","0.2","0.4","0.6","0.05309652092","0.2842980464","0.1413778631","0.2175899085","","","","","","","","","","","","","","74","J","1","","","166","main_expt",""
"","bandit","246","1293630","0.0-208.0-0.0","29639470","wem/bandit_party_1","A6U2C66WQ7QQN","either","4","295","","","","","","","0","0","1","0.1999497975","","0.8","0.2","0.4","0.6","","","","","0.07357446968","0.3007590714","0.1999497975","0.2137120923","","","","","","","","","","75","K","2","","","167","main_expt",""
"","bandit","247","1295219","0.0-209.0-0.0","29639470","wem/bandit_party_1","A6U2C66WQ7QQN","either","4","59","","","","","","","1","0","0","0.1696145944","","0.8","0.2","0.4","0.6","","","","","0.1054325378","0.2884936601","0.1696145944","0.2331560811","","","","","","","","","","75","K","2","","","168","main_expt",""
"","bandit","248","1296995","0.0-210.0-0.0","29639470","wem/bandit_party_1","A6U2C66WQ7QQN","either","4","261","","","","","","","0","0","1","0.1338518967","","0.8","0.2","0.4","0.6","","","","","0.08536867429","0.2803439438","0.1338518967","0.2367963754","","","","","","","","","","75","K","2","","","169","main_expt",""
"","bandit","249","1298595","0.0-211.0-0.0","29639470","wem/bandit_party_1","A6U2C66WQ7QQN","either","4","71","","","","","","","0","0","1","","0.1307598277","0.8","0.2","0.4","0.6","0.1083432756","0.3010437192","0.1307598277","0.2378050175","","","","","","","","","","","","","","75","K","2","","","170","main_expt",""
"","bandit","250","1300398","0.0-212.0-0.0","29639470","wem/bandit_party_1","A6U2C66WQ7QQN","either","4","271","","","","","","","0","0","1","0.2253696972","","0.8","0.2","0.4","0.6","","","","","0.09185370626","0.3243802095","0.1200375331","0.2253696972","","","","","","","","","","76","L","3","","","171","main_expt",""
"","bandit","251","1301968","0.0-213.0-0.0","29639470","wem/bandit_party_1","A6U2C66WQ7QQN","either","4","39","","","","","","","0","0","1","","0.2903394368","0.8","0.2","0.4","0.6","0.09458096772","0.3140094691","0.07514546963","0.2903394368","","","","","","","","","","","","","","76","L","3","","","172","main_expt",""
"","bandit","252","1303518","0.0-214.0-0.0","29639470","wem/bandit_party_1","A6U2C66WQ7QQN","either","4","19","","","","","","","0","0","1","0.2384828248","","0.8","0.2","0.4","0.6","","","","","0.1016296913","0.2433770114","0.07704486673","0.2384828248","","","","","","","","","","76","L","3","","","173","main_expt",""
"","bandit","253","1305146","0.0-215.0-0.0","29639470","wem/bandit_party_1","A6U2C66WQ7QQN","either","4","96","","","","","","","0","0","1","0.117107939","","0.8","0.2","0.4","0.6","","","","","0.117107939","0.2080779891","0.04061738922","0.2823111034","","","","","","","","","","72","H","0","img/none_selected.jpg","","174","main_expt",""
"","bandit","254","1307278","0.0-216.0-0.0","29639470","wem/bandit_party_1","A6U2C66WQ7QQN","either","4","602","","","","","","","0","0","1","0.1254773658","","0.8","0.2","0.4","0.6","","","","","0.1254773658","0.2211365803","0.02968316822","0.292147578","","","","","","","","","","72","H","0","img/none_selected.jpg","","175","main_expt",""
"","bandit","255","1309062","0.0-217.0-0.0","29639470","wem/bandit_party_1","A6U2C66WQ7QQN","either","4","255","","","","","","","0","0","1","0.1518856622","","0.8","0.2","0.4","0.6","","","","","0.1518856622","0.231280906","0.04419366322","0.2928295457","","","","","","","","","","72","H","0","img/none_selected.jpg","","176","main_expt",""
"","bandit","256","1310657","0.0-218.0-0.0","29639470","wem/bandit_party_1","A6U2C66WQ7QQN","either","4","60","","","","","","","0","0","1","","0.1689881391","0.8","0.2","0.4","0.6","0.1502483312","0.1689881391","0.04140429262","0.297241693","","","","","","","","","","","","","","74","J","1","","","177","main_expt",""
"","bandit","257","1312548","0.0-219.0-0.0","29639470","wem/bandit_party_1","A6U2C66WQ7QQN","either","4","357","","","","","","","0","1","0","","0.1699404395","0.8","0.2","0.4","0.6","0.2073149786","0.1699404395","0.06103489621","0.276241128","","","","","","","","","","","","","","74","J","1","","","178","main_expt",""
"","bandit","258","1314724","0.0-220.0-0.0","29639470","wem/bandit_party_1","A6U2C66WQ7QQN","either","4","662","","","","","","","0","0","1","","0.1571972967","0.8","0.2","0.4","0.6","0.1928578162","0.1571972967","0.053608248","0.2405339857","","","","","","","","","","","","","","74","J","1","","","179","main_expt",""
"","bandit","259","1317672","0.0-221.0-0.0","29639470","wem/bandit_party_1","A6U2C66WQ7QQN","either","4","1422","","","","","","","0","0","1","","0.1567782565","0.8","0.2","0.4","0.6","0.1412953234","0.1567782565","0.06289379635","0.233428307","","","","","","","","","","","","","","74","J","1","","","180","main_expt",""
"","bandit","260","1319295","0.0-222.0-0.0","29639470","wem/bandit_party_1","A6U2C66WQ7QQN","either","4","90","","","","","","","0","0","1","","0.1492691696","0.8","0.2","0.4","0.6","0.1258774719","0.1492691696","0.07748386732","0.1459310114","","","","","","","","","","","","","","74","J","1","","","181","main_expt",""
"","bandit","261","1320838","0.0-223.0-0.0","29639470","wem/bandit_party_1","A6U2C66WQ7QQN","either","4","27","","","","","","","0","0","1","","0.1609613705","0.8","0.2","0.4","0.6","0.1121960069","0.1609613705","0.096714051","0.1796360657","","","","","","","","","","","","","","74","J","1","","","182","main_expt",""
"","bandit","262","1322817","0.0-224.0-0.0","29639470","wem/bandit_party_1","A6U2C66WQ7QQN","either","4","450","","","","","","","0","1","0","","0.1982891881","0.8","0.2","0.4","0.6","0.08335286121","0.1982891881","0.05351369794","0.1907874973","","","","","","","","","","","","","","74","J","1","","","183","main_expt",""
"","bandit","263","1324725","0.0-225.0-0.0","29639470","wem/bandit_party_1","A6U2C66WQ7QQN","either","4","380","","","","","","","0","0","1","","0.1703318442","0.8","0.2","0.4","0.6","0.1085923678","0.1703318442","0.08854511538","0.1451627339","","","","","","","","","","","","","","74","J","1","","","184","main_expt",""
"","bandit","264","1326513","0.0-226.0-0.0","29639470","wem/bandit_party_1","A6U2C66WQ7QQN","either","4","256","","","","","","","0","0","1","","0.09566746086","0.8","0.2","0.4","0.6","0.1113654269","0.09566746086","0.136385666","0.1692531577","","","","","","","","","","","","","","74","J","1","","","185","main_expt",""
"","bandit","265","1344271","0.0-227.0-0.0","29639470","wem/bandit_party_1","A6U2C66WQ7QQN","either","4","16242","","","","","","","0","0","1","","0.1254261761","0.8","0.2","0.4","0.6","0.1383531569","0.1254261761","0.1848043888","0.1885113298","","","","","","","","","","","","","","74","J","1","","","186","main_expt",""
"","bandit","266","1346011","0.0-228.0-0.0","29639470","wem/bandit_party_1","A6U2C66WQ7QQN","either","4","199","","","","","","","0","0","1","0.1081798115","","0.8","0.2","0.4","0.6","","","","","0.1739713275","0.1081798115","0.1640989128","0.2088125345","","","","","","","","","","74","J","1","","","187","main_expt",""
"","bandit","267","1347795","0.0-229.0-0.0","29639470","wem/bandit_party_1","A6U2C66WQ7QQN","either","4","256","","","","","","","0","0","1","","0.08529062399","0.8","0.2","0.4","0.6","0.1926366302","0.08529062399","0.1301402021","0.2228369986","","","","","","","","","","","","","","74","J","1","","","188","main_expt",""
"","bandit","268","1349484","0.0-230.0-0.0","29639470","wem/bandit_party_1","A6U2C66WQ7QQN","either","4","156","","","","","","","0","0","1","0.07250281893","","0.8","0.2","0.4","0.6","","","","","0.2499935398","0.07250281893","0.1980942663","0.2567428292","","","","","","","","","","74","J","1","","","189","main_expt",""
"","bandit","269","1351185","0.0-231.0-0.0","29639470","wem/bandit_party_1","A6U2C66WQ7QQN","either","4","169","","","","","","","0","1","0","","0.07895395147","0.8","0.2","0.4","0.6","0.2367317824","0.07895395147","0.1842725295","0.3177850294","","","","","","","","","","","","","","74","J","1","","","190","main_expt",""
"","bandit","270","1353094","0.0-232.0-0.0","29639470","wem/bandit_party_1","A6U2C66WQ7QQN","either","4","389","","","","","","","0","0","1","0.06204701637","","0.8","0.2","0.4","0.6","","","","","0.2515026666","0.06204701637","0.2087081259","0.2876912335","","","","","","","","","","74","J","1","","","191","main_expt",""
"","bandit","271","1354736","0.0-233.0-0.0","29639470","wem/bandit_party_1","A6U2C66WQ7QQN","either","4","109","","","","","","","0","0","1","","0.064067899","0.8","0.2","0.4","0.6","0.2451916405","0.064067899","0.1800110976","0.2383873749","","","","","","","","","","","","","","74","J","1","","","192","main_expt",""
"","bandit","272","1356657","0.0-234.0-0.0","29639470","wem/bandit_party_1","A6U2C66WQ7QQN","either","4","411","","","","","","","0","0","1","","0.1286650472","0.8","0.2","0.4","0.6","0.2353451433","0.1286650472","0.1519186298","0.24690957","","","","","","","","","","","","","","74","J","1","","","193","main_expt",""
"","bandit","273","1358372","0.0-235.0-0.0","29639470","wem/bandit_party_1","A6U2C66WQ7QQN","either","4","205","","","","","","","0","0","1","0.1746490116","","0.8","0.2","0.4","0.6","","","","","0.307075739","0.1746490116","0.1431656489","0.2728455101","","","","","","","","","","74","J","1","","","194","main_expt",""
"","bandit","274","1359960","0.0-236.0-0.0","29639470","wem/bandit_party_1","A6U2C66WQ7QQN","either","4","79","","","","","","","0","0","1","","0.129035247","0.8","0.2","0.4","0.6","0.3011001907","0.129035247","0.1868251083","0.2421292151","","","","","","","","","","","","","","74","J","1","","","195","main_expt",""
"","bandit","275","1361501","0.0-237.0-0.0","29639470","wem/bandit_party_1","A6U2C66WQ7QQN","either","4","29","","","","","","","0","0","1","","0.09052040682","0.8","0.2","0.4","0.6","0.2861216794","0.09052040682","0.176624335","0.2598052724","","","","","","","","","","","","","","74","J","1","","","196","main_expt",""
"","bandit","276","1363253","0.0-238.0-0.0","29639470","wem/bandit_party_1","A6U2C66WQ7QQN","either","4","218","","","","","","","0","0","1","","0.08675464884","0.8","0.2","0.4","0.6","0.2121549007","0.08675464884","0.2383323772","0.2540930088","","","","","","","","","","","","","","74","J","1","","","197","main_expt",""
"","bandit","277","1364950","0.0-239.0-0.0","29639470","wem/bandit_party_1","A6U2C66WQ7QQN","either","4","166","","","","","","","0","0","1","","0.09429549835","0.8","0.2","0.4","0.6","0.260340052","0.09429549835","0.260618614","0.2460150375","","","","","","","","","","","","","","74","J","1","","","198","main_expt",""
"","bandit","278","1382232","0.0-240.0-0.0","29639470","wem/bandit_party_1","A6U2C66WQ7QQN","either","4","15769","","","","","","","0","0","1","","0.09303778716","0.8","0.2","0.4","0.6","0.3009562829","0.09303778716","0.2935067364","0.2217343644","","","","","","","","","","","","","","74","J","1","","","199","main_expt",""
"","bandit","279","1384011","0.0-241.0-0.0","29639470","wem/bandit_party_1","A6U2C66WQ7QQN","either","4","248","","","","","","","0","1","0","","0.362920627","0.8","0.2","0.4","0.6","0.3430896668","0.07354084322","0.362920627","0.2830302048","","","","","","","","","","","","","","75","K","2","","","200","main_expt",""
"","bandit","280","1385857","0.0-242.0-0.0","29639470","wem/bandit_party_1","A6U2C66WQ7QQN","either","4","314","","","","","","","0","0","1","","0.3119044903","0.8","0.2","0.4","0.6","0.2973668079","0.08115367452","0.3119044903","0.3175621279","","","","","","","","","","","","","","75","K","2","","","201","main_expt",""
"","bandit","281","1387612","0.0-243.0-0.0","29639470","wem/bandit_party_1","A6U2C66WQ7QQN","either","4","220","","","","","","","0","0","1","","0.3095695708","0.8","0.2","0.4","0.6","0.3219337599","0.0774842685","0.3095695708","0.3049471546","","","","","","","","","","","","","","75","K","2","","","202","main_expt",""
"","bandit","282","1389452","0.0-244.0-0.0","29639470","wem/bandit_party_1","A6U2C66WQ7QQN","either","4","308","","","","","","","0","0","1","","0.3005459379","0.8","0.2","0.4","0.6","0.3229991028","0.09704724367","0.3005459379","0.2975042969","","","","","","","","","","","","","","75","K","2","","","203","main_expt",""
"","bandit","283","1391244","0.0-245.0-0.0","29639470","wem/bandit_party_1","A6U2C66WQ7QQN","either","4","259","","","","","","","0","0","1","","0.3116824409","0.8","0.2","0.4","0.6","0.3077995671","0.1224111047","0.3116824409","0.2268457719","","","","","","","","","","","","","","75","K","2","","","204","main_expt",""
"","bandit","284","1392797","0.0-246.0-0.0","29639470","wem/bandit_party_1","A6U2C66WQ7QQN","either","4","25","","","","","","","1","0","0","0.3291635812","","0.8","0.2","0.4","0.6","","","","","0.3070199156","0.1627664319","0.3291635812","0.2582085449","","","","","","","","","","75","K","2","","","205","main_expt",""
"","bandit","285","1394399","0.0-247.0-0.0","29639470","wem/bandit_party_1","A6U2C66WQ7QQN","either","4","68","","","","","","","0","1","0","","0.4008790519","0.8","0.2","0.4","0.6","0.3109683939","0.1604236747","0.4008790519","0.2841247045","","","","","","","","","","","","","","75","K","2","","","206","main_expt",""
"","bandit","286","1396007","0.0-248.0-0.0","29639470","wem/bandit_party_1","A6U2C66WQ7QQN","either","4","74","","","","","","","0","1","0","","0.4202180382","0.8","0.2","0.4","0.6","0.2845075958","0.126388554","0.4202180382","0.3333225396","","","","","","","","","","","","","","75","K","2","","","207","main_expt",""
"","bandit","287","1397671","0.0-249.0-0.0","29639470","wem/bandit_party_1","A6U2C66WQ7QQN","either","4","130","","","","","","","0","1","0","","0.4168586074","0.8","0.2","0.4","0.6","0.2419557814","0.1602309633","0.4168586074","0.290219871","","","","","","","","","","","","","","75","K","2","","","208","main_expt",""
"","bandit","288","1399450","0.0-250.0-0.0","29639470","wem/bandit_party_1","A6U2C66WQ7QQN","either","4","245","","","","","","","0","0","1","","0.3949328033","0.8","0.2","0.4","0.6","0.2449545816","0.2009997365","0.3949328033","0.3426384504","","","","","","","","","","","","","","75","K","2","","","209","main_expt",""
"","bandit","289","1401129","0.0-251.0-0.0","29639470","wem/bandit_party_1","A6U2C66WQ7QQN","either","4","146","","","","","","","1","0","0","0.41782505","","0.8","0.2","0.4","0.6","","","","","0.2176860071","0.1997114924","0.41782505","0.2932754766","","","","","","","","","","75","K","2","","","210","main_expt",""
"","bandit","290","1403917","0.0-252.0-0.0","29639470","wem/bandit_party_1","A6U2C66WQ7QQN","either","4","1270","","","","","","","1","0","0","0.4377941382","","0.8","0.2","0.4","0.6","","","","","0.2460847292","0.2631807131","0.4377941382","0.2522206247","","","","","","","","","","75","K","2","","","211","main_expt",""
"","bandit","291","1405568","0.0-253.0-0.0","29639470","wem/bandit_party_1","A6U2C66WQ7QQN","either","4","138","","","","","","","0","0","1","","0.4619006446","0.8","0.2","0.4","0.6","0.2017704833","0.2008991105","0.4619006446","0.2323705111","","","","","","","","","","","","","","75","K","2","","","212","main_expt",""
"","bandit","292","1407113","0.0-254.0-0.0","29639470","wem/bandit_party_1","A6U2C66WQ7QQN","either","4","11","","","","","","","1","0","0","0.4508737721","","0.8","0.2","0.4","0.6","","","","","0.1891715169","0.1656487101","0.4508737721","0.2815580385","","","","","","","","","","75","K","2","","","213","main_expt",""
"","bandit","293","1418854","0.0-255.0-0.0","29639470","wem/bandit_party_1","A6U2C66WQ7QQN","either","4","10213","","","","","","","1","0","0","0.4639731149","","0.8","0.2","0.4","0.6","","","","","0.1819308411","0.213788386","0.4639731149","0.2955812139","","","","","","","","","","75","K","2","","","214","main_expt",""
"","bandit","294","1420388","0.0-256.0-0.0","29639470","wem/bandit_party_1","A6U2C66WQ7QQN","either","4","20","","","","","","","0","1","0","","0.4690757113","0.8","0.2","0.4","0.6","0.1406935411","0.2206736926","0.4690757113","0.2988647484","","","","","","","","","","","","","","75","K","2","","","215","main_expt",""
"","bandit","295","1422090","0.0-257.0-0.0","29639470","wem/bandit_party_1","A6U2C66WQ7QQN","either","4","163","","","","","","","0","0","1","","0.4685680314","0.8","0.2","0.4","0.6","0.206739756","0.2270120675","0.4685680314","0.3361974059","","","","","","","","","","","","","","75","K","2","","","216","main_expt",""
"","bandit","296","1423970","0.0-258.0-0.0","29639470","wem/bandit_party_1","A6U2C66WQ7QQN","either","4","367","","","","","","","0","1","0","","0.4873952874","0.8","0.2","0.4","0.6","0.178624692","0.2561581829","0.4873952874","0.2764506131","","","","","","","","","","","","","","75","K","2","","","217","main_expt",""
"","bandit","297","1425875","0.0-259.0-0.0","29639470","wem/bandit_party_1","A6U2C66WQ7QQN","either","4","372","","","","","","","0","1","0","","0.4790671899","0.8","0.2","0.4","0.6","0.2021641755","0.2785758431","0.4790671899","0.299893698","","","","","","","","","","","","","","75","K","2","","","218","main_expt",""
"","bandit","298","1427750","0.0-260.0-0.0","29639470","wem/bandit_party_1","A6U2C66WQ7QQN","either","4","341","","","","","","","0","0","1","","0.4769795117","0.8","0.2","0.4","0.6","0.2076996705","0.2707863597","0.4769795117","0.3213687962","","","","","","","","","","","","","","75","K","2","","","219","main_expt",""
"","bandit","299","1429658","0.0-261.0-0.0","29639470","wem/bandit_party_1","A6U2C66WQ7QQN","either","4","375","","","","","","","0","0","1","","0.4746148145","0.8","0.2","0.4","0.6","0.2479045362","0.2262269101","0.4746148145","0.3782095139","","","","","","","","","","","","","","75","K","2","","","220","main_expt",""
"","bandit","300","1431607","0.0-262.0-0.0","29639470","wem/bandit_party_1","A6U2C66WQ7QQN","either","4","411","","","","","","","0","0","1","","0.4789253058","0.8","0.2","0.4","0.6","0.251163546","0.2522421151","0.4789253058","0.3572699546","","","","","","","","","","","","","","75","K","2","","","221","main_expt",""
"","bandit","301","1461570","0.0-263.0-0.0","29639470","wem/bandit_party_1","A6U2C66WQ7QQN","either","4","28420","","","","","","","0","1","0","","0.4765400837","0.8","0.2","0.4","0.6","0.2653622565","0.2323100388","0.4765400837","0.332217079","","","","","","","","","","","","","","75","K","2","","","222","main_expt",""
"","bandit","302","1463648","0.0-264.0-0.0","29639470","wem/bandit_party_1","A6U2C66WQ7QQN","either","4","565","","","","","","","0","1","0","","0.4872993944","0.8","0.2","0.4","0.6","0.2034578964","0.2013525365","0.4872993944","0.3327789551","","","","","","","","","","","","","","75","K","2","","","223","main_expt",""
"","bandit","303","1465506","0.0-265.0-0.0","29639470","wem/bandit_party_1","A6U2C66WQ7QQN","either","4","323","","","","","","","1","0","0","0.4864577786","","0.8","0.2","0.4","0.6","","","","","0.1176985371","0.2017363432","0.4864577786","0.3720138676","","","","","","","","","","75","K","2","","","224","main_expt",""
"","bandit","304","1467367","0.0-266.0-0.0","29639470","wem/bandit_party_1","A6U2C66WQ7QQN","either","4","324","","","","","","","1","0","0","0.4815865163","","0.8","0.2","0.4","0.6","","","","","0.08531446518","0.1608447522","0.4815865163","0.4035982493","","","","","","","","","","75","K","2","","","225","main_expt",""
"","bandit","305","1469260","0.0-267.0-0.0","29639470","wem/bandit_party_1","A6U2C66WQ7QQN","either","4","359","","","","","","","0","1","0","","0.4781941344","0.8","0.2","0.4","0.6","0.0901010045","0.2023183299","0.4781941344","0.3538577565","","","","","","","","","","","","","","75","K","2","","","226","main_expt",""
"","bandit","306","1471197","0.0-268.0-0.0","29639470","wem/bandit_party_1","A6U2C66WQ7QQN","either","4","424","","","","","","","0","1","0","","0.4742279627","0.8","0.2","0.4","0.6","0.06499555022","0.1555458008","0.4742279627","0.4205879778","","","","","","","","","","","","","","75","K","2","","","227","main_expt",""
"","bandit","307","1473067","0.0-269.0-0.0","29639470","wem/bandit_party_1","A6U2C66WQ7QQN","either","4","355","","","","","","","0","0","1","","0.4597327255","0.8","0.2","0.4","0.6","0.06967502077","0.1210896773","0.4597327255","0.4082381823","","","","","","","","","","","","","","75","K","2","","","228","main_expt",""
"","bandit","308","1474955","0.0-270.0-0.0","29639470","wem/bandit_party_1","A6U2C66WQ7QQN","either","4","376","","","","","","","0","0","1","0.4733003713","","0.8","0.2","0.4","0.6","","","","","0.07642173418","0.1206830913","0.4733003713","0.4274963613","","","","","","","","","","75","K","2","","","229","main_expt",""
"","bandit","309","1476706","0.0-271.0-0.0","29639470","wem/bandit_party_1","A6U2C66WQ7QQN","either","4","238","","","","","","","0","1","0","","0.4832022084","0.8","0.2","0.4","0.6","0.04973788902","0.1334008039","0.4832022084","0.4362488765","","","","","","","","","","","","","","75","K","2","","","230","main_expt",""
"","bandit","310","1478700","0.0-272.0-0.0","29639470","wem/bandit_party_1","A6U2C66WQ7QQN","either","4","479","","","","","","","1","0","0","0.4802630573","","0.8","0.2","0.4","0.6","","","","","0.07419495466","0.1048467088","0.4802630573","0.4420629534","","","","","","","","","","75","K","2","","","231","main_expt",""
"","bandit","311","1492405","0.0-273.0-0.0","29639470","wem/bandit_party_1","A6U2C66WQ7QQN","either","4","12189","","","","","","","0","1","0","","0.4739318499","0.8","0.2","0.4","0.6","0.08125260149","0.1184002818","0.4739318499","0.4287414635","","","","","","","","","","","","","","75","K","2","","","232","main_expt",""
"","bandit","312","1494365","0.0-274.0-0.0","29639470","wem/bandit_party_1","A6U2C66WQ7QQN","either","4","424","","","","","","","0","1","0","","0.4709765286","0.8","0.2","0.4","0.6","0.06057073796","0.08533064469","0.4709765286","0.4395511981","","","","","","","","","","","","","","75","K","2","","","233","main_expt",""
"","bandit","313","1496031","0.0-275.0-0.0","29639470","wem/bandit_party_1","A6U2C66WQ7QQN","either","4","129","","","","","","","0","1","0","","0.4658145356","0.8","0.2","0.4","0.6","0.1037411708","0.1190123434","0.4658145356","0.4479240545","","","","","","","","","","","","","","75","K","2","","","234","main_expt",""
"","bandit","314","1497846","0.0-276.0-0.0","29639470","wem/bandit_party_1","A6U2C66WQ7QQN","either","4","282","","","","","","","1","0","0","0.4312508187","","0.8","0.2","0.4","0.6","","","","","0.1267441937","0.1392024459","0.4312508187","0.4476644646","","","","","","","","","","75","K","2","","","235","main_expt",""
"","bandit","315","1499680","0.0-277.0-0.0","29639470","wem/bandit_party_1","A6U2C66WQ7QQN","either","4","297","","","","","","","0","1","0","","0.4323277229","0.8","0.2","0.4","0.6","0.1002206095","0.1076242464","0.4323277229","0.457106966","","","","","","","","","","","","","","75","K","2","","","236","main_expt",""
"","bandit","316","1501545","0.0-278.0-0.0","29639470","wem/bandit_party_1","A6U2C66WQ7QQN","either","4","329","","","","","","","0","0","1","0.4517679415","","0.8","0.2","0.4","0.6","","","","","0.08353940566","0.1539911713","0.4517679415","0.4097288684","","","","","","","","","","75","K","2","","","237","main_expt",""
"","bandit","317","1503093","0.0-279.0-0.0","29639470","wem/bandit_party_1","A6U2C66WQ7QQN","either","4","13","","","","","","","0","0","1","0.4476427196","","0.8","0.2","0.4","0.6","","","","","0.07847158511","0.1833253983","0.4476427196","0.4530646831","","","","","","","","","","75","K","2","","","238","main_expt",""
"","bandit","318","1504858","0.0-280.0-0.0","29639470","wem/bandit_party_1","A6U2C66WQ7QQN","either","4","228","","","","","","","0","0","1","","0.4421551546","0.8","0.2","0.4","0.6","0.1132310855","0.185515968","0.4421551546","0.4532148127","","","","","","","","","","","","","","75","K","2","","","239","main_expt",""
